startup.started,startup.stopped,Prolific ID*,date,expName,psychopyVersion,OS,frameRate,participant,study_id,session,stimpositions.started,stimpositions.stopped,hardcoded_stimulus_positions.thisRepN,hardcoded_stimulus_positions.thisTrialN,hardcoded_stimulus_positions.thisN,hardcoded_stimulus_positions.thisIndex,hardcoded_stimulus_positions.ran,StimulusPos,stimorientation.started,stimorientation.stopped,prac_stimorientation_import_loop.thisRepN,prac_stimorientation_import_loop.thisTrialN,prac_stimorientation_import_loop.thisN,prac_stimorientation_import_loop.thisIndex,prac_stimorientation_import_loop.ran,Stimorientation,welcome_instr.started,welcome_instr.stopped,key_resp.keys,key_resp.rt,key_resp.duration,response_steppedout_1.started,response_steppedout_1.stopped,key_resp_20.keys,key_resp_20.rt,key_resp_20.duration,response_steppedout_2.started,response_steppedout_2.stopped,key_resp_19.keys,key_resp_19.rt,key_resp_19.duration,stim_response_instr.started,stim_response_instr.stopped,key_resp_15.keys,key_resp_15.rt,key_resp_15.duration,direction_instr_2.started,direction_instr_2.stopped,key_resp_9.keys,key_resp_9.rt,key_resp_9.duration,instr_prac.started,instr_prac.stopped,key_resp_10.keys,key_resp_10.rt,key_resp_10.duration,Stim1_display_prac.started,Stim1_display_prac.stopped,Ecc,Circle1_ori,Circle2_ori,response_prac.started,similarity,response_time,response_prac.stopped,mouse_5.x,mouse_5.y,mouse_5.leftButton,mouse_5.midButton,mouse_5.rightButton,mouse_5.clicked_name,responseprac_feedback.started,responseprac_feedback.stopped,summary2_prac.started,summary2_prac.stopped,mouse_6.x,mouse_6.y,mouse_6.leftButton,mouse_6.midButton,mouse_6.rightButton,mouse_6.clicked_name,duringprac.thisRepN,duringprac.thisTrialN,duringprac.thisN,duringprac.thisIndex,duringprac.ran,begin.started,begin.stopped,key_resp_22.keys,key_resp_22.rt,key_resp_22.duration,Stim1_display.started,Stim1_display.stopped,circle1_ori,circle2_ori,circle1_SF,circle2_SF,response.started,response.stopped,mouse.x,mouse.y,mouse.leftButton,mouse.midButton,mouse.rightButton,mouse.clicked_name,trialnumber,double_pass.thisRepN,double_pass.thisTrialN,double_pass.thisN,double_pass.thisIndex,double_pass.ran,double_pass.order,main_trial.thisRepN,main_trial.thisTrialN,main_trial.thisN,main_trial.thisIndex,main_trial.ran,main_trial.order,Trial_Counter,Catch,Frequencies,response_2.started,response_2.stopped,mouse_2.x,mouse_2.y,mouse_2.leftButton,mouse_2.midButton,mouse_2.rightButton,mouse_2.clicked_name,special_trial.started,special_trial.stopped,catch_1.started,catch_1.stopped,mouse_3.x,mouse_3.y,mouse_3.leftButton,mouse_3.midButton,mouse_3.rightButton,catchresponse,catchnumber,response_time_catch,response_sum.started,response_sum.stopped,mouse_11.x,mouse_11.y,mouse_11.leftButton,mouse_11.midButton,mouse_11.rightButton,flip_presentation_sequence_for_double_pass.started,flip_presentation_sequence_for_double_pass.stopped,goodbye.started,goodbye.stopped,key_resp_3.keys,key_resp_3.rt,key_resp_3.duration
0.0003,0.0005,65ba73523f2c96712bafc391,2024-02-21_21h15.33.013,kallum_motion_pilot,2023.2.2,Win32,59.88023952,65ba73523f2c96712bafc391,65d6bb0e977760de756971f7,65d6bc38058bccc373aa7925,,,,,,,,,,,,,,,,,,,,,,,,,,,,,,,,,,,,,,,,,,,,,,,,,,,,,,,,,,,,,,,,,,,,,,,,,,,,,,,,,,,,,,,,,,,,,,,,,,,,,,,,,,,,,,,,,,,,,,,,,,,,,,,,,,,,,,,,,,,,,,,,,
,,65ba73523f2c96712bafc391,2024-02-21_21h15.33.013,kallum_motion_pilot,2023.2.2,Win32,59.88023952,65ba73523f2c96712bafc391,65d6bb0e977760de756971f7,65d6bc38058bccc373aa7925,0.0493,0.0497,0,0,0,100,1,sevenfive,,,,,,,,,,,,,,,,,,,,,,,,,,,,,,,,,,,,,,,,,,,,,,,,,,,,,,,,,,,,,,,,,,,,,,,,,,,,,,,,,,,,,,,,,,,,,,,,,,,,,,,,,,,,,,,,,,,,,,,,,,,,,,,,,,,,,,,,,
,,65ba73523f2c96712bafc391,2024-02-21_21h15.33.013,kallum_motion_pilot,2023.2.2,Win32,59.88023952,65ba73523f2c96712bafc391,65d6bb0e977760de756971f7,65d6bc38058bccc373aa7925,0.0501,0.0502,0,1,1,114,1,sixfive,,,,,,,,,,,,,,,,,,,,,,,,,,,,,,,,,,,,,,,,,,,,,,,,,,,,,,,,,,,,,,,,,,,,,,,,,,,,,,,,,,,,,,,,,,,,,,,,,,,,,,,,,,,,,,,,,,,,,,,,,,,,,,,,,,,,,,,,,
,,65ba73523f2c96712bafc391,2024-02-21_21h15.33.013,kallum_motion_pilot,2023.2.2,Win32,59.88023952,65ba73523f2c96712bafc391,65d6bb0e977760de756971f7,65d6bc38058bccc373aa7925,0.0504,0.0505,0,2,2,50,1,twoone,,,,,,,,,,,,,,,,,,,,,,,,,,,,,,,,,,,,,,,,,,,,,,,,,,,,,,,,,,,,,,,,,,,,,,,,,,,,,,,,,,,,,,,,,,,,,,,,,,,,,,,,,,,,,,,,,,,,,,,,,,,,,,,,,,,,,,,,,
,,65ba73523f2c96712bafc391,2024-02-21_21h15.33.013,kallum_motion_pilot,2023.2.2,Win32,59.88023952,65ba73523f2c96712bafc391,65d6bb0e977760de756971f7,65d6bc38058bccc373aa7925,0.0508,0.0508,0,3,3,78,1,fourtwo,,,,,,,,,,,,,,,,,,,,,,,,,,,,,,,,,,,,,,,,,,,,,,,,,,,,,,,,,,,,,,,,,,,,,,,,,,,,,,,,,,,,,,,,,,,,,,,,,,,,,,,,,,,,,,,,,,,,,,,,,,,,,,,,,,,,,,,,,
,,65ba73523f2c96712bafc391,2024-02-21_21h15.33.013,kallum_motion_pilot,2023.2.2,Win32,59.88023952,65ba73523f2c96712bafc391,65d6bb0e977760de756971f7,65d6bc38058bccc373aa7925,0.051,0.0511,0,4,4,96,1,fivesix,,,,,,,,,,,,,,,,,,,,,,,,,,,,,,,,,,,,,,,,,,,,,,,,,,,,,,,,,,,,,,,,,,,,,,,,,,,,,,,,,,,,,,,,,,,,,,,,,,,,,,,,,,,,,,,,,,,,,,,,,,,,,,,,,,,,,,,,,
,,65ba73523f2c96712bafc391,2024-02-21_21h15.33.013,kallum_motion_pilot,2023.2.2,Win32,59.88023952,65ba73523f2c96712bafc391,65d6bb0e977760de756971f7,65d6bc38058bccc373aa7925,0.0513,0.0513,0,5,5,141,1,seveneight,,,,,,,,,,,,,,,,,,,,,,,,,,,,,,,,,,,,,,,,,,,,,,,,,,,,,,,,,,,,,,,,,,,,,,,,,,,,,,,,,,,,,,,,,,,,,,,,,,,,,,,,,,,,,,,,,,,,,,,,,,,,,,,,,,,,,,,,,
,,65ba73523f2c96712bafc391,2024-02-21_21h15.33.013,kallum_motion_pilot,2023.2.2,Win32,59.88023952,65ba73523f2c96712bafc391,65d6bb0e977760de756971f7,65d6bc38058bccc373aa7925,0.0515,0.0516,0,6,6,126,1,eightsix,,,,,,,,,,,,,,,,,,,,,,,,,,,,,,,,,,,,,,,,,,,,,,,,,,,,,,,,,,,,,,,,,,,,,,,,,,,,,,,,,,,,,,,,,,,,,,,,,,,,,,,,,,,,,,,,,,,,,,,,,,,,,,,,,,,,,,,,,
,,65ba73523f2c96712bafc391,2024-02-21_21h15.33.013,kallum_motion_pilot,2023.2.2,Win32,59.88023952,65ba73523f2c96712bafc391,65d6bb0e977760de756971f7,65d6bc38058bccc373aa7925,0.0518,0.0518,0,7,7,25,1,onethree,,,,,,,,,,,,,,,,,,,,,,,,,,,,,,,,,,,,,,,,,,,,,,,,,,,,,,,,,,,,,,,,,,,,,,,,,,,,,,,,,,,,,,,,,,,,,,,,,,,,,,,,,,,,,,,,,,,,,,,,,,,,,,,,,,,,,,,,,
,,65ba73523f2c96712bafc391,2024-02-21_21h15.33.013,kallum_motion_pilot,2023.2.2,Win32,59.88023952,65ba73523f2c96712bafc391,65d6bb0e977760de756971f7,65d6bc38058bccc373aa7925,0.0521,0.0521,0,8,8,98,1,sixfive,,,,,,,,,,,,,,,,,,,,,,,,,,,,,,,,,,,,,,,,,,,,,,,,,,,,,,,,,,,,,,,,,,,,,,,,,,,,,,,,,,,,,,,,,,,,,,,,,,,,,,,,,,,,,,,,,,,,,,,,,,,,,,,,,,,,,,,,,
,,65ba73523f2c96712bafc391,2024-02-21_21h15.33.013,kallum_motion_pilot,2023.2.2,Win32,59.88023952,65ba73523f2c96712bafc391,65d6bb0e977760de756971f7,65d6bc38058bccc373aa7925,0.0524,0.0525,0,9,9,21,1,threefour,,,,,,,,,,,,,,,,,,,,,,,,,,,,,,,,,,,,,,,,,,,,,,,,,,,,,,,,,,,,,,,,,,,,,,,,,,,,,,,,,,,,,,,,,,,,,,,,,,,,,,,,,,,,,,,,,,,,,,,,,,,,,,,,,,,,,,,,,
,,65ba73523f2c96712bafc391,2024-02-21_21h15.33.013,kallum_motion_pilot,2023.2.2,Win32,59.88023952,65ba73523f2c96712bafc391,65d6bb0e977760de756971f7,65d6bc38058bccc373aa7925,0.0527,0.0528,0,10,10,13,1,threefour,,,,,,,,,,,,,,,,,,,,,,,,,,,,,,,,,,,,,,,,,,,,,,,,,,,,,,,,,,,,,,,,,,,,,,,,,,,,,,,,,,,,,,,,,,,,,,,,,,,,,,,,,,,,,,,,,,,,,,,,,,,,,,,,,,,,,,,,,
,,65ba73523f2c96712bafc391,2024-02-21_21h15.33.013,kallum_motion_pilot,2023.2.2,Win32,59.88023952,65ba73523f2c96712bafc391,65d6bb0e977760de756971f7,65d6bc38058bccc373aa7925,0.053,0.053,0,11,11,120,1,fivesix,,,,,,,,,,,,,,,,,,,,,,,,,,,,,,,,,,,,,,,,,,,,,,,,,,,,,,,,,,,,,,,,,,,,,,,,,,,,,,,,,,,,,,,,,,,,,,,,,,,,,,,,,,,,,,,,,,,,,,,,,,,,,,,,,,,,,,,,,
,,65ba73523f2c96712bafc391,2024-02-21_21h15.33.013,kallum_motion_pilot,2023.2.2,Win32,59.88023952,65ba73523f2c96712bafc391,65d6bb0e977760de756971f7,65d6bc38058bccc373aa7925,0.0531,0.0531,0,12,12,37,1,threefour,,,,,,,,,,,,,,,,,,,,,,,,,,,,,,,,,,,,,,,,,,,,,,,,,,,,,,,,,,,,,,,,,,,,,,,,,,,,,,,,,,,,,,,,,,,,,,,,,,,,,,,,,,,,,,,,,,,,,,,,,,,,,,,,,,,,,,,,,
,,65ba73523f2c96712bafc391,2024-02-21_21h15.33.013,kallum_motion_pilot,2023.2.2,Win32,59.88023952,65ba73523f2c96712bafc391,65d6bb0e977760de756971f7,65d6bc38058bccc373aa7925,0.0534,0.0534,0,13,13,106,1,sixfive,,,,,,,,,,,,,,,,,,,,,,,,,,,,,,,,,,,,,,,,,,,,,,,,,,,,,,,,,,,,,,,,,,,,,,,,,,,,,,,,,,,,,,,,,,,,,,,,,,,,,,,,,,,,,,,,,,,,,,,,,,,,,,,,,,,,,,,,,
,,65ba73523f2c96712bafc391,2024-02-21_21h15.33.013,kallum_motion_pilot,2023.2.2,Win32,59.88023952,65ba73523f2c96712bafc391,65d6bb0e977760de756971f7,65d6bc38058bccc373aa7925,0.0535,0.0536,0,14,14,147,1,sixeight,,,,,,,,,,,,,,,,,,,,,,,,,,,,,,,,,,,,,,,,,,,,,,,,,,,,,,,,,,,,,,,,,,,,,,,,,,,,,,,,,,,,,,,,,,,,,,,,,,,,,,,,,,,,,,,,,,,,,,,,,,,,,,,,,,,,,,,,,
,,65ba73523f2c96712bafc391,2024-02-21_21h15.33.013,kallum_motion_pilot,2023.2.2,Win32,59.88023952,65ba73523f2c96712bafc391,65d6bb0e977760de756971f7,65d6bc38058bccc373aa7925,0.0537,0.0539,0,15,15,148,1,sevenfive,,,,,,,,,,,,,,,,,,,,,,,,,,,,,,,,,,,,,,,,,,,,,,,,,,,,,,,,,,,,,,,,,,,,,,,,,,,,,,,,,,,,,,,,,,,,,,,,,,,,,,,,,,,,,,,,,,,,,,,,,,,,,,,,,,,,,,,,,
,,65ba73523f2c96712bafc391,2024-02-21_21h15.33.013,kallum_motion_pilot,2023.2.2,Win32,59.88023952,65ba73523f2c96712bafc391,65d6bb0e977760de756971f7,65d6bc38058bccc373aa7925,0.0539,0.054,0,16,16,51,1,twofour,,,,,,,,,,,,,,,,,,,,,,,,,,,,,,,,,,,,,,,,,,,,,,,,,,,,,,,,,,,,,,,,,,,,,,,,,,,,,,,,,,,,,,,,,,,,,,,,,,,,,,,,,,,,,,,,,,,,,,,,,,,,,,,,,,,,,,,,,
,,65ba73523f2c96712bafc391,2024-02-21_21h15.33.013,kallum_motion_pilot,2023.2.2,Win32,59.88023952,65ba73523f2c96712bafc391,65d6bb0e977760de756971f7,65d6bc38058bccc373aa7925,0.0542,0.0548,0,17,17,83,1,sixeight,,,,,,,,,,,,,,,,,,,,,,,,,,,,,,,,,,,,,,,,,,,,,,,,,,,,,,,,,,,,,,,,,,,,,,,,,,,,,,,,,,,,,,,,,,,,,,,,,,,,,,,,,,,,,,,,,,,,,,,,,,,,,,,,,,,,,,,,,
,,65ba73523f2c96712bafc391,2024-02-21_21h15.33.013,kallum_motion_pilot,2023.2.2,Win32,59.88023952,65ba73523f2c96712bafc391,65d6bb0e977760de756971f7,65d6bc38058bccc373aa7925,0.0555,0.0557,0,18,18,69,1,threefour,,,,,,,,,,,,,,,,,,,,,,,,,,,,,,,,,,,,,,,,,,,,,,,,,,,,,,,,,,,,,,,,,,,,,,,,,,,,,,,,,,,,,,,,,,,,,,,,,,,,,,,,,,,,,,,,,,,,,,,,,,,,,,,,,,,,,,,,,
,,65ba73523f2c96712bafc391,2024-02-21_21h15.33.013,kallum_motion_pilot,2023.2.2,Win32,59.88023952,65ba73523f2c96712bafc391,65d6bb0e977760de756971f7,65d6bc38058bccc373aa7925,0.0563,0.0564,0,19,19,125,1,seveneight,,,,,,,,,,,,,,,,,,,,,,,,,,,,,,,,,,,,,,,,,,,,,,,,,,,,,,,,,,,,,,,,,,,,,,,,,,,,,,,,,,,,,,,,,,,,,,,,,,,,,,,,,,,,,,,,,,,,,,,,,,,,,,,,,,,,,,,,,
,,65ba73523f2c96712bafc391,2024-02-21_21h15.33.013,kallum_motion_pilot,2023.2.2,Win32,59.88023952,65ba73523f2c96712bafc391,65d6bb0e977760de756971f7,65d6bc38058bccc373aa7925,0.0566,0.0567,0,20,20,39,1,fourthree,,,,,,,,,,,,,,,,,,,,,,,,,,,,,,,,,,,,,,,,,,,,,,,,,,,,,,,,,,,,,,,,,,,,,,,,,,,,,,,,,,,,,,,,,,,,,,,,,,,,,,,,,,,,,,,,,,,,,,,,,,,,,,,,,,,,,,,,,
,,65ba73523f2c96712bafc391,2024-02-21_21h15.33.013,kallum_motion_pilot,2023.2.2,Win32,59.88023952,65ba73523f2c96712bafc391,65d6bb0e977760de756971f7,65d6bc38058bccc373aa7925,0.057,0.057,0,21,21,63,1,fourthree,,,,,,,,,,,,,,,,,,,,,,,,,,,,,,,,,,,,,,,,,,,,,,,,,,,,,,,,,,,,,,,,,,,,,,,,,,,,,,,,,,,,,,,,,,,,,,,,,,,,,,,,,,,,,,,,,,,,,,,,,,,,,,,,,,,,,,,,,
,,65ba73523f2c96712bafc391,2024-02-21_21h15.33.013,kallum_motion_pilot,2023.2.2,Win32,59.88023952,65ba73523f2c96712bafc391,65d6bb0e977760de756971f7,65d6bc38058bccc373aa7925,0.0573,0.0573,0,22,22,144,1,fivesix,,,,,,,,,,,,,,,,,,,,,,,,,,,,,,,,,,,,,,,,,,,,,,,,,,,,,,,,,,,,,,,,,,,,,,,,,,,,,,,,,,,,,,,,,,,,,,,,,,,,,,,,,,,,,,,,,,,,,,,,,,,,,,,,,,,,,,,,,
,,65ba73523f2c96712bafc391,2024-02-21_21h15.33.013,kallum_motion_pilot,2023.2.2,Win32,59.88023952,65ba73523f2c96712bafc391,65d6bb0e977760de756971f7,65d6bc38058bccc373aa7925,0.0575,0.0577,0,23,23,158,1,eightsix,,,,,,,,,,,,,,,,,,,,,,,,,,,,,,,,,,,,,,,,,,,,,,,,,,,,,,,,,,,,,,,,,,,,,,,,,,,,,,,,,,,,,,,,,,,,,,,,,,,,,,,,,,,,,,,,,,,,,,,,,,,,,,,,,,,,,,,,,
,,65ba73523f2c96712bafc391,2024-02-21_21h15.33.013,kallum_motion_pilot,2023.2.2,Win32,59.88023952,65ba73523f2c96712bafc391,65d6bb0e977760de756971f7,65d6bc38058bccc373aa7925,0.0579,0.058,0,24,24,90,1,sixfive,,,,,,,,,,,,,,,,,,,,,,,,,,,,,,,,,,,,,,,,,,,,,,,,,,,,,,,,,,,,,,,,,,,,,,,,,,,,,,,,,,,,,,,,,,,,,,,,,,,,,,,,,,,,,,,,,,,,,,,,,,,,,,,,,,,,,,,,,
,,65ba73523f2c96712bafc391,2024-02-21_21h15.33.013,kallum_motion_pilot,2023.2.2,Win32,59.88023952,65ba73523f2c96712bafc391,65d6bb0e977760de756971f7,65d6bc38058bccc373aa7925,0.0582,0.0583,0,25,25,24,1,onetwo,,,,,,,,,,,,,,,,,,,,,,,,,,,,,,,,,,,,,,,,,,,,,,,,,,,,,,,,,,,,,,,,,,,,,,,,,,,,,,,,,,,,,,,,,,,,,,,,,,,,,,,,,,,,,,,,,,,,,,,,,,,,,,,,,,,,,,,,,
,,65ba73523f2c96712bafc391,2024-02-21_21h15.33.013,kallum_motion_pilot,2023.2.2,Win32,59.88023952,65ba73523f2c96712bafc391,65d6bb0e977760de756971f7,65d6bc38058bccc373aa7925,0.0585,0.0586,0,26,26,132,1,sevenfive,,,,,,,,,,,,,,,,,,,,,,,,,,,,,,,,,,,,,,,,,,,,,,,,,,,,,,,,,,,,,,,,,,,,,,,,,,,,,,,,,,,,,,,,,,,,,,,,,,,,,,,,,,,,,,,,,,,,,,,,,,,,,,,,,,,,,,,,,
,,65ba73523f2c96712bafc391,2024-02-21_21h15.33.013,kallum_motion_pilot,2023.2.2,Win32,59.88023952,65ba73523f2c96712bafc391,65d6bb0e977760de756971f7,65d6bc38058bccc373aa7925,0.0589,0.0589,0,27,27,65,1,onethree,,,,,,,,,,,,,,,,,,,,,,,,,,,,,,,,,,,,,,,,,,,,,,,,,,,,,,,,,,,,,,,,,,,,,,,,,,,,,,,,,,,,,,,,,,,,,,,,,,,,,,,,,,,,,,,,,,,,,,,,,,,,,,,,,,,,,,,,,
,,65ba73523f2c96712bafc391,2024-02-21_21h15.33.013,kallum_motion_pilot,2023.2.2,Win32,59.88023952,65ba73523f2c96712bafc391,65d6bb0e977760de756971f7,65d6bc38058bccc373aa7925,0.059,0.0591,0,28,28,54,1,fourtwo,,,,,,,,,,,,,,,,,,,,,,,,,,,,,,,,,,,,,,,,,,,,,,,,,,,,,,,,,,,,,,,,,,,,,,,,,,,,,,,,,,,,,,,,,,,,,,,,,,,,,,,,,,,,,,,,,,,,,,,,,,,,,,,,,,,,,,,,,
,,65ba73523f2c96712bafc391,2024-02-21_21h15.33.013,kallum_motion_pilot,2023.2.2,Win32,59.88023952,65ba73523f2c96712bafc391,65d6bb0e977760de756971f7,65d6bc38058bccc373aa7925,0.0592,0.0594,0,29,29,94,1,eightsix,,,,,,,,,,,,,,,,,,,,,,,,,,,,,,,,,,,,,,,,,,,,,,,,,,,,,,,,,,,,,,,,,,,,,,,,,,,,,,,,,,,,,,,,,,,,,,,,,,,,,,,,,,,,,,,,,,,,,,,,,,,,,,,,,,,,,,,,,
,,65ba73523f2c96712bafc391,2024-02-21_21h15.33.013,kallum_motion_pilot,2023.2.2,Win32,59.88023952,65ba73523f2c96712bafc391,65d6bb0e977760de756971f7,65d6bc38058bccc373aa7925,0.0596,0.0597,0,30,30,23,1,fourthree,,,,,,,,,,,,,,,,,,,,,,,,,,,,,,,,,,,,,,,,,,,,,,,,,,,,,,,,,,,,,,,,,,,,,,,,,,,,,,,,,,,,,,,,,,,,,,,,,,,,,,,,,,,,,,,,,,,,,,,,,,,,,,,,,,,,,,,,,
,,65ba73523f2c96712bafc391,2024-02-21_21h15.33.013,kallum_motion_pilot,2023.2.2,Win32,59.88023952,65ba73523f2c96712bafc391,65d6bb0e977760de756971f7,65d6bc38058bccc373aa7925,0.0598,0.0598,0,31,31,59,1,twofour,,,,,,,,,,,,,,,,,,,,,,,,,,,,,,,,,,,,,,,,,,,,,,,,,,,,,,,,,,,,,,,,,,,,,,,,,,,,,,,,,,,,,,,,,,,,,,,,,,,,,,,,,,,,,,,,,,,,,,,,,,,,,,,,,,,,,,,,,
,,65ba73523f2c96712bafc391,2024-02-21_21h15.33.013,kallum_motion_pilot,2023.2.2,Win32,59.88023952,65ba73523f2c96712bafc391,65d6bb0e977760de756971f7,65d6bc38058bccc373aa7925,0.0599,0.06,0,32,32,111,1,eightseven,,,,,,,,,,,,,,,,,,,,,,,,,,,,,,,,,,,,,,,,,,,,,,,,,,,,,,,,,,,,,,,,,,,,,,,,,,,,,,,,,,,,,,,,,,,,,,,,,,,,,,,,,,,,,,,,,,,,,,,,,,,,,,,,,,,,,,,,,
,,65ba73523f2c96712bafc391,2024-02-21_21h15.33.013,kallum_motion_pilot,2023.2.2,Win32,59.88023952,65ba73523f2c96712bafc391,65d6bb0e977760de756971f7,65d6bc38058bccc373aa7925,0.0601,0.0601,0,33,33,35,1,twofour,,,,,,,,,,,,,,,,,,,,,,,,,,,,,,,,,,,,,,,,,,,,,,,,,,,,,,,,,,,,,,,,,,,,,,,,,,,,,,,,,,,,,,,,,,,,,,,,,,,,,,,,,,,,,,,,,,,,,,,,,,,,,,,,,,,,,,,,,
,,65ba73523f2c96712bafc391,2024-02-21_21h15.33.013,kallum_motion_pilot,2023.2.2,Win32,59.88023952,65ba73523f2c96712bafc391,65d6bb0e977760de756971f7,65d6bc38058bccc373aa7925,0.0602,0.0603,0,34,34,3,1,twofour,,,,,,,,,,,,,,,,,,,,,,,,,,,,,,,,,,,,,,,,,,,,,,,,,,,,,,,,,,,,,,,,,,,,,,,,,,,,,,,,,,,,,,,,,,,,,,,,,,,,,,,,,,,,,,,,,,,,,,,,,,,,,,,,,,,,,,,,,
,,65ba73523f2c96712bafc391,2024-02-21_21h15.33.013,kallum_motion_pilot,2023.2.2,Win32,59.88023952,65ba73523f2c96712bafc391,65d6bb0e977760de756971f7,65d6bc38058bccc373aa7925,0.0604,0.0605,0,35,35,77,1,threefour,,,,,,,,,,,,,,,,,,,,,,,,,,,,,,,,,,,,,,,,,,,,,,,,,,,,,,,,,,,,,,,,,,,,,,,,,,,,,,,,,,,,,,,,,,,,,,,,,,,,,,,,,,,,,,,,,,,,,,,,,,,,,,,,,,,,,,,,,
,,65ba73523f2c96712bafc391,2024-02-21_21h15.33.013,kallum_motion_pilot,2023.2.2,Win32,59.88023952,65ba73523f2c96712bafc391,65d6bb0e977760de756971f7,65d6bc38058bccc373aa7925,0.0606,0.0607,0,36,36,58,1,twoone,,,,,,,,,,,,,,,,,,,,,,,,,,,,,,,,,,,,,,,,,,,,,,,,,,,,,,,,,,,,,,,,,,,,,,,,,,,,,,,,,,,,,,,,,,,,,,,,,,,,,,,,,,,,,,,,,,,,,,,,,,,,,,,,,,,,,,,,,
,,65ba73523f2c96712bafc391,2024-02-21_21h15.33.013,kallum_motion_pilot,2023.2.2,Win32,59.88023952,65ba73523f2c96712bafc391,65d6bb0e977760de756971f7,65d6bc38058bccc373aa7925,0.0608,0.061,0,37,37,149,1,seveneight,,,,,,,,,,,,,,,,,,,,,,,,,,,,,,,,,,,,,,,,,,,,,,,,,,,,,,,,,,,,,,,,,,,,,,,,,,,,,,,,,,,,,,,,,,,,,,,,,,,,,,,,,,,,,,,,,,,,,,,,,,,,,,,,,,,,,,,,,
,,65ba73523f2c96712bafc391,2024-02-21_21h15.33.013,kallum_motion_pilot,2023.2.2,Win32,59.88023952,65ba73523f2c96712bafc391,65d6bb0e977760de756971f7,65d6bc38058bccc373aa7925,0.0612,0.0613,0,38,38,74,1,twoone,,,,,,,,,,,,,,,,,,,,,,,,,,,,,,,,,,,,,,,,,,,,,,,,,,,,,,,,,,,,,,,,,,,,,,,,,,,,,,,,,,,,,,,,,,,,,,,,,,,,,,,,,,,,,,,,,,,,,,,,,,,,,,,,,,,,,,,,,
,,65ba73523f2c96712bafc391,2024-02-21_21h15.33.013,kallum_motion_pilot,2023.2.2,Win32,59.88023952,65ba73523f2c96712bafc391,65d6bb0e977760de756971f7,65d6bc38058bccc373aa7925,0.0614,0.0615,0,39,39,27,1,twofour,,,,,,,,,,,,,,,,,,,,,,,,,,,,,,,,,,,,,,,,,,,,,,,,,,,,,,,,,,,,,,,,,,,,,,,,,,,,,,,,,,,,,,,,,,,,,,,,,,,,,,,,,,,,,,,,,,,,,,,,,,,,,,,,,,,,,,,,,
,,65ba73523f2c96712bafc391,2024-02-21_21h15.33.013,kallum_motion_pilot,2023.2.2,Win32,59.88023952,65ba73523f2c96712bafc391,65d6bb0e977760de756971f7,65d6bc38058bccc373aa7925,0.0617,0.0617,0,40,40,49,1,onethree,,,,,,,,,,,,,,,,,,,,,,,,,,,,,,,,,,,,,,,,,,,,,,,,,,,,,,,,,,,,,,,,,,,,,,,,,,,,,,,,,,,,,,,,,,,,,,,,,,,,,,,,,,,,,,,,,,,,,,,,,,,,,,,,,,,,,,,,,
,,65ba73523f2c96712bafc391,2024-02-21_21h15.33.013,kallum_motion_pilot,2023.2.2,Win32,59.88023952,65ba73523f2c96712bafc391,65d6bb0e977760de756971f7,65d6bc38058bccc373aa7925,0.0619,0.062,0,41,41,153,1,fiveseven,,,,,,,,,,,,,,,,,,,,,,,,,,,,,,,,,,,,,,,,,,,,,,,,,,,,,,,,,,,,,,,,,,,,,,,,,,,,,,,,,,,,,,,,,,,,,,,,,,,,,,,,,,,,,,,,,,,,,,,,,,,,,,,,,,,,,,,,,
,,65ba73523f2c96712bafc391,2024-02-21_21h15.33.013,kallum_motion_pilot,2023.2.2,Win32,59.88023952,65ba73523f2c96712bafc391,65d6bb0e977760de756971f7,65d6bc38058bccc373aa7925,0.0622,0.0622,0,42,42,108,1,sevenfive,,,,,,,,,,,,,,,,,,,,,,,,,,,,,,,,,,,,,,,,,,,,,,,,,,,,,,,,,,,,,,,,,,,,,,,,,,,,,,,,,,,,,,,,,,,,,,,,,,,,,,,,,,,,,,,,,,,,,,,,,,,,,,,,,,,,,,,,,
,,65ba73523f2c96712bafc391,2024-02-21_21h15.33.013,kallum_motion_pilot,2023.2.2,Win32,59.88023952,65ba73523f2c96712bafc391,65d6bb0e977760de756971f7,65d6bc38058bccc373aa7925,0.0623,0.0624,0,43,43,62,1,fourtwo,,,,,,,,,,,,,,,,,,,,,,,,,,,,,,,,,,,,,,,,,,,,,,,,,,,,,,,,,,,,,,,,,,,,,,,,,,,,,,,,,,,,,,,,,,,,,,,,,,,,,,,,,,,,,,,,,,,,,,,,,,,,,,,,,,,,,,,,,
,,65ba73523f2c96712bafc391,2024-02-21_21h15.33.013,kallum_motion_pilot,2023.2.2,Win32,59.88023952,65ba73523f2c96712bafc391,65d6bb0e977760de756971f7,65d6bc38058bccc373aa7925,0.0625,0.0625,0,44,44,2,1,twoone,,,,,,,,,,,,,,,,,,,,,,,,,,,,,,,,,,,,,,,,,,,,,,,,,,,,,,,,,,,,,,,,,,,,,,,,,,,,,,,,,,,,,,,,,,,,,,,,,,,,,,,,,,,,,,,,,,,,,,,,,,,,,,,,,,,,,,,,,
,,65ba73523f2c96712bafc391,2024-02-21_21h15.33.013,kallum_motion_pilot,2023.2.2,Win32,59.88023952,65ba73523f2c96712bafc391,65d6bb0e977760de756971f7,65d6bc38058bccc373aa7925,0.0627,0.0628,0,45,45,18,1,twoone,,,,,,,,,,,,,,,,,,,,,,,,,,,,,,,,,,,,,,,,,,,,,,,,,,,,,,,,,,,,,,,,,,,,,,,,,,,,,,,,,,,,,,,,,,,,,,,,,,,,,,,,,,,,,,,,,,,,,,,,,,,,,,,,,,,,,,,,,
,,65ba73523f2c96712bafc391,2024-02-21_21h15.33.013,kallum_motion_pilot,2023.2.2,Win32,59.88023952,65ba73523f2c96712bafc391,65d6bb0e977760de756971f7,65d6bc38058bccc373aa7925,0.0628,0.063,0,46,46,64,1,onetwo,,,,,,,,,,,,,,,,,,,,,,,,,,,,,,,,,,,,,,,,,,,,,,,,,,,,,,,,,,,,,,,,,,,,,,,,,,,,,,,,,,,,,,,,,,,,,,,,,,,,,,,,,,,,,,,,,,,,,,,,,,,,,,,,,,,,,,,,,
,,65ba73523f2c96712bafc391,2024-02-21_21h15.33.013,kallum_motion_pilot,2023.2.2,Win32,59.88023952,65ba73523f2c96712bafc391,65d6bb0e977760de756971f7,65d6bc38058bccc373aa7925,0.063,0.0631,0,47,47,97,1,fiveseven,,,,,,,,,,,,,,,,,,,,,,,,,,,,,,,,,,,,,,,,,,,,,,,,,,,,,,,,,,,,,,,,,,,,,,,,,,,,,,,,,,,,,,,,,,,,,,,,,,,,,,,,,,,,,,,,,,,,,,,,,,,,,,,,,,,,,,,,,
,,65ba73523f2c96712bafc391,2024-02-21_21h15.33.013,kallum_motion_pilot,2023.2.2,Win32,59.88023952,65ba73523f2c96712bafc391,65d6bb0e977760de756971f7,65d6bc38058bccc373aa7925,0.0632,0.0632,0,48,48,61,1,threefour,,,,,,,,,,,,,,,,,,,,,,,,,,,,,,,,,,,,,,,,,,,,,,,,,,,,,,,,,,,,,,,,,,,,,,,,,,,,,,,,,,,,,,,,,,,,,,,,,,,,,,,,,,,,,,,,,,,,,,,,,,,,,,,,,,,,,,,,,
,,65ba73523f2c96712bafc391,2024-02-21_21h15.33.013,kallum_motion_pilot,2023.2.2,Win32,59.88023952,65ba73523f2c96712bafc391,65d6bb0e977760de756971f7,65d6bc38058bccc373aa7925,0.0635,0.0635,0,49,49,107,1,sixeight,,,,,,,,,,,,,,,,,,,,,,,,,,,,,,,,,,,,,,,,,,,,,,,,,,,,,,,,,,,,,,,,,,,,,,,,,,,,,,,,,,,,,,,,,,,,,,,,,,,,,,,,,,,,,,,,,,,,,,,,,,,,,,,,,,,,,,,,,
,,65ba73523f2c96712bafc391,2024-02-21_21h15.33.013,kallum_motion_pilot,2023.2.2,Win32,59.88023952,65ba73523f2c96712bafc391,65d6bb0e977760de756971f7,65d6bc38058bccc373aa7925,0.0636,0.0636,0,50,50,116,1,sevenfive,,,,,,,,,,,,,,,,,,,,,,,,,,,,,,,,,,,,,,,,,,,,,,,,,,,,,,,,,,,,,,,,,,,,,,,,,,,,,,,,,,,,,,,,,,,,,,,,,,,,,,,,,,,,,,,,,,,,,,,,,,,,,,,,,,,,,,,,,
,,65ba73523f2c96712bafc391,2024-02-21_21h15.33.013,kallum_motion_pilot,2023.2.2,Win32,59.88023952,65ba73523f2c96712bafc391,65d6bb0e977760de756971f7,65d6bc38058bccc373aa7925,0.0637,0.0638,0,51,51,76,1,threeone,,,,,,,,,,,,,,,,,,,,,,,,,,,,,,,,,,,,,,,,,,,,,,,,,,,,,,,,,,,,,,,,,,,,,,,,,,,,,,,,,,,,,,,,,,,,,,,,,,,,,,,,,,,,,,,,,,,,,,,,,,,,,,,,,,,,,,,,,
,,65ba73523f2c96712bafc391,2024-02-21_21h15.33.013,kallum_motion_pilot,2023.2.2,Win32,59.88023952,65ba73523f2c96712bafc391,65d6bb0e977760de756971f7,65d6bc38058bccc373aa7925,0.064,0.0641,0,52,52,140,1,sevenfive,,,,,,,,,,,,,,,,,,,,,,,,,,,,,,,,,,,,,,,,,,,,,,,,,,,,,,,,,,,,,,,,,,,,,,,,,,,,,,,,,,,,,,,,,,,,,,,,,,,,,,,,,,,,,,,,,,,,,,,,,,,,,,,,,,,,,,,,,
,,65ba73523f2c96712bafc391,2024-02-21_21h15.33.013,kallum_motion_pilot,2023.2.2,Win32,59.88023952,65ba73523f2c96712bafc391,65d6bb0e977760de756971f7,65d6bc38058bccc373aa7925,0.0643,0.0643,0,53,53,122,1,sixfive,,,,,,,,,,,,,,,,,,,,,,,,,,,,,,,,,,,,,,,,,,,,,,,,,,,,,,,,,,,,,,,,,,,,,,,,,,,,,,,,,,,,,,,,,,,,,,,,,,,,,,,,,,,,,,,,,,,,,,,,,,,,,,,,,,,,,,,,,
,,65ba73523f2c96712bafc391,2024-02-21_21h15.33.013,kallum_motion_pilot,2023.2.2,Win32,59.88023952,65ba73523f2c96712bafc391,65d6bb0e977760de756971f7,65d6bc38058bccc373aa7925,0.0644,0.0645,0,54,54,26,1,twoone,,,,,,,,,,,,,,,,,,,,,,,,,,,,,,,,,,,,,,,,,,,,,,,,,,,,,,,,,,,,,,,,,,,,,,,,,,,,,,,,,,,,,,,,,,,,,,,,,,,,,,,,,,,,,,,,,,,,,,,,,,,,,,,,,,,,,,,,,
,,65ba73523f2c96712bafc391,2024-02-21_21h15.33.013,kallum_motion_pilot,2023.2.2,Win32,59.88023952,65ba73523f2c96712bafc391,65d6bb0e977760de756971f7,65d6bc38058bccc373aa7925,0.0647,0.0648,0,55,55,6,1,fourtwo,,,,,,,,,,,,,,,,,,,,,,,,,,,,,,,,,,,,,,,,,,,,,,,,,,,,,,,,,,,,,,,,,,,,,,,,,,,,,,,,,,,,,,,,,,,,,,,,,,,,,,,,,,,,,,,,,,,,,,,,,,,,,,,,,,,,,,,,,
,,65ba73523f2c96712bafc391,2024-02-21_21h15.33.013,kallum_motion_pilot,2023.2.2,Win32,59.88023952,65ba73523f2c96712bafc391,65d6bb0e977760de756971f7,65d6bc38058bccc373aa7925,0.0659,0.066,0,56,56,1,1,onethree,,,,,,,,,,,,,,,,,,,,,,,,,,,,,,,,,,,,,,,,,,,,,,,,,,,,,,,,,,,,,,,,,,,,,,,,,,,,,,,,,,,,,,,,,,,,,,,,,,,,,,,,,,,,,,,,,,,,,,,,,,,,,,,,,,,,,,,,,
,,65ba73523f2c96712bafc391,2024-02-21_21h15.33.013,kallum_motion_pilot,2023.2.2,Win32,59.88023952,65ba73523f2c96712bafc391,65d6bb0e977760de756971f7,65d6bc38058bccc373aa7925,0.0662,0.0663,0,57,57,155,1,sixeight,,,,,,,,,,,,,,,,,,,,,,,,,,,,,,,,,,,,,,,,,,,,,,,,,,,,,,,,,,,,,,,,,,,,,,,,,,,,,,,,,,,,,,,,,,,,,,,,,,,,,,,,,,,,,,,,,,,,,,,,,,,,,,,,,,,,,,,,,
,,65ba73523f2c96712bafc391,2024-02-21_21h15.33.013,kallum_motion_pilot,2023.2.2,Win32,59.88023952,65ba73523f2c96712bafc391,65d6bb0e977760de756971f7,65d6bc38058bccc373aa7925,0.0665,0.0665,0,58,58,157,1,seveneight,,,,,,,,,,,,,,,,,,,,,,,,,,,,,,,,,,,,,,,,,,,,,,,,,,,,,,,,,,,,,,,,,,,,,,,,,,,,,,,,,,,,,,,,,,,,,,,,,,,,,,,,,,,,,,,,,,,,,,,,,,,,,,,,,,,,,,,,,
,,65ba73523f2c96712bafc391,2024-02-21_21h15.33.013,kallum_motion_pilot,2023.2.2,Win32,59.88023952,65ba73523f2c96712bafc391,65d6bb0e977760de756971f7,65d6bc38058bccc373aa7925,0.0667,0.0668,0,59,59,156,1,sevenfive,,,,,,,,,,,,,,,,,,,,,,,,,,,,,,,,,,,,,,,,,,,,,,,,,,,,,,,,,,,,,,,,,,,,,,,,,,,,,,,,,,,,,,,,,,,,,,,,,,,,,,,,,,,,,,,,,,,,,,,,,,,,,,,,,,,,,,,,,
,,65ba73523f2c96712bafc391,2024-02-21_21h15.33.013,kallum_motion_pilot,2023.2.2,Win32,59.88023952,65ba73523f2c96712bafc391,65d6bb0e977760de756971f7,65d6bc38058bccc373aa7925,0.0669,0.0671,0,60,60,161,1,fiveseven,,,,,,,,,,,,,,,,,,,,,,,,,,,,,,,,,,,,,,,,,,,,,,,,,,,,,,,,,,,,,,,,,,,,,,,,,,,,,,,,,,,,,,,,,,,,,,,,,,,,,,,,,,,,,,,,,,,,,,,,,,,,,,,,,,,,,,,,,
,,65ba73523f2c96712bafc391,2024-02-21_21h15.33.013,kallum_motion_pilot,2023.2.2,Win32,59.88023952,65ba73523f2c96712bafc391,65d6bb0e977760de756971f7,65d6bc38058bccc373aa7925,0.0673,0.0673,0,61,61,30,1,fourtwo,,,,,,,,,,,,,,,,,,,,,,,,,,,,,,,,,,,,,,,,,,,,,,,,,,,,,,,,,,,,,,,,,,,,,,,,,,,,,,,,,,,,,,,,,,,,,,,,,,,,,,,,,,,,,,,,,,,,,,,,,,,,,,,,,,,,,,,,,
,,65ba73523f2c96712bafc391,2024-02-21_21h15.33.013,kallum_motion_pilot,2023.2.2,Win32,59.88023952,65ba73523f2c96712bafc391,65d6bb0e977760de756971f7,65d6bc38058bccc373aa7925,0.0675,0.0675,0,62,62,7,1,fourthree,,,,,,,,,,,,,,,,,,,,,,,,,,,,,,,,,,,,,,,,,,,,,,,,,,,,,,,,,,,,,,,,,,,,,,,,,,,,,,,,,,,,,,,,,,,,,,,,,,,,,,,,,,,,,,,,,,,,,,,,,,,,,,,,,,,,,,,,,
,,65ba73523f2c96712bafc391,2024-02-21_21h15.33.013,kallum_motion_pilot,2023.2.2,Win32,59.88023952,65ba73523f2c96712bafc391,65d6bb0e977760de756971f7,65d6bc38058bccc373aa7925,0.0678,0.0679,0,63,63,124,1,sevenfive,,,,,,,,,,,,,,,,,,,,,,,,,,,,,,,,,,,,,,,,,,,,,,,,,,,,,,,,,,,,,,,,,,,,,,,,,,,,,,,,,,,,,,,,,,,,,,,,,,,,,,,,,,,,,,,,,,,,,,,,,,,,,,,,,,,,,,,,,
,,65ba73523f2c96712bafc391,2024-02-21_21h15.33.013,kallum_motion_pilot,2023.2.2,Win32,59.88023952,65ba73523f2c96712bafc391,65d6bb0e977760de756971f7,65d6bc38058bccc373aa7925,0.0681,0.0681,0,64,64,14,1,fourtwo,,,,,,,,,,,,,,,,,,,,,,,,,,,,,,,,,,,,,,,,,,,,,,,,,,,,,,,,,,,,,,,,,,,,,,,,,,,,,,,,,,,,,,,,,,,,,,,,,,,,,,,,,,,,,,,,,,,,,,,,,,,,,,,,,,,,,,,,,
,,65ba73523f2c96712bafc391,2024-02-21_21h15.33.013,kallum_motion_pilot,2023.2.2,Win32,59.88023952,65ba73523f2c96712bafc391,65d6bb0e977760de756971f7,65d6bc38058bccc373aa7925,0.0683,0.0684,0,65,65,19,1,twofour,,,,,,,,,,,,,,,,,,,,,,,,,,,,,,,,,,,,,,,,,,,,,,,,,,,,,,,,,,,,,,,,,,,,,,,,,,,,,,,,,,,,,,,,,,,,,,,,,,,,,,,,,,,,,,,,,,,,,,,,,,,,,,,,,,,,,,,,,
,,65ba73523f2c96712bafc391,2024-02-21_21h15.33.013,kallum_motion_pilot,2023.2.2,Win32,59.88023952,65ba73523f2c96712bafc391,65d6bb0e977760de756971f7,65d6bc38058bccc373aa7925,0.0686,0.0686,0,66,66,22,1,fourtwo,,,,,,,,,,,,,,,,,,,,,,,,,,,,,,,,,,,,,,,,,,,,,,,,,,,,,,,,,,,,,,,,,,,,,,,,,,,,,,,,,,,,,,,,,,,,,,,,,,,,,,,,,,,,,,,,,,,,,,,,,,,,,,,,,,,,,,,,,
,,65ba73523f2c96712bafc391,2024-02-21_21h15.33.013,kallum_motion_pilot,2023.2.2,Win32,59.88023952,65ba73523f2c96712bafc391,65d6bb0e977760de756971f7,65d6bc38058bccc373aa7925,0.0688,0.069,0,67,67,29,1,threefour,,,,,,,,,,,,,,,,,,,,,,,,,,,,,,,,,,,,,,,,,,,,,,,,,,,,,,,,,,,,,,,,,,,,,,,,,,,,,,,,,,,,,,,,,,,,,,,,,,,,,,,,,,,,,,,,,,,,,,,,,,,,,,,,,,,,,,,,,
,,65ba73523f2c96712bafc391,2024-02-21_21h15.33.013,kallum_motion_pilot,2023.2.2,Win32,59.88023952,65ba73523f2c96712bafc391,65d6bb0e977760de756971f7,65d6bc38058bccc373aa7925,0.0691,0.0692,0,68,68,44,1,threeone,,,,,,,,,,,,,,,,,,,,,,,,,,,,,,,,,,,,,,,,,,,,,,,,,,,,,,,,,,,,,,,,,,,,,,,,,,,,,,,,,,,,,,,,,,,,,,,,,,,,,,,,,,,,,,,,,,,,,,,,,,,,,,,,,,,,,,,,,
,,65ba73523f2c96712bafc391,2024-02-21_21h15.33.013,kallum_motion_pilot,2023.2.2,Win32,59.88023952,65ba73523f2c96712bafc391,65d6bb0e977760de756971f7,65d6bc38058bccc373aa7925,0.0693,0.0694,0,69,69,9,1,onethree,,,,,,,,,,,,,,,,,,,,,,,,,,,,,,,,,,,,,,,,,,,,,,,,,,,,,,,,,,,,,,,,,,,,,,,,,,,,,,,,,,,,,,,,,,,,,,,,,,,,,,,,,,,,,,,,,,,,,,,,,,,,,,,,,,,,,,,,,
,,65ba73523f2c96712bafc391,2024-02-21_21h15.33.013,kallum_motion_pilot,2023.2.2,Win32,59.88023952,65ba73523f2c96712bafc391,65d6bb0e977760de756971f7,65d6bc38058bccc373aa7925,0.0695,0.0696,0,70,70,113,1,fiveseven,,,,,,,,,,,,,,,,,,,,,,,,,,,,,,,,,,,,,,,,,,,,,,,,,,,,,,,,,,,,,,,,,,,,,,,,,,,,,,,,,,,,,,,,,,,,,,,,,,,,,,,,,,,,,,,,,,,,,,,,,,,,,,,,,,,,,,,,,
,,65ba73523f2c96712bafc391,2024-02-21_21h15.33.013,kallum_motion_pilot,2023.2.2,Win32,59.88023952,65ba73523f2c96712bafc391,65d6bb0e977760de756971f7,65d6bc38058bccc373aa7925,0.0697,0.0698,0,71,71,91,1,sixeight,,,,,,,,,,,,,,,,,,,,,,,,,,,,,,,,,,,,,,,,,,,,,,,,,,,,,,,,,,,,,,,,,,,,,,,,,,,,,,,,,,,,,,,,,,,,,,,,,,,,,,,,,,,,,,,,,,,,,,,,,,,,,,,,,,,,,,,,,
,,65ba73523f2c96712bafc391,2024-02-21_21h15.33.013,kallum_motion_pilot,2023.2.2,Win32,59.88023952,65ba73523f2c96712bafc391,65d6bb0e977760de756971f7,65d6bc38058bccc373aa7925,0.0699,0.0699,0,72,72,46,1,fourtwo,,,,,,,,,,,,,,,,,,,,,,,,,,,,,,,,,,,,,,,,,,,,,,,,,,,,,,,,,,,,,,,,,,,,,,,,,,,,,,,,,,,,,,,,,,,,,,,,,,,,,,,,,,,,,,,,,,,,,,,,,,,,,,,,,,,,,,,,,
,,65ba73523f2c96712bafc391,2024-02-21_21h15.33.013,kallum_motion_pilot,2023.2.2,Win32,59.88023952,65ba73523f2c96712bafc391,65d6bb0e977760de756971f7,65d6bc38058bccc373aa7925,0.07,0.0701,0,73,73,137,1,fiveseven,,,,,,,,,,,,,,,,,,,,,,,,,,,,,,,,,,,,,,,,,,,,,,,,,,,,,,,,,,,,,,,,,,,,,,,,,,,,,,,,,,,,,,,,,,,,,,,,,,,,,,,,,,,,,,,,,,,,,,,,,,,,,,,,,,,,,,,,,
,,65ba73523f2c96712bafc391,2024-02-21_21h15.33.013,kallum_motion_pilot,2023.2.2,Win32,59.88023952,65ba73523f2c96712bafc391,65d6bb0e977760de756971f7,65d6bc38058bccc373aa7925,0.0702,0.0702,0,74,74,0,1,onetwo,,,,,,,,,,,,,,,,,,,,,,,,,,,,,,,,,,,,,,,,,,,,,,,,,,,,,,,,,,,,,,,,,,,,,,,,,,,,,,,,,,,,,,,,,,,,,,,,,,,,,,,,,,,,,,,,,,,,,,,,,,,,,,,,,,,,,,,,,
,,65ba73523f2c96712bafc391,2024-02-21_21h15.33.013,kallum_motion_pilot,2023.2.2,Win32,59.88023952,65ba73523f2c96712bafc391,65d6bb0e977760de756971f7,65d6bc38058bccc373aa7925,0.0703,0.0704,0,75,75,88,1,fivesix,,,,,,,,,,,,,,,,,,,,,,,,,,,,,,,,,,,,,,,,,,,,,,,,,,,,,,,,,,,,,,,,,,,,,,,,,,,,,,,,,,,,,,,,,,,,,,,,,,,,,,,,,,,,,,,,,,,,,,,,,,,,,,,,,,,,,,,,,
,,65ba73523f2c96712bafc391,2024-02-21_21h15.33.013,kallum_motion_pilot,2023.2.2,Win32,59.88023952,65ba73523f2c96712bafc391,65d6bb0e977760de756971f7,65d6bc38058bccc373aa7925,0.0705,0.0705,0,76,76,101,1,seveneight,,,,,,,,,,,,,,,,,,,,,,,,,,,,,,,,,,,,,,,,,,,,,,,,,,,,,,,,,,,,,,,,,,,,,,,,,,,,,,,,,,,,,,,,,,,,,,,,,,,,,,,,,,,,,,,,,,,,,,,,,,,,,,,,,,,,,,,,,
,,65ba73523f2c96712bafc391,2024-02-21_21h15.33.013,kallum_motion_pilot,2023.2.2,Win32,59.88023952,65ba73523f2c96712bafc391,65d6bb0e977760de756971f7,65d6bc38058bccc373aa7925,0.0706,0.0707,0,77,77,95,1,eightseven,,,,,,,,,,,,,,,,,,,,,,,,,,,,,,,,,,,,,,,,,,,,,,,,,,,,,,,,,,,,,,,,,,,,,,,,,,,,,,,,,,,,,,,,,,,,,,,,,,,,,,,,,,,,,,,,,,,,,,,,,,,,,,,,,,,,,,,,,
,,65ba73523f2c96712bafc391,2024-02-21_21h15.33.013,kallum_motion_pilot,2023.2.2,Win32,59.88023952,65ba73523f2c96712bafc391,65d6bb0e977760de756971f7,65d6bc38058bccc373aa7925,0.0711,0.0712,0,78,78,92,1,sevenfive,,,,,,,,,,,,,,,,,,,,,,,,,,,,,,,,,,,,,,,,,,,,,,,,,,,,,,,,,,,,,,,,,,,,,,,,,,,,,,,,,,,,,,,,,,,,,,,,,,,,,,,,,,,,,,,,,,,,,,,,,,,,,,,,,,,,,,,,,
,,65ba73523f2c96712bafc391,2024-02-21_21h15.33.013,kallum_motion_pilot,2023.2.2,Win32,59.88023952,65ba73523f2c96712bafc391,65d6bb0e977760de756971f7,65d6bc38058bccc373aa7925,0.0714,0.0715,0,79,79,93,1,seveneight,,,,,,,,,,,,,,,,,,,,,,,,,,,,,,,,,,,,,,,,,,,,,,,,,,,,,,,,,,,,,,,,,,,,,,,,,,,,,,,,,,,,,,,,,,,,,,,,,,,,,,,,,,,,,,,,,,,,,,,,,,,,,,,,,,,,,,,,,
,,65ba73523f2c96712bafc391,2024-02-21_21h15.33.013,kallum_motion_pilot,2023.2.2,Win32,59.88023952,65ba73523f2c96712bafc391,65d6bb0e977760de756971f7,65d6bc38058bccc373aa7925,0.0718,0.072,0,80,80,80,1,fivesix,,,,,,,,,,,,,,,,,,,,,,,,,,,,,,,,,,,,,,,,,,,,,,,,,,,,,,,,,,,,,,,,,,,,,,,,,,,,,,,,,,,,,,,,,,,,,,,,,,,,,,,,,,,,,,,,,,,,,,,,,,,,,,,,,,,,,,,,,
,,65ba73523f2c96712bafc391,2024-02-21_21h15.33.013,kallum_motion_pilot,2023.2.2,Win32,59.88023952,65ba73523f2c96712bafc391,65d6bb0e977760de756971f7,65d6bc38058bccc373aa7925,0.0722,0.0723,0,81,81,47,1,fourthree,,,,,,,,,,,,,,,,,,,,,,,,,,,,,,,,,,,,,,,,,,,,,,,,,,,,,,,,,,,,,,,,,,,,,,,,,,,,,,,,,,,,,,,,,,,,,,,,,,,,,,,,,,,,,,,,,,,,,,,,,,,,,,,,,,,,,,,,,
,,65ba73523f2c96712bafc391,2024-02-21_21h15.33.013,kallum_motion_pilot,2023.2.2,Win32,59.88023952,65ba73523f2c96712bafc391,65d6bb0e977760de756971f7,65d6bc38058bccc373aa7925,0.0726,0.0727,0,82,82,16,1,onetwo,,,,,,,,,,,,,,,,,,,,,,,,,,,,,,,,,,,,,,,,,,,,,,,,,,,,,,,,,,,,,,,,,,,,,,,,,,,,,,,,,,,,,,,,,,,,,,,,,,,,,,,,,,,,,,,,,,,,,,,,,,,,,,,,,,,,,,,,,
,,65ba73523f2c96712bafc391,2024-02-21_21h15.33.013,kallum_motion_pilot,2023.2.2,Win32,59.88023952,65ba73523f2c96712bafc391,65d6bb0e977760de756971f7,65d6bc38058bccc373aa7925,0.073,0.0731,0,83,83,104,1,fivesix,,,,,,,,,,,,,,,,,,,,,,,,,,,,,,,,,,,,,,,,,,,,,,,,,,,,,,,,,,,,,,,,,,,,,,,,,,,,,,,,,,,,,,,,,,,,,,,,,,,,,,,,,,,,,,,,,,,,,,,,,,,,,,,,,,,,,,,,,
,,65ba73523f2c96712bafc391,2024-02-21_21h15.33.013,kallum_motion_pilot,2023.2.2,Win32,59.88023952,65ba73523f2c96712bafc391,65d6bb0e977760de756971f7,65d6bc38058bccc373aa7925,0.0733,0.0733,0,84,84,34,1,twoone,,,,,,,,,,,,,,,,,,,,,,,,,,,,,,,,,,,,,,,,,,,,,,,,,,,,,,,,,,,,,,,,,,,,,,,,,,,,,,,,,,,,,,,,,,,,,,,,,,,,,,,,,,,,,,,,,,,,,,,,,,,,,,,,,,,,,,,,,
,,65ba73523f2c96712bafc391,2024-02-21_21h15.33.013,kallum_motion_pilot,2023.2.2,Win32,59.88023952,65ba73523f2c96712bafc391,65d6bb0e977760de756971f7,65d6bc38058bccc373aa7925,0.0735,0.0736,0,85,85,119,1,eightseven,,,,,,,,,,,,,,,,,,,,,,,,,,,,,,,,,,,,,,,,,,,,,,,,,,,,,,,,,,,,,,,,,,,,,,,,,,,,,,,,,,,,,,,,,,,,,,,,,,,,,,,,,,,,,,,,,,,,,,,,,,,,,,,,,,,,,,,,,
,,65ba73523f2c96712bafc391,2024-02-21_21h15.33.013,kallum_motion_pilot,2023.2.2,Win32,59.88023952,65ba73523f2c96712bafc391,65d6bb0e977760de756971f7,65d6bc38058bccc373aa7925,0.0738,0.0739,0,86,86,28,1,threeone,,,,,,,,,,,,,,,,,,,,,,,,,,,,,,,,,,,,,,,,,,,,,,,,,,,,,,,,,,,,,,,,,,,,,,,,,,,,,,,,,,,,,,,,,,,,,,,,,,,,,,,,,,,,,,,,,,,,,,,,,,,,,,,,,,,,,,,,,
,,65ba73523f2c96712bafc391,2024-02-21_21h15.33.013,kallum_motion_pilot,2023.2.2,Win32,59.88023952,65ba73523f2c96712bafc391,65d6bb0e977760de756971f7,65d6bc38058bccc373aa7925,0.074,0.0741,0,87,87,136,1,fivesix,,,,,,,,,,,,,,,,,,,,,,,,,,,,,,,,,,,,,,,,,,,,,,,,,,,,,,,,,,,,,,,,,,,,,,,,,,,,,,,,,,,,,,,,,,,,,,,,,,,,,,,,,,,,,,,,,,,,,,,,,,,,,,,,,,,,,,,,,
,,65ba73523f2c96712bafc391,2024-02-21_21h15.33.013,kallum_motion_pilot,2023.2.2,Win32,59.88023952,65ba73523f2c96712bafc391,65d6bb0e977760de756971f7,65d6bc38058bccc373aa7925,0.0742,0.0743,0,88,88,8,1,onetwo,,,,,,,,,,,,,,,,,,,,,,,,,,,,,,,,,,,,,,,,,,,,,,,,,,,,,,,,,,,,,,,,,,,,,,,,,,,,,,,,,,,,,,,,,,,,,,,,,,,,,,,,,,,,,,,,,,,,,,,,,,,,,,,,,,,,,,,,,
,,65ba73523f2c96712bafc391,2024-02-21_21h15.33.013,kallum_motion_pilot,2023.2.2,Win32,59.88023952,65ba73523f2c96712bafc391,65d6bb0e977760de756971f7,65d6bc38058bccc373aa7925,0.0745,0.0746,0,89,89,79,1,eightseven,,,,,,,,,,,,,,,,,,,,,,,,,,,,,,,,,,,,,,,,,,,,,,,,,,,,,,,,,,,,,,,,,,,,,,,,,,,,,,,,,,,,,,,,,,,,,,,,,,,,,,,,,,,,,,,,,,,,,,,,,,,,,,,,,,,,,,,,,
,,65ba73523f2c96712bafc391,2024-02-21_21h15.33.013,kallum_motion_pilot,2023.2.2,Win32,59.88023952,65ba73523f2c96712bafc391,65d6bb0e977760de756971f7,65d6bc38058bccc373aa7925,0.0748,0.0749,0,90,90,72,1,onetwo,,,,,,,,,,,,,,,,,,,,,,,,,,,,,,,,,,,,,,,,,,,,,,,,,,,,,,,,,,,,,,,,,,,,,,,,,,,,,,,,,,,,,,,,,,,,,,,,,,,,,,,,,,,,,,,,,,,,,,,,,,,,,,,,,,,,,,,,,
,,65ba73523f2c96712bafc391,2024-02-21_21h15.33.013,kallum_motion_pilot,2023.2.2,Win32,59.88023952,65ba73523f2c96712bafc391,65d6bb0e977760de756971f7,65d6bc38058bccc373aa7925,0.0751,0.0751,0,91,91,68,1,threeone,,,,,,,,,,,,,,,,,,,,,,,,,,,,,,,,,,,,,,,,,,,,,,,,,,,,,,,,,,,,,,,,,,,,,,,,,,,,,,,,,,,,,,,,,,,,,,,,,,,,,,,,,,,,,,,,,,,,,,,,,,,,,,,,,,,,,,,,,
,,65ba73523f2c96712bafc391,2024-02-21_21h15.33.013,kallum_motion_pilot,2023.2.2,Win32,59.88023952,65ba73523f2c96712bafc391,65d6bb0e977760de756971f7,65d6bc38058bccc373aa7925,0.0753,0.0754,0,92,92,45,1,threefour,,,,,,,,,,,,,,,,,,,,,,,,,,,,,,,,,,,,,,,,,,,,,,,,,,,,,,,,,,,,,,,,,,,,,,,,,,,,,,,,,,,,,,,,,,,,,,,,,,,,,,,,,,,,,,,,,,,,,,,,,,,,,,,,,,,,,,,,,
,,65ba73523f2c96712bafc391,2024-02-21_21h15.33.013,kallum_motion_pilot,2023.2.2,Win32,59.88023952,65ba73523f2c96712bafc391,65d6bb0e977760de756971f7,65d6bc38058bccc373aa7925,0.0755,0.0755,0,93,93,57,1,onethree,,,,,,,,,,,,,,,,,,,,,,,,,,,,,,,,,,,,,,,,,,,,,,,,,,,,,,,,,,,,,,,,,,,,,,,,,,,,,,,,,,,,,,,,,,,,,,,,,,,,,,,,,,,,,,,,,,,,,,,,,,,,,,,,,,,,,,,,,
,,65ba73523f2c96712bafc391,2024-02-21_21h15.33.013,kallum_motion_pilot,2023.2.2,Win32,59.88023952,65ba73523f2c96712bafc391,65d6bb0e977760de756971f7,65d6bc38058bccc373aa7925,0.0757,0.0757,0,94,94,139,1,sixeight,,,,,,,,,,,,,,,,,,,,,,,,,,,,,,,,,,,,,,,,,,,,,,,,,,,,,,,,,,,,,,,,,,,,,,,,,,,,,,,,,,,,,,,,,,,,,,,,,,,,,,,,,,,,,,,,,,,,,,,,,,,,,,,,,,,,,,,,,
,,65ba73523f2c96712bafc391,2024-02-21_21h15.33.013,kallum_motion_pilot,2023.2.2,Win32,59.88023952,65ba73523f2c96712bafc391,65d6bb0e977760de756971f7,65d6bc38058bccc373aa7925,0.076,0.0761,0,95,95,17,1,onethree,,,,,,,,,,,,,,,,,,,,,,,,,,,,,,,,,,,,,,,,,,,,,,,,,,,,,,,,,,,,,,,,,,,,,,,,,,,,,,,,,,,,,,,,,,,,,,,,,,,,,,,,,,,,,,,,,,,,,,,,,,,,,,,,,,,,,,,,,
,,65ba73523f2c96712bafc391,2024-02-21_21h15.33.013,kallum_motion_pilot,2023.2.2,Win32,59.88023952,65ba73523f2c96712bafc391,65d6bb0e977760de756971f7,65d6bc38058bccc373aa7925,0.0763,0.0764,0,96,96,123,1,sixeight,,,,,,,,,,,,,,,,,,,,,,,,,,,,,,,,,,,,,,,,,,,,,,,,,,,,,,,,,,,,,,,,,,,,,,,,,,,,,,,,,,,,,,,,,,,,,,,,,,,,,,,,,,,,,,,,,,,,,,,,,,,,,,,,,,,,,,,,,
,,65ba73523f2c96712bafc391,2024-02-21_21h15.33.013,kallum_motion_pilot,2023.2.2,Win32,59.88023952,65ba73523f2c96712bafc391,65d6bb0e977760de756971f7,65d6bc38058bccc373aa7925,0.0766,0.0766,0,97,97,66,1,twoone,,,,,,,,,,,,,,,,,,,,,,,,,,,,,,,,,,,,,,,,,,,,,,,,,,,,,,,,,,,,,,,,,,,,,,,,,,,,,,,,,,,,,,,,,,,,,,,,,,,,,,,,,,,,,,,,,,,,,,,,,,,,,,,,,,,,,,,,,
,,65ba73523f2c96712bafc391,2024-02-21_21h15.33.013,kallum_motion_pilot,2023.2.2,Win32,59.88023952,65ba73523f2c96712bafc391,65d6bb0e977760de756971f7,65d6bc38058bccc373aa7925,0.0768,0.0769,0,98,98,142,1,eightsix,,,,,,,,,,,,,,,,,,,,,,,,,,,,,,,,,,,,,,,,,,,,,,,,,,,,,,,,,,,,,,,,,,,,,,,,,,,,,,,,,,,,,,,,,,,,,,,,,,,,,,,,,,,,,,,,,,,,,,,,,,,,,,,,,,,,,,,,,
,,65ba73523f2c96712bafc391,2024-02-21_21h15.33.013,kallum_motion_pilot,2023.2.2,Win32,59.88023952,65ba73523f2c96712bafc391,65d6bb0e977760de756971f7,65d6bc38058bccc373aa7925,0.077,0.0771,0,99,99,75,1,twofour,,,,,,,,,,,,,,,,,,,,,,,,,,,,,,,,,,,,,,,,,,,,,,,,,,,,,,,,,,,,,,,,,,,,,,,,,,,,,,,,,,,,,,,,,,,,,,,,,,,,,,,,,,,,,,,,,,,,,,,,,,,,,,,,,,,,,,,,,
,,65ba73523f2c96712bafc391,2024-02-21_21h15.33.013,kallum_motion_pilot,2023.2.2,Win32,59.88023952,65ba73523f2c96712bafc391,65d6bb0e977760de756971f7,65d6bc38058bccc373aa7925,0.0772,0.0773,0,100,100,130,1,sixfive,,,,,,,,,,,,,,,,,,,,,,,,,,,,,,,,,,,,,,,,,,,,,,,,,,,,,,,,,,,,,,,,,,,,,,,,,,,,,,,,,,,,,,,,,,,,,,,,,,,,,,,,,,,,,,,,,,,,,,,,,,,,,,,,,,,,,,,,,
,,65ba73523f2c96712bafc391,2024-02-21_21h15.33.013,kallum_motion_pilot,2023.2.2,Win32,59.88023952,65ba73523f2c96712bafc391,65d6bb0e977760de756971f7,65d6bc38058bccc373aa7925,0.0774,0.0774,0,101,101,60,1,threeone,,,,,,,,,,,,,,,,,,,,,,,,,,,,,,,,,,,,,,,,,,,,,,,,,,,,,,,,,,,,,,,,,,,,,,,,,,,,,,,,,,,,,,,,,,,,,,,,,,,,,,,,,,,,,,,,,,,,,,,,,,,,,,,,,,,,,,,,,
,,65ba73523f2c96712bafc391,2024-02-21_21h15.33.013,kallum_motion_pilot,2023.2.2,Win32,59.88023952,65ba73523f2c96712bafc391,65d6bb0e977760de756971f7,65d6bc38058bccc373aa7925,0.0776,0.0777,0,102,102,67,1,twofour,,,,,,,,,,,,,,,,,,,,,,,,,,,,,,,,,,,,,,,,,,,,,,,,,,,,,,,,,,,,,,,,,,,,,,,,,,,,,,,,,,,,,,,,,,,,,,,,,,,,,,,,,,,,,,,,,,,,,,,,,,,,,,,,,,,,,,,,,
,,65ba73523f2c96712bafc391,2024-02-21_21h15.33.013,kallum_motion_pilot,2023.2.2,Win32,59.88023952,65ba73523f2c96712bafc391,65d6bb0e977760de756971f7,65d6bc38058bccc373aa7925,0.0778,0.0779,0,103,103,33,1,onethree,,,,,,,,,,,,,,,,,,,,,,,,,,,,,,,,,,,,,,,,,,,,,,,,,,,,,,,,,,,,,,,,,,,,,,,,,,,,,,,,,,,,,,,,,,,,,,,,,,,,,,,,,,,,,,,,,,,,,,,,,,,,,,,,,,,,,,,,,
,,65ba73523f2c96712bafc391,2024-02-21_21h15.33.013,kallum_motion_pilot,2023.2.2,Win32,59.88023952,65ba73523f2c96712bafc391,65d6bb0e977760de756971f7,65d6bc38058bccc373aa7925,0.0779,0.078,0,104,104,131,1,sixeight,,,,,,,,,,,,,,,,,,,,,,,,,,,,,,,,,,,,,,,,,,,,,,,,,,,,,,,,,,,,,,,,,,,,,,,,,,,,,,,,,,,,,,,,,,,,,,,,,,,,,,,,,,,,,,,,,,,,,,,,,,,,,,,,,,,,,,,,,
,,65ba73523f2c96712bafc391,2024-02-21_21h15.33.013,kallum_motion_pilot,2023.2.2,Win32,59.88023952,65ba73523f2c96712bafc391,65d6bb0e977760de756971f7,65d6bc38058bccc373aa7925,0.0782,0.0783,0,105,105,143,1,eightseven,,,,,,,,,,,,,,,,,,,,,,,,,,,,,,,,,,,,,,,,,,,,,,,,,,,,,,,,,,,,,,,,,,,,,,,,,,,,,,,,,,,,,,,,,,,,,,,,,,,,,,,,,,,,,,,,,,,,,,,,,,,,,,,,,,,,,,,,,
,,65ba73523f2c96712bafc391,2024-02-21_21h15.33.013,kallum_motion_pilot,2023.2.2,Win32,59.88023952,65ba73523f2c96712bafc391,65d6bb0e977760de756971f7,65d6bc38058bccc373aa7925,0.0784,0.0784,0,106,106,103,1,eightseven,,,,,,,,,,,,,,,,,,,,,,,,,,,,,,,,,,,,,,,,,,,,,,,,,,,,,,,,,,,,,,,,,,,,,,,,,,,,,,,,,,,,,,,,,,,,,,,,,,,,,,,,,,,,,,,,,,,,,,,,,,,,,,,,,,,,,,,,,
,,65ba73523f2c96712bafc391,2024-02-21_21h15.33.013,kallum_motion_pilot,2023.2.2,Win32,59.88023952,65ba73523f2c96712bafc391,65d6bb0e977760de756971f7,65d6bc38058bccc373aa7925,0.0785,0.0787,0,107,107,12,1,threeone,,,,,,,,,,,,,,,,,,,,,,,,,,,,,,,,,,,,,,,,,,,,,,,,,,,,,,,,,,,,,,,,,,,,,,,,,,,,,,,,,,,,,,,,,,,,,,,,,,,,,,,,,,,,,,,,,,,,,,,,,,,,,,,,,,,,,,,,,
,,65ba73523f2c96712bafc391,2024-02-21_21h15.33.013,kallum_motion_pilot,2023.2.2,Win32,59.88023952,65ba73523f2c96712bafc391,65d6bb0e977760de756971f7,65d6bc38058bccc373aa7925,0.0788,0.0789,0,108,108,43,1,twofour,,,,,,,,,,,,,,,,,,,,,,,,,,,,,,,,,,,,,,,,,,,,,,,,,,,,,,,,,,,,,,,,,,,,,,,,,,,,,,,,,,,,,,,,,,,,,,,,,,,,,,,,,,,,,,,,,,,,,,,,,,,,,,,,,,,,,,,,,
,,65ba73523f2c96712bafc391,2024-02-21_21h15.33.013,kallum_motion_pilot,2023.2.2,Win32,59.88023952,65ba73523f2c96712bafc391,65d6bb0e977760de756971f7,65d6bc38058bccc373aa7925,0.079,0.079,0,109,109,55,1,fourthree,,,,,,,,,,,,,,,,,,,,,,,,,,,,,,,,,,,,,,,,,,,,,,,,,,,,,,,,,,,,,,,,,,,,,,,,,,,,,,,,,,,,,,,,,,,,,,,,,,,,,,,,,,,,,,,,,,,,,,,,,,,,,,,,,,,,,,,,,
,,65ba73523f2c96712bafc391,2024-02-21_21h15.33.013,kallum_motion_pilot,2023.2.2,Win32,59.88023952,65ba73523f2c96712bafc391,65d6bb0e977760de756971f7,65d6bc38058bccc373aa7925,0.0792,0.0793,0,110,110,85,1,seveneight,,,,,,,,,,,,,,,,,,,,,,,,,,,,,,,,,,,,,,,,,,,,,,,,,,,,,,,,,,,,,,,,,,,,,,,,,,,,,,,,,,,,,,,,,,,,,,,,,,,,,,,,,,,,,,,,,,,,,,,,,,,,,,,,,,,,,,,,,
,,65ba73523f2c96712bafc391,2024-02-21_21h15.33.013,kallum_motion_pilot,2023.2.2,Win32,59.88023952,65ba73523f2c96712bafc391,65d6bb0e977760de756971f7,65d6bc38058bccc373aa7925,0.0794,0.0795,0,111,111,38,1,fourtwo,,,,,,,,,,,,,,,,,,,,,,,,,,,,,,,,,,,,,,,,,,,,,,,,,,,,,,,,,,,,,,,,,,,,,,,,,,,,,,,,,,,,,,,,,,,,,,,,,,,,,,,,,,,,,,,,,,,,,,,,,,,,,,,,,,,,,,,,,
,,65ba73523f2c96712bafc391,2024-02-21_21h15.33.013,kallum_motion_pilot,2023.2.2,Win32,59.88023952,65ba73523f2c96712bafc391,65d6bb0e977760de756971f7,65d6bc38058bccc373aa7925,0.0797,0.0797,0,112,112,112,1,fivesix,,,,,,,,,,,,,,,,,,,,,,,,,,,,,,,,,,,,,,,,,,,,,,,,,,,,,,,,,,,,,,,,,,,,,,,,,,,,,,,,,,,,,,,,,,,,,,,,,,,,,,,,,,,,,,,,,,,,,,,,,,,,,,,,,,,,,,,,,
,,65ba73523f2c96712bafc391,2024-02-21_21h15.33.013,kallum_motion_pilot,2023.2.2,Win32,59.88023952,65ba73523f2c96712bafc391,65d6bb0e977760de756971f7,65d6bc38058bccc373aa7925,0.0799,0.0799,0,113,113,52,1,threeone,,,,,,,,,,,,,,,,,,,,,,,,,,,,,,,,,,,,,,,,,,,,,,,,,,,,,,,,,,,,,,,,,,,,,,,,,,,,,,,,,,,,,,,,,,,,,,,,,,,,,,,,,,,,,,,,,,,,,,,,,,,,,,,,,,,,,,,,,
,,65ba73523f2c96712bafc391,2024-02-21_21h15.33.013,kallum_motion_pilot,2023.2.2,Win32,59.88023952,65ba73523f2c96712bafc391,65d6bb0e977760de756971f7,65d6bc38058bccc373aa7925,0.0801,0.0802,0,114,114,138,1,sixfive,,,,,,,,,,,,,,,,,,,,,,,,,,,,,,,,,,,,,,,,,,,,,,,,,,,,,,,,,,,,,,,,,,,,,,,,,,,,,,,,,,,,,,,,,,,,,,,,,,,,,,,,,,,,,,,,,,,,,,,,,,,,,,,,,,,,,,,,,
,,65ba73523f2c96712bafc391,2024-02-21_21h15.33.013,kallum_motion_pilot,2023.2.2,Win32,59.88023952,65ba73523f2c96712bafc391,65d6bb0e977760de756971f7,65d6bc38058bccc373aa7925,0.0803,0.0804,0,115,115,89,1,fiveseven,,,,,,,,,,,,,,,,,,,,,,,,,,,,,,,,,,,,,,,,,,,,,,,,,,,,,,,,,,,,,,,,,,,,,,,,,,,,,,,,,,,,,,,,,,,,,,,,,,,,,,,,,,,,,,,,,,,,,,,,,,,,,,,,,,,,,,,,,
,,65ba73523f2c96712bafc391,2024-02-21_21h15.33.013,kallum_motion_pilot,2023.2.2,Win32,59.88023952,65ba73523f2c96712bafc391,65d6bb0e977760de756971f7,65d6bc38058bccc373aa7925,0.0805,0.0806,0,116,116,102,1,eightsix,,,,,,,,,,,,,,,,,,,,,,,,,,,,,,,,,,,,,,,,,,,,,,,,,,,,,,,,,,,,,,,,,,,,,,,,,,,,,,,,,,,,,,,,,,,,,,,,,,,,,,,,,,,,,,,,,,,,,,,,,,,,,,,,,,,,,,,,,
,,65ba73523f2c96712bafc391,2024-02-21_21h15.33.013,kallum_motion_pilot,2023.2.2,Win32,59.88023952,65ba73523f2c96712bafc391,65d6bb0e977760de756971f7,65d6bc38058bccc373aa7925,0.0807,0.0808,0,117,117,70,1,fourtwo,,,,,,,,,,,,,,,,,,,,,,,,,,,,,,,,,,,,,,,,,,,,,,,,,,,,,,,,,,,,,,,,,,,,,,,,,,,,,,,,,,,,,,,,,,,,,,,,,,,,,,,,,,,,,,,,,,,,,,,,,,,,,,,,,,,,,,,,,
,,65ba73523f2c96712bafc391,2024-02-21_21h15.33.013,kallum_motion_pilot,2023.2.2,Win32,59.88023952,65ba73523f2c96712bafc391,65d6bb0e977760de756971f7,65d6bc38058bccc373aa7925,0.0811,0.0811,0,118,118,135,1,eightseven,,,,,,,,,,,,,,,,,,,,,,,,,,,,,,,,,,,,,,,,,,,,,,,,,,,,,,,,,,,,,,,,,,,,,,,,,,,,,,,,,,,,,,,,,,,,,,,,,,,,,,,,,,,,,,,,,,,,,,,,,,,,,,,,,,,,,,,,,
,,65ba73523f2c96712bafc391,2024-02-21_21h15.33.013,kallum_motion_pilot,2023.2.2,Win32,59.88023952,65ba73523f2c96712bafc391,65d6bb0e977760de756971f7,65d6bc38058bccc373aa7925,0.0813,0.0814,0,119,119,42,1,twoone,,,,,,,,,,,,,,,,,,,,,,,,,,,,,,,,,,,,,,,,,,,,,,,,,,,,,,,,,,,,,,,,,,,,,,,,,,,,,,,,,,,,,,,,,,,,,,,,,,,,,,,,,,,,,,,,,,,,,,,,,,,,,,,,,,,,,,,,,
,,65ba73523f2c96712bafc391,2024-02-21_21h15.33.013,kallum_motion_pilot,2023.2.2,Win32,59.88023952,65ba73523f2c96712bafc391,65d6bb0e977760de756971f7,65d6bc38058bccc373aa7925,0.0815,0.0816,0,120,120,99,1,sixeight,,,,,,,,,,,,,,,,,,,,,,,,,,,,,,,,,,,,,,,,,,,,,,,,,,,,,,,,,,,,,,,,,,,,,,,,,,,,,,,,,,,,,,,,,,,,,,,,,,,,,,,,,,,,,,,,,,,,,,,,,,,,,,,,,,,,,,,,,
,,65ba73523f2c96712bafc391,2024-02-21_21h15.33.013,kallum_motion_pilot,2023.2.2,Win32,59.88023952,65ba73523f2c96712bafc391,65d6bb0e977760de756971f7,65d6bc38058bccc373aa7925,0.0817,0.0819,0,121,121,41,1,onethree,,,,,,,,,,,,,,,,,,,,,,,,,,,,,,,,,,,,,,,,,,,,,,,,,,,,,,,,,,,,,,,,,,,,,,,,,,,,,,,,,,,,,,,,,,,,,,,,,,,,,,,,,,,,,,,,,,,,,,,,,,,,,,,,,,,,,,,,,
,,65ba73523f2c96712bafc391,2024-02-21_21h15.33.013,kallum_motion_pilot,2023.2.2,Win32,59.88023952,65ba73523f2c96712bafc391,65d6bb0e977760de756971f7,65d6bc38058bccc373aa7925,0.0819,0.082,0,122,122,40,1,onetwo,,,,,,,,,,,,,,,,,,,,,,,,,,,,,,,,,,,,,,,,,,,,,,,,,,,,,,,,,,,,,,,,,,,,,,,,,,,,,,,,,,,,,,,,,,,,,,,,,,,,,,,,,,,,,,,,,,,,,,,,,,,,,,,,,,,,,,,,,
,,65ba73523f2c96712bafc391,2024-02-21_21h15.33.013,kallum_motion_pilot,2023.2.2,Win32,59.88023952,65ba73523f2c96712bafc391,65d6bb0e977760de756971f7,65d6bc38058bccc373aa7925,0.0823,0.0823,0,123,123,86,1,eightsix,,,,,,,,,,,,,,,,,,,,,,,,,,,,,,,,,,,,,,,,,,,,,,,,,,,,,,,,,,,,,,,,,,,,,,,,,,,,,,,,,,,,,,,,,,,,,,,,,,,,,,,,,,,,,,,,,,,,,,,,,,,,,,,,,,,,,,,,,
,,65ba73523f2c96712bafc391,2024-02-21_21h15.33.013,kallum_motion_pilot,2023.2.2,Win32,59.88023952,65ba73523f2c96712bafc391,65d6bb0e977760de756971f7,65d6bc38058bccc373aa7925,0.0825,0.0825,0,124,124,71,1,fourthree,,,,,,,,,,,,,,,,,,,,,,,,,,,,,,,,,,,,,,,,,,,,,,,,,,,,,,,,,,,,,,,,,,,,,,,,,,,,,,,,,,,,,,,,,,,,,,,,,,,,,,,,,,,,,,,,,,,,,,,,,,,,,,,,,,,,,,,,,
,,65ba73523f2c96712bafc391,2024-02-21_21h15.33.013,kallum_motion_pilot,2023.2.2,Win32,59.88023952,65ba73523f2c96712bafc391,65d6bb0e977760de756971f7,65d6bc38058bccc373aa7925,0.0827,0.0829,0,125,125,121,1,fiveseven,,,,,,,,,,,,,,,,,,,,,,,,,,,,,,,,,,,,,,,,,,,,,,,,,,,,,,,,,,,,,,,,,,,,,,,,,,,,,,,,,,,,,,,,,,,,,,,,,,,,,,,,,,,,,,,,,,,,,,,,,,,,,,,,,,,,,,,,,
,,65ba73523f2c96712bafc391,2024-02-21_21h15.33.013,kallum_motion_pilot,2023.2.2,Win32,59.88023952,65ba73523f2c96712bafc391,65d6bb0e977760de756971f7,65d6bc38058bccc373aa7925,0.083,0.0832,0,126,126,20,1,threeone,,,,,,,,,,,,,,,,,,,,,,,,,,,,,,,,,,,,,,,,,,,,,,,,,,,,,,,,,,,,,,,,,,,,,,,,,,,,,,,,,,,,,,,,,,,,,,,,,,,,,,,,,,,,,,,,,,,,,,,,,,,,,,,,,,,,,,,,,
,,65ba73523f2c96712bafc391,2024-02-21_21h15.33.013,kallum_motion_pilot,2023.2.2,Win32,59.88023952,65ba73523f2c96712bafc391,65d6bb0e977760de756971f7,65d6bc38058bccc373aa7925,0.0832,0.0833,0,127,127,159,1,eightseven,,,,,,,,,,,,,,,,,,,,,,,,,,,,,,,,,,,,,,,,,,,,,,,,,,,,,,,,,,,,,,,,,,,,,,,,,,,,,,,,,,,,,,,,,,,,,,,,,,,,,,,,,,,,,,,,,,,,,,,,,,,,,,,,,,,,,,,,,
,,65ba73523f2c96712bafc391,2024-02-21_21h15.33.013,kallum_motion_pilot,2023.2.2,Win32,59.88023952,65ba73523f2c96712bafc391,65d6bb0e977760de756971f7,65d6bc38058bccc373aa7925,0.0834,0.0834,0,128,128,129,1,fiveseven,,,,,,,,,,,,,,,,,,,,,,,,,,,,,,,,,,,,,,,,,,,,,,,,,,,,,,,,,,,,,,,,,,,,,,,,,,,,,,,,,,,,,,,,,,,,,,,,,,,,,,,,,,,,,,,,,,,,,,,,,,,,,,,,,,,,,,,,,
,,65ba73523f2c96712bafc391,2024-02-21_21h15.33.013,kallum_motion_pilot,2023.2.2,Win32,59.88023952,65ba73523f2c96712bafc391,65d6bb0e977760de756971f7,65d6bc38058bccc373aa7925,0.0835,0.0836,0,129,129,5,1,threefour,,,,,,,,,,,,,,,,,,,,,,,,,,,,,,,,,,,,,,,,,,,,,,,,,,,,,,,,,,,,,,,,,,,,,,,,,,,,,,,,,,,,,,,,,,,,,,,,,,,,,,,,,,,,,,,,,,,,,,,,,,,,,,,,,,,,,,,,,
,,65ba73523f2c96712bafc391,2024-02-21_21h15.33.013,kallum_motion_pilot,2023.2.2,Win32,59.88023952,65ba73523f2c96712bafc391,65d6bb0e977760de756971f7,65d6bc38058bccc373aa7925,0.0837,0.0837,0,130,130,32,1,onetwo,,,,,,,,,,,,,,,,,,,,,,,,,,,,,,,,,,,,,,,,,,,,,,,,,,,,,,,,,,,,,,,,,,,,,,,,,,,,,,,,,,,,,,,,,,,,,,,,,,,,,,,,,,,,,,,,,,,,,,,,,,,,,,,,,,,,,,,,,
,,65ba73523f2c96712bafc391,2024-02-21_21h15.33.013,kallum_motion_pilot,2023.2.2,Win32,59.88023952,65ba73523f2c96712bafc391,65d6bb0e977760de756971f7,65d6bc38058bccc373aa7925,0.0838,0.0839,0,131,131,73,1,onethree,,,,,,,,,,,,,,,,,,,,,,,,,,,,,,,,,,,,,,,,,,,,,,,,,,,,,,,,,,,,,,,,,,,,,,,,,,,,,,,,,,,,,,,,,,,,,,,,,,,,,,,,,,,,,,,,,,,,,,,,,,,,,,,,,,,,,,,,,
,,65ba73523f2c96712bafc391,2024-02-21_21h15.33.013,kallum_motion_pilot,2023.2.2,Win32,59.88023952,65ba73523f2c96712bafc391,65d6bb0e977760de756971f7,65d6bc38058bccc373aa7925,0.084,0.084,0,132,132,110,1,eightsix,,,,,,,,,,,,,,,,,,,,,,,,,,,,,,,,,,,,,,,,,,,,,,,,,,,,,,,,,,,,,,,,,,,,,,,,,,,,,,,,,,,,,,,,,,,,,,,,,,,,,,,,,,,,,,,,,,,,,,,,,,,,,,,,,,,,,,,,,
,,65ba73523f2c96712bafc391,2024-02-21_21h15.33.013,kallum_motion_pilot,2023.2.2,Win32,59.88023952,65ba73523f2c96712bafc391,65d6bb0e977760de756971f7,65d6bc38058bccc373aa7925,0.0842,0.0842,0,133,133,109,1,seveneight,,,,,,,,,,,,,,,,,,,,,,,,,,,,,,,,,,,,,,,,,,,,,,,,,,,,,,,,,,,,,,,,,,,,,,,,,,,,,,,,,,,,,,,,,,,,,,,,,,,,,,,,,,,,,,,,,,,,,,,,,,,,,,,,,,,,,,,,,
,,65ba73523f2c96712bafc391,2024-02-21_21h15.33.013,kallum_motion_pilot,2023.2.2,Win32,59.88023952,65ba73523f2c96712bafc391,65d6bb0e977760de756971f7,65d6bc38058bccc373aa7925,0.0843,0.0843,0,134,134,81,1,fiveseven,,,,,,,,,,,,,,,,,,,,,,,,,,,,,,,,,,,,,,,,,,,,,,,,,,,,,,,,,,,,,,,,,,,,,,,,,,,,,,,,,,,,,,,,,,,,,,,,,,,,,,,,,,,,,,,,,,,,,,,,,,,,,,,,,,,,,,,,,
,,65ba73523f2c96712bafc391,2024-02-21_21h15.33.013,kallum_motion_pilot,2023.2.2,Win32,59.88023952,65ba73523f2c96712bafc391,65d6bb0e977760de756971f7,65d6bc38058bccc373aa7925,0.0851,0.0851,0,135,135,151,1,eightseven,,,,,,,,,,,,,,,,,,,,,,,,,,,,,,,,,,,,,,,,,,,,,,,,,,,,,,,,,,,,,,,,,,,,,,,,,,,,,,,,,,,,,,,,,,,,,,,,,,,,,,,,,,,,,,,,,,,,,,,,,,,,,,,,,,,,,,,,,
,,65ba73523f2c96712bafc391,2024-02-21_21h15.33.013,kallum_motion_pilot,2023.2.2,Win32,59.88023952,65ba73523f2c96712bafc391,65d6bb0e977760de756971f7,65d6bc38058bccc373aa7925,0.0852,0.0853,0,136,136,4,1,threeone,,,,,,,,,,,,,,,,,,,,,,,,,,,,,,,,,,,,,,,,,,,,,,,,,,,,,,,,,,,,,,,,,,,,,,,,,,,,,,,,,,,,,,,,,,,,,,,,,,,,,,,,,,,,,,,,,,,,,,,,,,,,,,,,,,,,,,,,,
,,65ba73523f2c96712bafc391,2024-02-21_21h15.33.013,kallum_motion_pilot,2023.2.2,Win32,59.88023952,65ba73523f2c96712bafc391,65d6bb0e977760de756971f7,65d6bc38058bccc373aa7925,0.0855,0.0855,0,137,137,154,1,sixfive,,,,,,,,,,,,,,,,,,,,,,,,,,,,,,,,,,,,,,,,,,,,,,,,,,,,,,,,,,,,,,,,,,,,,,,,,,,,,,,,,,,,,,,,,,,,,,,,,,,,,,,,,,,,,,,,,,,,,,,,,,,,,,,,,,,,,,,,,
,,65ba73523f2c96712bafc391,2024-02-21_21h15.33.013,kallum_motion_pilot,2023.2.2,Win32,59.88023952,65ba73523f2c96712bafc391,65d6bb0e977760de756971f7,65d6bc38058bccc373aa7925,0.0855,0.0856,0,138,138,36,1,threeone,,,,,,,,,,,,,,,,,,,,,,,,,,,,,,,,,,,,,,,,,,,,,,,,,,,,,,,,,,,,,,,,,,,,,,,,,,,,,,,,,,,,,,,,,,,,,,,,,,,,,,,,,,,,,,,,,,,,,,,,,,,,,,,,,,,,,,,,,
,,65ba73523f2c96712bafc391,2024-02-21_21h15.33.013,kallum_motion_pilot,2023.2.2,Win32,59.88023952,65ba73523f2c96712bafc391,65d6bb0e977760de756971f7,65d6bc38058bccc373aa7925,0.0857,0.0858,0,139,139,56,1,onetwo,,,,,,,,,,,,,,,,,,,,,,,,,,,,,,,,,,,,,,,,,,,,,,,,,,,,,,,,,,,,,,,,,,,,,,,,,,,,,,,,,,,,,,,,,,,,,,,,,,,,,,,,,,,,,,,,,,,,,,,,,,,,,,,,,,,,,,,,,
,,65ba73523f2c96712bafc391,2024-02-21_21h15.33.013,kallum_motion_pilot,2023.2.2,Win32,59.88023952,65ba73523f2c96712bafc391,65d6bb0e977760de756971f7,65d6bc38058bccc373aa7925,0.0859,0.086,0,140,140,152,1,fivesix,,,,,,,,,,,,,,,,,,,,,,,,,,,,,,,,,,,,,,,,,,,,,,,,,,,,,,,,,,,,,,,,,,,,,,,,,,,,,,,,,,,,,,,,,,,,,,,,,,,,,,,,,,,,,,,,,,,,,,,,,,,,,,,,,,,,,,,,,
,,65ba73523f2c96712bafc391,2024-02-21_21h15.33.013,kallum_motion_pilot,2023.2.2,Win32,59.88023952,65ba73523f2c96712bafc391,65d6bb0e977760de756971f7,65d6bc38058bccc373aa7925,0.0861,0.0862,0,141,141,160,1,fivesix,,,,,,,,,,,,,,,,,,,,,,,,,,,,,,,,,,,,,,,,,,,,,,,,,,,,,,,,,,,,,,,,,,,,,,,,,,,,,,,,,,,,,,,,,,,,,,,,,,,,,,,,,,,,,,,,,,,,,,,,,,,,,,,,,,,,,,,,,
,,65ba73523f2c96712bafc391,2024-02-21_21h15.33.013,kallum_motion_pilot,2023.2.2,Win32,59.88023952,65ba73523f2c96712bafc391,65d6bb0e977760de756971f7,65d6bc38058bccc373aa7925,0.0863,0.0865,0,142,142,128,1,fivesix,,,,,,,,,,,,,,,,,,,,,,,,,,,,,,,,,,,,,,,,,,,,,,,,,,,,,,,,,,,,,,,,,,,,,,,,,,,,,,,,,,,,,,,,,,,,,,,,,,,,,,,,,,,,,,,,,,,,,,,,,,,,,,,,,,,,,,,,,
,,65ba73523f2c96712bafc391,2024-02-21_21h15.33.013,kallum_motion_pilot,2023.2.2,Win32,59.88023952,65ba73523f2c96712bafc391,65d6bb0e977760de756971f7,65d6bc38058bccc373aa7925,0.0865,0.0866,0,143,143,87,1,eightseven,,,,,,,,,,,,,,,,,,,,,,,,,,,,,,,,,,,,,,,,,,,,,,,,,,,,,,,,,,,,,,,,,,,,,,,,,,,,,,,,,,,,,,,,,,,,,,,,,,,,,,,,,,,,,,,,,,,,,,,,,,,,,,,,,,,,,,,,,
,,65ba73523f2c96712bafc391,2024-02-21_21h15.33.013,kallum_motion_pilot,2023.2.2,Win32,59.88023952,65ba73523f2c96712bafc391,65d6bb0e977760de756971f7,65d6bc38058bccc373aa7925,0.0866,0.0867,0,144,144,117,1,seveneight,,,,,,,,,,,,,,,,,,,,,,,,,,,,,,,,,,,,,,,,,,,,,,,,,,,,,,,,,,,,,,,,,,,,,,,,,,,,,,,,,,,,,,,,,,,,,,,,,,,,,,,,,,,,,,,,,,,,,,,,,,,,,,,,,,,,,,,,,
,,65ba73523f2c96712bafc391,2024-02-21_21h15.33.013,kallum_motion_pilot,2023.2.2,Win32,59.88023952,65ba73523f2c96712bafc391,65d6bb0e977760de756971f7,65d6bc38058bccc373aa7925,0.0869,0.0869,0,145,145,133,1,seveneight,,,,,,,,,,,,,,,,,,,,,,,,,,,,,,,,,,,,,,,,,,,,,,,,,,,,,,,,,,,,,,,,,,,,,,,,,,,,,,,,,,,,,,,,,,,,,,,,,,,,,,,,,,,,,,,,,,,,,,,,,,,,,,,,,,,,,,,,,
,,65ba73523f2c96712bafc391,2024-02-21_21h15.33.013,kallum_motion_pilot,2023.2.2,Win32,59.88023952,65ba73523f2c96712bafc391,65d6bb0e977760de756971f7,65d6bc38058bccc373aa7925,0.087,0.0871,0,146,146,146,1,sixfive,,,,,,,,,,,,,,,,,,,,,,,,,,,,,,,,,,,,,,,,,,,,,,,,,,,,,,,,,,,,,,,,,,,,,,,,,,,,,,,,,,,,,,,,,,,,,,,,,,,,,,,,,,,,,,,,,,,,,,,,,,,,,,,,,,,,,,,,,
,,65ba73523f2c96712bafc391,2024-02-21_21h15.33.013,kallum_motion_pilot,2023.2.2,Win32,59.88023952,65ba73523f2c96712bafc391,65d6bb0e977760de756971f7,65d6bc38058bccc373aa7925,0.0872,0.0872,0,147,147,84,1,sevenfive,,,,,,,,,,,,,,,,,,,,,,,,,,,,,,,,,,,,,,,,,,,,,,,,,,,,,,,,,,,,,,,,,,,,,,,,,,,,,,,,,,,,,,,,,,,,,,,,,,,,,,,,,,,,,,,,,,,,,,,,,,,,,,,,,,,,,,,,,
,,65ba73523f2c96712bafc391,2024-02-21_21h15.33.013,kallum_motion_pilot,2023.2.2,Win32,59.88023952,65ba73523f2c96712bafc391,65d6bb0e977760de756971f7,65d6bc38058bccc373aa7925,0.0873,0.0874,0,148,148,115,1,sixeight,,,,,,,,,,,,,,,,,,,,,,,,,,,,,,,,,,,,,,,,,,,,,,,,,,,,,,,,,,,,,,,,,,,,,,,,,,,,,,,,,,,,,,,,,,,,,,,,,,,,,,,,,,,,,,,,,,,,,,,,,,,,,,,,,,,,,,,,,
,,65ba73523f2c96712bafc391,2024-02-21_21h15.33.013,kallum_motion_pilot,2023.2.2,Win32,59.88023952,65ba73523f2c96712bafc391,65d6bb0e977760de756971f7,65d6bc38058bccc373aa7925,0.0875,0.0878,0,149,149,53,1,threefour,,,,,,,,,,,,,,,,,,,,,,,,,,,,,,,,,,,,,,,,,,,,,,,,,,,,,,,,,,,,,,,,,,,,,,,,,,,,,,,,,,,,,,,,,,,,,,,,,,,,,,,,,,,,,,,,,,,,,,,,,,,,,,,,,,,,,,,,,
,,65ba73523f2c96712bafc391,2024-02-21_21h15.33.013,kallum_motion_pilot,2023.2.2,Win32,59.88023952,65ba73523f2c96712bafc391,65d6bb0e977760de756971f7,65d6bc38058bccc373aa7925,0.0879,0.0881,0,150,150,82,1,sixfive,,,,,,,,,,,,,,,,,,,,,,,,,,,,,,,,,,,,,,,,,,,,,,,,,,,,,,,,,,,,,,,,,,,,,,,,,,,,,,,,,,,,,,,,,,,,,,,,,,,,,,,,,,,,,,,,,,,,,,,,,,,,,,,,,,,,,,,,,
,,65ba73523f2c96712bafc391,2024-02-21_21h15.33.013,kallum_motion_pilot,2023.2.2,Win32,59.88023952,65ba73523f2c96712bafc391,65d6bb0e977760de756971f7,65d6bc38058bccc373aa7925,0.0883,0.0884,0,151,151,134,1,eightsix,,,,,,,,,,,,,,,,,,,,,,,,,,,,,,,,,,,,,,,,,,,,,,,,,,,,,,,,,,,,,,,,,,,,,,,,,,,,,,,,,,,,,,,,,,,,,,,,,,,,,,,,,,,,,,,,,,,,,,,,,,,,,,,,,,,,,,,,,
,,65ba73523f2c96712bafc391,2024-02-21_21h15.33.013,kallum_motion_pilot,2023.2.2,Win32,59.88023952,65ba73523f2c96712bafc391,65d6bb0e977760de756971f7,65d6bc38058bccc373aa7925,0.0886,0.0887,0,152,152,145,1,fiveseven,,,,,,,,,,,,,,,,,,,,,,,,,,,,,,,,,,,,,,,,,,,,,,,,,,,,,,,,,,,,,,,,,,,,,,,,,,,,,,,,,,,,,,,,,,,,,,,,,,,,,,,,,,,,,,,,,,,,,,,,,,,,,,,,,,,,,,,,,
,,65ba73523f2c96712bafc391,2024-02-21_21h15.33.013,kallum_motion_pilot,2023.2.2,Win32,59.88023952,65ba73523f2c96712bafc391,65d6bb0e977760de756971f7,65d6bc38058bccc373aa7925,0.0889,0.089,0,153,153,105,1,fiveseven,,,,,,,,,,,,,,,,,,,,,,,,,,,,,,,,,,,,,,,,,,,,,,,,,,,,,,,,,,,,,,,,,,,,,,,,,,,,,,,,,,,,,,,,,,,,,,,,,,,,,,,,,,,,,,,,,,,,,,,,,,,,,,,,,,,,,,,,,
,,65ba73523f2c96712bafc391,2024-02-21_21h15.33.013,kallum_motion_pilot,2023.2.2,Win32,59.88023952,65ba73523f2c96712bafc391,65d6bb0e977760de756971f7,65d6bc38058bccc373aa7925,0.0891,0.0892,0,154,154,31,1,fourthree,,,,,,,,,,,,,,,,,,,,,,,,,,,,,,,,,,,,,,,,,,,,,,,,,,,,,,,,,,,,,,,,,,,,,,,,,,,,,,,,,,,,,,,,,,,,,,,,,,,,,,,,,,,,,,,,,,,,,,,,,,,,,,,,,,,,,,,,,
,,65ba73523f2c96712bafc391,2024-02-21_21h15.33.013,kallum_motion_pilot,2023.2.2,Win32,59.88023952,65ba73523f2c96712bafc391,65d6bb0e977760de756971f7,65d6bc38058bccc373aa7925,0.0894,0.0895,0,155,155,127,1,eightseven,,,,,,,,,,,,,,,,,,,,,,,,,,,,,,,,,,,,,,,,,,,,,,,,,,,,,,,,,,,,,,,,,,,,,,,,,,,,,,,,,,,,,,,,,,,,,,,,,,,,,,,,,,,,,,,,,,,,,,,,,,,,,,,,,,,,,,,,,
,,65ba73523f2c96712bafc391,2024-02-21_21h15.33.013,kallum_motion_pilot,2023.2.2,Win32,59.88023952,65ba73523f2c96712bafc391,65d6bb0e977760de756971f7,65d6bc38058bccc373aa7925,0.0897,0.0897,0,156,156,15,1,fourthree,,,,,,,,,,,,,,,,,,,,,,,,,,,,,,,,,,,,,,,,,,,,,,,,,,,,,,,,,,,,,,,,,,,,,,,,,,,,,,,,,,,,,,,,,,,,,,,,,,,,,,,,,,,,,,,,,,,,,,,,,,,,,,,,,,,,,,,,,
,,65ba73523f2c96712bafc391,2024-02-21_21h15.33.013,kallum_motion_pilot,2023.2.2,Win32,59.88023952,65ba73523f2c96712bafc391,65d6bb0e977760de756971f7,65d6bc38058bccc373aa7925,0.0899,0.09,0,157,157,118,1,eightsix,,,,,,,,,,,,,,,,,,,,,,,,,,,,,,,,,,,,,,,,,,,,,,,,,,,,,,,,,,,,,,,,,,,,,,,,,,,,,,,,,,,,,,,,,,,,,,,,,,,,,,,,,,,,,,,,,,,,,,,,,,,,,,,,,,,,,,,,,
,,65ba73523f2c96712bafc391,2024-02-21_21h15.33.013,kallum_motion_pilot,2023.2.2,Win32,59.88023952,65ba73523f2c96712bafc391,65d6bb0e977760de756971f7,65d6bc38058bccc373aa7925,0.0901,0.0903,0,158,158,48,1,onetwo,,,,,,,,,,,,,,,,,,,,,,,,,,,,,,,,,,,,,,,,,,,,,,,,,,,,,,,,,,,,,,,,,,,,,,,,,,,,,,,,,,,,,,,,,,,,,,,,,,,,,,,,,,,,,,,,,,,,,,,,,,,,,,,,,,,,,,,,,
,,65ba73523f2c96712bafc391,2024-02-21_21h15.33.013,kallum_motion_pilot,2023.2.2,Win32,59.88023952,65ba73523f2c96712bafc391,65d6bb0e977760de756971f7,65d6bc38058bccc373aa7925,0.0905,0.0906,0,159,159,150,1,eightsix,,,,,,,,,,,,,,,,,,,,,,,,,,,,,,,,,,,,,,,,,,,,,,,,,,,,,,,,,,,,,,,,,,,,,,,,,,,,,,,,,,,,,,,,,,,,,,,,,,,,,,,,,,,,,,,,,,,,,,,,,,,,,,,,,,,,,,,,,
,,65ba73523f2c96712bafc391,2024-02-21_21h15.33.013,kallum_motion_pilot,2023.2.2,Win32,59.88023952,65ba73523f2c96712bafc391,65d6bb0e977760de756971f7,65d6bc38058bccc373aa7925,0.0907,0.0909,0,160,160,11,1,twofour,,,,,,,,,,,,,,,,,,,,,,,,,,,,,,,,,,,,,,,,,,,,,,,,,,,,,,,,,,,,,,,,,,,,,,,,,,,,,,,,,,,,,,,,,,,,,,,,,,,,,,,,,,,,,,,,,,,,,,,,,,,,,,,,,,,,,,,,,
,,65ba73523f2c96712bafc391,2024-02-21_21h15.33.013,kallum_motion_pilot,2023.2.2,Win32,59.88023952,65ba73523f2c96712bafc391,65d6bb0e977760de756971f7,65d6bc38058bccc373aa7925,0.0911,0.0912,0,161,161,10,1,twoone,,,,,,,,,,,,,,,,,,,,,,,,,,,,,,,,,,,,,,,,,,,,,,,,,,,,,,,,,,,,,,,,,,,,,,,,,,,,,,,,,,,,,,,,,,,,,,,,,,,,,,,,,,,,,,,,,,,,,,,,,,,,,,,,,,,,,,,,,
,,65ba73523f2c96712bafc391,2024-02-21_21h15.33.013,kallum_motion_pilot,2023.2.2,Win32,59.88023952,65ba73523f2c96712bafc391,65d6bb0e977760de756971f7,65d6bc38058bccc373aa7925,0.0913,0.0915,1,0,162,16,1,onetwo,,,,,,,,,,,,,,,,,,,,,,,,,,,,,,,,,,,,,,,,,,,,,,,,,,,,,,,,,,,,,,,,,,,,,,,,,,,,,,,,,,,,,,,,,,,,,,,,,,,,,,,,,,,,,,,,,,,,,,,,,,,,,,,,,,,,,,,,,
,,65ba73523f2c96712bafc391,2024-02-21_21h15.33.013,kallum_motion_pilot,2023.2.2,Win32,59.88023952,65ba73523f2c96712bafc391,65d6bb0e977760de756971f7,65d6bc38058bccc373aa7925,0.0916,0.0917,1,1,163,94,1,eightsix,,,,,,,,,,,,,,,,,,,,,,,,,,,,,,,,,,,,,,,,,,,,,,,,,,,,,,,,,,,,,,,,,,,,,,,,,,,,,,,,,,,,,,,,,,,,,,,,,,,,,,,,,,,,,,,,,,,,,,,,,,,,,,,,,,,,,,,,,
,,65ba73523f2c96712bafc391,2024-02-21_21h15.33.013,kallum_motion_pilot,2023.2.2,Win32,59.88023952,65ba73523f2c96712bafc391,65d6bb0e977760de756971f7,65d6bc38058bccc373aa7925,0.0918,0.0919,1,2,164,1,1,onethree,,,,,,,,,,,,,,,,,,,,,,,,,,,,,,,,,,,,,,,,,,,,,,,,,,,,,,,,,,,,,,,,,,,,,,,,,,,,,,,,,,,,,,,,,,,,,,,,,,,,,,,,,,,,,,,,,,,,,,,,,,,,,,,,,,,,,,,,,
,,65ba73523f2c96712bafc391,2024-02-21_21h15.33.013,kallum_motion_pilot,2023.2.2,Win32,59.88023952,65ba73523f2c96712bafc391,65d6bb0e977760de756971f7,65d6bc38058bccc373aa7925,0.0921,0.0922,1,3,165,136,1,fivesix,,,,,,,,,,,,,,,,,,,,,,,,,,,,,,,,,,,,,,,,,,,,,,,,,,,,,,,,,,,,,,,,,,,,,,,,,,,,,,,,,,,,,,,,,,,,,,,,,,,,,,,,,,,,,,,,,,,,,,,,,,,,,,,,,,,,,,,,,
,,65ba73523f2c96712bafc391,2024-02-21_21h15.33.013,kallum_motion_pilot,2023.2.2,Win32,59.88023952,65ba73523f2c96712bafc391,65d6bb0e977760de756971f7,65d6bc38058bccc373aa7925,0.0923,0.0924,1,4,166,10,1,twoone,,,,,,,,,,,,,,,,,,,,,,,,,,,,,,,,,,,,,,,,,,,,,,,,,,,,,,,,,,,,,,,,,,,,,,,,,,,,,,,,,,,,,,,,,,,,,,,,,,,,,,,,,,,,,,,,,,,,,,,,,,,,,,,,,,,,,,,,,
,,65ba73523f2c96712bafc391,2024-02-21_21h15.33.013,kallum_motion_pilot,2023.2.2,Win32,59.88023952,65ba73523f2c96712bafc391,65d6bb0e977760de756971f7,65d6bc38058bccc373aa7925,0.0924,0.0926,1,5,167,47,1,fourthree,,,,,,,,,,,,,,,,,,,,,,,,,,,,,,,,,,,,,,,,,,,,,,,,,,,,,,,,,,,,,,,,,,,,,,,,,,,,,,,,,,,,,,,,,,,,,,,,,,,,,,,,,,,,,,,,,,,,,,,,,,,,,,,,,,,,,,,,,
,,65ba73523f2c96712bafc391,2024-02-21_21h15.33.013,kallum_motion_pilot,2023.2.2,Win32,59.88023952,65ba73523f2c96712bafc391,65d6bb0e977760de756971f7,65d6bc38058bccc373aa7925,0.0926,0.0927,1,6,168,41,1,onethree,,,,,,,,,,,,,,,,,,,,,,,,,,,,,,,,,,,,,,,,,,,,,,,,,,,,,,,,,,,,,,,,,,,,,,,,,,,,,,,,,,,,,,,,,,,,,,,,,,,,,,,,,,,,,,,,,,,,,,,,,,,,,,,,,,,,,,,,,
,,65ba73523f2c96712bafc391,2024-02-21_21h15.33.013,kallum_motion_pilot,2023.2.2,Win32,59.88023952,65ba73523f2c96712bafc391,65d6bb0e977760de756971f7,65d6bc38058bccc373aa7925,0.0928,0.0929,1,7,169,116,1,sevenfive,,,,,,,,,,,,,,,,,,,,,,,,,,,,,,,,,,,,,,,,,,,,,,,,,,,,,,,,,,,,,,,,,,,,,,,,,,,,,,,,,,,,,,,,,,,,,,,,,,,,,,,,,,,,,,,,,,,,,,,,,,,,,,,,,,,,,,,,,
,,65ba73523f2c96712bafc391,2024-02-21_21h15.33.013,kallum_motion_pilot,2023.2.2,Win32,59.88023952,65ba73523f2c96712bafc391,65d6bb0e977760de756971f7,65d6bc38058bccc373aa7925,0.093,0.0931,1,8,170,85,1,seveneight,,,,,,,,,,,,,,,,,,,,,,,,,,,,,,,,,,,,,,,,,,,,,,,,,,,,,,,,,,,,,,,,,,,,,,,,,,,,,,,,,,,,,,,,,,,,,,,,,,,,,,,,,,,,,,,,,,,,,,,,,,,,,,,,,,,,,,,,,
,,65ba73523f2c96712bafc391,2024-02-21_21h15.33.013,kallum_motion_pilot,2023.2.2,Win32,59.88023952,65ba73523f2c96712bafc391,65d6bb0e977760de756971f7,65d6bc38058bccc373aa7925,0.0931,0.0932,1,9,171,107,1,sixeight,,,,,,,,,,,,,,,,,,,,,,,,,,,,,,,,,,,,,,,,,,,,,,,,,,,,,,,,,,,,,,,,,,,,,,,,,,,,,,,,,,,,,,,,,,,,,,,,,,,,,,,,,,,,,,,,,,,,,,,,,,,,,,,,,,,,,,,,,
,,65ba73523f2c96712bafc391,2024-02-21_21h15.33.013,kallum_motion_pilot,2023.2.2,Win32,59.88023952,65ba73523f2c96712bafc391,65d6bb0e977760de756971f7,65d6bc38058bccc373aa7925,0.0933,0.0934,1,10,172,4,1,threeone,,,,,,,,,,,,,,,,,,,,,,,,,,,,,,,,,,,,,,,,,,,,,,,,,,,,,,,,,,,,,,,,,,,,,,,,,,,,,,,,,,,,,,,,,,,,,,,,,,,,,,,,,,,,,,,,,,,,,,,,,,,,,,,,,,,,,,,,,
,,65ba73523f2c96712bafc391,2024-02-21_21h15.33.013,kallum_motion_pilot,2023.2.2,Win32,59.88023952,65ba73523f2c96712bafc391,65d6bb0e977760de756971f7,65d6bc38058bccc373aa7925,0.0935,0.0938,1,11,173,153,1,fiveseven,,,,,,,,,,,,,,,,,,,,,,,,,,,,,,,,,,,,,,,,,,,,,,,,,,,,,,,,,,,,,,,,,,,,,,,,,,,,,,,,,,,,,,,,,,,,,,,,,,,,,,,,,,,,,,,,,,,,,,,,,,,,,,,,,,,,,,,,,
,,65ba73523f2c96712bafc391,2024-02-21_21h15.33.013,kallum_motion_pilot,2023.2.2,Win32,59.88023952,65ba73523f2c96712bafc391,65d6bb0e977760de756971f7,65d6bc38058bccc373aa7925,0.094,0.0941,1,12,174,115,1,sixeight,,,,,,,,,,,,,,,,,,,,,,,,,,,,,,,,,,,,,,,,,,,,,,,,,,,,,,,,,,,,,,,,,,,,,,,,,,,,,,,,,,,,,,,,,,,,,,,,,,,,,,,,,,,,,,,,,,,,,,,,,,,,,,,,,,,,,,,,,
,,65ba73523f2c96712bafc391,2024-02-21_21h15.33.013,kallum_motion_pilot,2023.2.2,Win32,59.88023952,65ba73523f2c96712bafc391,65d6bb0e977760de756971f7,65d6bc38058bccc373aa7925,0.0945,0.0946,1,13,175,66,1,twoone,,,,,,,,,,,,,,,,,,,,,,,,,,,,,,,,,,,,,,,,,,,,,,,,,,,,,,,,,,,,,,,,,,,,,,,,,,,,,,,,,,,,,,,,,,,,,,,,,,,,,,,,,,,,,,,,,,,,,,,,,,,,,,,,,,,,,,,,,
,,65ba73523f2c96712bafc391,2024-02-21_21h15.33.013,kallum_motion_pilot,2023.2.2,Win32,59.88023952,65ba73523f2c96712bafc391,65d6bb0e977760de756971f7,65d6bc38058bccc373aa7925,0.0947,0.0949,1,14,176,97,1,fiveseven,,,,,,,,,,,,,,,,,,,,,,,,,,,,,,,,,,,,,,,,,,,,,,,,,,,,,,,,,,,,,,,,,,,,,,,,,,,,,,,,,,,,,,,,,,,,,,,,,,,,,,,,,,,,,,,,,,,,,,,,,,,,,,,,,,,,,,,,,
,,65ba73523f2c96712bafc391,2024-02-21_21h15.33.013,kallum_motion_pilot,2023.2.2,Win32,59.88023952,65ba73523f2c96712bafc391,65d6bb0e977760de756971f7,65d6bc38058bccc373aa7925,0.0951,0.0951,1,15,177,147,1,sixeight,,,,,,,,,,,,,,,,,,,,,,,,,,,,,,,,,,,,,,,,,,,,,,,,,,,,,,,,,,,,,,,,,,,,,,,,,,,,,,,,,,,,,,,,,,,,,,,,,,,,,,,,,,,,,,,,,,,,,,,,,,,,,,,,,,,,,,,,,
,,65ba73523f2c96712bafc391,2024-02-21_21h15.33.013,kallum_motion_pilot,2023.2.2,Win32,59.88023952,65ba73523f2c96712bafc391,65d6bb0e977760de756971f7,65d6bc38058bccc373aa7925,0.0953,0.0955,1,16,178,58,1,twoone,,,,,,,,,,,,,,,,,,,,,,,,,,,,,,,,,,,,,,,,,,,,,,,,,,,,,,,,,,,,,,,,,,,,,,,,,,,,,,,,,,,,,,,,,,,,,,,,,,,,,,,,,,,,,,,,,,,,,,,,,,,,,,,,,,,,,,,,,
,,65ba73523f2c96712bafc391,2024-02-21_21h15.33.013,kallum_motion_pilot,2023.2.2,Win32,59.88023952,65ba73523f2c96712bafc391,65d6bb0e977760de756971f7,65d6bc38058bccc373aa7925,0.0956,0.0957,1,17,179,159,1,eightseven,,,,,,,,,,,,,,,,,,,,,,,,,,,,,,,,,,,,,,,,,,,,,,,,,,,,,,,,,,,,,,,,,,,,,,,,,,,,,,,,,,,,,,,,,,,,,,,,,,,,,,,,,,,,,,,,,,,,,,,,,,,,,,,,,,,,,,,,,
,,65ba73523f2c96712bafc391,2024-02-21_21h15.33.013,kallum_motion_pilot,2023.2.2,Win32,59.88023952,65ba73523f2c96712bafc391,65d6bb0e977760de756971f7,65d6bc38058bccc373aa7925,0.0958,0.0958,1,18,180,124,1,sevenfive,,,,,,,,,,,,,,,,,,,,,,,,,,,,,,,,,,,,,,,,,,,,,,,,,,,,,,,,,,,,,,,,,,,,,,,,,,,,,,,,,,,,,,,,,,,,,,,,,,,,,,,,,,,,,,,,,,,,,,,,,,,,,,,,,,,,,,,,,
,,65ba73523f2c96712bafc391,2024-02-21_21h15.33.013,kallum_motion_pilot,2023.2.2,Win32,59.88023952,65ba73523f2c96712bafc391,65d6bb0e977760de756971f7,65d6bc38058bccc373aa7925,0.096,0.0962,1,19,181,139,1,sixeight,,,,,,,,,,,,,,,,,,,,,,,,,,,,,,,,,,,,,,,,,,,,,,,,,,,,,,,,,,,,,,,,,,,,,,,,,,,,,,,,,,,,,,,,,,,,,,,,,,,,,,,,,,,,,,,,,,,,,,,,,,,,,,,,,,,,,,,,,
,,65ba73523f2c96712bafc391,2024-02-21_21h15.33.013,kallum_motion_pilot,2023.2.2,Win32,59.88023952,65ba73523f2c96712bafc391,65d6bb0e977760de756971f7,65d6bc38058bccc373aa7925,0.0962,0.0963,1,20,182,54,1,fourtwo,,,,,,,,,,,,,,,,,,,,,,,,,,,,,,,,,,,,,,,,,,,,,,,,,,,,,,,,,,,,,,,,,,,,,,,,,,,,,,,,,,,,,,,,,,,,,,,,,,,,,,,,,,,,,,,,,,,,,,,,,,,,,,,,,,,,,,,,,
,,65ba73523f2c96712bafc391,2024-02-21_21h15.33.013,kallum_motion_pilot,2023.2.2,Win32,59.88023952,65ba73523f2c96712bafc391,65d6bb0e977760de756971f7,65d6bc38058bccc373aa7925,0.0964,0.0965,1,21,183,65,1,onethree,,,,,,,,,,,,,,,,,,,,,,,,,,,,,,,,,,,,,,,,,,,,,,,,,,,,,,,,,,,,,,,,,,,,,,,,,,,,,,,,,,,,,,,,,,,,,,,,,,,,,,,,,,,,,,,,,,,,,,,,,,,,,,,,,,,,,,,,,
,,65ba73523f2c96712bafc391,2024-02-21_21h15.33.013,kallum_motion_pilot,2023.2.2,Win32,59.88023952,65ba73523f2c96712bafc391,65d6bb0e977760de756971f7,65d6bc38058bccc373aa7925,0.0968,0.0969,1,22,184,38,1,fourtwo,,,,,,,,,,,,,,,,,,,,,,,,,,,,,,,,,,,,,,,,,,,,,,,,,,,,,,,,,,,,,,,,,,,,,,,,,,,,,,,,,,,,,,,,,,,,,,,,,,,,,,,,,,,,,,,,,,,,,,,,,,,,,,,,,,,,,,,,,
,,65ba73523f2c96712bafc391,2024-02-21_21h15.33.013,kallum_motion_pilot,2023.2.2,Win32,59.88023952,65ba73523f2c96712bafc391,65d6bb0e977760de756971f7,65d6bc38058bccc373aa7925,0.0971,0.0972,1,23,185,13,1,threefour,,,,,,,,,,,,,,,,,,,,,,,,,,,,,,,,,,,,,,,,,,,,,,,,,,,,,,,,,,,,,,,,,,,,,,,,,,,,,,,,,,,,,,,,,,,,,,,,,,,,,,,,,,,,,,,,,,,,,,,,,,,,,,,,,,,,,,,,,
,,65ba73523f2c96712bafc391,2024-02-21_21h15.33.013,kallum_motion_pilot,2023.2.2,Win32,59.88023952,65ba73523f2c96712bafc391,65d6bb0e977760de756971f7,65d6bc38058bccc373aa7925,0.0973,0.0974,1,24,186,3,1,twofour,,,,,,,,,,,,,,,,,,,,,,,,,,,,,,,,,,,,,,,,,,,,,,,,,,,,,,,,,,,,,,,,,,,,,,,,,,,,,,,,,,,,,,,,,,,,,,,,,,,,,,,,,,,,,,,,,,,,,,,,,,,,,,,,,,,,,,,,,
,,65ba73523f2c96712bafc391,2024-02-21_21h15.33.013,kallum_motion_pilot,2023.2.2,Win32,59.88023952,65ba73523f2c96712bafc391,65d6bb0e977760de756971f7,65d6bc38058bccc373aa7925,0.0975,0.0975,1,25,187,155,1,sixeight,,,,,,,,,,,,,,,,,,,,,,,,,,,,,,,,,,,,,,,,,,,,,,,,,,,,,,,,,,,,,,,,,,,,,,,,,,,,,,,,,,,,,,,,,,,,,,,,,,,,,,,,,,,,,,,,,,,,,,,,,,,,,,,,,,,,,,,,,
,,65ba73523f2c96712bafc391,2024-02-21_21h15.33.013,kallum_motion_pilot,2023.2.2,Win32,59.88023952,65ba73523f2c96712bafc391,65d6bb0e977760de756971f7,65d6bc38058bccc373aa7925,0.0977,0.0978,1,26,188,25,1,onethree,,,,,,,,,,,,,,,,,,,,,,,,,,,,,,,,,,,,,,,,,,,,,,,,,,,,,,,,,,,,,,,,,,,,,,,,,,,,,,,,,,,,,,,,,,,,,,,,,,,,,,,,,,,,,,,,,,,,,,,,,,,,,,,,,,,,,,,,,
,,65ba73523f2c96712bafc391,2024-02-21_21h15.33.013,kallum_motion_pilot,2023.2.2,Win32,59.88023952,65ba73523f2c96712bafc391,65d6bb0e977760de756971f7,65d6bc38058bccc373aa7925,0.0979,0.098,1,27,189,40,1,onetwo,,,,,,,,,,,,,,,,,,,,,,,,,,,,,,,,,,,,,,,,,,,,,,,,,,,,,,,,,,,,,,,,,,,,,,,,,,,,,,,,,,,,,,,,,,,,,,,,,,,,,,,,,,,,,,,,,,,,,,,,,,,,,,,,,,,,,,,,,
,,65ba73523f2c96712bafc391,2024-02-21_21h15.33.013,kallum_motion_pilot,2023.2.2,Win32,59.88023952,65ba73523f2c96712bafc391,65d6bb0e977760de756971f7,65d6bc38058bccc373aa7925,0.098,0.0982,1,28,190,114,1,sixfive,,,,,,,,,,,,,,,,,,,,,,,,,,,,,,,,,,,,,,,,,,,,,,,,,,,,,,,,,,,,,,,,,,,,,,,,,,,,,,,,,,,,,,,,,,,,,,,,,,,,,,,,,,,,,,,,,,,,,,,,,,,,,,,,,,,,,,,,,
,,65ba73523f2c96712bafc391,2024-02-21_21h15.33.013,kallum_motion_pilot,2023.2.2,Win32,59.88023952,65ba73523f2c96712bafc391,65d6bb0e977760de756971f7,65d6bc38058bccc373aa7925,0.0984,0.0985,1,29,191,121,1,fiveseven,,,,,,,,,,,,,,,,,,,,,,,,,,,,,,,,,,,,,,,,,,,,,,,,,,,,,,,,,,,,,,,,,,,,,,,,,,,,,,,,,,,,,,,,,,,,,,,,,,,,,,,,,,,,,,,,,,,,,,,,,,,,,,,,,,,,,,,,,
,,65ba73523f2c96712bafc391,2024-02-21_21h15.33.013,kallum_motion_pilot,2023.2.2,Win32,59.88023952,65ba73523f2c96712bafc391,65d6bb0e977760de756971f7,65d6bc38058bccc373aa7925,0.0986,0.0987,1,30,192,42,1,twoone,,,,,,,,,,,,,,,,,,,,,,,,,,,,,,,,,,,,,,,,,,,,,,,,,,,,,,,,,,,,,,,,,,,,,,,,,,,,,,,,,,,,,,,,,,,,,,,,,,,,,,,,,,,,,,,,,,,,,,,,,,,,,,,,,,,,,,,,,
,,65ba73523f2c96712bafc391,2024-02-21_21h15.33.013,kallum_motion_pilot,2023.2.2,Win32,59.88023952,65ba73523f2c96712bafc391,65d6bb0e977760de756971f7,65d6bc38058bccc373aa7925,0.0988,0.099,1,31,193,32,1,onetwo,,,,,,,,,,,,,,,,,,,,,,,,,,,,,,,,,,,,,,,,,,,,,,,,,,,,,,,,,,,,,,,,,,,,,,,,,,,,,,,,,,,,,,,,,,,,,,,,,,,,,,,,,,,,,,,,,,,,,,,,,,,,,,,,,,,,,,,,,
,,65ba73523f2c96712bafc391,2024-02-21_21h15.33.013,kallum_motion_pilot,2023.2.2,Win32,59.88023952,65ba73523f2c96712bafc391,65d6bb0e977760de756971f7,65d6bc38058bccc373aa7925,0.0991,0.0992,1,32,194,61,1,threefour,,,,,,,,,,,,,,,,,,,,,,,,,,,,,,,,,,,,,,,,,,,,,,,,,,,,,,,,,,,,,,,,,,,,,,,,,,,,,,,,,,,,,,,,,,,,,,,,,,,,,,,,,,,,,,,,,,,,,,,,,,,,,,,,,,,,,,,,,
,,65ba73523f2c96712bafc391,2024-02-21_21h15.33.013,kallum_motion_pilot,2023.2.2,Win32,59.88023952,65ba73523f2c96712bafc391,65d6bb0e977760de756971f7,65d6bc38058bccc373aa7925,0.0994,0.0995,1,33,195,110,1,eightsix,,,,,,,,,,,,,,,,,,,,,,,,,,,,,,,,,,,,,,,,,,,,,,,,,,,,,,,,,,,,,,,,,,,,,,,,,,,,,,,,,,,,,,,,,,,,,,,,,,,,,,,,,,,,,,,,,,,,,,,,,,,,,,,,,,,,,,,,,
,,65ba73523f2c96712bafc391,2024-02-21_21h15.33.013,kallum_motion_pilot,2023.2.2,Win32,59.88023952,65ba73523f2c96712bafc391,65d6bb0e977760de756971f7,65d6bc38058bccc373aa7925,0.0996,0.0997,1,34,196,74,1,twoone,,,,,,,,,,,,,,,,,,,,,,,,,,,,,,,,,,,,,,,,,,,,,,,,,,,,,,,,,,,,,,,,,,,,,,,,,,,,,,,,,,,,,,,,,,,,,,,,,,,,,,,,,,,,,,,,,,,,,,,,,,,,,,,,,,,,,,,,,
,,65ba73523f2c96712bafc391,2024-02-21_21h15.33.013,kallum_motion_pilot,2023.2.2,Win32,59.88023952,65ba73523f2c96712bafc391,65d6bb0e977760de756971f7,65d6bc38058bccc373aa7925,0.0998,0.0999,1,35,197,17,1,onethree,,,,,,,,,,,,,,,,,,,,,,,,,,,,,,,,,,,,,,,,,,,,,,,,,,,,,,,,,,,,,,,,,,,,,,,,,,,,,,,,,,,,,,,,,,,,,,,,,,,,,,,,,,,,,,,,,,,,,,,,,,,,,,,,,,,,,,,,,
,,65ba73523f2c96712bafc391,2024-02-21_21h15.33.013,kallum_motion_pilot,2023.2.2,Win32,59.88023952,65ba73523f2c96712bafc391,65d6bb0e977760de756971f7,65d6bc38058bccc373aa7925,0.1,0.1001,1,36,198,93,1,seveneight,,,,,,,,,,,,,,,,,,,,,,,,,,,,,,,,,,,,,,,,,,,,,,,,,,,,,,,,,,,,,,,,,,,,,,,,,,,,,,,,,,,,,,,,,,,,,,,,,,,,,,,,,,,,,,,,,,,,,,,,,,,,,,,,,,,,,,,,,
,,65ba73523f2c96712bafc391,2024-02-21_21h15.33.013,kallum_motion_pilot,2023.2.2,Win32,59.88023952,65ba73523f2c96712bafc391,65d6bb0e977760de756971f7,65d6bc38058bccc373aa7925,0.1002,0.1003,1,37,199,148,1,sevenfive,,,,,,,,,,,,,,,,,,,,,,,,,,,,,,,,,,,,,,,,,,,,,,,,,,,,,,,,,,,,,,,,,,,,,,,,,,,,,,,,,,,,,,,,,,,,,,,,,,,,,,,,,,,,,,,,,,,,,,,,,,,,,,,,,,,,,,,,,
,,65ba73523f2c96712bafc391,2024-02-21_21h15.33.013,kallum_motion_pilot,2023.2.2,Win32,59.88023952,65ba73523f2c96712bafc391,65d6bb0e977760de756971f7,65d6bc38058bccc373aa7925,0.1004,0.1005,1,38,200,14,1,fourtwo,,,,,,,,,,,,,,,,,,,,,,,,,,,,,,,,,,,,,,,,,,,,,,,,,,,,,,,,,,,,,,,,,,,,,,,,,,,,,,,,,,,,,,,,,,,,,,,,,,,,,,,,,,,,,,,,,,,,,,,,,,,,,,,,,,,,,,,,,
,,65ba73523f2c96712bafc391,2024-02-21_21h15.33.013,kallum_motion_pilot,2023.2.2,Win32,59.88023952,65ba73523f2c96712bafc391,65d6bb0e977760de756971f7,65d6bc38058bccc373aa7925,0.1005,0.1006,1,39,201,92,1,sevenfive,,,,,,,,,,,,,,,,,,,,,,,,,,,,,,,,,,,,,,,,,,,,,,,,,,,,,,,,,,,,,,,,,,,,,,,,,,,,,,,,,,,,,,,,,,,,,,,,,,,,,,,,,,,,,,,,,,,,,,,,,,,,,,,,,,,,,,,,,
,,65ba73523f2c96712bafc391,2024-02-21_21h15.33.013,kallum_motion_pilot,2023.2.2,Win32,59.88023952,65ba73523f2c96712bafc391,65d6bb0e977760de756971f7,65d6bc38058bccc373aa7925,0.1007,0.1008,1,40,202,133,1,seveneight,,,,,,,,,,,,,,,,,,,,,,,,,,,,,,,,,,,,,,,,,,,,,,,,,,,,,,,,,,,,,,,,,,,,,,,,,,,,,,,,,,,,,,,,,,,,,,,,,,,,,,,,,,,,,,,,,,,,,,,,,,,,,,,,,,,,,,,,,
,,65ba73523f2c96712bafc391,2024-02-21_21h15.33.013,kallum_motion_pilot,2023.2.2,Win32,59.88023952,65ba73523f2c96712bafc391,65d6bb0e977760de756971f7,65d6bc38058bccc373aa7925,0.1009,0.1009,1,41,203,120,1,fivesix,,,,,,,,,,,,,,,,,,,,,,,,,,,,,,,,,,,,,,,,,,,,,,,,,,,,,,,,,,,,,,,,,,,,,,,,,,,,,,,,,,,,,,,,,,,,,,,,,,,,,,,,,,,,,,,,,,,,,,,,,,,,,,,,,,,,,,,,,
,,65ba73523f2c96712bafc391,2024-02-21_21h15.33.013,kallum_motion_pilot,2023.2.2,Win32,59.88023952,65ba73523f2c96712bafc391,65d6bb0e977760de756971f7,65d6bc38058bccc373aa7925,0.101,0.1011,1,42,204,31,1,fourthree,,,,,,,,,,,,,,,,,,,,,,,,,,,,,,,,,,,,,,,,,,,,,,,,,,,,,,,,,,,,,,,,,,,,,,,,,,,,,,,,,,,,,,,,,,,,,,,,,,,,,,,,,,,,,,,,,,,,,,,,,,,,,,,,,,,,,,,,,
,,65ba73523f2c96712bafc391,2024-02-21_21h15.33.013,kallum_motion_pilot,2023.2.2,Win32,59.88023952,65ba73523f2c96712bafc391,65d6bb0e977760de756971f7,65d6bc38058bccc373aa7925,0.1012,0.1013,1,43,205,86,1,eightsix,,,,,,,,,,,,,,,,,,,,,,,,,,,,,,,,,,,,,,,,,,,,,,,,,,,,,,,,,,,,,,,,,,,,,,,,,,,,,,,,,,,,,,,,,,,,,,,,,,,,,,,,,,,,,,,,,,,,,,,,,,,,,,,,,,,,,,,,,
,,65ba73523f2c96712bafc391,2024-02-21_21h15.33.013,kallum_motion_pilot,2023.2.2,Win32,59.88023952,65ba73523f2c96712bafc391,65d6bb0e977760de756971f7,65d6bc38058bccc373aa7925,0.1014,0.1015,1,44,206,150,1,eightsix,,,,,,,,,,,,,,,,,,,,,,,,,,,,,,,,,,,,,,,,,,,,,,,,,,,,,,,,,,,,,,,,,,,,,,,,,,,,,,,,,,,,,,,,,,,,,,,,,,,,,,,,,,,,,,,,,,,,,,,,,,,,,,,,,,,,,,,,,
,,65ba73523f2c96712bafc391,2024-02-21_21h15.33.013,kallum_motion_pilot,2023.2.2,Win32,59.88023952,65ba73523f2c96712bafc391,65d6bb0e977760de756971f7,65d6bc38058bccc373aa7925,0.1016,0.1017,1,45,207,140,1,sevenfive,,,,,,,,,,,,,,,,,,,,,,,,,,,,,,,,,,,,,,,,,,,,,,,,,,,,,,,,,,,,,,,,,,,,,,,,,,,,,,,,,,,,,,,,,,,,,,,,,,,,,,,,,,,,,,,,,,,,,,,,,,,,,,,,,,,,,,,,,
,,65ba73523f2c96712bafc391,2024-02-21_21h15.33.013,kallum_motion_pilot,2023.2.2,Win32,59.88023952,65ba73523f2c96712bafc391,65d6bb0e977760de756971f7,65d6bc38058bccc373aa7925,0.1017,0.1019,1,46,208,151,1,eightseven,,,,,,,,,,,,,,,,,,,,,,,,,,,,,,,,,,,,,,,,,,,,,,,,,,,,,,,,,,,,,,,,,,,,,,,,,,,,,,,,,,,,,,,,,,,,,,,,,,,,,,,,,,,,,,,,,,,,,,,,,,,,,,,,,,,,,,,,,
,,65ba73523f2c96712bafc391,2024-02-21_21h15.33.013,kallum_motion_pilot,2023.2.2,Win32,59.88023952,65ba73523f2c96712bafc391,65d6bb0e977760de756971f7,65d6bc38058bccc373aa7925,0.1019,0.102,1,47,209,62,1,fourtwo,,,,,,,,,,,,,,,,,,,,,,,,,,,,,,,,,,,,,,,,,,,,,,,,,,,,,,,,,,,,,,,,,,,,,,,,,,,,,,,,,,,,,,,,,,,,,,,,,,,,,,,,,,,,,,,,,,,,,,,,,,,,,,,,,,,,,,,,,
,,65ba73523f2c96712bafc391,2024-02-21_21h15.33.013,kallum_motion_pilot,2023.2.2,Win32,59.88023952,65ba73523f2c96712bafc391,65d6bb0e977760de756971f7,65d6bc38058bccc373aa7925,0.1021,0.1021,1,48,210,135,1,eightseven,,,,,,,,,,,,,,,,,,,,,,,,,,,,,,,,,,,,,,,,,,,,,,,,,,,,,,,,,,,,,,,,,,,,,,,,,,,,,,,,,,,,,,,,,,,,,,,,,,,,,,,,,,,,,,,,,,,,,,,,,,,,,,,,,,,,,,,,,
,,65ba73523f2c96712bafc391,2024-02-21_21h15.33.013,kallum_motion_pilot,2023.2.2,Win32,59.88023952,65ba73523f2c96712bafc391,65d6bb0e977760de756971f7,65d6bc38058bccc373aa7925,0.1023,0.1024,1,49,211,49,1,onethree,,,,,,,,,,,,,,,,,,,,,,,,,,,,,,,,,,,,,,,,,,,,,,,,,,,,,,,,,,,,,,,,,,,,,,,,,,,,,,,,,,,,,,,,,,,,,,,,,,,,,,,,,,,,,,,,,,,,,,,,,,,,,,,,,,,,,,,,,
,,65ba73523f2c96712bafc391,2024-02-21_21h15.33.013,kallum_motion_pilot,2023.2.2,Win32,59.88023952,65ba73523f2c96712bafc391,65d6bb0e977760de756971f7,65d6bc38058bccc373aa7925,0.1024,0.1025,1,50,212,23,1,fourthree,,,,,,,,,,,,,,,,,,,,,,,,,,,,,,,,,,,,,,,,,,,,,,,,,,,,,,,,,,,,,,,,,,,,,,,,,,,,,,,,,,,,,,,,,,,,,,,,,,,,,,,,,,,,,,,,,,,,,,,,,,,,,,,,,,,,,,,,,
,,65ba73523f2c96712bafc391,2024-02-21_21h15.33.013,kallum_motion_pilot,2023.2.2,Win32,59.88023952,65ba73523f2c96712bafc391,65d6bb0e977760de756971f7,65d6bc38058bccc373aa7925,0.1027,0.1027,1,51,213,83,1,sixeight,,,,,,,,,,,,,,,,,,,,,,,,,,,,,,,,,,,,,,,,,,,,,,,,,,,,,,,,,,,,,,,,,,,,,,,,,,,,,,,,,,,,,,,,,,,,,,,,,,,,,,,,,,,,,,,,,,,,,,,,,,,,,,,,,,,,,,,,,
,,65ba73523f2c96712bafc391,2024-02-21_21h15.33.013,kallum_motion_pilot,2023.2.2,Win32,59.88023952,65ba73523f2c96712bafc391,65d6bb0e977760de756971f7,65d6bc38058bccc373aa7925,0.1028,0.1029,1,52,214,161,1,fiveseven,,,,,,,,,,,,,,,,,,,,,,,,,,,,,,,,,,,,,,,,,,,,,,,,,,,,,,,,,,,,,,,,,,,,,,,,,,,,,,,,,,,,,,,,,,,,,,,,,,,,,,,,,,,,,,,,,,,,,,,,,,,,,,,,,,,,,,,,,
,,65ba73523f2c96712bafc391,2024-02-21_21h15.33.013,kallum_motion_pilot,2023.2.2,Win32,59.88023952,65ba73523f2c96712bafc391,65d6bb0e977760de756971f7,65d6bc38058bccc373aa7925,0.1029,0.1031,1,53,215,18,1,twoone,,,,,,,,,,,,,,,,,,,,,,,,,,,,,,,,,,,,,,,,,,,,,,,,,,,,,,,,,,,,,,,,,,,,,,,,,,,,,,,,,,,,,,,,,,,,,,,,,,,,,,,,,,,,,,,,,,,,,,,,,,,,,,,,,,,,,,,,,
,,65ba73523f2c96712bafc391,2024-02-21_21h15.33.013,kallum_motion_pilot,2023.2.2,Win32,59.88023952,65ba73523f2c96712bafc391,65d6bb0e977760de756971f7,65d6bc38058bccc373aa7925,0.1031,0.1032,1,54,216,22,1,fourtwo,,,,,,,,,,,,,,,,,,,,,,,,,,,,,,,,,,,,,,,,,,,,,,,,,,,,,,,,,,,,,,,,,,,,,,,,,,,,,,,,,,,,,,,,,,,,,,,,,,,,,,,,,,,,,,,,,,,,,,,,,,,,,,,,,,,,,,,,,
,,65ba73523f2c96712bafc391,2024-02-21_21h15.33.013,kallum_motion_pilot,2023.2.2,Win32,59.88023952,65ba73523f2c96712bafc391,65d6bb0e977760de756971f7,65d6bc38058bccc373aa7925,0.1033,0.1034,1,55,217,128,1,fivesix,,,,,,,,,,,,,,,,,,,,,,,,,,,,,,,,,,,,,,,,,,,,,,,,,,,,,,,,,,,,,,,,,,,,,,,,,,,,,,,,,,,,,,,,,,,,,,,,,,,,,,,,,,,,,,,,,,,,,,,,,,,,,,,,,,,,,,,,,
,,65ba73523f2c96712bafc391,2024-02-21_21h15.33.013,kallum_motion_pilot,2023.2.2,Win32,59.88023952,65ba73523f2c96712bafc391,65d6bb0e977760de756971f7,65d6bc38058bccc373aa7925,0.1034,0.1035,1,56,218,104,1,fivesix,,,,,,,,,,,,,,,,,,,,,,,,,,,,,,,,,,,,,,,,,,,,,,,,,,,,,,,,,,,,,,,,,,,,,,,,,,,,,,,,,,,,,,,,,,,,,,,,,,,,,,,,,,,,,,,,,,,,,,,,,,,,,,,,,,,,,,,,,
,,65ba73523f2c96712bafc391,2024-02-21_21h15.33.013,kallum_motion_pilot,2023.2.2,Win32,59.88023952,65ba73523f2c96712bafc391,65d6bb0e977760de756971f7,65d6bc38058bccc373aa7925,0.1037,0.1038,1,57,219,138,1,sixfive,,,,,,,,,,,,,,,,,,,,,,,,,,,,,,,,,,,,,,,,,,,,,,,,,,,,,,,,,,,,,,,,,,,,,,,,,,,,,,,,,,,,,,,,,,,,,,,,,,,,,,,,,,,,,,,,,,,,,,,,,,,,,,,,,,,,,,,,,
,,65ba73523f2c96712bafc391,2024-02-21_21h15.33.013,kallum_motion_pilot,2023.2.2,Win32,59.88023952,65ba73523f2c96712bafc391,65d6bb0e977760de756971f7,65d6bc38058bccc373aa7925,0.1039,0.1039,1,58,220,119,1,eightseven,,,,,,,,,,,,,,,,,,,,,,,,,,,,,,,,,,,,,,,,,,,,,,,,,,,,,,,,,,,,,,,,,,,,,,,,,,,,,,,,,,,,,,,,,,,,,,,,,,,,,,,,,,,,,,,,,,,,,,,,,,,,,,,,,,,,,,,,,
,,65ba73523f2c96712bafc391,2024-02-21_21h15.33.013,kallum_motion_pilot,2023.2.2,Win32,59.88023952,65ba73523f2c96712bafc391,65d6bb0e977760de756971f7,65d6bc38058bccc373aa7925,0.104,0.1041,1,59,221,21,1,threefour,,,,,,,,,,,,,,,,,,,,,,,,,,,,,,,,,,,,,,,,,,,,,,,,,,,,,,,,,,,,,,,,,,,,,,,,,,,,,,,,,,,,,,,,,,,,,,,,,,,,,,,,,,,,,,,,,,,,,,,,,,,,,,,,,,,,,,,,,
,,65ba73523f2c96712bafc391,2024-02-21_21h15.33.013,kallum_motion_pilot,2023.2.2,Win32,59.88023952,65ba73523f2c96712bafc391,65d6bb0e977760de756971f7,65d6bc38058bccc373aa7925,0.1043,0.1046,1,60,222,113,1,fiveseven,,,,,,,,,,,,,,,,,,,,,,,,,,,,,,,,,,,,,,,,,,,,,,,,,,,,,,,,,,,,,,,,,,,,,,,,,,,,,,,,,,,,,,,,,,,,,,,,,,,,,,,,,,,,,,,,,,,,,,,,,,,,,,,,,,,,,,,,,
,,65ba73523f2c96712bafc391,2024-02-21_21h15.33.013,kallum_motion_pilot,2023.2.2,Win32,59.88023952,65ba73523f2c96712bafc391,65d6bb0e977760de756971f7,65d6bc38058bccc373aa7925,0.1047,0.1049,1,61,223,7,1,fourthree,,,,,,,,,,,,,,,,,,,,,,,,,,,,,,,,,,,,,,,,,,,,,,,,,,,,,,,,,,,,,,,,,,,,,,,,,,,,,,,,,,,,,,,,,,,,,,,,,,,,,,,,,,,,,,,,,,,,,,,,,,,,,,,,,,,,,,,,,
,,65ba73523f2c96712bafc391,2024-02-21_21h15.33.013,kallum_motion_pilot,2023.2.2,Win32,59.88023952,65ba73523f2c96712bafc391,65d6bb0e977760de756971f7,65d6bc38058bccc373aa7925,0.1051,0.1052,1,62,224,131,1,sixeight,,,,,,,,,,,,,,,,,,,,,,,,,,,,,,,,,,,,,,,,,,,,,,,,,,,,,,,,,,,,,,,,,,,,,,,,,,,,,,,,,,,,,,,,,,,,,,,,,,,,,,,,,,,,,,,,,,,,,,,,,,,,,,,,,,,,,,,,,
,,65ba73523f2c96712bafc391,2024-02-21_21h15.33.013,kallum_motion_pilot,2023.2.2,Win32,59.88023952,65ba73523f2c96712bafc391,65d6bb0e977760de756971f7,65d6bc38058bccc373aa7925,0.1055,0.1055,1,63,225,89,1,fiveseven,,,,,,,,,,,,,,,,,,,,,,,,,,,,,,,,,,,,,,,,,,,,,,,,,,,,,,,,,,,,,,,,,,,,,,,,,,,,,,,,,,,,,,,,,,,,,,,,,,,,,,,,,,,,,,,,,,,,,,,,,,,,,,,,,,,,,,,,,
,,65ba73523f2c96712bafc391,2024-02-21_21h15.33.013,kallum_motion_pilot,2023.2.2,Win32,59.88023952,65ba73523f2c96712bafc391,65d6bb0e977760de756971f7,65d6bc38058bccc373aa7925,0.1057,0.1059,1,64,226,57,1,onethree,,,,,,,,,,,,,,,,,,,,,,,,,,,,,,,,,,,,,,,,,,,,,,,,,,,,,,,,,,,,,,,,,,,,,,,,,,,,,,,,,,,,,,,,,,,,,,,,,,,,,,,,,,,,,,,,,,,,,,,,,,,,,,,,,,,,,,,,,
,,65ba73523f2c96712bafc391,2024-02-21_21h15.33.013,kallum_motion_pilot,2023.2.2,Win32,59.88023952,65ba73523f2c96712bafc391,65d6bb0e977760de756971f7,65d6bc38058bccc373aa7925,0.1061,0.1062,1,65,227,91,1,sixeight,,,,,,,,,,,,,,,,,,,,,,,,,,,,,,,,,,,,,,,,,,,,,,,,,,,,,,,,,,,,,,,,,,,,,,,,,,,,,,,,,,,,,,,,,,,,,,,,,,,,,,,,,,,,,,,,,,,,,,,,,,,,,,,,,,,,,,,,,
,,65ba73523f2c96712bafc391,2024-02-21_21h15.33.013,kallum_motion_pilot,2023.2.2,Win32,59.88023952,65ba73523f2c96712bafc391,65d6bb0e977760de756971f7,65d6bc38058bccc373aa7925,0.1063,0.1064,1,66,228,37,1,threefour,,,,,,,,,,,,,,,,,,,,,,,,,,,,,,,,,,,,,,,,,,,,,,,,,,,,,,,,,,,,,,,,,,,,,,,,,,,,,,,,,,,,,,,,,,,,,,,,,,,,,,,,,,,,,,,,,,,,,,,,,,,,,,,,,,,,,,,,,
,,65ba73523f2c96712bafc391,2024-02-21_21h15.33.013,kallum_motion_pilot,2023.2.2,Win32,59.88023952,65ba73523f2c96712bafc391,65d6bb0e977760de756971f7,65d6bc38058bccc373aa7925,0.1066,0.1066,1,67,229,123,1,sixeight,,,,,,,,,,,,,,,,,,,,,,,,,,,,,,,,,,,,,,,,,,,,,,,,,,,,,,,,,,,,,,,,,,,,,,,,,,,,,,,,,,,,,,,,,,,,,,,,,,,,,,,,,,,,,,,,,,,,,,,,,,,,,,,,,,,,,,,,,
,,65ba73523f2c96712bafc391,2024-02-21_21h15.33.013,kallum_motion_pilot,2023.2.2,Win32,59.88023952,65ba73523f2c96712bafc391,65d6bb0e977760de756971f7,65d6bc38058bccc373aa7925,0.1068,0.1068,1,68,230,106,1,sixfive,,,,,,,,,,,,,,,,,,,,,,,,,,,,,,,,,,,,,,,,,,,,,,,,,,,,,,,,,,,,,,,,,,,,,,,,,,,,,,,,,,,,,,,,,,,,,,,,,,,,,,,,,,,,,,,,,,,,,,,,,,,,,,,,,,,,,,,,,
,,65ba73523f2c96712bafc391,2024-02-21_21h15.33.013,kallum_motion_pilot,2023.2.2,Win32,59.88023952,65ba73523f2c96712bafc391,65d6bb0e977760de756971f7,65d6bc38058bccc373aa7925,0.1069,0.107,1,69,231,44,1,threeone,,,,,,,,,,,,,,,,,,,,,,,,,,,,,,,,,,,,,,,,,,,,,,,,,,,,,,,,,,,,,,,,,,,,,,,,,,,,,,,,,,,,,,,,,,,,,,,,,,,,,,,,,,,,,,,,,,,,,,,,,,,,,,,,,,,,,,,,,
,,65ba73523f2c96712bafc391,2024-02-21_21h15.33.013,kallum_motion_pilot,2023.2.2,Win32,59.88023952,65ba73523f2c96712bafc391,65d6bb0e977760de756971f7,65d6bc38058bccc373aa7925,0.1071,0.1071,1,70,232,117,1,seveneight,,,,,,,,,,,,,,,,,,,,,,,,,,,,,,,,,,,,,,,,,,,,,,,,,,,,,,,,,,,,,,,,,,,,,,,,,,,,,,,,,,,,,,,,,,,,,,,,,,,,,,,,,,,,,,,,,,,,,,,,,,,,,,,,,,,,,,,,,
,,65ba73523f2c96712bafc391,2024-02-21_21h15.33.013,kallum_motion_pilot,2023.2.2,Win32,59.88023952,65ba73523f2c96712bafc391,65d6bb0e977760de756971f7,65d6bc38058bccc373aa7925,0.1073,0.1073,1,71,233,108,1,sevenfive,,,,,,,,,,,,,,,,,,,,,,,,,,,,,,,,,,,,,,,,,,,,,,,,,,,,,,,,,,,,,,,,,,,,,,,,,,,,,,,,,,,,,,,,,,,,,,,,,,,,,,,,,,,,,,,,,,,,,,,,,,,,,,,,,,,,,,,,,
,,65ba73523f2c96712bafc391,2024-02-21_21h15.33.013,kallum_motion_pilot,2023.2.2,Win32,59.88023952,65ba73523f2c96712bafc391,65d6bb0e977760de756971f7,65d6bc38058bccc373aa7925,0.1074,0.1075,1,72,234,48,1,onetwo,,,,,,,,,,,,,,,,,,,,,,,,,,,,,,,,,,,,,,,,,,,,,,,,,,,,,,,,,,,,,,,,,,,,,,,,,,,,,,,,,,,,,,,,,,,,,,,,,,,,,,,,,,,,,,,,,,,,,,,,,,,,,,,,,,,,,,,,,
,,65ba73523f2c96712bafc391,2024-02-21_21h15.33.013,kallum_motion_pilot,2023.2.2,Win32,59.88023952,65ba73523f2c96712bafc391,65d6bb0e977760de756971f7,65d6bc38058bccc373aa7925,0.1077,0.1077,1,73,235,72,1,onetwo,,,,,,,,,,,,,,,,,,,,,,,,,,,,,,,,,,,,,,,,,,,,,,,,,,,,,,,,,,,,,,,,,,,,,,,,,,,,,,,,,,,,,,,,,,,,,,,,,,,,,,,,,,,,,,,,,,,,,,,,,,,,,,,,,,,,,,,,,
,,65ba73523f2c96712bafc391,2024-02-21_21h15.33.013,kallum_motion_pilot,2023.2.2,Win32,59.88023952,65ba73523f2c96712bafc391,65d6bb0e977760de756971f7,65d6bc38058bccc373aa7925,0.1078,0.1078,1,74,236,152,1,fivesix,,,,,,,,,,,,,,,,,,,,,,,,,,,,,,,,,,,,,,,,,,,,,,,,,,,,,,,,,,,,,,,,,,,,,,,,,,,,,,,,,,,,,,,,,,,,,,,,,,,,,,,,,,,,,,,,,,,,,,,,,,,,,,,,,,,,,,,,,
,,65ba73523f2c96712bafc391,2024-02-21_21h15.33.013,kallum_motion_pilot,2023.2.2,Win32,59.88023952,65ba73523f2c96712bafc391,65d6bb0e977760de756971f7,65d6bc38058bccc373aa7925,0.108,0.108,1,75,237,8,1,onetwo,,,,,,,,,,,,,,,,,,,,,,,,,,,,,,,,,,,,,,,,,,,,,,,,,,,,,,,,,,,,,,,,,,,,,,,,,,,,,,,,,,,,,,,,,,,,,,,,,,,,,,,,,,,,,,,,,,,,,,,,,,,,,,,,,,,,,,,,,
,,65ba73523f2c96712bafc391,2024-02-21_21h15.33.013,kallum_motion_pilot,2023.2.2,Win32,59.88023952,65ba73523f2c96712bafc391,65d6bb0e977760de756971f7,65d6bc38058bccc373aa7925,0.1081,0.1083,1,76,238,96,1,fivesix,,,,,,,,,,,,,,,,,,,,,,,,,,,,,,,,,,,,,,,,,,,,,,,,,,,,,,,,,,,,,,,,,,,,,,,,,,,,,,,,,,,,,,,,,,,,,,,,,,,,,,,,,,,,,,,,,,,,,,,,,,,,,,,,,,,,,,,,,
,,65ba73523f2c96712bafc391,2024-02-21_21h15.33.013,kallum_motion_pilot,2023.2.2,Win32,59.88023952,65ba73523f2c96712bafc391,65d6bb0e977760de756971f7,65d6bc38058bccc373aa7925,0.1083,0.1084,1,77,239,69,1,threefour,,,,,,,,,,,,,,,,,,,,,,,,,,,,,,,,,,,,,,,,,,,,,,,,,,,,,,,,,,,,,,,,,,,,,,,,,,,,,,,,,,,,,,,,,,,,,,,,,,,,,,,,,,,,,,,,,,,,,,,,,,,,,,,,,,,,,,,,,
,,65ba73523f2c96712bafc391,2024-02-21_21h15.33.013,kallum_motion_pilot,2023.2.2,Win32,59.88023952,65ba73523f2c96712bafc391,65d6bb0e977760de756971f7,65d6bc38058bccc373aa7925,0.1085,0.1086,1,78,240,157,1,seveneight,,,,,,,,,,,,,,,,,,,,,,,,,,,,,,,,,,,,,,,,,,,,,,,,,,,,,,,,,,,,,,,,,,,,,,,,,,,,,,,,,,,,,,,,,,,,,,,,,,,,,,,,,,,,,,,,,,,,,,,,,,,,,,,,,,,,,,,,,
,,65ba73523f2c96712bafc391,2024-02-21_21h15.33.013,kallum_motion_pilot,2023.2.2,Win32,59.88023952,65ba73523f2c96712bafc391,65d6bb0e977760de756971f7,65d6bc38058bccc373aa7925,0.1086,0.1088,1,79,241,26,1,twoone,,,,,,,,,,,,,,,,,,,,,,,,,,,,,,,,,,,,,,,,,,,,,,,,,,,,,,,,,,,,,,,,,,,,,,,,,,,,,,,,,,,,,,,,,,,,,,,,,,,,,,,,,,,,,,,,,,,,,,,,,,,,,,,,,,,,,,,,,
,,65ba73523f2c96712bafc391,2024-02-21_21h15.33.013,kallum_motion_pilot,2023.2.2,Win32,59.88023952,65ba73523f2c96712bafc391,65d6bb0e977760de756971f7,65d6bc38058bccc373aa7925,0.1088,0.1089,1,80,242,50,1,twoone,,,,,,,,,,,,,,,,,,,,,,,,,,,,,,,,,,,,,,,,,,,,,,,,,,,,,,,,,,,,,,,,,,,,,,,,,,,,,,,,,,,,,,,,,,,,,,,,,,,,,,,,,,,,,,,,,,,,,,,,,,,,,,,,,,,,,,,,,
,,65ba73523f2c96712bafc391,2024-02-21_21h15.33.013,kallum_motion_pilot,2023.2.2,Win32,59.88023952,65ba73523f2c96712bafc391,65d6bb0e977760de756971f7,65d6bc38058bccc373aa7925,0.109,0.1091,1,81,243,39,1,fourthree,,,,,,,,,,,,,,,,,,,,,,,,,,,,,,,,,,,,,,,,,,,,,,,,,,,,,,,,,,,,,,,,,,,,,,,,,,,,,,,,,,,,,,,,,,,,,,,,,,,,,,,,,,,,,,,,,,,,,,,,,,,,,,,,,,,,,,,,,
,,65ba73523f2c96712bafc391,2024-02-21_21h15.33.013,kallum_motion_pilot,2023.2.2,Win32,59.88023952,65ba73523f2c96712bafc391,65d6bb0e977760de756971f7,65d6bc38058bccc373aa7925,0.1093,0.1095,1,82,244,101,1,seveneight,,,,,,,,,,,,,,,,,,,,,,,,,,,,,,,,,,,,,,,,,,,,,,,,,,,,,,,,,,,,,,,,,,,,,,,,,,,,,,,,,,,,,,,,,,,,,,,,,,,,,,,,,,,,,,,,,,,,,,,,,,,,,,,,,,,,,,,,,
,,65ba73523f2c96712bafc391,2024-02-21_21h15.33.013,kallum_motion_pilot,2023.2.2,Win32,59.88023952,65ba73523f2c96712bafc391,65d6bb0e977760de756971f7,65d6bc38058bccc373aa7925,0.1096,0.1098,1,83,245,80,1,fivesix,,,,,,,,,,,,,,,,,,,,,,,,,,,,,,,,,,,,,,,,,,,,,,,,,,,,,,,,,,,,,,,,,,,,,,,,,,,,,,,,,,,,,,,,,,,,,,,,,,,,,,,,,,,,,,,,,,,,,,,,,,,,,,,,,,,,,,,,,
,,65ba73523f2c96712bafc391,2024-02-21_21h15.33.013,kallum_motion_pilot,2023.2.2,Win32,59.88023952,65ba73523f2c96712bafc391,65d6bb0e977760de756971f7,65d6bc38058bccc373aa7925,0.1098,0.11,1,84,246,145,1,fiveseven,,,,,,,,,,,,,,,,,,,,,,,,,,,,,,,,,,,,,,,,,,,,,,,,,,,,,,,,,,,,,,,,,,,,,,,,,,,,,,,,,,,,,,,,,,,,,,,,,,,,,,,,,,,,,,,,,,,,,,,,,,,,,,,,,,,,,,,,,
,,65ba73523f2c96712bafc391,2024-02-21_21h15.33.013,kallum_motion_pilot,2023.2.2,Win32,59.88023952,65ba73523f2c96712bafc391,65d6bb0e977760de756971f7,65d6bc38058bccc373aa7925,0.1102,0.1103,1,85,247,71,1,fourthree,,,,,,,,,,,,,,,,,,,,,,,,,,,,,,,,,,,,,,,,,,,,,,,,,,,,,,,,,,,,,,,,,,,,,,,,,,,,,,,,,,,,,,,,,,,,,,,,,,,,,,,,,,,,,,,,,,,,,,,,,,,,,,,,,,,,,,,,,
,,65ba73523f2c96712bafc391,2024-02-21_21h15.33.013,kallum_motion_pilot,2023.2.2,Win32,59.88023952,65ba73523f2c96712bafc391,65d6bb0e977760de756971f7,65d6bc38058bccc373aa7925,0.1104,0.1106,1,86,248,109,1,seveneight,,,,,,,,,,,,,,,,,,,,,,,,,,,,,,,,,,,,,,,,,,,,,,,,,,,,,,,,,,,,,,,,,,,,,,,,,,,,,,,,,,,,,,,,,,,,,,,,,,,,,,,,,,,,,,,,,,,,,,,,,,,,,,,,,,,,,,,,,
,,65ba73523f2c96712bafc391,2024-02-21_21h15.33.013,kallum_motion_pilot,2023.2.2,Win32,59.88023952,65ba73523f2c96712bafc391,65d6bb0e977760de756971f7,65d6bc38058bccc373aa7925,0.1106,0.1108,1,87,249,129,1,fiveseven,,,,,,,,,,,,,,,,,,,,,,,,,,,,,,,,,,,,,,,,,,,,,,,,,,,,,,,,,,,,,,,,,,,,,,,,,,,,,,,,,,,,,,,,,,,,,,,,,,,,,,,,,,,,,,,,,,,,,,,,,,,,,,,,,,,,,,,,,
,,65ba73523f2c96712bafc391,2024-02-21_21h15.33.013,kallum_motion_pilot,2023.2.2,Win32,59.88023952,65ba73523f2c96712bafc391,65d6bb0e977760de756971f7,65d6bc38058bccc373aa7925,0.1109,0.1111,1,88,250,137,1,fiveseven,,,,,,,,,,,,,,,,,,,,,,,,,,,,,,,,,,,,,,,,,,,,,,,,,,,,,,,,,,,,,,,,,,,,,,,,,,,,,,,,,,,,,,,,,,,,,,,,,,,,,,,,,,,,,,,,,,,,,,,,,,,,,,,,,,,,,,,,,
,,65ba73523f2c96712bafc391,2024-02-21_21h15.33.013,kallum_motion_pilot,2023.2.2,Win32,59.88023952,65ba73523f2c96712bafc391,65d6bb0e977760de756971f7,65d6bc38058bccc373aa7925,0.1112,0.1113,1,89,251,146,1,sixfive,,,,,,,,,,,,,,,,,,,,,,,,,,,,,,,,,,,,,,,,,,,,,,,,,,,,,,,,,,,,,,,,,,,,,,,,,,,,,,,,,,,,,,,,,,,,,,,,,,,,,,,,,,,,,,,,,,,,,,,,,,,,,,,,,,,,,,,,,
,,65ba73523f2c96712bafc391,2024-02-21_21h15.33.013,kallum_motion_pilot,2023.2.2,Win32,59.88023952,65ba73523f2c96712bafc391,65d6bb0e977760de756971f7,65d6bc38058bccc373aa7925,0.1115,0.1116,1,90,252,15,1,fourthree,,,,,,,,,,,,,,,,,,,,,,,,,,,,,,,,,,,,,,,,,,,,,,,,,,,,,,,,,,,,,,,,,,,,,,,,,,,,,,,,,,,,,,,,,,,,,,,,,,,,,,,,,,,,,,,,,,,,,,,,,,,,,,,,,,,,,,,,,
,,65ba73523f2c96712bafc391,2024-02-21_21h15.33.013,kallum_motion_pilot,2023.2.2,Win32,59.88023952,65ba73523f2c96712bafc391,65d6bb0e977760de756971f7,65d6bc38058bccc373aa7925,0.1118,0.1119,1,91,253,77,1,threefour,,,,,,,,,,,,,,,,,,,,,,,,,,,,,,,,,,,,,,,,,,,,,,,,,,,,,,,,,,,,,,,,,,,,,,,,,,,,,,,,,,,,,,,,,,,,,,,,,,,,,,,,,,,,,,,,,,,,,,,,,,,,,,,,,,,,,,,,,
,,65ba73523f2c96712bafc391,2024-02-21_21h15.33.013,kallum_motion_pilot,2023.2.2,Win32,59.88023952,65ba73523f2c96712bafc391,65d6bb0e977760de756971f7,65d6bc38058bccc373aa7925,0.112,0.1122,1,92,254,34,1,twoone,,,,,,,,,,,,,,,,,,,,,,,,,,,,,,,,,,,,,,,,,,,,,,,,,,,,,,,,,,,,,,,,,,,,,,,,,,,,,,,,,,,,,,,,,,,,,,,,,,,,,,,,,,,,,,,,,,,,,,,,,,,,,,,,,,,,,,,,,
,,65ba73523f2c96712bafc391,2024-02-21_21h15.33.013,kallum_motion_pilot,2023.2.2,Win32,59.88023952,65ba73523f2c96712bafc391,65d6bb0e977760de756971f7,65d6bc38058bccc373aa7925,0.1124,0.1125,1,93,255,126,1,eightsix,,,,,,,,,,,,,,,,,,,,,,,,,,,,,,,,,,,,,,,,,,,,,,,,,,,,,,,,,,,,,,,,,,,,,,,,,,,,,,,,,,,,,,,,,,,,,,,,,,,,,,,,,,,,,,,,,,,,,,,,,,,,,,,,,,,,,,,,,
,,65ba73523f2c96712bafc391,2024-02-21_21h15.33.013,kallum_motion_pilot,2023.2.2,Win32,59.88023952,65ba73523f2c96712bafc391,65d6bb0e977760de756971f7,65d6bc38058bccc373aa7925,0.1127,0.1128,1,94,256,45,1,threefour,,,,,,,,,,,,,,,,,,,,,,,,,,,,,,,,,,,,,,,,,,,,,,,,,,,,,,,,,,,,,,,,,,,,,,,,,,,,,,,,,,,,,,,,,,,,,,,,,,,,,,,,,,,,,,,,,,,,,,,,,,,,,,,,,,,,,,,,,
,,65ba73523f2c96712bafc391,2024-02-21_21h15.33.013,kallum_motion_pilot,2023.2.2,Win32,59.88023952,65ba73523f2c96712bafc391,65d6bb0e977760de756971f7,65d6bc38058bccc373aa7925,0.1129,0.113,1,95,257,88,1,fivesix,,,,,,,,,,,,,,,,,,,,,,,,,,,,,,,,,,,,,,,,,,,,,,,,,,,,,,,,,,,,,,,,,,,,,,,,,,,,,,,,,,,,,,,,,,,,,,,,,,,,,,,,,,,,,,,,,,,,,,,,,,,,,,,,,,,,,,,,,
,,65ba73523f2c96712bafc391,2024-02-21_21h15.33.013,kallum_motion_pilot,2023.2.2,Win32,59.88023952,65ba73523f2c96712bafc391,65d6bb0e977760de756971f7,65d6bc38058bccc373aa7925,0.113,0.1131,1,96,258,111,1,eightseven,,,,,,,,,,,,,,,,,,,,,,,,,,,,,,,,,,,,,,,,,,,,,,,,,,,,,,,,,,,,,,,,,,,,,,,,,,,,,,,,,,,,,,,,,,,,,,,,,,,,,,,,,,,,,,,,,,,,,,,,,,,,,,,,,,,,,,,,,
,,65ba73523f2c96712bafc391,2024-02-21_21h15.33.013,kallum_motion_pilot,2023.2.2,Win32,59.88023952,65ba73523f2c96712bafc391,65d6bb0e977760de756971f7,65d6bc38058bccc373aa7925,0.1133,0.1134,1,97,259,122,1,sixfive,,,,,,,,,,,,,,,,,,,,,,,,,,,,,,,,,,,,,,,,,,,,,,,,,,,,,,,,,,,,,,,,,,,,,,,,,,,,,,,,,,,,,,,,,,,,,,,,,,,,,,,,,,,,,,,,,,,,,,,,,,,,,,,,,,,,,,,,,
,,65ba73523f2c96712bafc391,2024-02-21_21h15.33.013,kallum_motion_pilot,2023.2.2,Win32,59.88023952,65ba73523f2c96712bafc391,65d6bb0e977760de756971f7,65d6bc38058bccc373aa7925,0.1134,0.1135,1,98,260,158,1,eightsix,,,,,,,,,,,,,,,,,,,,,,,,,,,,,,,,,,,,,,,,,,,,,,,,,,,,,,,,,,,,,,,,,,,,,,,,,,,,,,,,,,,,,,,,,,,,,,,,,,,,,,,,,,,,,,,,,,,,,,,,,,,,,,,,,,,,,,,,,
,,65ba73523f2c96712bafc391,2024-02-21_21h15.33.013,kallum_motion_pilot,2023.2.2,Win32,59.88023952,65ba73523f2c96712bafc391,65d6bb0e977760de756971f7,65d6bc38058bccc373aa7925,0.1137,0.1139,1,99,261,81,1,fiveseven,,,,,,,,,,,,,,,,,,,,,,,,,,,,,,,,,,,,,,,,,,,,,,,,,,,,,,,,,,,,,,,,,,,,,,,,,,,,,,,,,,,,,,,,,,,,,,,,,,,,,,,,,,,,,,,,,,,,,,,,,,,,,,,,,,,,,,,,,
,,65ba73523f2c96712bafc391,2024-02-21_21h15.33.013,kallum_motion_pilot,2023.2.2,Win32,59.88023952,65ba73523f2c96712bafc391,65d6bb0e977760de756971f7,65d6bc38058bccc373aa7925,0.114,0.1142,1,100,262,30,1,fourtwo,,,,,,,,,,,,,,,,,,,,,,,,,,,,,,,,,,,,,,,,,,,,,,,,,,,,,,,,,,,,,,,,,,,,,,,,,,,,,,,,,,,,,,,,,,,,,,,,,,,,,,,,,,,,,,,,,,,,,,,,,,,,,,,,,,,,,,,,,
,,65ba73523f2c96712bafc391,2024-02-21_21h15.33.013,kallum_motion_pilot,2023.2.2,Win32,59.88023952,65ba73523f2c96712bafc391,65d6bb0e977760de756971f7,65d6bc38058bccc373aa7925,0.1142,0.1143,1,101,263,142,1,eightsix,,,,,,,,,,,,,,,,,,,,,,,,,,,,,,,,,,,,,,,,,,,,,,,,,,,,,,,,,,,,,,,,,,,,,,,,,,,,,,,,,,,,,,,,,,,,,,,,,,,,,,,,,,,,,,,,,,,,,,,,,,,,,,,,,,,,,,,,,
,,65ba73523f2c96712bafc391,2024-02-21_21h15.33.013,kallum_motion_pilot,2023.2.2,Win32,59.88023952,65ba73523f2c96712bafc391,65d6bb0e977760de756971f7,65d6bc38058bccc373aa7925,0.1145,0.1148,1,102,264,12,1,threeone,,,,,,,,,,,,,,,,,,,,,,,,,,,,,,,,,,,,,,,,,,,,,,,,,,,,,,,,,,,,,,,,,,,,,,,,,,,,,,,,,,,,,,,,,,,,,,,,,,,,,,,,,,,,,,,,,,,,,,,,,,,,,,,,,,,,,,,,,
,,65ba73523f2c96712bafc391,2024-02-21_21h15.33.013,kallum_motion_pilot,2023.2.2,Win32,59.88023952,65ba73523f2c96712bafc391,65d6bb0e977760de756971f7,65d6bc38058bccc373aa7925,0.1149,0.115,1,103,265,11,1,twofour,,,,,,,,,,,,,,,,,,,,,,,,,,,,,,,,,,,,,,,,,,,,,,,,,,,,,,,,,,,,,,,,,,,,,,,,,,,,,,,,,,,,,,,,,,,,,,,,,,,,,,,,,,,,,,,,,,,,,,,,,,,,,,,,,,,,,,,,,
,,65ba73523f2c96712bafc391,2024-02-21_21h15.33.013,kallum_motion_pilot,2023.2.2,Win32,59.88023952,65ba73523f2c96712bafc391,65d6bb0e977760de756971f7,65d6bc38058bccc373aa7925,0.1151,0.1152,1,104,266,52,1,threeone,,,,,,,,,,,,,,,,,,,,,,,,,,,,,,,,,,,,,,,,,,,,,,,,,,,,,,,,,,,,,,,,,,,,,,,,,,,,,,,,,,,,,,,,,,,,,,,,,,,,,,,,,,,,,,,,,,,,,,,,,,,,,,,,,,,,,,,,,
,,65ba73523f2c96712bafc391,2024-02-21_21h15.33.013,kallum_motion_pilot,2023.2.2,Win32,59.88023952,65ba73523f2c96712bafc391,65d6bb0e977760de756971f7,65d6bc38058bccc373aa7925,0.1153,0.1154,1,105,267,53,1,threefour,,,,,,,,,,,,,,,,,,,,,,,,,,,,,,,,,,,,,,,,,,,,,,,,,,,,,,,,,,,,,,,,,,,,,,,,,,,,,,,,,,,,,,,,,,,,,,,,,,,,,,,,,,,,,,,,,,,,,,,,,,,,,,,,,,,,,,,,,
,,65ba73523f2c96712bafc391,2024-02-21_21h15.33.013,kallum_motion_pilot,2023.2.2,Win32,59.88023952,65ba73523f2c96712bafc391,65d6bb0e977760de756971f7,65d6bc38058bccc373aa7925,0.1155,0.1156,1,106,268,125,1,seveneight,,,,,,,,,,,,,,,,,,,,,,,,,,,,,,,,,,,,,,,,,,,,,,,,,,,,,,,,,,,,,,,,,,,,,,,,,,,,,,,,,,,,,,,,,,,,,,,,,,,,,,,,,,,,,,,,,,,,,,,,,,,,,,,,,,,,,,,,,
,,65ba73523f2c96712bafc391,2024-02-21_21h15.33.013,kallum_motion_pilot,2023.2.2,Win32,59.88023952,65ba73523f2c96712bafc391,65d6bb0e977760de756971f7,65d6bc38058bccc373aa7925,0.1157,0.1158,1,107,269,112,1,fivesix,,,,,,,,,,,,,,,,,,,,,,,,,,,,,,,,,,,,,,,,,,,,,,,,,,,,,,,,,,,,,,,,,,,,,,,,,,,,,,,,,,,,,,,,,,,,,,,,,,,,,,,,,,,,,,,,,,,,,,,,,,,,,,,,,,,,,,,,,
,,65ba73523f2c96712bafc391,2024-02-21_21h15.33.013,kallum_motion_pilot,2023.2.2,Win32,59.88023952,65ba73523f2c96712bafc391,65d6bb0e977760de756971f7,65d6bc38058bccc373aa7925,0.1159,0.1161,1,108,270,28,1,threeone,,,,,,,,,,,,,,,,,,,,,,,,,,,,,,,,,,,,,,,,,,,,,,,,,,,,,,,,,,,,,,,,,,,,,,,,,,,,,,,,,,,,,,,,,,,,,,,,,,,,,,,,,,,,,,,,,,,,,,,,,,,,,,,,,,,,,,,,,
,,65ba73523f2c96712bafc391,2024-02-21_21h15.33.013,kallum_motion_pilot,2023.2.2,Win32,59.88023952,65ba73523f2c96712bafc391,65d6bb0e977760de756971f7,65d6bc38058bccc373aa7925,0.1163,0.1164,1,109,271,43,1,twofour,,,,,,,,,,,,,,,,,,,,,,,,,,,,,,,,,,,,,,,,,,,,,,,,,,,,,,,,,,,,,,,,,,,,,,,,,,,,,,,,,,,,,,,,,,,,,,,,,,,,,,,,,,,,,,,,,,,,,,,,,,,,,,,,,,,,,,,,,
,,65ba73523f2c96712bafc391,2024-02-21_21h15.33.013,kallum_motion_pilot,2023.2.2,Win32,59.88023952,65ba73523f2c96712bafc391,65d6bb0e977760de756971f7,65d6bc38058bccc373aa7925,0.1166,0.1167,1,110,272,73,1,onethree,,,,,,,,,,,,,,,,,,,,,,,,,,,,,,,,,,,,,,,,,,,,,,,,,,,,,,,,,,,,,,,,,,,,,,,,,,,,,,,,,,,,,,,,,,,,,,,,,,,,,,,,,,,,,,,,,,,,,,,,,,,,,,,,,,,,,,,,,
,,65ba73523f2c96712bafc391,2024-02-21_21h15.33.013,kallum_motion_pilot,2023.2.2,Win32,59.88023952,65ba73523f2c96712bafc391,65d6bb0e977760de756971f7,65d6bc38058bccc373aa7925,0.1168,0.117,1,111,273,102,1,eightsix,,,,,,,,,,,,,,,,,,,,,,,,,,,,,,,,,,,,,,,,,,,,,,,,,,,,,,,,,,,,,,,,,,,,,,,,,,,,,,,,,,,,,,,,,,,,,,,,,,,,,,,,,,,,,,,,,,,,,,,,,,,,,,,,,,,,,,,,,
,,65ba73523f2c96712bafc391,2024-02-21_21h15.33.013,kallum_motion_pilot,2023.2.2,Win32,59.88023952,65ba73523f2c96712bafc391,65d6bb0e977760de756971f7,65d6bc38058bccc373aa7925,0.1171,0.1173,1,112,274,132,1,sevenfive,,,,,,,,,,,,,,,,,,,,,,,,,,,,,,,,,,,,,,,,,,,,,,,,,,,,,,,,,,,,,,,,,,,,,,,,,,,,,,,,,,,,,,,,,,,,,,,,,,,,,,,,,,,,,,,,,,,,,,,,,,,,,,,,,,,,,,,,,
,,65ba73523f2c96712bafc391,2024-02-21_21h15.33.013,kallum_motion_pilot,2023.2.2,Win32,59.88023952,65ba73523f2c96712bafc391,65d6bb0e977760de756971f7,65d6bc38058bccc373aa7925,0.1175,0.1176,1,113,275,5,1,threefour,,,,,,,,,,,,,,,,,,,,,,,,,,,,,,,,,,,,,,,,,,,,,,,,,,,,,,,,,,,,,,,,,,,,,,,,,,,,,,,,,,,,,,,,,,,,,,,,,,,,,,,,,,,,,,,,,,,,,,,,,,,,,,,,,,,,,,,,,
,,65ba73523f2c96712bafc391,2024-02-21_21h15.33.013,kallum_motion_pilot,2023.2.2,Win32,59.88023952,65ba73523f2c96712bafc391,65d6bb0e977760de756971f7,65d6bc38058bccc373aa7925,0.1178,0.118,1,114,276,79,1,eightseven,,,,,,,,,,,,,,,,,,,,,,,,,,,,,,,,,,,,,,,,,,,,,,,,,,,,,,,,,,,,,,,,,,,,,,,,,,,,,,,,,,,,,,,,,,,,,,,,,,,,,,,,,,,,,,,,,,,,,,,,,,,,,,,,,,,,,,,,,
,,65ba73523f2c96712bafc391,2024-02-21_21h15.33.013,kallum_motion_pilot,2023.2.2,Win32,59.88023952,65ba73523f2c96712bafc391,65d6bb0e977760de756971f7,65d6bc38058bccc373aa7925,0.1181,0.1182,1,115,277,29,1,threefour,,,,,,,,,,,,,,,,,,,,,,,,,,,,,,,,,,,,,,,,,,,,,,,,,,,,,,,,,,,,,,,,,,,,,,,,,,,,,,,,,,,,,,,,,,,,,,,,,,,,,,,,,,,,,,,,,,,,,,,,,,,,,,,,,,,,,,,,,
