startup.started,startup.stopped,Prolific ID*,date,expName,psychopyVersion,OS,frameRate,participant,study_id,session,stimpositions.started,stimpositions.stopped,hardcoded_stimulus_positions.thisRepN,hardcoded_stimulus_positions.thisTrialN,hardcoded_stimulus_positions.thisN,hardcoded_stimulus_positions.thisIndex,hardcoded_stimulus_positions.ran,StimulusPos,stimorientation.started,stimorientation.stopped,prac_stimorientation_import_loop.thisRepN,prac_stimorientation_import_loop.thisTrialN,prac_stimorientation_import_loop.thisN,prac_stimorientation_import_loop.thisIndex,prac_stimorientation_import_loop.ran,Stimorientation,welcome_instr.started,welcome_instr.stopped,key_resp.keys,key_resp.rt,key_resp.duration,response_steppedout_1.started,response_steppedout_1.stopped,key_resp_20.keys,key_resp_20.rt,key_resp_20.duration,response_steppedout_2.started,response_steppedout_2.stopped,key_resp_19.keys,key_resp_19.rt,key_resp_19.duration,stim_response_instr.started,stim_response_instr.stopped,key_resp_15.keys,key_resp_15.rt,key_resp_15.duration,direction_instr_2.started,direction_instr_2.stopped,key_resp_9.keys,key_resp_9.rt,key_resp_9.duration,instr_prac.started,instr_prac.stopped,key_resp_10.keys,key_resp_10.rt,key_resp_10.duration,Stim1_display_prac.started,Stim1_display_prac.stopped,Ecc,Circle1_ori,Circle2_ori,response_prac.started,similarity,response_time,response_prac.stopped,mouse_5.x,mouse_5.y,mouse_5.leftButton,mouse_5.midButton,mouse_5.rightButton,mouse_5.clicked_name,responseprac_feedback.started,responseprac_feedback.stopped,summary2_prac.started,summary2_prac.stopped,mouse_6.x,mouse_6.y,mouse_6.leftButton,mouse_6.midButton,mouse_6.rightButton,mouse_6.clicked_name,duringprac.thisRepN,duringprac.thisTrialN,duringprac.thisN,duringprac.thisIndex,duringprac.ran,begin.started,begin.stopped,key_resp_22.keys,key_resp_22.rt,key_resp_22.duration,Stim1_display.started,Stim1_display.stopped,circle1_ori,circle2_ori,circle1_SF,circle2_SF,response.started,response.stopped,mouse.x,mouse.y,mouse.leftButton,mouse.midButton,mouse.rightButton,mouse.clicked_name,trialnumber,double_pass.thisRepN,double_pass.thisTrialN,double_pass.thisN,double_pass.thisIndex,double_pass.ran,double_pass.order,main_trial.thisRepN,main_trial.thisTrialN,main_trial.thisN,main_trial.thisIndex,main_trial.ran,main_trial.order,Trial_Counter,Catch,Frequencies,response_2.started,response_2.stopped,mouse_2.x,mouse_2.y,mouse_2.leftButton,mouse_2.midButton,mouse_2.rightButton,mouse_2.clicked_name,special_trial.started,special_trial.stopped,catch_1.started,catch_1.stopped,mouse_3.x,mouse_3.y,mouse_3.leftButton,mouse_3.midButton,mouse_3.rightButton,catchresponse,catchnumber,response_time_catch,response_sum.started,response_sum.stopped,mouse_11.x,mouse_11.y,mouse_11.leftButton,mouse_11.midButton,mouse_11.rightButton,flip_presentation_sequence_for_double_pass.started,flip_presentation_sequence_for_double_pass.stopped,goodbye.started,goodbye.stopped,key_resp_3.keys,key_resp_3.rt,key_resp_3.duration
0.0002,0.0003,65bbd33f8f716cd35c027c25,2024-02-21_21h28.01.237,kallum_motion_pilot,2023.2.2,MacIntel,56.49717514,65bbd33f8f716cd35c027c25,65d6bb0e977760de756971f7,65d6bf2efb200c80632a4d85,,,,,,,,,,,,,,,,,,,,,,,,,,,,,,,,,,,,,,,,,,,,,,,,,,,,,,,,,,,,,,,,,,,,,,,,,,,,,,,,,,,,,,,,,,,,,,,,,,,,,,,,,,,,,,,,,,,,,,,,,,,,,,,,,,,,,,,,,,,,,,,,,
,,65bbd33f8f716cd35c027c25,2024-02-21_21h28.01.237,kallum_motion_pilot,2023.2.2,MacIntel,56.49717514,65bbd33f8f716cd35c027c25,65d6bb0e977760de756971f7,65d6bf2efb200c80632a4d85,0.0198,0.0198,0,0,0,97,1,fiveseven,,,,,,,,,,,,,,,,,,,,,,,,,,,,,,,,,,,,,,,,,,,,,,,,,,,,,,,,,,,,,,,,,,,,,,,,,,,,,,,,,,,,,,,,,,,,,,,,,,,,,,,,,,,,,,,,,,,,,,,,,,,,,,,,,,,,,,,,,
,,65bbd33f8f716cd35c027c25,2024-02-21_21h28.01.237,kallum_motion_pilot,2023.2.2,MacIntel,56.49717514,65bbd33f8f716cd35c027c25,65d6bb0e977760de756971f7,65d6bf2efb200c80632a4d85,0.02,0.02,0,1,1,125,1,seveneight,,,,,,,,,,,,,,,,,,,,,,,,,,,,,,,,,,,,,,,,,,,,,,,,,,,,,,,,,,,,,,,,,,,,,,,,,,,,,,,,,,,,,,,,,,,,,,,,,,,,,,,,,,,,,,,,,,,,,,,,,,,,,,,,,,,,,,,,,
,,65bbd33f8f716cd35c027c25,2024-02-21_21h28.01.237,kallum_motion_pilot,2023.2.2,MacIntel,56.49717514,65bbd33f8f716cd35c027c25,65d6bb0e977760de756971f7,65d6bf2efb200c80632a4d85,0.0201,0.0202,0,2,2,24,1,onetwo,,,,,,,,,,,,,,,,,,,,,,,,,,,,,,,,,,,,,,,,,,,,,,,,,,,,,,,,,,,,,,,,,,,,,,,,,,,,,,,,,,,,,,,,,,,,,,,,,,,,,,,,,,,,,,,,,,,,,,,,,,,,,,,,,,,,,,,,,
,,65bbd33f8f716cd35c027c25,2024-02-21_21h28.01.237,kallum_motion_pilot,2023.2.2,MacIntel,56.49717514,65bbd33f8f716cd35c027c25,65d6bb0e977760de756971f7,65d6bf2efb200c80632a4d85,0.0202,0.0203,0,3,3,100,1,sevenfive,,,,,,,,,,,,,,,,,,,,,,,,,,,,,,,,,,,,,,,,,,,,,,,,,,,,,,,,,,,,,,,,,,,,,,,,,,,,,,,,,,,,,,,,,,,,,,,,,,,,,,,,,,,,,,,,,,,,,,,,,,,,,,,,,,,,,,,,,
,,65bbd33f8f716cd35c027c25,2024-02-21_21h28.01.237,kallum_motion_pilot,2023.2.2,MacIntel,56.49717514,65bbd33f8f716cd35c027c25,65d6bb0e977760de756971f7,65d6bf2efb200c80632a4d85,0.0204,0.0204,0,4,4,146,1,sixfive,,,,,,,,,,,,,,,,,,,,,,,,,,,,,,,,,,,,,,,,,,,,,,,,,,,,,,,,,,,,,,,,,,,,,,,,,,,,,,,,,,,,,,,,,,,,,,,,,,,,,,,,,,,,,,,,,,,,,,,,,,,,,,,,,,,,,,,,,
,,65bbd33f8f716cd35c027c25,2024-02-21_21h28.01.237,kallum_motion_pilot,2023.2.2,MacIntel,56.49717514,65bbd33f8f716cd35c027c25,65d6bb0e977760de756971f7,65d6bf2efb200c80632a4d85,0.0205,0.0206,0,5,5,63,1,fourthree,,,,,,,,,,,,,,,,,,,,,,,,,,,,,,,,,,,,,,,,,,,,,,,,,,,,,,,,,,,,,,,,,,,,,,,,,,,,,,,,,,,,,,,,,,,,,,,,,,,,,,,,,,,,,,,,,,,,,,,,,,,,,,,,,,,,,,,,,
,,65bbd33f8f716cd35c027c25,2024-02-21_21h28.01.237,kallum_motion_pilot,2023.2.2,MacIntel,56.49717514,65bbd33f8f716cd35c027c25,65d6bb0e977760de756971f7,65d6bf2efb200c80632a4d85,0.0207,0.0207,0,6,6,161,1,fiveseven,,,,,,,,,,,,,,,,,,,,,,,,,,,,,,,,,,,,,,,,,,,,,,,,,,,,,,,,,,,,,,,,,,,,,,,,,,,,,,,,,,,,,,,,,,,,,,,,,,,,,,,,,,,,,,,,,,,,,,,,,,,,,,,,,,,,,,,,,
,,65bbd33f8f716cd35c027c25,2024-02-21_21h28.01.237,kallum_motion_pilot,2023.2.2,MacIntel,56.49717514,65bbd33f8f716cd35c027c25,65d6bb0e977760de756971f7,65d6bf2efb200c80632a4d85,0.0208,0.0208,0,7,7,117,1,seveneight,,,,,,,,,,,,,,,,,,,,,,,,,,,,,,,,,,,,,,,,,,,,,,,,,,,,,,,,,,,,,,,,,,,,,,,,,,,,,,,,,,,,,,,,,,,,,,,,,,,,,,,,,,,,,,,,,,,,,,,,,,,,,,,,,,,,,,,,,
,,65bbd33f8f716cd35c027c25,2024-02-21_21h28.01.237,kallum_motion_pilot,2023.2.2,MacIntel,56.49717514,65bbd33f8f716cd35c027c25,65d6bb0e977760de756971f7,65d6bf2efb200c80632a4d85,0.0209,0.0209,0,8,8,149,1,seveneight,,,,,,,,,,,,,,,,,,,,,,,,,,,,,,,,,,,,,,,,,,,,,,,,,,,,,,,,,,,,,,,,,,,,,,,,,,,,,,,,,,,,,,,,,,,,,,,,,,,,,,,,,,,,,,,,,,,,,,,,,,,,,,,,,,,,,,,,,
,,65bbd33f8f716cd35c027c25,2024-02-21_21h28.01.237,kallum_motion_pilot,2023.2.2,MacIntel,56.49717514,65bbd33f8f716cd35c027c25,65d6bb0e977760de756971f7,65d6bf2efb200c80632a4d85,0.0211,0.0211,0,9,9,76,1,threeone,,,,,,,,,,,,,,,,,,,,,,,,,,,,,,,,,,,,,,,,,,,,,,,,,,,,,,,,,,,,,,,,,,,,,,,,,,,,,,,,,,,,,,,,,,,,,,,,,,,,,,,,,,,,,,,,,,,,,,,,,,,,,,,,,,,,,,,,,
,,65bbd33f8f716cd35c027c25,2024-02-21_21h28.01.237,kallum_motion_pilot,2023.2.2,MacIntel,56.49717514,65bbd33f8f716cd35c027c25,65d6bb0e977760de756971f7,65d6bf2efb200c80632a4d85,0.0211,0.0211,0,10,10,109,1,seveneight,,,,,,,,,,,,,,,,,,,,,,,,,,,,,,,,,,,,,,,,,,,,,,,,,,,,,,,,,,,,,,,,,,,,,,,,,,,,,,,,,,,,,,,,,,,,,,,,,,,,,,,,,,,,,,,,,,,,,,,,,,,,,,,,,,,,,,,,,
,,65bbd33f8f716cd35c027c25,2024-02-21_21h28.01.237,kallum_motion_pilot,2023.2.2,MacIntel,56.49717514,65bbd33f8f716cd35c027c25,65d6bb0e977760de756971f7,65d6bf2efb200c80632a4d85,0.0212,0.0212,0,11,11,120,1,fivesix,,,,,,,,,,,,,,,,,,,,,,,,,,,,,,,,,,,,,,,,,,,,,,,,,,,,,,,,,,,,,,,,,,,,,,,,,,,,,,,,,,,,,,,,,,,,,,,,,,,,,,,,,,,,,,,,,,,,,,,,,,,,,,,,,,,,,,,,,
,,65bbd33f8f716cd35c027c25,2024-02-21_21h28.01.237,kallum_motion_pilot,2023.2.2,MacIntel,56.49717514,65bbd33f8f716cd35c027c25,65d6bb0e977760de756971f7,65d6bf2efb200c80632a4d85,0.0213,0.0213,0,12,12,86,1,eightsix,,,,,,,,,,,,,,,,,,,,,,,,,,,,,,,,,,,,,,,,,,,,,,,,,,,,,,,,,,,,,,,,,,,,,,,,,,,,,,,,,,,,,,,,,,,,,,,,,,,,,,,,,,,,,,,,,,,,,,,,,,,,,,,,,,,,,,,,,
,,65bbd33f8f716cd35c027c25,2024-02-21_21h28.01.237,kallum_motion_pilot,2023.2.2,MacIntel,56.49717514,65bbd33f8f716cd35c027c25,65d6bb0e977760de756971f7,65d6bf2efb200c80632a4d85,0.0214,0.0215,0,13,13,40,1,onetwo,,,,,,,,,,,,,,,,,,,,,,,,,,,,,,,,,,,,,,,,,,,,,,,,,,,,,,,,,,,,,,,,,,,,,,,,,,,,,,,,,,,,,,,,,,,,,,,,,,,,,,,,,,,,,,,,,,,,,,,,,,,,,,,,,,,,,,,,,
,,65bbd33f8f716cd35c027c25,2024-02-21_21h28.01.237,kallum_motion_pilot,2023.2.2,MacIntel,56.49717514,65bbd33f8f716cd35c027c25,65d6bb0e977760de756971f7,65d6bf2efb200c80632a4d85,0.0216,0.0216,0,14,14,70,1,fourtwo,,,,,,,,,,,,,,,,,,,,,,,,,,,,,,,,,,,,,,,,,,,,,,,,,,,,,,,,,,,,,,,,,,,,,,,,,,,,,,,,,,,,,,,,,,,,,,,,,,,,,,,,,,,,,,,,,,,,,,,,,,,,,,,,,,,,,,,,,
,,65bbd33f8f716cd35c027c25,2024-02-21_21h28.01.237,kallum_motion_pilot,2023.2.2,MacIntel,56.49717514,65bbd33f8f716cd35c027c25,65d6bb0e977760de756971f7,65d6bf2efb200c80632a4d85,0.0216,0.0217,0,15,15,128,1,fivesix,,,,,,,,,,,,,,,,,,,,,,,,,,,,,,,,,,,,,,,,,,,,,,,,,,,,,,,,,,,,,,,,,,,,,,,,,,,,,,,,,,,,,,,,,,,,,,,,,,,,,,,,,,,,,,,,,,,,,,,,,,,,,,,,,,,,,,,,,
,,65bbd33f8f716cd35c027c25,2024-02-21_21h28.01.237,kallum_motion_pilot,2023.2.2,MacIntel,56.49717514,65bbd33f8f716cd35c027c25,65d6bb0e977760de756971f7,65d6bf2efb200c80632a4d85,0.0217,0.0217,0,16,16,72,1,onetwo,,,,,,,,,,,,,,,,,,,,,,,,,,,,,,,,,,,,,,,,,,,,,,,,,,,,,,,,,,,,,,,,,,,,,,,,,,,,,,,,,,,,,,,,,,,,,,,,,,,,,,,,,,,,,,,,,,,,,,,,,,,,,,,,,,,,,,,,,
,,65bbd33f8f716cd35c027c25,2024-02-21_21h28.01.237,kallum_motion_pilot,2023.2.2,MacIntel,56.49717514,65bbd33f8f716cd35c027c25,65d6bb0e977760de756971f7,65d6bf2efb200c80632a4d85,0.0218,0.0219,0,17,17,14,1,fourtwo,,,,,,,,,,,,,,,,,,,,,,,,,,,,,,,,,,,,,,,,,,,,,,,,,,,,,,,,,,,,,,,,,,,,,,,,,,,,,,,,,,,,,,,,,,,,,,,,,,,,,,,,,,,,,,,,,,,,,,,,,,,,,,,,,,,,,,,,,
,,65bbd33f8f716cd35c027c25,2024-02-21_21h28.01.237,kallum_motion_pilot,2023.2.2,MacIntel,56.49717514,65bbd33f8f716cd35c027c25,65d6bb0e977760de756971f7,65d6bf2efb200c80632a4d85,0.0219,0.0219,0,18,18,141,1,seveneight,,,,,,,,,,,,,,,,,,,,,,,,,,,,,,,,,,,,,,,,,,,,,,,,,,,,,,,,,,,,,,,,,,,,,,,,,,,,,,,,,,,,,,,,,,,,,,,,,,,,,,,,,,,,,,,,,,,,,,,,,,,,,,,,,,,,,,,,,
,,65bbd33f8f716cd35c027c25,2024-02-21_21h28.01.237,kallum_motion_pilot,2023.2.2,MacIntel,56.49717514,65bbd33f8f716cd35c027c25,65d6bb0e977760de756971f7,65d6bf2efb200c80632a4d85,0.0221,0.0221,0,19,19,122,1,sixfive,,,,,,,,,,,,,,,,,,,,,,,,,,,,,,,,,,,,,,,,,,,,,,,,,,,,,,,,,,,,,,,,,,,,,,,,,,,,,,,,,,,,,,,,,,,,,,,,,,,,,,,,,,,,,,,,,,,,,,,,,,,,,,,,,,,,,,,,,
,,65bbd33f8f716cd35c027c25,2024-02-21_21h28.01.237,kallum_motion_pilot,2023.2.2,MacIntel,56.49717514,65bbd33f8f716cd35c027c25,65d6bb0e977760de756971f7,65d6bf2efb200c80632a4d85,0.0222,0.0222,0,20,20,3,1,twofour,,,,,,,,,,,,,,,,,,,,,,,,,,,,,,,,,,,,,,,,,,,,,,,,,,,,,,,,,,,,,,,,,,,,,,,,,,,,,,,,,,,,,,,,,,,,,,,,,,,,,,,,,,,,,,,,,,,,,,,,,,,,,,,,,,,,,,,,,
,,65bbd33f8f716cd35c027c25,2024-02-21_21h28.01.237,kallum_motion_pilot,2023.2.2,MacIntel,56.49717514,65bbd33f8f716cd35c027c25,65d6bb0e977760de756971f7,65d6bf2efb200c80632a4d85,0.0223,0.0223,0,21,21,49,1,onethree,,,,,,,,,,,,,,,,,,,,,,,,,,,,,,,,,,,,,,,,,,,,,,,,,,,,,,,,,,,,,,,,,,,,,,,,,,,,,,,,,,,,,,,,,,,,,,,,,,,,,,,,,,,,,,,,,,,,,,,,,,,,,,,,,,,,,,,,,
,,65bbd33f8f716cd35c027c25,2024-02-21_21h28.01.237,kallum_motion_pilot,2023.2.2,MacIntel,56.49717514,65bbd33f8f716cd35c027c25,65d6bb0e977760de756971f7,65d6bf2efb200c80632a4d85,0.0223,0.0224,0,22,22,118,1,eightsix,,,,,,,,,,,,,,,,,,,,,,,,,,,,,,,,,,,,,,,,,,,,,,,,,,,,,,,,,,,,,,,,,,,,,,,,,,,,,,,,,,,,,,,,,,,,,,,,,,,,,,,,,,,,,,,,,,,,,,,,,,,,,,,,,,,,,,,,,
,,65bbd33f8f716cd35c027c25,2024-02-21_21h28.01.237,kallum_motion_pilot,2023.2.2,MacIntel,56.49717514,65bbd33f8f716cd35c027c25,65d6bb0e977760de756971f7,65d6bf2efb200c80632a4d85,0.0225,0.0226,0,23,23,138,1,sixfive,,,,,,,,,,,,,,,,,,,,,,,,,,,,,,,,,,,,,,,,,,,,,,,,,,,,,,,,,,,,,,,,,,,,,,,,,,,,,,,,,,,,,,,,,,,,,,,,,,,,,,,,,,,,,,,,,,,,,,,,,,,,,,,,,,,,,,,,,
,,65bbd33f8f716cd35c027c25,2024-02-21_21h28.01.237,kallum_motion_pilot,2023.2.2,MacIntel,56.49717514,65bbd33f8f716cd35c027c25,65d6bb0e977760de756971f7,65d6bf2efb200c80632a4d85,0.0226,0.0227,0,24,24,79,1,eightseven,,,,,,,,,,,,,,,,,,,,,,,,,,,,,,,,,,,,,,,,,,,,,,,,,,,,,,,,,,,,,,,,,,,,,,,,,,,,,,,,,,,,,,,,,,,,,,,,,,,,,,,,,,,,,,,,,,,,,,,,,,,,,,,,,,,,,,,,,
,,65bbd33f8f716cd35c027c25,2024-02-21_21h28.01.237,kallum_motion_pilot,2023.2.2,MacIntel,56.49717514,65bbd33f8f716cd35c027c25,65d6bb0e977760de756971f7,65d6bf2efb200c80632a4d85,0.0228,0.023,0,25,25,80,1,fivesix,,,,,,,,,,,,,,,,,,,,,,,,,,,,,,,,,,,,,,,,,,,,,,,,,,,,,,,,,,,,,,,,,,,,,,,,,,,,,,,,,,,,,,,,,,,,,,,,,,,,,,,,,,,,,,,,,,,,,,,,,,,,,,,,,,,,,,,,,
,,65bbd33f8f716cd35c027c25,2024-02-21_21h28.01.237,kallum_motion_pilot,2023.2.2,MacIntel,56.49717514,65bbd33f8f716cd35c027c25,65d6bb0e977760de756971f7,65d6bf2efb200c80632a4d85,0.023,0.0231,0,26,26,18,1,twoone,,,,,,,,,,,,,,,,,,,,,,,,,,,,,,,,,,,,,,,,,,,,,,,,,,,,,,,,,,,,,,,,,,,,,,,,,,,,,,,,,,,,,,,,,,,,,,,,,,,,,,,,,,,,,,,,,,,,,,,,,,,,,,,,,,,,,,,,,
,,65bbd33f8f716cd35c027c25,2024-02-21_21h28.01.237,kallum_motion_pilot,2023.2.2,MacIntel,56.49717514,65bbd33f8f716cd35c027c25,65d6bb0e977760de756971f7,65d6bf2efb200c80632a4d85,0.0232,0.0232,0,27,27,148,1,sevenfive,,,,,,,,,,,,,,,,,,,,,,,,,,,,,,,,,,,,,,,,,,,,,,,,,,,,,,,,,,,,,,,,,,,,,,,,,,,,,,,,,,,,,,,,,,,,,,,,,,,,,,,,,,,,,,,,,,,,,,,,,,,,,,,,,,,,,,,,,
,,65bbd33f8f716cd35c027c25,2024-02-21_21h28.01.237,kallum_motion_pilot,2023.2.2,MacIntel,56.49717514,65bbd33f8f716cd35c027c25,65d6bb0e977760de756971f7,65d6bf2efb200c80632a4d85,0.0234,0.0234,0,28,28,89,1,fiveseven,,,,,,,,,,,,,,,,,,,,,,,,,,,,,,,,,,,,,,,,,,,,,,,,,,,,,,,,,,,,,,,,,,,,,,,,,,,,,,,,,,,,,,,,,,,,,,,,,,,,,,,,,,,,,,,,,,,,,,,,,,,,,,,,,,,,,,,,,
,,65bbd33f8f716cd35c027c25,2024-02-21_21h28.01.237,kallum_motion_pilot,2023.2.2,MacIntel,56.49717514,65bbd33f8f716cd35c027c25,65d6bb0e977760de756971f7,65d6bf2efb200c80632a4d85,0.0235,0.0235,0,29,29,42,1,twoone,,,,,,,,,,,,,,,,,,,,,,,,,,,,,,,,,,,,,,,,,,,,,,,,,,,,,,,,,,,,,,,,,,,,,,,,,,,,,,,,,,,,,,,,,,,,,,,,,,,,,,,,,,,,,,,,,,,,,,,,,,,,,,,,,,,,,,,,,
,,65bbd33f8f716cd35c027c25,2024-02-21_21h28.01.237,kallum_motion_pilot,2023.2.2,MacIntel,56.49717514,65bbd33f8f716cd35c027c25,65d6bb0e977760de756971f7,65d6bf2efb200c80632a4d85,0.0236,0.0236,0,30,30,131,1,sixeight,,,,,,,,,,,,,,,,,,,,,,,,,,,,,,,,,,,,,,,,,,,,,,,,,,,,,,,,,,,,,,,,,,,,,,,,,,,,,,,,,,,,,,,,,,,,,,,,,,,,,,,,,,,,,,,,,,,,,,,,,,,,,,,,,,,,,,,,,
,,65bbd33f8f716cd35c027c25,2024-02-21_21h28.01.237,kallum_motion_pilot,2023.2.2,MacIntel,56.49717514,65bbd33f8f716cd35c027c25,65d6bb0e977760de756971f7,65d6bf2efb200c80632a4d85,0.0237,0.0237,0,31,31,61,1,threefour,,,,,,,,,,,,,,,,,,,,,,,,,,,,,,,,,,,,,,,,,,,,,,,,,,,,,,,,,,,,,,,,,,,,,,,,,,,,,,,,,,,,,,,,,,,,,,,,,,,,,,,,,,,,,,,,,,,,,,,,,,,,,,,,,,,,,,,,,
,,65bbd33f8f716cd35c027c25,2024-02-21_21h28.01.237,kallum_motion_pilot,2023.2.2,MacIntel,56.49717514,65bbd33f8f716cd35c027c25,65d6bb0e977760de756971f7,65d6bf2efb200c80632a4d85,0.0237,0.0237,0,32,32,158,1,eightsix,,,,,,,,,,,,,,,,,,,,,,,,,,,,,,,,,,,,,,,,,,,,,,,,,,,,,,,,,,,,,,,,,,,,,,,,,,,,,,,,,,,,,,,,,,,,,,,,,,,,,,,,,,,,,,,,,,,,,,,,,,,,,,,,,,,,,,,,,
,,65bbd33f8f716cd35c027c25,2024-02-21_21h28.01.237,kallum_motion_pilot,2023.2.2,MacIntel,56.49717514,65bbd33f8f716cd35c027c25,65d6bb0e977760de756971f7,65d6bf2efb200c80632a4d85,0.0239,0.024,0,33,33,47,1,fourthree,,,,,,,,,,,,,,,,,,,,,,,,,,,,,,,,,,,,,,,,,,,,,,,,,,,,,,,,,,,,,,,,,,,,,,,,,,,,,,,,,,,,,,,,,,,,,,,,,,,,,,,,,,,,,,,,,,,,,,,,,,,,,,,,,,,,,,,,,
,,65bbd33f8f716cd35c027c25,2024-02-21_21h28.01.237,kallum_motion_pilot,2023.2.2,MacIntel,56.49717514,65bbd33f8f716cd35c027c25,65d6bb0e977760de756971f7,65d6bf2efb200c80632a4d85,0.024,0.024,0,34,34,115,1,sixeight,,,,,,,,,,,,,,,,,,,,,,,,,,,,,,,,,,,,,,,,,,,,,,,,,,,,,,,,,,,,,,,,,,,,,,,,,,,,,,,,,,,,,,,,,,,,,,,,,,,,,,,,,,,,,,,,,,,,,,,,,,,,,,,,,,,,,,,,,
,,65bbd33f8f716cd35c027c25,2024-02-21_21h28.01.237,kallum_motion_pilot,2023.2.2,MacIntel,56.49717514,65bbd33f8f716cd35c027c25,65d6bb0e977760de756971f7,65d6bf2efb200c80632a4d85,0.0241,0.0242,0,35,35,78,1,fourtwo,,,,,,,,,,,,,,,,,,,,,,,,,,,,,,,,,,,,,,,,,,,,,,,,,,,,,,,,,,,,,,,,,,,,,,,,,,,,,,,,,,,,,,,,,,,,,,,,,,,,,,,,,,,,,,,,,,,,,,,,,,,,,,,,,,,,,,,,,
,,65bbd33f8f716cd35c027c25,2024-02-21_21h28.01.237,kallum_motion_pilot,2023.2.2,MacIntel,56.49717514,65bbd33f8f716cd35c027c25,65d6bb0e977760de756971f7,65d6bf2efb200c80632a4d85,0.0242,0.0243,0,36,36,19,1,twofour,,,,,,,,,,,,,,,,,,,,,,,,,,,,,,,,,,,,,,,,,,,,,,,,,,,,,,,,,,,,,,,,,,,,,,,,,,,,,,,,,,,,,,,,,,,,,,,,,,,,,,,,,,,,,,,,,,,,,,,,,,,,,,,,,,,,,,,,,
,,65bbd33f8f716cd35c027c25,2024-02-21_21h28.01.237,kallum_motion_pilot,2023.2.2,MacIntel,56.49717514,65bbd33f8f716cd35c027c25,65d6bb0e977760de756971f7,65d6bf2efb200c80632a4d85,0.0244,0.0244,0,37,37,90,1,sixfive,,,,,,,,,,,,,,,,,,,,,,,,,,,,,,,,,,,,,,,,,,,,,,,,,,,,,,,,,,,,,,,,,,,,,,,,,,,,,,,,,,,,,,,,,,,,,,,,,,,,,,,,,,,,,,,,,,,,,,,,,,,,,,,,,,,,,,,,,
,,65bbd33f8f716cd35c027c25,2024-02-21_21h28.01.237,kallum_motion_pilot,2023.2.2,MacIntel,56.49717514,65bbd33f8f716cd35c027c25,65d6bb0e977760de756971f7,65d6bf2efb200c80632a4d85,0.0245,0.0245,0,38,38,5,1,threefour,,,,,,,,,,,,,,,,,,,,,,,,,,,,,,,,,,,,,,,,,,,,,,,,,,,,,,,,,,,,,,,,,,,,,,,,,,,,,,,,,,,,,,,,,,,,,,,,,,,,,,,,,,,,,,,,,,,,,,,,,,,,,,,,,,,,,,,,,
,,65bbd33f8f716cd35c027c25,2024-02-21_21h28.01.237,kallum_motion_pilot,2023.2.2,MacIntel,56.49717514,65bbd33f8f716cd35c027c25,65d6bb0e977760de756971f7,65d6bf2efb200c80632a4d85,0.0247,0.0248,0,39,39,111,1,eightseven,,,,,,,,,,,,,,,,,,,,,,,,,,,,,,,,,,,,,,,,,,,,,,,,,,,,,,,,,,,,,,,,,,,,,,,,,,,,,,,,,,,,,,,,,,,,,,,,,,,,,,,,,,,,,,,,,,,,,,,,,,,,,,,,,,,,,,,,,
,,65bbd33f8f716cd35c027c25,2024-02-21_21h28.01.237,kallum_motion_pilot,2023.2.2,MacIntel,56.49717514,65bbd33f8f716cd35c027c25,65d6bb0e977760de756971f7,65d6bf2efb200c80632a4d85,0.0249,0.0249,0,40,40,2,1,twoone,,,,,,,,,,,,,,,,,,,,,,,,,,,,,,,,,,,,,,,,,,,,,,,,,,,,,,,,,,,,,,,,,,,,,,,,,,,,,,,,,,,,,,,,,,,,,,,,,,,,,,,,,,,,,,,,,,,,,,,,,,,,,,,,,,,,,,,,,
,,65bbd33f8f716cd35c027c25,2024-02-21_21h28.01.237,kallum_motion_pilot,2023.2.2,MacIntel,56.49717514,65bbd33f8f716cd35c027c25,65d6bb0e977760de756971f7,65d6bf2efb200c80632a4d85,0.025,0.025,0,41,41,116,1,sevenfive,,,,,,,,,,,,,,,,,,,,,,,,,,,,,,,,,,,,,,,,,,,,,,,,,,,,,,,,,,,,,,,,,,,,,,,,,,,,,,,,,,,,,,,,,,,,,,,,,,,,,,,,,,,,,,,,,,,,,,,,,,,,,,,,,,,,,,,,,
,,65bbd33f8f716cd35c027c25,2024-02-21_21h28.01.237,kallum_motion_pilot,2023.2.2,MacIntel,56.49717514,65bbd33f8f716cd35c027c25,65d6bb0e977760de756971f7,65d6bf2efb200c80632a4d85,0.0251,0.0251,0,42,42,64,1,onetwo,,,,,,,,,,,,,,,,,,,,,,,,,,,,,,,,,,,,,,,,,,,,,,,,,,,,,,,,,,,,,,,,,,,,,,,,,,,,,,,,,,,,,,,,,,,,,,,,,,,,,,,,,,,,,,,,,,,,,,,,,,,,,,,,,,,,,,,,,
,,65bbd33f8f716cd35c027c25,2024-02-21_21h28.01.237,kallum_motion_pilot,2023.2.2,MacIntel,56.49717514,65bbd33f8f716cd35c027c25,65d6bb0e977760de756971f7,65d6bf2efb200c80632a4d85,0.0251,0.0251,0,43,43,121,1,fiveseven,,,,,,,,,,,,,,,,,,,,,,,,,,,,,,,,,,,,,,,,,,,,,,,,,,,,,,,,,,,,,,,,,,,,,,,,,,,,,,,,,,,,,,,,,,,,,,,,,,,,,,,,,,,,,,,,,,,,,,,,,,,,,,,,,,,,,,,,,
,,65bbd33f8f716cd35c027c25,2024-02-21_21h28.01.237,kallum_motion_pilot,2023.2.2,MacIntel,56.49717514,65bbd33f8f716cd35c027c25,65d6bb0e977760de756971f7,65d6bf2efb200c80632a4d85,0.0253,0.0253,0,44,44,92,1,sevenfive,,,,,,,,,,,,,,,,,,,,,,,,,,,,,,,,,,,,,,,,,,,,,,,,,,,,,,,,,,,,,,,,,,,,,,,,,,,,,,,,,,,,,,,,,,,,,,,,,,,,,,,,,,,,,,,,,,,,,,,,,,,,,,,,,,,,,,,,,
,,65bbd33f8f716cd35c027c25,2024-02-21_21h28.01.237,kallum_motion_pilot,2023.2.2,MacIntel,56.49717514,65bbd33f8f716cd35c027c25,65d6bb0e977760de756971f7,65d6bf2efb200c80632a4d85,0.0254,0.0254,0,45,45,12,1,threeone,,,,,,,,,,,,,,,,,,,,,,,,,,,,,,,,,,,,,,,,,,,,,,,,,,,,,,,,,,,,,,,,,,,,,,,,,,,,,,,,,,,,,,,,,,,,,,,,,,,,,,,,,,,,,,,,,,,,,,,,,,,,,,,,,,,,,,,,,
,,65bbd33f8f716cd35c027c25,2024-02-21_21h28.01.237,kallum_motion_pilot,2023.2.2,MacIntel,56.49717514,65bbd33f8f716cd35c027c25,65d6bb0e977760de756971f7,65d6bf2efb200c80632a4d85,0.0255,0.0255,0,46,46,10,1,twoone,,,,,,,,,,,,,,,,,,,,,,,,,,,,,,,,,,,,,,,,,,,,,,,,,,,,,,,,,,,,,,,,,,,,,,,,,,,,,,,,,,,,,,,,,,,,,,,,,,,,,,,,,,,,,,,,,,,,,,,,,,,,,,,,,,,,,,,,,
,,65bbd33f8f716cd35c027c25,2024-02-21_21h28.01.237,kallum_motion_pilot,2023.2.2,MacIntel,56.49717514,65bbd33f8f716cd35c027c25,65d6bb0e977760de756971f7,65d6bf2efb200c80632a4d85,0.0256,0.0256,0,47,47,153,1,fiveseven,,,,,,,,,,,,,,,,,,,,,,,,,,,,,,,,,,,,,,,,,,,,,,,,,,,,,,,,,,,,,,,,,,,,,,,,,,,,,,,,,,,,,,,,,,,,,,,,,,,,,,,,,,,,,,,,,,,,,,,,,,,,,,,,,,,,,,,,,
,,65bbd33f8f716cd35c027c25,2024-02-21_21h28.01.237,kallum_motion_pilot,2023.2.2,MacIntel,56.49717514,65bbd33f8f716cd35c027c25,65d6bb0e977760de756971f7,65d6bf2efb200c80632a4d85,0.0257,0.0257,0,48,48,29,1,threefour,,,,,,,,,,,,,,,,,,,,,,,,,,,,,,,,,,,,,,,,,,,,,,,,,,,,,,,,,,,,,,,,,,,,,,,,,,,,,,,,,,,,,,,,,,,,,,,,,,,,,,,,,,,,,,,,,,,,,,,,,,,,,,,,,,,,,,,,,
,,65bbd33f8f716cd35c027c25,2024-02-21_21h28.01.237,kallum_motion_pilot,2023.2.2,MacIntel,56.49717514,65bbd33f8f716cd35c027c25,65d6bb0e977760de756971f7,65d6bf2efb200c80632a4d85,0.0258,0.0258,0,49,49,20,1,threeone,,,,,,,,,,,,,,,,,,,,,,,,,,,,,,,,,,,,,,,,,,,,,,,,,,,,,,,,,,,,,,,,,,,,,,,,,,,,,,,,,,,,,,,,,,,,,,,,,,,,,,,,,,,,,,,,,,,,,,,,,,,,,,,,,,,,,,,,,
,,65bbd33f8f716cd35c027c25,2024-02-21_21h28.01.237,kallum_motion_pilot,2023.2.2,MacIntel,56.49717514,65bbd33f8f716cd35c027c25,65d6bb0e977760de756971f7,65d6bf2efb200c80632a4d85,0.026,0.0261,0,50,50,137,1,fiveseven,,,,,,,,,,,,,,,,,,,,,,,,,,,,,,,,,,,,,,,,,,,,,,,,,,,,,,,,,,,,,,,,,,,,,,,,,,,,,,,,,,,,,,,,,,,,,,,,,,,,,,,,,,,,,,,,,,,,,,,,,,,,,,,,,,,,,,,,,
,,65bbd33f8f716cd35c027c25,2024-02-21_21h28.01.237,kallum_motion_pilot,2023.2.2,MacIntel,56.49717514,65bbd33f8f716cd35c027c25,65d6bb0e977760de756971f7,65d6bf2efb200c80632a4d85,0.0261,0.0262,0,51,51,11,1,twofour,,,,,,,,,,,,,,,,,,,,,,,,,,,,,,,,,,,,,,,,,,,,,,,,,,,,,,,,,,,,,,,,,,,,,,,,,,,,,,,,,,,,,,,,,,,,,,,,,,,,,,,,,,,,,,,,,,,,,,,,,,,,,,,,,,,,,,,,,
,,65bbd33f8f716cd35c027c25,2024-02-21_21h28.01.237,kallum_motion_pilot,2023.2.2,MacIntel,56.49717514,65bbd33f8f716cd35c027c25,65d6bb0e977760de756971f7,65d6bf2efb200c80632a4d85,0.0262,0.0263,0,52,52,156,1,sevenfive,,,,,,,,,,,,,,,,,,,,,,,,,,,,,,,,,,,,,,,,,,,,,,,,,,,,,,,,,,,,,,,,,,,,,,,,,,,,,,,,,,,,,,,,,,,,,,,,,,,,,,,,,,,,,,,,,,,,,,,,,,,,,,,,,,,,,,,,,
,,65bbd33f8f716cd35c027c25,2024-02-21_21h28.01.237,kallum_motion_pilot,2023.2.2,MacIntel,56.49717514,65bbd33f8f716cd35c027c25,65d6bb0e977760de756971f7,65d6bf2efb200c80632a4d85,0.0263,0.0263,0,53,53,154,1,sixfive,,,,,,,,,,,,,,,,,,,,,,,,,,,,,,,,,,,,,,,,,,,,,,,,,,,,,,,,,,,,,,,,,,,,,,,,,,,,,,,,,,,,,,,,,,,,,,,,,,,,,,,,,,,,,,,,,,,,,,,,,,,,,,,,,,,,,,,,,
,,65bbd33f8f716cd35c027c25,2024-02-21_21h28.01.237,kallum_motion_pilot,2023.2.2,MacIntel,56.49717514,65bbd33f8f716cd35c027c25,65d6bb0e977760de756971f7,65d6bf2efb200c80632a4d85,0.0265,0.0265,0,54,54,30,1,fourtwo,,,,,,,,,,,,,,,,,,,,,,,,,,,,,,,,,,,,,,,,,,,,,,,,,,,,,,,,,,,,,,,,,,,,,,,,,,,,,,,,,,,,,,,,,,,,,,,,,,,,,,,,,,,,,,,,,,,,,,,,,,,,,,,,,,,,,,,,,
,,65bbd33f8f716cd35c027c25,2024-02-21_21h28.01.237,kallum_motion_pilot,2023.2.2,MacIntel,56.49717514,65bbd33f8f716cd35c027c25,65d6bb0e977760de756971f7,65d6bf2efb200c80632a4d85,0.0265,0.0266,0,55,55,130,1,sixfive,,,,,,,,,,,,,,,,,,,,,,,,,,,,,,,,,,,,,,,,,,,,,,,,,,,,,,,,,,,,,,,,,,,,,,,,,,,,,,,,,,,,,,,,,,,,,,,,,,,,,,,,,,,,,,,,,,,,,,,,,,,,,,,,,,,,,,,,,
,,65bbd33f8f716cd35c027c25,2024-02-21_21h28.01.237,kallum_motion_pilot,2023.2.2,MacIntel,56.49717514,65bbd33f8f716cd35c027c25,65d6bb0e977760de756971f7,65d6bf2efb200c80632a4d85,0.0267,0.0267,0,56,56,94,1,eightsix,,,,,,,,,,,,,,,,,,,,,,,,,,,,,,,,,,,,,,,,,,,,,,,,,,,,,,,,,,,,,,,,,,,,,,,,,,,,,,,,,,,,,,,,,,,,,,,,,,,,,,,,,,,,,,,,,,,,,,,,,,,,,,,,,,,,,,,,,
,,65bbd33f8f716cd35c027c25,2024-02-21_21h28.01.237,kallum_motion_pilot,2023.2.2,MacIntel,56.49717514,65bbd33f8f716cd35c027c25,65d6bb0e977760de756971f7,65d6bf2efb200c80632a4d85,0.0268,0.0268,0,57,57,159,1,eightseven,,,,,,,,,,,,,,,,,,,,,,,,,,,,,,,,,,,,,,,,,,,,,,,,,,,,,,,,,,,,,,,,,,,,,,,,,,,,,,,,,,,,,,,,,,,,,,,,,,,,,,,,,,,,,,,,,,,,,,,,,,,,,,,,,,,,,,,,,
,,65bbd33f8f716cd35c027c25,2024-02-21_21h28.01.237,kallum_motion_pilot,2023.2.2,MacIntel,56.49717514,65bbd33f8f716cd35c027c25,65d6bb0e977760de756971f7,65d6bf2efb200c80632a4d85,0.0268,0.0269,0,58,58,9,1,onethree,,,,,,,,,,,,,,,,,,,,,,,,,,,,,,,,,,,,,,,,,,,,,,,,,,,,,,,,,,,,,,,,,,,,,,,,,,,,,,,,,,,,,,,,,,,,,,,,,,,,,,,,,,,,,,,,,,,,,,,,,,,,,,,,,,,,,,,,,
,,65bbd33f8f716cd35c027c25,2024-02-21_21h28.01.237,kallum_motion_pilot,2023.2.2,MacIntel,56.49717514,65bbd33f8f716cd35c027c25,65d6bb0e977760de756971f7,65d6bf2efb200c80632a4d85,0.0269,0.0269,0,59,59,74,1,twoone,,,,,,,,,,,,,,,,,,,,,,,,,,,,,,,,,,,,,,,,,,,,,,,,,,,,,,,,,,,,,,,,,,,,,,,,,,,,,,,,,,,,,,,,,,,,,,,,,,,,,,,,,,,,,,,,,,,,,,,,,,,,,,,,,,,,,,,,,
,,65bbd33f8f716cd35c027c25,2024-02-21_21h28.01.237,kallum_motion_pilot,2023.2.2,MacIntel,56.49717514,65bbd33f8f716cd35c027c25,65d6bb0e977760de756971f7,65d6bf2efb200c80632a4d85,0.0271,0.0271,0,60,60,8,1,onetwo,,,,,,,,,,,,,,,,,,,,,,,,,,,,,,,,,,,,,,,,,,,,,,,,,,,,,,,,,,,,,,,,,,,,,,,,,,,,,,,,,,,,,,,,,,,,,,,,,,,,,,,,,,,,,,,,,,,,,,,,,,,,,,,,,,,,,,,,,
,,65bbd33f8f716cd35c027c25,2024-02-21_21h28.01.237,kallum_motion_pilot,2023.2.2,MacIntel,56.49717514,65bbd33f8f716cd35c027c25,65d6bb0e977760de756971f7,65d6bf2efb200c80632a4d85,0.0271,0.0271,0,61,61,54,1,fourtwo,,,,,,,,,,,,,,,,,,,,,,,,,,,,,,,,,,,,,,,,,,,,,,,,,,,,,,,,,,,,,,,,,,,,,,,,,,,,,,,,,,,,,,,,,,,,,,,,,,,,,,,,,,,,,,,,,,,,,,,,,,,,,,,,,,,,,,,,,
,,65bbd33f8f716cd35c027c25,2024-02-21_21h28.01.237,kallum_motion_pilot,2023.2.2,MacIntel,56.49717514,65bbd33f8f716cd35c027c25,65d6bb0e977760de756971f7,65d6bf2efb200c80632a4d85,0.0272,0.0273,0,62,62,4,1,threeone,,,,,,,,,,,,,,,,,,,,,,,,,,,,,,,,,,,,,,,,,,,,,,,,,,,,,,,,,,,,,,,,,,,,,,,,,,,,,,,,,,,,,,,,,,,,,,,,,,,,,,,,,,,,,,,,,,,,,,,,,,,,,,,,,,,,,,,,,
,,65bbd33f8f716cd35c027c25,2024-02-21_21h28.01.237,kallum_motion_pilot,2023.2.2,MacIntel,56.49717514,65bbd33f8f716cd35c027c25,65d6bb0e977760de756971f7,65d6bf2efb200c80632a4d85,0.0274,0.0274,0,63,63,124,1,sevenfive,,,,,,,,,,,,,,,,,,,,,,,,,,,,,,,,,,,,,,,,,,,,,,,,,,,,,,,,,,,,,,,,,,,,,,,,,,,,,,,,,,,,,,,,,,,,,,,,,,,,,,,,,,,,,,,,,,,,,,,,,,,,,,,,,,,,,,,,,
,,65bbd33f8f716cd35c027c25,2024-02-21_21h28.01.237,kallum_motion_pilot,2023.2.2,MacIntel,56.49717514,65bbd33f8f716cd35c027c25,65d6bb0e977760de756971f7,65d6bf2efb200c80632a4d85,0.0274,0.0275,0,64,64,34,1,twoone,,,,,,,,,,,,,,,,,,,,,,,,,,,,,,,,,,,,,,,,,,,,,,,,,,,,,,,,,,,,,,,,,,,,,,,,,,,,,,,,,,,,,,,,,,,,,,,,,,,,,,,,,,,,,,,,,,,,,,,,,,,,,,,,,,,,,,,,,
,,65bbd33f8f716cd35c027c25,2024-02-21_21h28.01.237,kallum_motion_pilot,2023.2.2,MacIntel,56.49717514,65bbd33f8f716cd35c027c25,65d6bb0e977760de756971f7,65d6bf2efb200c80632a4d85,0.0275,0.0275,0,65,65,133,1,seveneight,,,,,,,,,,,,,,,,,,,,,,,,,,,,,,,,,,,,,,,,,,,,,,,,,,,,,,,,,,,,,,,,,,,,,,,,,,,,,,,,,,,,,,,,,,,,,,,,,,,,,,,,,,,,,,,,,,,,,,,,,,,,,,,,,,,,,,,,,
,,65bbd33f8f716cd35c027c25,2024-02-21_21h28.01.237,kallum_motion_pilot,2023.2.2,MacIntel,56.49717514,65bbd33f8f716cd35c027c25,65d6bb0e977760de756971f7,65d6bf2efb200c80632a4d85,0.0276,0.0277,0,66,66,105,1,fiveseven,,,,,,,,,,,,,,,,,,,,,,,,,,,,,,,,,,,,,,,,,,,,,,,,,,,,,,,,,,,,,,,,,,,,,,,,,,,,,,,,,,,,,,,,,,,,,,,,,,,,,,,,,,,,,,,,,,,,,,,,,,,,,,,,,,,,,,,,,
,,65bbd33f8f716cd35c027c25,2024-02-21_21h28.01.237,kallum_motion_pilot,2023.2.2,MacIntel,56.49717514,65bbd33f8f716cd35c027c25,65d6bb0e977760de756971f7,65d6bf2efb200c80632a4d85,0.0278,0.0278,0,67,67,143,1,eightseven,,,,,,,,,,,,,,,,,,,,,,,,,,,,,,,,,,,,,,,,,,,,,,,,,,,,,,,,,,,,,,,,,,,,,,,,,,,,,,,,,,,,,,,,,,,,,,,,,,,,,,,,,,,,,,,,,,,,,,,,,,,,,,,,,,,,,,,,,
,,65bbd33f8f716cd35c027c25,2024-02-21_21h28.01.237,kallum_motion_pilot,2023.2.2,MacIntel,56.49717514,65bbd33f8f716cd35c027c25,65d6bb0e977760de756971f7,65d6bf2efb200c80632a4d85,0.0279,0.0279,0,68,68,113,1,fiveseven,,,,,,,,,,,,,,,,,,,,,,,,,,,,,,,,,,,,,,,,,,,,,,,,,,,,,,,,,,,,,,,,,,,,,,,,,,,,,,,,,,,,,,,,,,,,,,,,,,,,,,,,,,,,,,,,,,,,,,,,,,,,,,,,,,,,,,,,,
,,65bbd33f8f716cd35c027c25,2024-02-21_21h28.01.237,kallum_motion_pilot,2023.2.2,MacIntel,56.49717514,65bbd33f8f716cd35c027c25,65d6bb0e977760de756971f7,65d6bf2efb200c80632a4d85,0.0279,0.0281,0,69,69,84,1,sevenfive,,,,,,,,,,,,,,,,,,,,,,,,,,,,,,,,,,,,,,,,,,,,,,,,,,,,,,,,,,,,,,,,,,,,,,,,,,,,,,,,,,,,,,,,,,,,,,,,,,,,,,,,,,,,,,,,,,,,,,,,,,,,,,,,,,,,,,,,,
,,65bbd33f8f716cd35c027c25,2024-02-21_21h28.01.237,kallum_motion_pilot,2023.2.2,MacIntel,56.49717514,65bbd33f8f716cd35c027c25,65d6bb0e977760de756971f7,65d6bf2efb200c80632a4d85,0.0281,0.0281,0,70,70,52,1,threeone,,,,,,,,,,,,,,,,,,,,,,,,,,,,,,,,,,,,,,,,,,,,,,,,,,,,,,,,,,,,,,,,,,,,,,,,,,,,,,,,,,,,,,,,,,,,,,,,,,,,,,,,,,,,,,,,,,,,,,,,,,,,,,,,,,,,,,,,,
,,65bbd33f8f716cd35c027c25,2024-02-21_21h28.01.237,kallum_motion_pilot,2023.2.2,MacIntel,56.49717514,65bbd33f8f716cd35c027c25,65d6bb0e977760de756971f7,65d6bf2efb200c80632a4d85,0.0281,0.0282,0,71,71,99,1,sixeight,,,,,,,,,,,,,,,,,,,,,,,,,,,,,,,,,,,,,,,,,,,,,,,,,,,,,,,,,,,,,,,,,,,,,,,,,,,,,,,,,,,,,,,,,,,,,,,,,,,,,,,,,,,,,,,,,,,,,,,,,,,,,,,,,,,,,,,,,
,,65bbd33f8f716cd35c027c25,2024-02-21_21h28.01.237,kallum_motion_pilot,2023.2.2,MacIntel,56.49717514,65bbd33f8f716cd35c027c25,65d6bb0e977760de756971f7,65d6bf2efb200c80632a4d85,0.0283,0.0283,0,72,72,119,1,eightseven,,,,,,,,,,,,,,,,,,,,,,,,,,,,,,,,,,,,,,,,,,,,,,,,,,,,,,,,,,,,,,,,,,,,,,,,,,,,,,,,,,,,,,,,,,,,,,,,,,,,,,,,,,,,,,,,,,,,,,,,,,,,,,,,,,,,,,,,,
,,65bbd33f8f716cd35c027c25,2024-02-21_21h28.01.237,kallum_motion_pilot,2023.2.2,MacIntel,56.49717514,65bbd33f8f716cd35c027c25,65d6bb0e977760de756971f7,65d6bf2efb200c80632a4d85,0.0284,0.0285,0,73,73,110,1,eightsix,,,,,,,,,,,,,,,,,,,,,,,,,,,,,,,,,,,,,,,,,,,,,,,,,,,,,,,,,,,,,,,,,,,,,,,,,,,,,,,,,,,,,,,,,,,,,,,,,,,,,,,,,,,,,,,,,,,,,,,,,,,,,,,,,,,,,,,,,
,,65bbd33f8f716cd35c027c25,2024-02-21_21h28.01.237,kallum_motion_pilot,2023.2.2,MacIntel,56.49717514,65bbd33f8f716cd35c027c25,65d6bb0e977760de756971f7,65d6bf2efb200c80632a4d85,0.0285,0.0285,0,74,74,46,1,fourtwo,,,,,,,,,,,,,,,,,,,,,,,,,,,,,,,,,,,,,,,,,,,,,,,,,,,,,,,,,,,,,,,,,,,,,,,,,,,,,,,,,,,,,,,,,,,,,,,,,,,,,,,,,,,,,,,,,,,,,,,,,,,,,,,,,,,,,,,,,
,,65bbd33f8f716cd35c027c25,2024-02-21_21h28.01.237,kallum_motion_pilot,2023.2.2,MacIntel,56.49717514,65bbd33f8f716cd35c027c25,65d6bb0e977760de756971f7,65d6bf2efb200c80632a4d85,0.0286,0.0286,0,75,75,151,1,eightseven,,,,,,,,,,,,,,,,,,,,,,,,,,,,,,,,,,,,,,,,,,,,,,,,,,,,,,,,,,,,,,,,,,,,,,,,,,,,,,,,,,,,,,,,,,,,,,,,,,,,,,,,,,,,,,,,,,,,,,,,,,,,,,,,,,,,,,,,,
,,65bbd33f8f716cd35c027c25,2024-02-21_21h28.01.237,kallum_motion_pilot,2023.2.2,MacIntel,56.49717514,65bbd33f8f716cd35c027c25,65d6bb0e977760de756971f7,65d6bf2efb200c80632a4d85,0.0287,0.0287,0,76,76,134,1,eightsix,,,,,,,,,,,,,,,,,,,,,,,,,,,,,,,,,,,,,,,,,,,,,,,,,,,,,,,,,,,,,,,,,,,,,,,,,,,,,,,,,,,,,,,,,,,,,,,,,,,,,,,,,,,,,,,,,,,,,,,,,,,,,,,,,,,,,,,,,
,,65bbd33f8f716cd35c027c25,2024-02-21_21h28.01.237,kallum_motion_pilot,2023.2.2,MacIntel,56.49717514,65bbd33f8f716cd35c027c25,65d6bb0e977760de756971f7,65d6bf2efb200c80632a4d85,0.0288,0.0288,0,77,77,71,1,fourthree,,,,,,,,,,,,,,,,,,,,,,,,,,,,,,,,,,,,,,,,,,,,,,,,,,,,,,,,,,,,,,,,,,,,,,,,,,,,,,,,,,,,,,,,,,,,,,,,,,,,,,,,,,,,,,,,,,,,,,,,,,,,,,,,,,,,,,,,,
,,65bbd33f8f716cd35c027c25,2024-02-21_21h28.01.237,kallum_motion_pilot,2023.2.2,MacIntel,56.49717514,65bbd33f8f716cd35c027c25,65d6bb0e977760de756971f7,65d6bf2efb200c80632a4d85,0.0289,0.0289,0,78,78,1,1,onethree,,,,,,,,,,,,,,,,,,,,,,,,,,,,,,,,,,,,,,,,,,,,,,,,,,,,,,,,,,,,,,,,,,,,,,,,,,,,,,,,,,,,,,,,,,,,,,,,,,,,,,,,,,,,,,,,,,,,,,,,,,,,,,,,,,,,,,,,,
,,65bbd33f8f716cd35c027c25,2024-02-21_21h28.01.237,kallum_motion_pilot,2023.2.2,MacIntel,56.49717514,65bbd33f8f716cd35c027c25,65d6bb0e977760de756971f7,65d6bf2efb200c80632a4d85,0.029,0.029,0,79,79,6,1,fourtwo,,,,,,,,,,,,,,,,,,,,,,,,,,,,,,,,,,,,,,,,,,,,,,,,,,,,,,,,,,,,,,,,,,,,,,,,,,,,,,,,,,,,,,,,,,,,,,,,,,,,,,,,,,,,,,,,,,,,,,,,,,,,,,,,,,,,,,,,,
,,65bbd33f8f716cd35c027c25,2024-02-21_21h28.01.237,kallum_motion_pilot,2023.2.2,MacIntel,56.49717514,65bbd33f8f716cd35c027c25,65d6bb0e977760de756971f7,65d6bf2efb200c80632a4d85,0.0291,0.0292,0,80,80,139,1,sixeight,,,,,,,,,,,,,,,,,,,,,,,,,,,,,,,,,,,,,,,,,,,,,,,,,,,,,,,,,,,,,,,,,,,,,,,,,,,,,,,,,,,,,,,,,,,,,,,,,,,,,,,,,,,,,,,,,,,,,,,,,,,,,,,,,,,,,,,,,
,,65bbd33f8f716cd35c027c25,2024-02-21_21h28.01.237,kallum_motion_pilot,2023.2.2,MacIntel,56.49717514,65bbd33f8f716cd35c027c25,65d6bb0e977760de756971f7,65d6bf2efb200c80632a4d85,0.0292,0.0292,0,81,81,31,1,fourthree,,,,,,,,,,,,,,,,,,,,,,,,,,,,,,,,,,,,,,,,,,,,,,,,,,,,,,,,,,,,,,,,,,,,,,,,,,,,,,,,,,,,,,,,,,,,,,,,,,,,,,,,,,,,,,,,,,,,,,,,,,,,,,,,,,,,,,,,,
,,65bbd33f8f716cd35c027c25,2024-02-21_21h28.01.237,kallum_motion_pilot,2023.2.2,MacIntel,56.49717514,65bbd33f8f716cd35c027c25,65d6bb0e977760de756971f7,65d6bf2efb200c80632a4d85,0.0293,0.0293,0,82,82,104,1,fivesix,,,,,,,,,,,,,,,,,,,,,,,,,,,,,,,,,,,,,,,,,,,,,,,,,,,,,,,,,,,,,,,,,,,,,,,,,,,,,,,,,,,,,,,,,,,,,,,,,,,,,,,,,,,,,,,,,,,,,,,,,,,,,,,,,,,,,,,,,
,,65bbd33f8f716cd35c027c25,2024-02-21_21h28.01.237,kallum_motion_pilot,2023.2.2,MacIntel,56.49717514,65bbd33f8f716cd35c027c25,65d6bb0e977760de756971f7,65d6bf2efb200c80632a4d85,0.0294,0.0294,0,83,83,65,1,onethree,,,,,,,,,,,,,,,,,,,,,,,,,,,,,,,,,,,,,,,,,,,,,,,,,,,,,,,,,,,,,,,,,,,,,,,,,,,,,,,,,,,,,,,,,,,,,,,,,,,,,,,,,,,,,,,,,,,,,,,,,,,,,,,,,,,,,,,,,
,,65bbd33f8f716cd35c027c25,2024-02-21_21h28.01.237,kallum_motion_pilot,2023.2.2,MacIntel,56.49717514,65bbd33f8f716cd35c027c25,65d6bb0e977760de756971f7,65d6bf2efb200c80632a4d85,0.0294,0.0295,0,84,84,15,1,fourthree,,,,,,,,,,,,,,,,,,,,,,,,,,,,,,,,,,,,,,,,,,,,,,,,,,,,,,,,,,,,,,,,,,,,,,,,,,,,,,,,,,,,,,,,,,,,,,,,,,,,,,,,,,,,,,,,,,,,,,,,,,,,,,,,,,,,,,,,,
,,65bbd33f8f716cd35c027c25,2024-02-21_21h28.01.237,kallum_motion_pilot,2023.2.2,MacIntel,56.49717514,65bbd33f8f716cd35c027c25,65d6bb0e977760de756971f7,65d6bf2efb200c80632a4d85,0.0296,0.0297,0,85,85,91,1,sixeight,,,,,,,,,,,,,,,,,,,,,,,,,,,,,,,,,,,,,,,,,,,,,,,,,,,,,,,,,,,,,,,,,,,,,,,,,,,,,,,,,,,,,,,,,,,,,,,,,,,,,,,,,,,,,,,,,,,,,,,,,,,,,,,,,,,,,,,,,
,,65bbd33f8f716cd35c027c25,2024-02-21_21h28.01.237,kallum_motion_pilot,2023.2.2,MacIntel,56.49717514,65bbd33f8f716cd35c027c25,65d6bb0e977760de756971f7,65d6bf2efb200c80632a4d85,0.0297,0.0297,0,86,86,112,1,fivesix,,,,,,,,,,,,,,,,,,,,,,,,,,,,,,,,,,,,,,,,,,,,,,,,,,,,,,,,,,,,,,,,,,,,,,,,,,,,,,,,,,,,,,,,,,,,,,,,,,,,,,,,,,,,,,,,,,,,,,,,,,,,,,,,,,,,,,,,,
,,65bbd33f8f716cd35c027c25,2024-02-21_21h28.01.237,kallum_motion_pilot,2023.2.2,MacIntel,56.49717514,65bbd33f8f716cd35c027c25,65d6bb0e977760de756971f7,65d6bf2efb200c80632a4d85,0.0298,0.0298,0,87,87,136,1,fivesix,,,,,,,,,,,,,,,,,,,,,,,,,,,,,,,,,,,,,,,,,,,,,,,,,,,,,,,,,,,,,,,,,,,,,,,,,,,,,,,,,,,,,,,,,,,,,,,,,,,,,,,,,,,,,,,,,,,,,,,,,,,,,,,,,,,,,,,,,
,,65bbd33f8f716cd35c027c25,2024-02-21_21h28.01.237,kallum_motion_pilot,2023.2.2,MacIntel,56.49717514,65bbd33f8f716cd35c027c25,65d6bb0e977760de756971f7,65d6bf2efb200c80632a4d85,0.0299,0.03,0,88,88,36,1,threeone,,,,,,,,,,,,,,,,,,,,,,,,,,,,,,,,,,,,,,,,,,,,,,,,,,,,,,,,,,,,,,,,,,,,,,,,,,,,,,,,,,,,,,,,,,,,,,,,,,,,,,,,,,,,,,,,,,,,,,,,,,,,,,,,,,,,,,,,,
,,65bbd33f8f716cd35c027c25,2024-02-21_21h28.01.237,kallum_motion_pilot,2023.2.2,MacIntel,56.49717514,65bbd33f8f716cd35c027c25,65d6bb0e977760de756971f7,65d6bf2efb200c80632a4d85,0.03,0.03,0,89,89,0,1,onetwo,,,,,,,,,,,,,,,,,,,,,,,,,,,,,,,,,,,,,,,,,,,,,,,,,,,,,,,,,,,,,,,,,,,,,,,,,,,,,,,,,,,,,,,,,,,,,,,,,,,,,,,,,,,,,,,,,,,,,,,,,,,,,,,,,,,,,,,,,
,,65bbd33f8f716cd35c027c25,2024-02-21_21h28.01.237,kallum_motion_pilot,2023.2.2,MacIntel,56.49717514,65bbd33f8f716cd35c027c25,65d6bb0e977760de756971f7,65d6bf2efb200c80632a4d85,0.0301,0.0301,0,90,90,23,1,fourthree,,,,,,,,,,,,,,,,,,,,,,,,,,,,,,,,,,,,,,,,,,,,,,,,,,,,,,,,,,,,,,,,,,,,,,,,,,,,,,,,,,,,,,,,,,,,,,,,,,,,,,,,,,,,,,,,,,,,,,,,,,,,,,,,,,,,,,,,,
,,65bbd33f8f716cd35c027c25,2024-02-21_21h28.01.237,kallum_motion_pilot,2023.2.2,MacIntel,56.49717514,65bbd33f8f716cd35c027c25,65d6bb0e977760de756971f7,65d6bf2efb200c80632a4d85,0.0302,0.0303,0,91,91,101,1,seveneight,,,,,,,,,,,,,,,,,,,,,,,,,,,,,,,,,,,,,,,,,,,,,,,,,,,,,,,,,,,,,,,,,,,,,,,,,,,,,,,,,,,,,,,,,,,,,,,,,,,,,,,,,,,,,,,,,,,,,,,,,,,,,,,,,,,,,,,,,
,,65bbd33f8f716cd35c027c25,2024-02-21_21h28.01.237,kallum_motion_pilot,2023.2.2,MacIntel,56.49717514,65bbd33f8f716cd35c027c25,65d6bb0e977760de756971f7,65d6bf2efb200c80632a4d85,0.0303,0.0304,0,92,92,35,1,twofour,,,,,,,,,,,,,,,,,,,,,,,,,,,,,,,,,,,,,,,,,,,,,,,,,,,,,,,,,,,,,,,,,,,,,,,,,,,,,,,,,,,,,,,,,,,,,,,,,,,,,,,,,,,,,,,,,,,,,,,,,,,,,,,,,,,,,,,,,
,,65bbd33f8f716cd35c027c25,2024-02-21_21h28.01.237,kallum_motion_pilot,2023.2.2,MacIntel,56.49717514,65bbd33f8f716cd35c027c25,65d6bb0e977760de756971f7,65d6bf2efb200c80632a4d85,0.0304,0.0304,0,93,93,160,1,fivesix,,,,,,,,,,,,,,,,,,,,,,,,,,,,,,,,,,,,,,,,,,,,,,,,,,,,,,,,,,,,,,,,,,,,,,,,,,,,,,,,,,,,,,,,,,,,,,,,,,,,,,,,,,,,,,,,,,,,,,,,,,,,,,,,,,,,,,,,,
,,65bbd33f8f716cd35c027c25,2024-02-21_21h28.01.237,kallum_motion_pilot,2023.2.2,MacIntel,56.49717514,65bbd33f8f716cd35c027c25,65d6bb0e977760de756971f7,65d6bf2efb200c80632a4d85,0.0305,0.0306,0,94,94,152,1,fivesix,,,,,,,,,,,,,,,,,,,,,,,,,,,,,,,,,,,,,,,,,,,,,,,,,,,,,,,,,,,,,,,,,,,,,,,,,,,,,,,,,,,,,,,,,,,,,,,,,,,,,,,,,,,,,,,,,,,,,,,,,,,,,,,,,,,,,,,,,
,,65bbd33f8f716cd35c027c25,2024-02-21_21h28.01.237,kallum_motion_pilot,2023.2.2,MacIntel,56.49717514,65bbd33f8f716cd35c027c25,65d6bb0e977760de756971f7,65d6bf2efb200c80632a4d85,0.0307,0.0307,0,95,95,37,1,threefour,,,,,,,,,,,,,,,,,,,,,,,,,,,,,,,,,,,,,,,,,,,,,,,,,,,,,,,,,,,,,,,,,,,,,,,,,,,,,,,,,,,,,,,,,,,,,,,,,,,,,,,,,,,,,,,,,,,,,,,,,,,,,,,,,,,,,,,,,
,,65bbd33f8f716cd35c027c25,2024-02-21_21h28.01.237,kallum_motion_pilot,2023.2.2,MacIntel,56.49717514,65bbd33f8f716cd35c027c25,65d6bb0e977760de756971f7,65d6bf2efb200c80632a4d85,0.0307,0.0308,0,96,96,27,1,twofour,,,,,,,,,,,,,,,,,,,,,,,,,,,,,,,,,,,,,,,,,,,,,,,,,,,,,,,,,,,,,,,,,,,,,,,,,,,,,,,,,,,,,,,,,,,,,,,,,,,,,,,,,,,,,,,,,,,,,,,,,,,,,,,,,,,,,,,,,
,,65bbd33f8f716cd35c027c25,2024-02-21_21h28.01.237,kallum_motion_pilot,2023.2.2,MacIntel,56.49717514,65bbd33f8f716cd35c027c25,65d6bb0e977760de756971f7,65d6bf2efb200c80632a4d85,0.0308,0.0308,0,97,97,140,1,sevenfive,,,,,,,,,,,,,,,,,,,,,,,,,,,,,,,,,,,,,,,,,,,,,,,,,,,,,,,,,,,,,,,,,,,,,,,,,,,,,,,,,,,,,,,,,,,,,,,,,,,,,,,,,,,,,,,,,,,,,,,,,,,,,,,,,,,,,,,,,
,,65bbd33f8f716cd35c027c25,2024-02-21_21h28.01.237,kallum_motion_pilot,2023.2.2,MacIntel,56.49717514,65bbd33f8f716cd35c027c25,65d6bb0e977760de756971f7,65d6bf2efb200c80632a4d85,0.0309,0.031,0,98,98,16,1,onetwo,,,,,,,,,,,,,,,,,,,,,,,,,,,,,,,,,,,,,,,,,,,,,,,,,,,,,,,,,,,,,,,,,,,,,,,,,,,,,,,,,,,,,,,,,,,,,,,,,,,,,,,,,,,,,,,,,,,,,,,,,,,,,,,,,,,,,,,,,
,,65bbd33f8f716cd35c027c25,2024-02-21_21h28.01.237,kallum_motion_pilot,2023.2.2,MacIntel,56.49717514,65bbd33f8f716cd35c027c25,65d6bb0e977760de756971f7,65d6bf2efb200c80632a4d85,0.0311,0.0311,0,99,99,58,1,twoone,,,,,,,,,,,,,,,,,,,,,,,,,,,,,,,,,,,,,,,,,,,,,,,,,,,,,,,,,,,,,,,,,,,,,,,,,,,,,,,,,,,,,,,,,,,,,,,,,,,,,,,,,,,,,,,,,,,,,,,,,,,,,,,,,,,,,,,,,
,,65bbd33f8f716cd35c027c25,2024-02-21_21h28.01.237,kallum_motion_pilot,2023.2.2,MacIntel,56.49717514,65bbd33f8f716cd35c027c25,65d6bb0e977760de756971f7,65d6bf2efb200c80632a4d85,0.0311,0.0312,0,100,100,62,1,fourtwo,,,,,,,,,,,,,,,,,,,,,,,,,,,,,,,,,,,,,,,,,,,,,,,,,,,,,,,,,,,,,,,,,,,,,,,,,,,,,,,,,,,,,,,,,,,,,,,,,,,,,,,,,,,,,,,,,,,,,,,,,,,,,,,,,,,,,,,,,
,,65bbd33f8f716cd35c027c25,2024-02-21_21h28.01.237,kallum_motion_pilot,2023.2.2,MacIntel,56.49717514,65bbd33f8f716cd35c027c25,65d6bb0e977760de756971f7,65d6bf2efb200c80632a4d85,0.0314,0.0315,0,101,101,108,1,sevenfive,,,,,,,,,,,,,,,,,,,,,,,,,,,,,,,,,,,,,,,,,,,,,,,,,,,,,,,,,,,,,,,,,,,,,,,,,,,,,,,,,,,,,,,,,,,,,,,,,,,,,,,,,,,,,,,,,,,,,,,,,,,,,,,,,,,,,,,,,
,,65bbd33f8f716cd35c027c25,2024-02-21_21h28.01.237,kallum_motion_pilot,2023.2.2,MacIntel,56.49717514,65bbd33f8f716cd35c027c25,65d6bb0e977760de756971f7,65d6bf2efb200c80632a4d85,0.0316,0.0317,0,102,102,150,1,eightsix,,,,,,,,,,,,,,,,,,,,,,,,,,,,,,,,,,,,,,,,,,,,,,,,,,,,,,,,,,,,,,,,,,,,,,,,,,,,,,,,,,,,,,,,,,,,,,,,,,,,,,,,,,,,,,,,,,,,,,,,,,,,,,,,,,,,,,,,,
,,65bbd33f8f716cd35c027c25,2024-02-21_21h28.01.237,kallum_motion_pilot,2023.2.2,MacIntel,56.49717514,65bbd33f8f716cd35c027c25,65d6bb0e977760de756971f7,65d6bf2efb200c80632a4d85,0.0317,0.0318,0,103,103,107,1,sixeight,,,,,,,,,,,,,,,,,,,,,,,,,,,,,,,,,,,,,,,,,,,,,,,,,,,,,,,,,,,,,,,,,,,,,,,,,,,,,,,,,,,,,,,,,,,,,,,,,,,,,,,,,,,,,,,,,,,,,,,,,,,,,,,,,,,,,,,,,
,,65bbd33f8f716cd35c027c25,2024-02-21_21h28.01.237,kallum_motion_pilot,2023.2.2,MacIntel,56.49717514,65bbd33f8f716cd35c027c25,65d6bb0e977760de756971f7,65d6bf2efb200c80632a4d85,0.0319,0.0319,0,104,104,69,1,threefour,,,,,,,,,,,,,,,,,,,,,,,,,,,,,,,,,,,,,,,,,,,,,,,,,,,,,,,,,,,,,,,,,,,,,,,,,,,,,,,,,,,,,,,,,,,,,,,,,,,,,,,,,,,,,,,,,,,,,,,,,,,,,,,,,,,,,,,,,
,,65bbd33f8f716cd35c027c25,2024-02-21_21h28.01.237,kallum_motion_pilot,2023.2.2,MacIntel,56.49717514,65bbd33f8f716cd35c027c25,65d6bb0e977760de756971f7,65d6bf2efb200c80632a4d85,0.032,0.0322,0,105,105,98,1,sixfive,,,,,,,,,,,,,,,,,,,,,,,,,,,,,,,,,,,,,,,,,,,,,,,,,,,,,,,,,,,,,,,,,,,,,,,,,,,,,,,,,,,,,,,,,,,,,,,,,,,,,,,,,,,,,,,,,,,,,,,,,,,,,,,,,,,,,,,,,
,,65bbd33f8f716cd35c027c25,2024-02-21_21h28.01.237,kallum_motion_pilot,2023.2.2,MacIntel,56.49717514,65bbd33f8f716cd35c027c25,65d6bb0e977760de756971f7,65d6bf2efb200c80632a4d85,0.0322,0.0322,0,106,106,50,1,twoone,,,,,,,,,,,,,,,,,,,,,,,,,,,,,,,,,,,,,,,,,,,,,,,,,,,,,,,,,,,,,,,,,,,,,,,,,,,,,,,,,,,,,,,,,,,,,,,,,,,,,,,,,,,,,,,,,,,,,,,,,,,,,,,,,,,,,,,,,
,,65bbd33f8f716cd35c027c25,2024-02-21_21h28.01.237,kallum_motion_pilot,2023.2.2,MacIntel,56.49717514,65bbd33f8f716cd35c027c25,65d6bb0e977760de756971f7,65d6bf2efb200c80632a4d85,0.0323,0.0324,0,107,107,26,1,twoone,,,,,,,,,,,,,,,,,,,,,,,,,,,,,,,,,,,,,,,,,,,,,,,,,,,,,,,,,,,,,,,,,,,,,,,,,,,,,,,,,,,,,,,,,,,,,,,,,,,,,,,,,,,,,,,,,,,,,,,,,,,,,,,,,,,,,,,,,
,,65bbd33f8f716cd35c027c25,2024-02-21_21h28.01.237,kallum_motion_pilot,2023.2.2,MacIntel,56.49717514,65bbd33f8f716cd35c027c25,65d6bb0e977760de756971f7,65d6bf2efb200c80632a4d85,0.0324,0.0325,0,108,108,44,1,threeone,,,,,,,,,,,,,,,,,,,,,,,,,,,,,,,,,,,,,,,,,,,,,,,,,,,,,,,,,,,,,,,,,,,,,,,,,,,,,,,,,,,,,,,,,,,,,,,,,,,,,,,,,,,,,,,,,,,,,,,,,,,,,,,,,,,,,,,,,
,,65bbd33f8f716cd35c027c25,2024-02-21_21h28.01.237,kallum_motion_pilot,2023.2.2,MacIntel,56.49717514,65bbd33f8f716cd35c027c25,65d6bb0e977760de756971f7,65d6bf2efb200c80632a4d85,0.0326,0.0326,0,109,109,93,1,seveneight,,,,,,,,,,,,,,,,,,,,,,,,,,,,,,,,,,,,,,,,,,,,,,,,,,,,,,,,,,,,,,,,,,,,,,,,,,,,,,,,,,,,,,,,,,,,,,,,,,,,,,,,,,,,,,,,,,,,,,,,,,,,,,,,,,,,,,,,,
,,65bbd33f8f716cd35c027c25,2024-02-21_21h28.01.237,kallum_motion_pilot,2023.2.2,MacIntel,56.49717514,65bbd33f8f716cd35c027c25,65d6bb0e977760de756971f7,65d6bf2efb200c80632a4d85,0.0327,0.0329,0,110,110,123,1,sixeight,,,,,,,,,,,,,,,,,,,,,,,,,,,,,,,,,,,,,,,,,,,,,,,,,,,,,,,,,,,,,,,,,,,,,,,,,,,,,,,,,,,,,,,,,,,,,,,,,,,,,,,,,,,,,,,,,,,,,,,,,,,,,,,,,,,,,,,,,
,,65bbd33f8f716cd35c027c25,2024-02-21_21h28.01.237,kallum_motion_pilot,2023.2.2,MacIntel,56.49717514,65bbd33f8f716cd35c027c25,65d6bb0e977760de756971f7,65d6bf2efb200c80632a4d85,0.0329,0.0329,0,111,111,73,1,onethree,,,,,,,,,,,,,,,,,,,,,,,,,,,,,,,,,,,,,,,,,,,,,,,,,,,,,,,,,,,,,,,,,,,,,,,,,,,,,,,,,,,,,,,,,,,,,,,,,,,,,,,,,,,,,,,,,,,,,,,,,,,,,,,,,,,,,,,,,
,,65bbd33f8f716cd35c027c25,2024-02-21_21h28.01.237,kallum_motion_pilot,2023.2.2,MacIntel,56.49717514,65bbd33f8f716cd35c027c25,65d6bb0e977760de756971f7,65d6bf2efb200c80632a4d85,0.0331,0.0331,0,112,112,82,1,sixfive,,,,,,,,,,,,,,,,,,,,,,,,,,,,,,,,,,,,,,,,,,,,,,,,,,,,,,,,,,,,,,,,,,,,,,,,,,,,,,,,,,,,,,,,,,,,,,,,,,,,,,,,,,,,,,,,,,,,,,,,,,,,,,,,,,,,,,,,,
,,65bbd33f8f716cd35c027c25,2024-02-21_21h28.01.237,kallum_motion_pilot,2023.2.2,MacIntel,56.49717514,65bbd33f8f716cd35c027c25,65d6bb0e977760de756971f7,65d6bf2efb200c80632a4d85,0.0331,0.0332,0,113,113,81,1,fiveseven,,,,,,,,,,,,,,,,,,,,,,,,,,,,,,,,,,,,,,,,,,,,,,,,,,,,,,,,,,,,,,,,,,,,,,,,,,,,,,,,,,,,,,,,,,,,,,,,,,,,,,,,,,,,,,,,,,,,,,,,,,,,,,,,,,,,,,,,,
,,65bbd33f8f716cd35c027c25,2024-02-21_21h28.01.237,kallum_motion_pilot,2023.2.2,MacIntel,56.49717514,65bbd33f8f716cd35c027c25,65d6bb0e977760de756971f7,65d6bf2efb200c80632a4d85,0.0332,0.0333,0,114,114,32,1,onetwo,,,,,,,,,,,,,,,,,,,,,,,,,,,,,,,,,,,,,,,,,,,,,,,,,,,,,,,,,,,,,,,,,,,,,,,,,,,,,,,,,,,,,,,,,,,,,,,,,,,,,,,,,,,,,,,,,,,,,,,,,,,,,,,,,,,,,,,,,
,,65bbd33f8f716cd35c027c25,2024-02-21_21h28.01.237,kallum_motion_pilot,2023.2.2,MacIntel,56.49717514,65bbd33f8f716cd35c027c25,65d6bb0e977760de756971f7,65d6bf2efb200c80632a4d85,0.0333,0.0334,0,115,115,88,1,fivesix,,,,,,,,,,,,,,,,,,,,,,,,,,,,,,,,,,,,,,,,,,,,,,,,,,,,,,,,,,,,,,,,,,,,,,,,,,,,,,,,,,,,,,,,,,,,,,,,,,,,,,,,,,,,,,,,,,,,,,,,,,,,,,,,,,,,,,,,,
,,65bbd33f8f716cd35c027c25,2024-02-21_21h28.01.237,kallum_motion_pilot,2023.2.2,MacIntel,56.49717514,65bbd33f8f716cd35c027c25,65d6bb0e977760de756971f7,65d6bf2efb200c80632a4d85,0.0335,0.0335,0,116,116,57,1,onethree,,,,,,,,,,,,,,,,,,,,,,,,,,,,,,,,,,,,,,,,,,,,,,,,,,,,,,,,,,,,,,,,,,,,,,,,,,,,,,,,,,,,,,,,,,,,,,,,,,,,,,,,,,,,,,,,,,,,,,,,,,,,,,,,,,,,,,,,,
,,65bbd33f8f716cd35c027c25,2024-02-21_21h28.01.237,kallum_motion_pilot,2023.2.2,MacIntel,56.49717514,65bbd33f8f716cd35c027c25,65d6bb0e977760de756971f7,65d6bf2efb200c80632a4d85,0.0336,0.0337,0,117,117,67,1,twofour,,,,,,,,,,,,,,,,,,,,,,,,,,,,,,,,,,,,,,,,,,,,,,,,,,,,,,,,,,,,,,,,,,,,,,,,,,,,,,,,,,,,,,,,,,,,,,,,,,,,,,,,,,,,,,,,,,,,,,,,,,,,,,,,,,,,,,,,,
,,65bbd33f8f716cd35c027c25,2024-02-21_21h28.01.237,kallum_motion_pilot,2023.2.2,MacIntel,56.49717514,65bbd33f8f716cd35c027c25,65d6bb0e977760de756971f7,65d6bf2efb200c80632a4d85,0.0337,0.0338,0,118,118,38,1,fourtwo,,,,,,,,,,,,,,,,,,,,,,,,,,,,,,,,,,,,,,,,,,,,,,,,,,,,,,,,,,,,,,,,,,,,,,,,,,,,,,,,,,,,,,,,,,,,,,,,,,,,,,,,,,,,,,,,,,,,,,,,,,,,,,,,,,,,,,,,,
,,65bbd33f8f716cd35c027c25,2024-02-21_21h28.01.237,kallum_motion_pilot,2023.2.2,MacIntel,56.49717514,65bbd33f8f716cd35c027c25,65d6bb0e977760de756971f7,65d6bf2efb200c80632a4d85,0.0338,0.0339,0,119,119,83,1,sixeight,,,,,,,,,,,,,,,,,,,,,,,,,,,,,,,,,,,,,,,,,,,,,,,,,,,,,,,,,,,,,,,,,,,,,,,,,,,,,,,,,,,,,,,,,,,,,,,,,,,,,,,,,,,,,,,,,,,,,,,,,,,,,,,,,,,,,,,,,
,,65bbd33f8f716cd35c027c25,2024-02-21_21h28.01.237,kallum_motion_pilot,2023.2.2,MacIntel,56.49717514,65bbd33f8f716cd35c027c25,65d6bb0e977760de756971f7,65d6bf2efb200c80632a4d85,0.034,0.0341,0,120,120,114,1,sixfive,,,,,,,,,,,,,,,,,,,,,,,,,,,,,,,,,,,,,,,,,,,,,,,,,,,,,,,,,,,,,,,,,,,,,,,,,,,,,,,,,,,,,,,,,,,,,,,,,,,,,,,,,,,,,,,,,,,,,,,,,,,,,,,,,,,,,,,,,
,,65bbd33f8f716cd35c027c25,2024-02-21_21h28.01.237,kallum_motion_pilot,2023.2.2,MacIntel,56.49717514,65bbd33f8f716cd35c027c25,65d6bb0e977760de756971f7,65d6bf2efb200c80632a4d85,0.0342,0.0342,0,121,121,126,1,eightsix,,,,,,,,,,,,,,,,,,,,,,,,,,,,,,,,,,,,,,,,,,,,,,,,,,,,,,,,,,,,,,,,,,,,,,,,,,,,,,,,,,,,,,,,,,,,,,,,,,,,,,,,,,,,,,,,,,,,,,,,,,,,,,,,,,,,,,,,,
,,65bbd33f8f716cd35c027c25,2024-02-21_21h28.01.237,kallum_motion_pilot,2023.2.2,MacIntel,56.49717514,65bbd33f8f716cd35c027c25,65d6bb0e977760de756971f7,65d6bf2efb200c80632a4d85,0.0343,0.0343,0,122,122,41,1,onethree,,,,,,,,,,,,,,,,,,,,,,,,,,,,,,,,,,,,,,,,,,,,,,,,,,,,,,,,,,,,,,,,,,,,,,,,,,,,,,,,,,,,,,,,,,,,,,,,,,,,,,,,,,,,,,,,,,,,,,,,,,,,,,,,,,,,,,,,,
,,65bbd33f8f716cd35c027c25,2024-02-21_21h28.01.237,kallum_motion_pilot,2023.2.2,MacIntel,56.49717514,65bbd33f8f716cd35c027c25,65d6bb0e977760de756971f7,65d6bf2efb200c80632a4d85,0.0343,0.0344,0,123,123,135,1,eightseven,,,,,,,,,,,,,,,,,,,,,,,,,,,,,,,,,,,,,,,,,,,,,,,,,,,,,,,,,,,,,,,,,,,,,,,,,,,,,,,,,,,,,,,,,,,,,,,,,,,,,,,,,,,,,,,,,,,,,,,,,,,,,,,,,,,,,,,,,
,,65bbd33f8f716cd35c027c25,2024-02-21_21h28.01.237,kallum_motion_pilot,2023.2.2,MacIntel,56.49717514,65bbd33f8f716cd35c027c25,65d6bb0e977760de756971f7,65d6bf2efb200c80632a4d85,0.0345,0.0345,0,124,124,142,1,eightsix,,,,,,,,,,,,,,,,,,,,,,,,,,,,,,,,,,,,,,,,,,,,,,,,,,,,,,,,,,,,,,,,,,,,,,,,,,,,,,,,,,,,,,,,,,,,,,,,,,,,,,,,,,,,,,,,,,,,,,,,,,,,,,,,,,,,,,,,,
,,65bbd33f8f716cd35c027c25,2024-02-21_21h28.01.237,kallum_motion_pilot,2023.2.2,MacIntel,56.49717514,65bbd33f8f716cd35c027c25,65d6bb0e977760de756971f7,65d6bf2efb200c80632a4d85,0.0347,0.0347,0,125,125,48,1,onetwo,,,,,,,,,,,,,,,,,,,,,,,,,,,,,,,,,,,,,,,,,,,,,,,,,,,,,,,,,,,,,,,,,,,,,,,,,,,,,,,,,,,,,,,,,,,,,,,,,,,,,,,,,,,,,,,,,,,,,,,,,,,,,,,,,,,,,,,,,
,,65bbd33f8f716cd35c027c25,2024-02-21_21h28.01.237,kallum_motion_pilot,2023.2.2,MacIntel,56.49717514,65bbd33f8f716cd35c027c25,65d6bb0e977760de756971f7,65d6bf2efb200c80632a4d85,0.0347,0.0348,0,126,126,102,1,eightsix,,,,,,,,,,,,,,,,,,,,,,,,,,,,,,,,,,,,,,,,,,,,,,,,,,,,,,,,,,,,,,,,,,,,,,,,,,,,,,,,,,,,,,,,,,,,,,,,,,,,,,,,,,,,,,,,,,,,,,,,,,,,,,,,,,,,,,,,,
,,65bbd33f8f716cd35c027c25,2024-02-21_21h28.01.237,kallum_motion_pilot,2023.2.2,MacIntel,56.49717514,65bbd33f8f716cd35c027c25,65d6bb0e977760de756971f7,65d6bf2efb200c80632a4d85,0.0348,0.0349,0,127,127,53,1,threefour,,,,,,,,,,,,,,,,,,,,,,,,,,,,,,,,,,,,,,,,,,,,,,,,,,,,,,,,,,,,,,,,,,,,,,,,,,,,,,,,,,,,,,,,,,,,,,,,,,,,,,,,,,,,,,,,,,,,,,,,,,,,,,,,,,,,,,,,,
,,65bbd33f8f716cd35c027c25,2024-02-21_21h28.01.237,kallum_motion_pilot,2023.2.2,MacIntel,56.49717514,65bbd33f8f716cd35c027c25,65d6bb0e977760de756971f7,65d6bf2efb200c80632a4d85,0.035,0.0351,0,128,128,155,1,sixeight,,,,,,,,,,,,,,,,,,,,,,,,,,,,,,,,,,,,,,,,,,,,,,,,,,,,,,,,,,,,,,,,,,,,,,,,,,,,,,,,,,,,,,,,,,,,,,,,,,,,,,,,,,,,,,,,,,,,,,,,,,,,,,,,,,,,,,,,,
,,65bbd33f8f716cd35c027c25,2024-02-21_21h28.01.237,kallum_motion_pilot,2023.2.2,MacIntel,56.49717514,65bbd33f8f716cd35c027c25,65d6bb0e977760de756971f7,65d6bf2efb200c80632a4d85,0.0352,0.0352,0,129,129,55,1,fourthree,,,,,,,,,,,,,,,,,,,,,,,,,,,,,,,,,,,,,,,,,,,,,,,,,,,,,,,,,,,,,,,,,,,,,,,,,,,,,,,,,,,,,,,,,,,,,,,,,,,,,,,,,,,,,,,,,,,,,,,,,,,,,,,,,,,,,,,,,
,,65bbd33f8f716cd35c027c25,2024-02-21_21h28.01.237,kallum_motion_pilot,2023.2.2,MacIntel,56.49717514,65bbd33f8f716cd35c027c25,65d6bb0e977760de756971f7,65d6bf2efb200c80632a4d85,0.0352,0.0353,0,130,130,75,1,twofour,,,,,,,,,,,,,,,,,,,,,,,,,,,,,,,,,,,,,,,,,,,,,,,,,,,,,,,,,,,,,,,,,,,,,,,,,,,,,,,,,,,,,,,,,,,,,,,,,,,,,,,,,,,,,,,,,,,,,,,,,,,,,,,,,,,,,,,,,
,,65bbd33f8f716cd35c027c25,2024-02-21_21h28.01.237,kallum_motion_pilot,2023.2.2,MacIntel,56.49717514,65bbd33f8f716cd35c027c25,65d6bb0e977760de756971f7,65d6bf2efb200c80632a4d85,0.0354,0.0354,0,131,131,21,1,threefour,,,,,,,,,,,,,,,,,,,,,,,,,,,,,,,,,,,,,,,,,,,,,,,,,,,,,,,,,,,,,,,,,,,,,,,,,,,,,,,,,,,,,,,,,,,,,,,,,,,,,,,,,,,,,,,,,,,,,,,,,,,,,,,,,,,,,,,,,
,,65bbd33f8f716cd35c027c25,2024-02-21_21h28.01.237,kallum_motion_pilot,2023.2.2,MacIntel,56.49717514,65bbd33f8f716cd35c027c25,65d6bb0e977760de756971f7,65d6bf2efb200c80632a4d85,0.0354,0.0355,0,132,132,147,1,sixeight,,,,,,,,,,,,,,,,,,,,,,,,,,,,,,,,,,,,,,,,,,,,,,,,,,,,,,,,,,,,,,,,,,,,,,,,,,,,,,,,,,,,,,,,,,,,,,,,,,,,,,,,,,,,,,,,,,,,,,,,,,,,,,,,,,,,,,,,,
,,65bbd33f8f716cd35c027c25,2024-02-21_21h28.01.237,kallum_motion_pilot,2023.2.2,MacIntel,56.49717514,65bbd33f8f716cd35c027c25,65d6bb0e977760de756971f7,65d6bf2efb200c80632a4d85,0.0356,0.0357,0,133,133,56,1,onetwo,,,,,,,,,,,,,,,,,,,,,,,,,,,,,,,,,,,,,,,,,,,,,,,,,,,,,,,,,,,,,,,,,,,,,,,,,,,,,,,,,,,,,,,,,,,,,,,,,,,,,,,,,,,,,,,,,,,,,,,,,,,,,,,,,,,,,,,,,
,,65bbd33f8f716cd35c027c25,2024-02-21_21h28.01.237,kallum_motion_pilot,2023.2.2,MacIntel,56.49717514,65bbd33f8f716cd35c027c25,65d6bb0e977760de756971f7,65d6bf2efb200c80632a4d85,0.0357,0.0357,0,134,134,66,1,twoone,,,,,,,,,,,,,,,,,,,,,,,,,,,,,,,,,,,,,,,,,,,,,,,,,,,,,,,,,,,,,,,,,,,,,,,,,,,,,,,,,,,,,,,,,,,,,,,,,,,,,,,,,,,,,,,,,,,,,,,,,,,,,,,,,,,,,,,,,
,,65bbd33f8f716cd35c027c25,2024-02-21_21h28.01.237,kallum_motion_pilot,2023.2.2,MacIntel,56.49717514,65bbd33f8f716cd35c027c25,65d6bb0e977760de756971f7,65d6bf2efb200c80632a4d85,0.0357,0.0358,0,135,135,43,1,twofour,,,,,,,,,,,,,,,,,,,,,,,,,,,,,,,,,,,,,,,,,,,,,,,,,,,,,,,,,,,,,,,,,,,,,,,,,,,,,,,,,,,,,,,,,,,,,,,,,,,,,,,,,,,,,,,,,,,,,,,,,,,,,,,,,,,,,,,,,
,,65bbd33f8f716cd35c027c25,2024-02-21_21h28.01.237,kallum_motion_pilot,2023.2.2,MacIntel,56.49717514,65bbd33f8f716cd35c027c25,65d6bb0e977760de756971f7,65d6bf2efb200c80632a4d85,0.0359,0.036,0,136,136,60,1,threeone,,,,,,,,,,,,,,,,,,,,,,,,,,,,,,,,,,,,,,,,,,,,,,,,,,,,,,,,,,,,,,,,,,,,,,,,,,,,,,,,,,,,,,,,,,,,,,,,,,,,,,,,,,,,,,,,,,,,,,,,,,,,,,,,,,,,,,,,,
,,65bbd33f8f716cd35c027c25,2024-02-21_21h28.01.237,kallum_motion_pilot,2023.2.2,MacIntel,56.49717514,65bbd33f8f716cd35c027c25,65d6bb0e977760de756971f7,65d6bf2efb200c80632a4d85,0.036,0.0361,0,137,137,85,1,seveneight,,,,,,,,,,,,,,,,,,,,,,,,,,,,,,,,,,,,,,,,,,,,,,,,,,,,,,,,,,,,,,,,,,,,,,,,,,,,,,,,,,,,,,,,,,,,,,,,,,,,,,,,,,,,,,,,,,,,,,,,,,,,,,,,,,,,,,,,,
,,65bbd33f8f716cd35c027c25,2024-02-21_21h28.01.237,kallum_motion_pilot,2023.2.2,MacIntel,56.49717514,65bbd33f8f716cd35c027c25,65d6bb0e977760de756971f7,65d6bf2efb200c80632a4d85,0.0361,0.0361,0,138,138,28,1,threeone,,,,,,,,,,,,,,,,,,,,,,,,,,,,,,,,,,,,,,,,,,,,,,,,,,,,,,,,,,,,,,,,,,,,,,,,,,,,,,,,,,,,,,,,,,,,,,,,,,,,,,,,,,,,,,,,,,,,,,,,,,,,,,,,,,,,,,,,,
,,65bbd33f8f716cd35c027c25,2024-02-21_21h28.01.237,kallum_motion_pilot,2023.2.2,MacIntel,56.49717514,65bbd33f8f716cd35c027c25,65d6bb0e977760de756971f7,65d6bf2efb200c80632a4d85,0.0362,0.0363,0,139,139,33,1,onethree,,,,,,,,,,,,,,,,,,,,,,,,,,,,,,,,,,,,,,,,,,,,,,,,,,,,,,,,,,,,,,,,,,,,,,,,,,,,,,,,,,,,,,,,,,,,,,,,,,,,,,,,,,,,,,,,,,,,,,,,,,,,,,,,,,,,,,,,,
,,65bbd33f8f716cd35c027c25,2024-02-21_21h28.01.237,kallum_motion_pilot,2023.2.2,MacIntel,56.49717514,65bbd33f8f716cd35c027c25,65d6bb0e977760de756971f7,65d6bf2efb200c80632a4d85,0.0363,0.0363,0,140,140,25,1,onethree,,,,,,,,,,,,,,,,,,,,,,,,,,,,,,,,,,,,,,,,,,,,,,,,,,,,,,,,,,,,,,,,,,,,,,,,,,,,,,,,,,,,,,,,,,,,,,,,,,,,,,,,,,,,,,,,,,,,,,,,,,,,,,,,,,,,,,,,,
,,65bbd33f8f716cd35c027c25,2024-02-21_21h28.01.237,kallum_motion_pilot,2023.2.2,MacIntel,56.49717514,65bbd33f8f716cd35c027c25,65d6bb0e977760de756971f7,65d6bf2efb200c80632a4d85,0.0364,0.0364,0,141,141,96,1,fivesix,,,,,,,,,,,,,,,,,,,,,,,,,,,,,,,,,,,,,,,,,,,,,,,,,,,,,,,,,,,,,,,,,,,,,,,,,,,,,,,,,,,,,,,,,,,,,,,,,,,,,,,,,,,,,,,,,,,,,,,,,,,,,,,,,,,,,,,,,
,,65bbd33f8f716cd35c027c25,2024-02-21_21h28.01.237,kallum_motion_pilot,2023.2.2,MacIntel,56.49717514,65bbd33f8f716cd35c027c25,65d6bb0e977760de756971f7,65d6bf2efb200c80632a4d85,0.0365,0.0366,0,142,142,59,1,twofour,,,,,,,,,,,,,,,,,,,,,,,,,,,,,,,,,,,,,,,,,,,,,,,,,,,,,,,,,,,,,,,,,,,,,,,,,,,,,,,,,,,,,,,,,,,,,,,,,,,,,,,,,,,,,,,,,,,,,,,,,,,,,,,,,,,,,,,,,
,,65bbd33f8f716cd35c027c25,2024-02-21_21h28.01.237,kallum_motion_pilot,2023.2.2,MacIntel,56.49717514,65bbd33f8f716cd35c027c25,65d6bb0e977760de756971f7,65d6bf2efb200c80632a4d85,0.0366,0.0367,0,143,143,22,1,fourtwo,,,,,,,,,,,,,,,,,,,,,,,,,,,,,,,,,,,,,,,,,,,,,,,,,,,,,,,,,,,,,,,,,,,,,,,,,,,,,,,,,,,,,,,,,,,,,,,,,,,,,,,,,,,,,,,,,,,,,,,,,,,,,,,,,,,,,,,,,
,,65bbd33f8f716cd35c027c25,2024-02-21_21h28.01.237,kallum_motion_pilot,2023.2.2,MacIntel,56.49717514,65bbd33f8f716cd35c027c25,65d6bb0e977760de756971f7,65d6bf2efb200c80632a4d85,0.0368,0.0368,0,144,144,132,1,sevenfive,,,,,,,,,,,,,,,,,,,,,,,,,,,,,,,,,,,,,,,,,,,,,,,,,,,,,,,,,,,,,,,,,,,,,,,,,,,,,,,,,,,,,,,,,,,,,,,,,,,,,,,,,,,,,,,,,,,,,,,,,,,,,,,,,,,,,,,,,
,,65bbd33f8f716cd35c027c25,2024-02-21_21h28.01.237,kallum_motion_pilot,2023.2.2,MacIntel,56.49717514,65bbd33f8f716cd35c027c25,65d6bb0e977760de756971f7,65d6bf2efb200c80632a4d85,0.0369,0.0369,0,145,145,95,1,eightseven,,,,,,,,,,,,,,,,,,,,,,,,,,,,,,,,,,,,,,,,,,,,,,,,,,,,,,,,,,,,,,,,,,,,,,,,,,,,,,,,,,,,,,,,,,,,,,,,,,,,,,,,,,,,,,,,,,,,,,,,,,,,,,,,,,,,,,,,,
,,65bbd33f8f716cd35c027c25,2024-02-21_21h28.01.237,kallum_motion_pilot,2023.2.2,MacIntel,56.49717514,65bbd33f8f716cd35c027c25,65d6bb0e977760de756971f7,65d6bf2efb200c80632a4d85,0.0369,0.037,0,146,146,77,1,threefour,,,,,,,,,,,,,,,,,,,,,,,,,,,,,,,,,,,,,,,,,,,,,,,,,,,,,,,,,,,,,,,,,,,,,,,,,,,,,,,,,,,,,,,,,,,,,,,,,,,,,,,,,,,,,,,,,,,,,,,,,,,,,,,,,,,,,,,,,
,,65bbd33f8f716cd35c027c25,2024-02-21_21h28.01.237,kallum_motion_pilot,2023.2.2,MacIntel,56.49717514,65bbd33f8f716cd35c027c25,65d6bb0e977760de756971f7,65d6bf2efb200c80632a4d85,0.037,0.0371,0,147,147,144,1,fivesix,,,,,,,,,,,,,,,,,,,,,,,,,,,,,,,,,,,,,,,,,,,,,,,,,,,,,,,,,,,,,,,,,,,,,,,,,,,,,,,,,,,,,,,,,,,,,,,,,,,,,,,,,,,,,,,,,,,,,,,,,,,,,,,,,,,,,,,,,
,,65bbd33f8f716cd35c027c25,2024-02-21_21h28.01.237,kallum_motion_pilot,2023.2.2,MacIntel,56.49717514,65bbd33f8f716cd35c027c25,65d6bb0e977760de756971f7,65d6bf2efb200c80632a4d85,0.0372,0.0372,0,148,148,129,1,fiveseven,,,,,,,,,,,,,,,,,,,,,,,,,,,,,,,,,,,,,,,,,,,,,,,,,,,,,,,,,,,,,,,,,,,,,,,,,,,,,,,,,,,,,,,,,,,,,,,,,,,,,,,,,,,,,,,,,,,,,,,,,,,,,,,,,,,,,,,,,
,,65bbd33f8f716cd35c027c25,2024-02-21_21h28.01.237,kallum_motion_pilot,2023.2.2,MacIntel,56.49717514,65bbd33f8f716cd35c027c25,65d6bb0e977760de756971f7,65d6bf2efb200c80632a4d85,0.0373,0.0373,0,149,149,145,1,fiveseven,,,,,,,,,,,,,,,,,,,,,,,,,,,,,,,,,,,,,,,,,,,,,,,,,,,,,,,,,,,,,,,,,,,,,,,,,,,,,,,,,,,,,,,,,,,,,,,,,,,,,,,,,,,,,,,,,,,,,,,,,,,,,,,,,,,,,,,,,
,,65bbd33f8f716cd35c027c25,2024-02-21_21h28.01.237,kallum_motion_pilot,2023.2.2,MacIntel,56.49717514,65bbd33f8f716cd35c027c25,65d6bb0e977760de756971f7,65d6bf2efb200c80632a4d85,0.0374,0.0374,0,150,150,68,1,threeone,,,,,,,,,,,,,,,,,,,,,,,,,,,,,,,,,,,,,,,,,,,,,,,,,,,,,,,,,,,,,,,,,,,,,,,,,,,,,,,,,,,,,,,,,,,,,,,,,,,,,,,,,,,,,,,,,,,,,,,,,,,,,,,,,,,,,,,,,
,,65bbd33f8f716cd35c027c25,2024-02-21_21h28.01.237,kallum_motion_pilot,2023.2.2,MacIntel,56.49717514,65bbd33f8f716cd35c027c25,65d6bb0e977760de756971f7,65d6bf2efb200c80632a4d85,0.0375,0.0376,0,151,151,39,1,fourthree,,,,,,,,,,,,,,,,,,,,,,,,,,,,,,,,,,,,,,,,,,,,,,,,,,,,,,,,,,,,,,,,,,,,,,,,,,,,,,,,,,,,,,,,,,,,,,,,,,,,,,,,,,,,,,,,,,,,,,,,,,,,,,,,,,,,,,,,,
,,65bbd33f8f716cd35c027c25,2024-02-21_21h28.01.237,kallum_motion_pilot,2023.2.2,MacIntel,56.49717514,65bbd33f8f716cd35c027c25,65d6bb0e977760de756971f7,65d6bf2efb200c80632a4d85,0.0376,0.0376,0,152,152,127,1,eightseven,,,,,,,,,,,,,,,,,,,,,,,,,,,,,,,,,,,,,,,,,,,,,,,,,,,,,,,,,,,,,,,,,,,,,,,,,,,,,,,,,,,,,,,,,,,,,,,,,,,,,,,,,,,,,,,,,,,,,,,,,,,,,,,,,,,,,,,,,
,,65bbd33f8f716cd35c027c25,2024-02-21_21h28.01.237,kallum_motion_pilot,2023.2.2,MacIntel,56.49717514,65bbd33f8f716cd35c027c25,65d6bb0e977760de756971f7,65d6bf2efb200c80632a4d85,0.0377,0.0378,0,153,153,45,1,threefour,,,,,,,,,,,,,,,,,,,,,,,,,,,,,,,,,,,,,,,,,,,,,,,,,,,,,,,,,,,,,,,,,,,,,,,,,,,,,,,,,,,,,,,,,,,,,,,,,,,,,,,,,,,,,,,,,,,,,,,,,,,,,,,,,,,,,,,,,
,,65bbd33f8f716cd35c027c25,2024-02-21_21h28.01.237,kallum_motion_pilot,2023.2.2,MacIntel,56.49717514,65bbd33f8f716cd35c027c25,65d6bb0e977760de756971f7,65d6bf2efb200c80632a4d85,0.0378,0.0378,0,154,154,7,1,fourthree,,,,,,,,,,,,,,,,,,,,,,,,,,,,,,,,,,,,,,,,,,,,,,,,,,,,,,,,,,,,,,,,,,,,,,,,,,,,,,,,,,,,,,,,,,,,,,,,,,,,,,,,,,,,,,,,,,,,,,,,,,,,,,,,,,,,,,,,,
,,65bbd33f8f716cd35c027c25,2024-02-21_21h28.01.237,kallum_motion_pilot,2023.2.2,MacIntel,56.49717514,65bbd33f8f716cd35c027c25,65d6bb0e977760de756971f7,65d6bf2efb200c80632a4d85,0.0379,0.0379,0,155,155,51,1,twofour,,,,,,,,,,,,,,,,,,,,,,,,,,,,,,,,,,,,,,,,,,,,,,,,,,,,,,,,,,,,,,,,,,,,,,,,,,,,,,,,,,,,,,,,,,,,,,,,,,,,,,,,,,,,,,,,,,,,,,,,,,,,,,,,,,,,,,,,,
,,65bbd33f8f716cd35c027c25,2024-02-21_21h28.01.237,kallum_motion_pilot,2023.2.2,MacIntel,56.49717514,65bbd33f8f716cd35c027c25,65d6bb0e977760de756971f7,65d6bf2efb200c80632a4d85,0.038,0.038,0,156,156,87,1,eightseven,,,,,,,,,,,,,,,,,,,,,,,,,,,,,,,,,,,,,,,,,,,,,,,,,,,,,,,,,,,,,,,,,,,,,,,,,,,,,,,,,,,,,,,,,,,,,,,,,,,,,,,,,,,,,,,,,,,,,,,,,,,,,,,,,,,,,,,,,
,,65bbd33f8f716cd35c027c25,2024-02-21_21h28.01.237,kallum_motion_pilot,2023.2.2,MacIntel,56.49717514,65bbd33f8f716cd35c027c25,65d6bb0e977760de756971f7,65d6bf2efb200c80632a4d85,0.038,0.0381,0,157,157,106,1,sixfive,,,,,,,,,,,,,,,,,,,,,,,,,,,,,,,,,,,,,,,,,,,,,,,,,,,,,,,,,,,,,,,,,,,,,,,,,,,,,,,,,,,,,,,,,,,,,,,,,,,,,,,,,,,,,,,,,,,,,,,,,,,,,,,,,,,,,,,,,
,,65bbd33f8f716cd35c027c25,2024-02-21_21h28.01.237,kallum_motion_pilot,2023.2.2,MacIntel,56.49717514,65bbd33f8f716cd35c027c25,65d6bb0e977760de756971f7,65d6bf2efb200c80632a4d85,0.0382,0.0382,0,158,158,13,1,threefour,,,,,,,,,,,,,,,,,,,,,,,,,,,,,,,,,,,,,,,,,,,,,,,,,,,,,,,,,,,,,,,,,,,,,,,,,,,,,,,,,,,,,,,,,,,,,,,,,,,,,,,,,,,,,,,,,,,,,,,,,,,,,,,,,,,,,,,,,
,,65bbd33f8f716cd35c027c25,2024-02-21_21h28.01.237,kallum_motion_pilot,2023.2.2,MacIntel,56.49717514,65bbd33f8f716cd35c027c25,65d6bb0e977760de756971f7,65d6bf2efb200c80632a4d85,0.0383,0.0383,0,159,159,103,1,eightseven,,,,,,,,,,,,,,,,,,,,,,,,,,,,,,,,,,,,,,,,,,,,,,,,,,,,,,,,,,,,,,,,,,,,,,,,,,,,,,,,,,,,,,,,,,,,,,,,,,,,,,,,,,,,,,,,,,,,,,,,,,,,,,,,,,,,,,,,,
,,65bbd33f8f716cd35c027c25,2024-02-21_21h28.01.237,kallum_motion_pilot,2023.2.2,MacIntel,56.49717514,65bbd33f8f716cd35c027c25,65d6bb0e977760de756971f7,65d6bf2efb200c80632a4d85,0.0384,0.0384,0,160,160,157,1,seveneight,,,,,,,,,,,,,,,,,,,,,,,,,,,,,,,,,,,,,,,,,,,,,,,,,,,,,,,,,,,,,,,,,,,,,,,,,,,,,,,,,,,,,,,,,,,,,,,,,,,,,,,,,,,,,,,,,,,,,,,,,,,,,,,,,,,,,,,,,
,,65bbd33f8f716cd35c027c25,2024-02-21_21h28.01.237,kallum_motion_pilot,2023.2.2,MacIntel,56.49717514,65bbd33f8f716cd35c027c25,65d6bb0e977760de756971f7,65d6bf2efb200c80632a4d85,0.039,0.0391,0,161,161,17,1,onethree,,,,,,,,,,,,,,,,,,,,,,,,,,,,,,,,,,,,,,,,,,,,,,,,,,,,,,,,,,,,,,,,,,,,,,,,,,,,,,,,,,,,,,,,,,,,,,,,,,,,,,,,,,,,,,,,,,,,,,,,,,,,,,,,,,,,,,,,,
,,65bbd33f8f716cd35c027c25,2024-02-21_21h28.01.237,kallum_motion_pilot,2023.2.2,MacIntel,56.49717514,65bbd33f8f716cd35c027c25,65d6bb0e977760de756971f7,65d6bf2efb200c80632a4d85,0.0391,0.0391,1,0,162,153,1,fiveseven,,,,,,,,,,,,,,,,,,,,,,,,,,,,,,,,,,,,,,,,,,,,,,,,,,,,,,,,,,,,,,,,,,,,,,,,,,,,,,,,,,,,,,,,,,,,,,,,,,,,,,,,,,,,,,,,,,,,,,,,,,,,,,,,,,,,,,,,,
,,65bbd33f8f716cd35c027c25,2024-02-21_21h28.01.237,kallum_motion_pilot,2023.2.2,MacIntel,56.49717514,65bbd33f8f716cd35c027c25,65d6bb0e977760de756971f7,65d6bf2efb200c80632a4d85,0.0392,0.0392,1,1,163,80,1,fivesix,,,,,,,,,,,,,,,,,,,,,,,,,,,,,,,,,,,,,,,,,,,,,,,,,,,,,,,,,,,,,,,,,,,,,,,,,,,,,,,,,,,,,,,,,,,,,,,,,,,,,,,,,,,,,,,,,,,,,,,,,,,,,,,,,,,,,,,,,
,,65bbd33f8f716cd35c027c25,2024-02-21_21h28.01.237,kallum_motion_pilot,2023.2.2,MacIntel,56.49717514,65bbd33f8f716cd35c027c25,65d6bb0e977760de756971f7,65d6bf2efb200c80632a4d85,0.0393,0.0394,1,2,164,135,1,eightseven,,,,,,,,,,,,,,,,,,,,,,,,,,,,,,,,,,,,,,,,,,,,,,,,,,,,,,,,,,,,,,,,,,,,,,,,,,,,,,,,,,,,,,,,,,,,,,,,,,,,,,,,,,,,,,,,,,,,,,,,,,,,,,,,,,,,,,,,,
,,65bbd33f8f716cd35c027c25,2024-02-21_21h28.01.237,kallum_motion_pilot,2023.2.2,MacIntel,56.49717514,65bbd33f8f716cd35c027c25,65d6bb0e977760de756971f7,65d6bf2efb200c80632a4d85,0.0394,0.0394,1,3,165,120,1,fivesix,,,,,,,,,,,,,,,,,,,,,,,,,,,,,,,,,,,,,,,,,,,,,,,,,,,,,,,,,,,,,,,,,,,,,,,,,,,,,,,,,,,,,,,,,,,,,,,,,,,,,,,,,,,,,,,,,,,,,,,,,,,,,,,,,,,,,,,,,
,,65bbd33f8f716cd35c027c25,2024-02-21_21h28.01.237,kallum_motion_pilot,2023.2.2,MacIntel,56.49717514,65bbd33f8f716cd35c027c25,65d6bb0e977760de756971f7,65d6bf2efb200c80632a4d85,0.0395,0.0396,1,4,166,22,1,fourtwo,,,,,,,,,,,,,,,,,,,,,,,,,,,,,,,,,,,,,,,,,,,,,,,,,,,,,,,,,,,,,,,,,,,,,,,,,,,,,,,,,,,,,,,,,,,,,,,,,,,,,,,,,,,,,,,,,,,,,,,,,,,,,,,,,,,,,,,,,
,,65bbd33f8f716cd35c027c25,2024-02-21_21h28.01.237,kallum_motion_pilot,2023.2.2,MacIntel,56.49717514,65bbd33f8f716cd35c027c25,65d6bb0e977760de756971f7,65d6bf2efb200c80632a4d85,0.0396,0.0397,1,5,167,6,1,fourtwo,,,,,,,,,,,,,,,,,,,,,,,,,,,,,,,,,,,,,,,,,,,,,,,,,,,,,,,,,,,,,,,,,,,,,,,,,,,,,,,,,,,,,,,,,,,,,,,,,,,,,,,,,,,,,,,,,,,,,,,,,,,,,,,,,,,,,,,,,
,,65bbd33f8f716cd35c027c25,2024-02-21_21h28.01.237,kallum_motion_pilot,2023.2.2,MacIntel,56.49717514,65bbd33f8f716cd35c027c25,65d6bb0e977760de756971f7,65d6bf2efb200c80632a4d85,0.0398,0.0398,1,6,168,56,1,onetwo,,,,,,,,,,,,,,,,,,,,,,,,,,,,,,,,,,,,,,,,,,,,,,,,,,,,,,,,,,,,,,,,,,,,,,,,,,,,,,,,,,,,,,,,,,,,,,,,,,,,,,,,,,,,,,,,,,,,,,,,,,,,,,,,,,,,,,,,,
,,65bbd33f8f716cd35c027c25,2024-02-21_21h28.01.237,kallum_motion_pilot,2023.2.2,MacIntel,56.49717514,65bbd33f8f716cd35c027c25,65d6bb0e977760de756971f7,65d6bf2efb200c80632a4d85,0.0398,0.04,1,7,169,29,1,threefour,,,,,,,,,,,,,,,,,,,,,,,,,,,,,,,,,,,,,,,,,,,,,,,,,,,,,,,,,,,,,,,,,,,,,,,,,,,,,,,,,,,,,,,,,,,,,,,,,,,,,,,,,,,,,,,,,,,,,,,,,,,,,,,,,,,,,,,,,
,,65bbd33f8f716cd35c027c25,2024-02-21_21h28.01.237,kallum_motion_pilot,2023.2.2,MacIntel,56.49717514,65bbd33f8f716cd35c027c25,65d6bb0e977760de756971f7,65d6bf2efb200c80632a4d85,0.04,0.04,1,8,170,31,1,fourthree,,,,,,,,,,,,,,,,,,,,,,,,,,,,,,,,,,,,,,,,,,,,,,,,,,,,,,,,,,,,,,,,,,,,,,,,,,,,,,,,,,,,,,,,,,,,,,,,,,,,,,,,,,,,,,,,,,,,,,,,,,,,,,,,,,,,,,,,,
,,65bbd33f8f716cd35c027c25,2024-02-21_21h28.01.237,kallum_motion_pilot,2023.2.2,MacIntel,56.49717514,65bbd33f8f716cd35c027c25,65d6bb0e977760de756971f7,65d6bf2efb200c80632a4d85,0.0401,0.0401,1,9,171,110,1,eightsix,,,,,,,,,,,,,,,,,,,,,,,,,,,,,,,,,,,,,,,,,,,,,,,,,,,,,,,,,,,,,,,,,,,,,,,,,,,,,,,,,,,,,,,,,,,,,,,,,,,,,,,,,,,,,,,,,,,,,,,,,,,,,,,,,,,,,,,,,
,,65bbd33f8f716cd35c027c25,2024-02-21_21h28.01.237,kallum_motion_pilot,2023.2.2,MacIntel,56.49717514,65bbd33f8f716cd35c027c25,65d6bb0e977760de756971f7,65d6bf2efb200c80632a4d85,0.0402,0.0402,1,10,172,142,1,eightsix,,,,,,,,,,,,,,,,,,,,,,,,,,,,,,,,,,,,,,,,,,,,,,,,,,,,,,,,,,,,,,,,,,,,,,,,,,,,,,,,,,,,,,,,,,,,,,,,,,,,,,,,,,,,,,,,,,,,,,,,,,,,,,,,,,,,,,,,,
,,65bbd33f8f716cd35c027c25,2024-02-21_21h28.01.237,kallum_motion_pilot,2023.2.2,MacIntel,56.49717514,65bbd33f8f716cd35c027c25,65d6bb0e977760de756971f7,65d6bf2efb200c80632a4d85,0.0404,0.0404,1,11,173,157,1,seveneight,,,,,,,,,,,,,,,,,,,,,,,,,,,,,,,,,,,,,,,,,,,,,,,,,,,,,,,,,,,,,,,,,,,,,,,,,,,,,,,,,,,,,,,,,,,,,,,,,,,,,,,,,,,,,,,,,,,,,,,,,,,,,,,,,,,,,,,,,
,,65bbd33f8f716cd35c027c25,2024-02-21_21h28.01.237,kallum_motion_pilot,2023.2.2,MacIntel,56.49717514,65bbd33f8f716cd35c027c25,65d6bb0e977760de756971f7,65d6bf2efb200c80632a4d85,0.0404,0.0404,1,12,174,42,1,twoone,,,,,,,,,,,,,,,,,,,,,,,,,,,,,,,,,,,,,,,,,,,,,,,,,,,,,,,,,,,,,,,,,,,,,,,,,,,,,,,,,,,,,,,,,,,,,,,,,,,,,,,,,,,,,,,,,,,,,,,,,,,,,,,,,,,,,,,,,
,,65bbd33f8f716cd35c027c25,2024-02-21_21h28.01.237,kallum_motion_pilot,2023.2.2,MacIntel,56.49717514,65bbd33f8f716cd35c027c25,65d6bb0e977760de756971f7,65d6bf2efb200c80632a4d85,0.0404,0.0405,1,13,175,152,1,fivesix,,,,,,,,,,,,,,,,,,,,,,,,,,,,,,,,,,,,,,,,,,,,,,,,,,,,,,,,,,,,,,,,,,,,,,,,,,,,,,,,,,,,,,,,,,,,,,,,,,,,,,,,,,,,,,,,,,,,,,,,,,,,,,,,,,,,,,,,,
,,65bbd33f8f716cd35c027c25,2024-02-21_21h28.01.237,kallum_motion_pilot,2023.2.2,MacIntel,56.49717514,65bbd33f8f716cd35c027c25,65d6bb0e977760de756971f7,65d6bf2efb200c80632a4d85,0.0405,0.0406,1,14,176,150,1,eightsix,,,,,,,,,,,,,,,,,,,,,,,,,,,,,,,,,,,,,,,,,,,,,,,,,,,,,,,,,,,,,,,,,,,,,,,,,,,,,,,,,,,,,,,,,,,,,,,,,,,,,,,,,,,,,,,,,,,,,,,,,,,,,,,,,,,,,,,,,
,,65bbd33f8f716cd35c027c25,2024-02-21_21h28.01.237,kallum_motion_pilot,2023.2.2,MacIntel,56.49717514,65bbd33f8f716cd35c027c25,65d6bb0e977760de756971f7,65d6bf2efb200c80632a4d85,0.0406,0.0406,1,15,177,148,1,sevenfive,,,,,,,,,,,,,,,,,,,,,,,,,,,,,,,,,,,,,,,,,,,,,,,,,,,,,,,,,,,,,,,,,,,,,,,,,,,,,,,,,,,,,,,,,,,,,,,,,,,,,,,,,,,,,,,,,,,,,,,,,,,,,,,,,,,,,,,,,
,,65bbd33f8f716cd35c027c25,2024-02-21_21h28.01.237,kallum_motion_pilot,2023.2.2,MacIntel,56.49717514,65bbd33f8f716cd35c027c25,65d6bb0e977760de756971f7,65d6bf2efb200c80632a4d85,0.0407,0.0407,1,16,178,3,1,twofour,,,,,,,,,,,,,,,,,,,,,,,,,,,,,,,,,,,,,,,,,,,,,,,,,,,,,,,,,,,,,,,,,,,,,,,,,,,,,,,,,,,,,,,,,,,,,,,,,,,,,,,,,,,,,,,,,,,,,,,,,,,,,,,,,,,,,,,,,
,,65bbd33f8f716cd35c027c25,2024-02-21_21h28.01.237,kallum_motion_pilot,2023.2.2,MacIntel,56.49717514,65bbd33f8f716cd35c027c25,65d6bb0e977760de756971f7,65d6bf2efb200c80632a4d85,0.0408,0.0408,1,17,179,39,1,fourthree,,,,,,,,,,,,,,,,,,,,,,,,,,,,,,,,,,,,,,,,,,,,,,,,,,,,,,,,,,,,,,,,,,,,,,,,,,,,,,,,,,,,,,,,,,,,,,,,,,,,,,,,,,,,,,,,,,,,,,,,,,,,,,,,,,,,,,,,,
,,65bbd33f8f716cd35c027c25,2024-02-21_21h28.01.237,kallum_motion_pilot,2023.2.2,MacIntel,56.49717514,65bbd33f8f716cd35c027c25,65d6bb0e977760de756971f7,65d6bf2efb200c80632a4d85,0.0409,0.041,1,18,180,62,1,fourtwo,,,,,,,,,,,,,,,,,,,,,,,,,,,,,,,,,,,,,,,,,,,,,,,,,,,,,,,,,,,,,,,,,,,,,,,,,,,,,,,,,,,,,,,,,,,,,,,,,,,,,,,,,,,,,,,,,,,,,,,,,,,,,,,,,,,,,,,,,
,,65bbd33f8f716cd35c027c25,2024-02-21_21h28.01.237,kallum_motion_pilot,2023.2.2,MacIntel,56.49717514,65bbd33f8f716cd35c027c25,65d6bb0e977760de756971f7,65d6bf2efb200c80632a4d85,0.0411,0.0411,1,19,181,34,1,twoone,,,,,,,,,,,,,,,,,,,,,,,,,,,,,,,,,,,,,,,,,,,,,,,,,,,,,,,,,,,,,,,,,,,,,,,,,,,,,,,,,,,,,,,,,,,,,,,,,,,,,,,,,,,,,,,,,,,,,,,,,,,,,,,,,,,,,,,,,
,,65bbd33f8f716cd35c027c25,2024-02-21_21h28.01.237,kallum_motion_pilot,2023.2.2,MacIntel,56.49717514,65bbd33f8f716cd35c027c25,65d6bb0e977760de756971f7,65d6bf2efb200c80632a4d85,0.0412,0.0412,1,20,182,71,1,fourthree,,,,,,,,,,,,,,,,,,,,,,,,,,,,,,,,,,,,,,,,,,,,,,,,,,,,,,,,,,,,,,,,,,,,,,,,,,,,,,,,,,,,,,,,,,,,,,,,,,,,,,,,,,,,,,,,,,,,,,,,,,,,,,,,,,,,,,,,,
,,65bbd33f8f716cd35c027c25,2024-02-21_21h28.01.237,kallum_motion_pilot,2023.2.2,MacIntel,56.49717514,65bbd33f8f716cd35c027c25,65d6bb0e977760de756971f7,65d6bf2efb200c80632a4d85,0.0414,0.0414,1,21,183,94,1,eightsix,,,,,,,,,,,,,,,,,,,,,,,,,,,,,,,,,,,,,,,,,,,,,,,,,,,,,,,,,,,,,,,,,,,,,,,,,,,,,,,,,,,,,,,,,,,,,,,,,,,,,,,,,,,,,,,,,,,,,,,,,,,,,,,,,,,,,,,,,
,,65bbd33f8f716cd35c027c25,2024-02-21_21h28.01.237,kallum_motion_pilot,2023.2.2,MacIntel,56.49717514,65bbd33f8f716cd35c027c25,65d6bb0e977760de756971f7,65d6bf2efb200c80632a4d85,0.0414,0.0416,1,22,184,105,1,fiveseven,,,,,,,,,,,,,,,,,,,,,,,,,,,,,,,,,,,,,,,,,,,,,,,,,,,,,,,,,,,,,,,,,,,,,,,,,,,,,,,,,,,,,,,,,,,,,,,,,,,,,,,,,,,,,,,,,,,,,,,,,,,,,,,,,,,,,,,,,
,,65bbd33f8f716cd35c027c25,2024-02-21_21h28.01.237,kallum_motion_pilot,2023.2.2,MacIntel,56.49717514,65bbd33f8f716cd35c027c25,65d6bb0e977760de756971f7,65d6bf2efb200c80632a4d85,0.0418,0.0418,1,23,185,160,1,fivesix,,,,,,,,,,,,,,,,,,,,,,,,,,,,,,,,,,,,,,,,,,,,,,,,,,,,,,,,,,,,,,,,,,,,,,,,,,,,,,,,,,,,,,,,,,,,,,,,,,,,,,,,,,,,,,,,,,,,,,,,,,,,,,,,,,,,,,,,,
,,65bbd33f8f716cd35c027c25,2024-02-21_21h28.01.237,kallum_motion_pilot,2023.2.2,MacIntel,56.49717514,65bbd33f8f716cd35c027c25,65d6bb0e977760de756971f7,65d6bf2efb200c80632a4d85,0.0419,0.042,1,24,186,115,1,sixeight,,,,,,,,,,,,,,,,,,,,,,,,,,,,,,,,,,,,,,,,,,,,,,,,,,,,,,,,,,,,,,,,,,,,,,,,,,,,,,,,,,,,,,,,,,,,,,,,,,,,,,,,,,,,,,,,,,,,,,,,,,,,,,,,,,,,,,,,,
,,65bbd33f8f716cd35c027c25,2024-02-21_21h28.01.237,kallum_motion_pilot,2023.2.2,MacIntel,56.49717514,65bbd33f8f716cd35c027c25,65d6bb0e977760de756971f7,65d6bf2efb200c80632a4d85,0.042,0.042,1,25,187,85,1,seveneight,,,,,,,,,,,,,,,,,,,,,,,,,,,,,,,,,,,,,,,,,,,,,,,,,,,,,,,,,,,,,,,,,,,,,,,,,,,,,,,,,,,,,,,,,,,,,,,,,,,,,,,,,,,,,,,,,,,,,,,,,,,,,,,,,,,,,,,,,
,,65bbd33f8f716cd35c027c25,2024-02-21_21h28.01.237,kallum_motion_pilot,2023.2.2,MacIntel,56.49717514,65bbd33f8f716cd35c027c25,65d6bb0e977760de756971f7,65d6bf2efb200c80632a4d85,0.0422,0.0422,1,26,188,125,1,seveneight,,,,,,,,,,,,,,,,,,,,,,,,,,,,,,,,,,,,,,,,,,,,,,,,,,,,,,,,,,,,,,,,,,,,,,,,,,,,,,,,,,,,,,,,,,,,,,,,,,,,,,,,,,,,,,,,,,,,,,,,,,,,,,,,,,,,,,,,,
,,65bbd33f8f716cd35c027c25,2024-02-21_21h28.01.237,kallum_motion_pilot,2023.2.2,MacIntel,56.49717514,65bbd33f8f716cd35c027c25,65d6bb0e977760de756971f7,65d6bf2efb200c80632a4d85,0.0422,0.0423,1,27,189,67,1,twofour,,,,,,,,,,,,,,,,,,,,,,,,,,,,,,,,,,,,,,,,,,,,,,,,,,,,,,,,,,,,,,,,,,,,,,,,,,,,,,,,,,,,,,,,,,,,,,,,,,,,,,,,,,,,,,,,,,,,,,,,,,,,,,,,,,,,,,,,,
,,65bbd33f8f716cd35c027c25,2024-02-21_21h28.01.237,kallum_motion_pilot,2023.2.2,MacIntel,56.49717514,65bbd33f8f716cd35c027c25,65d6bb0e977760de756971f7,65d6bf2efb200c80632a4d85,0.0424,0.0424,1,28,190,154,1,sixfive,,,,,,,,,,,,,,,,,,,,,,,,,,,,,,,,,,,,,,,,,,,,,,,,,,,,,,,,,,,,,,,,,,,,,,,,,,,,,,,,,,,,,,,,,,,,,,,,,,,,,,,,,,,,,,,,,,,,,,,,,,,,,,,,,,,,,,,,,
,,65bbd33f8f716cd35c027c25,2024-02-21_21h28.01.237,kallum_motion_pilot,2023.2.2,MacIntel,56.49717514,65bbd33f8f716cd35c027c25,65d6bb0e977760de756971f7,65d6bf2efb200c80632a4d85,0.0424,0.0425,1,29,191,57,1,onethree,,,,,,,,,,,,,,,,,,,,,,,,,,,,,,,,,,,,,,,,,,,,,,,,,,,,,,,,,,,,,,,,,,,,,,,,,,,,,,,,,,,,,,,,,,,,,,,,,,,,,,,,,,,,,,,,,,,,,,,,,,,,,,,,,,,,,,,,,
,,65bbd33f8f716cd35c027c25,2024-02-21_21h28.01.237,kallum_motion_pilot,2023.2.2,MacIntel,56.49717514,65bbd33f8f716cd35c027c25,65d6bb0e977760de756971f7,65d6bf2efb200c80632a4d85,0.0425,0.0426,1,30,192,126,1,eightsix,,,,,,,,,,,,,,,,,,,,,,,,,,,,,,,,,,,,,,,,,,,,,,,,,,,,,,,,,,,,,,,,,,,,,,,,,,,,,,,,,,,,,,,,,,,,,,,,,,,,,,,,,,,,,,,,,,,,,,,,,,,,,,,,,,,,,,,,,
,,65bbd33f8f716cd35c027c25,2024-02-21_21h28.01.237,kallum_motion_pilot,2023.2.2,MacIntel,56.49717514,65bbd33f8f716cd35c027c25,65d6bb0e977760de756971f7,65d6bf2efb200c80632a4d85,0.0427,0.0427,1,31,193,87,1,eightseven,,,,,,,,,,,,,,,,,,,,,,,,,,,,,,,,,,,,,,,,,,,,,,,,,,,,,,,,,,,,,,,,,,,,,,,,,,,,,,,,,,,,,,,,,,,,,,,,,,,,,,,,,,,,,,,,,,,,,,,,,,,,,,,,,,,,,,,,,
,,65bbd33f8f716cd35c027c25,2024-02-21_21h28.01.237,kallum_motion_pilot,2023.2.2,MacIntel,56.49717514,65bbd33f8f716cd35c027c25,65d6bb0e977760de756971f7,65d6bf2efb200c80632a4d85,0.0428,0.0428,1,32,194,149,1,seveneight,,,,,,,,,,,,,,,,,,,,,,,,,,,,,,,,,,,,,,,,,,,,,,,,,,,,,,,,,,,,,,,,,,,,,,,,,,,,,,,,,,,,,,,,,,,,,,,,,,,,,,,,,,,,,,,,,,,,,,,,,,,,,,,,,,,,,,,,,
,,65bbd33f8f716cd35c027c25,2024-02-21_21h28.01.237,kallum_motion_pilot,2023.2.2,MacIntel,56.49717514,65bbd33f8f716cd35c027c25,65d6bb0e977760de756971f7,65d6bf2efb200c80632a4d85,0.0429,0.0429,1,33,195,128,1,fivesix,,,,,,,,,,,,,,,,,,,,,,,,,,,,,,,,,,,,,,,,,,,,,,,,,,,,,,,,,,,,,,,,,,,,,,,,,,,,,,,,,,,,,,,,,,,,,,,,,,,,,,,,,,,,,,,,,,,,,,,,,,,,,,,,,,,,,,,,,
,,65bbd33f8f716cd35c027c25,2024-02-21_21h28.01.237,kallum_motion_pilot,2023.2.2,MacIntel,56.49717514,65bbd33f8f716cd35c027c25,65d6bb0e977760de756971f7,65d6bf2efb200c80632a4d85,0.0429,0.043,1,34,196,38,1,fourtwo,,,,,,,,,,,,,,,,,,,,,,,,,,,,,,,,,,,,,,,,,,,,,,,,,,,,,,,,,,,,,,,,,,,,,,,,,,,,,,,,,,,,,,,,,,,,,,,,,,,,,,,,,,,,,,,,,,,,,,,,,,,,,,,,,,,,,,,,,
,,65bbd33f8f716cd35c027c25,2024-02-21_21h28.01.237,kallum_motion_pilot,2023.2.2,MacIntel,56.49717514,65bbd33f8f716cd35c027c25,65d6bb0e977760de756971f7,65d6bf2efb200c80632a4d85,0.0431,0.0432,1,35,197,15,1,fourthree,,,,,,,,,,,,,,,,,,,,,,,,,,,,,,,,,,,,,,,,,,,,,,,,,,,,,,,,,,,,,,,,,,,,,,,,,,,,,,,,,,,,,,,,,,,,,,,,,,,,,,,,,,,,,,,,,,,,,,,,,,,,,,,,,,,,,,,,,
,,65bbd33f8f716cd35c027c25,2024-02-21_21h28.01.237,kallum_motion_pilot,2023.2.2,MacIntel,56.49717514,65bbd33f8f716cd35c027c25,65d6bb0e977760de756971f7,65d6bf2efb200c80632a4d85,0.0432,0.0433,1,36,198,88,1,fivesix,,,,,,,,,,,,,,,,,,,,,,,,,,,,,,,,,,,,,,,,,,,,,,,,,,,,,,,,,,,,,,,,,,,,,,,,,,,,,,,,,,,,,,,,,,,,,,,,,,,,,,,,,,,,,,,,,,,,,,,,,,,,,,,,,,,,,,,,,
,,65bbd33f8f716cd35c027c25,2024-02-21_21h28.01.237,kallum_motion_pilot,2023.2.2,MacIntel,56.49717514,65bbd33f8f716cd35c027c25,65d6bb0e977760de756971f7,65d6bf2efb200c80632a4d85,0.0434,0.0434,1,37,199,18,1,twoone,,,,,,,,,,,,,,,,,,,,,,,,,,,,,,,,,,,,,,,,,,,,,,,,,,,,,,,,,,,,,,,,,,,,,,,,,,,,,,,,,,,,,,,,,,,,,,,,,,,,,,,,,,,,,,,,,,,,,,,,,,,,,,,,,,,,,,,,,
,,65bbd33f8f716cd35c027c25,2024-02-21_21h28.01.237,kallum_motion_pilot,2023.2.2,MacIntel,56.49717514,65bbd33f8f716cd35c027c25,65d6bb0e977760de756971f7,65d6bf2efb200c80632a4d85,0.0434,0.0434,1,38,200,14,1,fourtwo,,,,,,,,,,,,,,,,,,,,,,,,,,,,,,,,,,,,,,,,,,,,,,,,,,,,,,,,,,,,,,,,,,,,,,,,,,,,,,,,,,,,,,,,,,,,,,,,,,,,,,,,,,,,,,,,,,,,,,,,,,,,,,,,,,,,,,,,,
,,65bbd33f8f716cd35c027c25,2024-02-21_21h28.01.237,kallum_motion_pilot,2023.2.2,MacIntel,56.49717514,65bbd33f8f716cd35c027c25,65d6bb0e977760de756971f7,65d6bf2efb200c80632a4d85,0.0435,0.0435,1,39,201,64,1,onetwo,,,,,,,,,,,,,,,,,,,,,,,,,,,,,,,,,,,,,,,,,,,,,,,,,,,,,,,,,,,,,,,,,,,,,,,,,,,,,,,,,,,,,,,,,,,,,,,,,,,,,,,,,,,,,,,,,,,,,,,,,,,,,,,,,,,,,,,,,
,,65bbd33f8f716cd35c027c25,2024-02-21_21h28.01.237,kallum_motion_pilot,2023.2.2,MacIntel,56.49717514,65bbd33f8f716cd35c027c25,65d6bb0e977760de756971f7,65d6bf2efb200c80632a4d85,0.0436,0.0436,1,40,202,158,1,eightsix,,,,,,,,,,,,,,,,,,,,,,,,,,,,,,,,,,,,,,,,,,,,,,,,,,,,,,,,,,,,,,,,,,,,,,,,,,,,,,,,,,,,,,,,,,,,,,,,,,,,,,,,,,,,,,,,,,,,,,,,,,,,,,,,,,,,,,,,,
,,65bbd33f8f716cd35c027c25,2024-02-21_21h28.01.237,kallum_motion_pilot,2023.2.2,MacIntel,56.49717514,65bbd33f8f716cd35c027c25,65d6bb0e977760de756971f7,65d6bf2efb200c80632a4d85,0.0437,0.0437,1,41,203,98,1,sixfive,,,,,,,,,,,,,,,,,,,,,,,,,,,,,,,,,,,,,,,,,,,,,,,,,,,,,,,,,,,,,,,,,,,,,,,,,,,,,,,,,,,,,,,,,,,,,,,,,,,,,,,,,,,,,,,,,,,,,,,,,,,,,,,,,,,,,,,,,
,,65bbd33f8f716cd35c027c25,2024-02-21_21h28.01.237,kallum_motion_pilot,2023.2.2,MacIntel,56.49717514,65bbd33f8f716cd35c027c25,65d6bb0e977760de756971f7,65d6bf2efb200c80632a4d85,0.0438,0.0438,1,42,204,127,1,eightseven,,,,,,,,,,,,,,,,,,,,,,,,,,,,,,,,,,,,,,,,,,,,,,,,,,,,,,,,,,,,,,,,,,,,,,,,,,,,,,,,,,,,,,,,,,,,,,,,,,,,,,,,,,,,,,,,,,,,,,,,,,,,,,,,,,,,,,,,,
,,65bbd33f8f716cd35c027c25,2024-02-21_21h28.01.237,kallum_motion_pilot,2023.2.2,MacIntel,56.49717514,65bbd33f8f716cd35c027c25,65d6bb0e977760de756971f7,65d6bf2efb200c80632a4d85,0.0439,0.0439,1,43,205,132,1,sevenfive,,,,,,,,,,,,,,,,,,,,,,,,,,,,,,,,,,,,,,,,,,,,,,,,,,,,,,,,,,,,,,,,,,,,,,,,,,,,,,,,,,,,,,,,,,,,,,,,,,,,,,,,,,,,,,,,,,,,,,,,,,,,,,,,,,,,,,,,,
,,65bbd33f8f716cd35c027c25,2024-02-21_21h28.01.237,kallum_motion_pilot,2023.2.2,MacIntel,56.49717514,65bbd33f8f716cd35c027c25,65d6bb0e977760de756971f7,65d6bf2efb200c80632a4d85,0.0439,0.0441,1,44,206,35,1,twofour,,,,,,,,,,,,,,,,,,,,,,,,,,,,,,,,,,,,,,,,,,,,,,,,,,,,,,,,,,,,,,,,,,,,,,,,,,,,,,,,,,,,,,,,,,,,,,,,,,,,,,,,,,,,,,,,,,,,,,,,,,,,,,,,,,,,,,,,,
,,65bbd33f8f716cd35c027c25,2024-02-21_21h28.01.237,kallum_motion_pilot,2023.2.2,MacIntel,56.49717514,65bbd33f8f716cd35c027c25,65d6bb0e977760de756971f7,65d6bf2efb200c80632a4d85,0.0441,0.0441,1,45,207,32,1,onetwo,,,,,,,,,,,,,,,,,,,,,,,,,,,,,,,,,,,,,,,,,,,,,,,,,,,,,,,,,,,,,,,,,,,,,,,,,,,,,,,,,,,,,,,,,,,,,,,,,,,,,,,,,,,,,,,,,,,,,,,,,,,,,,,,,,,,,,,,,
,,65bbd33f8f716cd35c027c25,2024-02-21_21h28.01.237,kallum_motion_pilot,2023.2.2,MacIntel,56.49717514,65bbd33f8f716cd35c027c25,65d6bb0e977760de756971f7,65d6bf2efb200c80632a4d85,0.0442,0.0443,1,46,208,4,1,threeone,,,,,,,,,,,,,,,,,,,,,,,,,,,,,,,,,,,,,,,,,,,,,,,,,,,,,,,,,,,,,,,,,,,,,,,,,,,,,,,,,,,,,,,,,,,,,,,,,,,,,,,,,,,,,,,,,,,,,,,,,,,,,,,,,,,,,,,,,
,,65bbd33f8f716cd35c027c25,2024-02-21_21h28.01.237,kallum_motion_pilot,2023.2.2,MacIntel,56.49717514,65bbd33f8f716cd35c027c25,65d6bb0e977760de756971f7,65d6bf2efb200c80632a4d85,0.0443,0.0443,1,47,209,54,1,fourtwo,,,,,,,,,,,,,,,,,,,,,,,,,,,,,,,,,,,,,,,,,,,,,,,,,,,,,,,,,,,,,,,,,,,,,,,,,,,,,,,,,,,,,,,,,,,,,,,,,,,,,,,,,,,,,,,,,,,,,,,,,,,,,,,,,,,,,,,,,
,,65bbd33f8f716cd35c027c25,2024-02-21_21h28.01.237,kallum_motion_pilot,2023.2.2,MacIntel,56.49717514,65bbd33f8f716cd35c027c25,65d6bb0e977760de756971f7,65d6bf2efb200c80632a4d85,0.0443,0.0444,1,48,210,106,1,sixfive,,,,,,,,,,,,,,,,,,,,,,,,,,,,,,,,,,,,,,,,,,,,,,,,,,,,,,,,,,,,,,,,,,,,,,,,,,,,,,,,,,,,,,,,,,,,,,,,,,,,,,,,,,,,,,,,,,,,,,,,,,,,,,,,,,,,,,,,,
,,65bbd33f8f716cd35c027c25,2024-02-21_21h28.01.237,kallum_motion_pilot,2023.2.2,MacIntel,56.49717514,65bbd33f8f716cd35c027c25,65d6bb0e977760de756971f7,65d6bf2efb200c80632a4d85,0.0444,0.0444,1,49,211,5,1,threefour,,,,,,,,,,,,,,,,,,,,,,,,,,,,,,,,,,,,,,,,,,,,,,,,,,,,,,,,,,,,,,,,,,,,,,,,,,,,,,,,,,,,,,,,,,,,,,,,,,,,,,,,,,,,,,,,,,,,,,,,,,,,,,,,,,,,,,,,,
,,65bbd33f8f716cd35c027c25,2024-02-21_21h28.01.237,kallum_motion_pilot,2023.2.2,MacIntel,56.49717514,65bbd33f8f716cd35c027c25,65d6bb0e977760de756971f7,65d6bf2efb200c80632a4d85,0.0445,0.0445,1,50,212,1,1,onethree,,,,,,,,,,,,,,,,,,,,,,,,,,,,,,,,,,,,,,,,,,,,,,,,,,,,,,,,,,,,,,,,,,,,,,,,,,,,,,,,,,,,,,,,,,,,,,,,,,,,,,,,,,,,,,,,,,,,,,,,,,,,,,,,,,,,,,,,,
,,65bbd33f8f716cd35c027c25,2024-02-21_21h28.01.237,kallum_motion_pilot,2023.2.2,MacIntel,56.49717514,65bbd33f8f716cd35c027c25,65d6bb0e977760de756971f7,65d6bf2efb200c80632a4d85,0.0446,0.0447,1,51,213,65,1,onethree,,,,,,,,,,,,,,,,,,,,,,,,,,,,,,,,,,,,,,,,,,,,,,,,,,,,,,,,,,,,,,,,,,,,,,,,,,,,,,,,,,,,,,,,,,,,,,,,,,,,,,,,,,,,,,,,,,,,,,,,,,,,,,,,,,,,,,,,,
,,65bbd33f8f716cd35c027c25,2024-02-21_21h28.01.237,kallum_motion_pilot,2023.2.2,MacIntel,56.49717514,65bbd33f8f716cd35c027c25,65d6bb0e977760de756971f7,65d6bf2efb200c80632a4d85,0.0447,0.0447,1,52,214,146,1,sixfive,,,,,,,,,,,,,,,,,,,,,,,,,,,,,,,,,,,,,,,,,,,,,,,,,,,,,,,,,,,,,,,,,,,,,,,,,,,,,,,,,,,,,,,,,,,,,,,,,,,,,,,,,,,,,,,,,,,,,,,,,,,,,,,,,,,,,,,,,
,,65bbd33f8f716cd35c027c25,2024-02-21_21h28.01.237,kallum_motion_pilot,2023.2.2,MacIntel,56.49717514,65bbd33f8f716cd35c027c25,65d6bb0e977760de756971f7,65d6bf2efb200c80632a4d85,0.0448,0.0449,1,53,215,93,1,seveneight,,,,,,,,,,,,,,,,,,,,,,,,,,,,,,,,,,,,,,,,,,,,,,,,,,,,,,,,,,,,,,,,,,,,,,,,,,,,,,,,,,,,,,,,,,,,,,,,,,,,,,,,,,,,,,,,,,,,,,,,,,,,,,,,,,,,,,,,,
,,65bbd33f8f716cd35c027c25,2024-02-21_21h28.01.237,kallum_motion_pilot,2023.2.2,MacIntel,56.49717514,65bbd33f8f716cd35c027c25,65d6bb0e977760de756971f7,65d6bf2efb200c80632a4d85,0.0449,0.0449,1,54,216,155,1,sixeight,,,,,,,,,,,,,,,,,,,,,,,,,,,,,,,,,,,,,,,,,,,,,,,,,,,,,,,,,,,,,,,,,,,,,,,,,,,,,,,,,,,,,,,,,,,,,,,,,,,,,,,,,,,,,,,,,,,,,,,,,,,,,,,,,,,,,,,,,
,,65bbd33f8f716cd35c027c25,2024-02-21_21h28.01.237,kallum_motion_pilot,2023.2.2,MacIntel,56.49717514,65bbd33f8f716cd35c027c25,65d6bb0e977760de756971f7,65d6bf2efb200c80632a4d85,0.045,0.045,1,55,217,123,1,sixeight,,,,,,,,,,,,,,,,,,,,,,,,,,,,,,,,,,,,,,,,,,,,,,,,,,,,,,,,,,,,,,,,,,,,,,,,,,,,,,,,,,,,,,,,,,,,,,,,,,,,,,,,,,,,,,,,,,,,,,,,,,,,,,,,,,,,,,,,,
,,65bbd33f8f716cd35c027c25,2024-02-21_21h28.01.237,kallum_motion_pilot,2023.2.2,MacIntel,56.49717514,65bbd33f8f716cd35c027c25,65d6bb0e977760de756971f7,65d6bf2efb200c80632a4d85,0.045,0.045,1,56,218,61,1,threefour,,,,,,,,,,,,,,,,,,,,,,,,,,,,,,,,,,,,,,,,,,,,,,,,,,,,,,,,,,,,,,,,,,,,,,,,,,,,,,,,,,,,,,,,,,,,,,,,,,,,,,,,,,,,,,,,,,,,,,,,,,,,,,,,,,,,,,,,,
,,65bbd33f8f716cd35c027c25,2024-02-21_21h28.01.237,kallum_motion_pilot,2023.2.2,MacIntel,56.49717514,65bbd33f8f716cd35c027c25,65d6bb0e977760de756971f7,65d6bf2efb200c80632a4d85,0.0451,0.0452,1,57,219,30,1,fourtwo,,,,,,,,,,,,,,,,,,,,,,,,,,,,,,,,,,,,,,,,,,,,,,,,,,,,,,,,,,,,,,,,,,,,,,,,,,,,,,,,,,,,,,,,,,,,,,,,,,,,,,,,,,,,,,,,,,,,,,,,,,,,,,,,,,,,,,,,,
,,65bbd33f8f716cd35c027c25,2024-02-21_21h28.01.237,kallum_motion_pilot,2023.2.2,MacIntel,56.49717514,65bbd33f8f716cd35c027c25,65d6bb0e977760de756971f7,65d6bf2efb200c80632a4d85,0.0452,0.0453,1,58,220,143,1,eightseven,,,,,,,,,,,,,,,,,,,,,,,,,,,,,,,,,,,,,,,,,,,,,,,,,,,,,,,,,,,,,,,,,,,,,,,,,,,,,,,,,,,,,,,,,,,,,,,,,,,,,,,,,,,,,,,,,,,,,,,,,,,,,,,,,,,,,,,,,
,,65bbd33f8f716cd35c027c25,2024-02-21_21h28.01.237,kallum_motion_pilot,2023.2.2,MacIntel,56.49717514,65bbd33f8f716cd35c027c25,65d6bb0e977760de756971f7,65d6bf2efb200c80632a4d85,0.0453,0.0453,1,59,221,73,1,onethree,,,,,,,,,,,,,,,,,,,,,,,,,,,,,,,,,,,,,,,,,,,,,,,,,,,,,,,,,,,,,,,,,,,,,,,,,,,,,,,,,,,,,,,,,,,,,,,,,,,,,,,,,,,,,,,,,,,,,,,,,,,,,,,,,,,,,,,,,
,,65bbd33f8f716cd35c027c25,2024-02-21_21h28.01.237,kallum_motion_pilot,2023.2.2,MacIntel,56.49717514,65bbd33f8f716cd35c027c25,65d6bb0e977760de756971f7,65d6bf2efb200c80632a4d85,0.0453,0.0454,1,60,222,96,1,fivesix,,,,,,,,,,,,,,,,,,,,,,,,,,,,,,,,,,,,,,,,,,,,,,,,,,,,,,,,,,,,,,,,,,,,,,,,,,,,,,,,,,,,,,,,,,,,,,,,,,,,,,,,,,,,,,,,,,,,,,,,,,,,,,,,,,,,,,,,,
,,65bbd33f8f716cd35c027c25,2024-02-21_21h28.01.237,kallum_motion_pilot,2023.2.2,MacIntel,56.49717514,65bbd33f8f716cd35c027c25,65d6bb0e977760de756971f7,65d6bf2efb200c80632a4d85,0.0455,0.0455,1,61,223,124,1,sevenfive,,,,,,,,,,,,,,,,,,,,,,,,,,,,,,,,,,,,,,,,,,,,,,,,,,,,,,,,,,,,,,,,,,,,,,,,,,,,,,,,,,,,,,,,,,,,,,,,,,,,,,,,,,,,,,,,,,,,,,,,,,,,,,,,,,,,,,,,,
,,65bbd33f8f716cd35c027c25,2024-02-21_21h28.01.237,kallum_motion_pilot,2023.2.2,MacIntel,56.49717514,65bbd33f8f716cd35c027c25,65d6bb0e977760de756971f7,65d6bf2efb200c80632a4d85,0.0455,0.0456,1,62,224,145,1,fiveseven,,,,,,,,,,,,,,,,,,,,,,,,,,,,,,,,,,,,,,,,,,,,,,,,,,,,,,,,,,,,,,,,,,,,,,,,,,,,,,,,,,,,,,,,,,,,,,,,,,,,,,,,,,,,,,,,,,,,,,,,,,,,,,,,,,,,,,,,,
,,65bbd33f8f716cd35c027c25,2024-02-21_21h28.01.237,kallum_motion_pilot,2023.2.2,MacIntel,56.49717514,65bbd33f8f716cd35c027c25,65d6bb0e977760de756971f7,65d6bf2efb200c80632a4d85,0.0456,0.0457,1,63,225,68,1,threeone,,,,,,,,,,,,,,,,,,,,,,,,,,,,,,,,,,,,,,,,,,,,,,,,,,,,,,,,,,,,,,,,,,,,,,,,,,,,,,,,,,,,,,,,,,,,,,,,,,,,,,,,,,,,,,,,,,,,,,,,,,,,,,,,,,,,,,,,,
,,65bbd33f8f716cd35c027c25,2024-02-21_21h28.01.237,kallum_motion_pilot,2023.2.2,MacIntel,56.49717514,65bbd33f8f716cd35c027c25,65d6bb0e977760de756971f7,65d6bf2efb200c80632a4d85,0.0457,0.0457,1,64,226,33,1,onethree,,,,,,,,,,,,,,,,,,,,,,,,,,,,,,,,,,,,,,,,,,,,,,,,,,,,,,,,,,,,,,,,,,,,,,,,,,,,,,,,,,,,,,,,,,,,,,,,,,,,,,,,,,,,,,,,,,,,,,,,,,,,,,,,,,,,,,,,,
,,65bbd33f8f716cd35c027c25,2024-02-21_21h28.01.237,kallum_motion_pilot,2023.2.2,MacIntel,56.49717514,65bbd33f8f716cd35c027c25,65d6bb0e977760de756971f7,65d6bf2efb200c80632a4d85,0.0458,0.0458,1,65,227,131,1,sixeight,,,,,,,,,,,,,,,,,,,,,,,,,,,,,,,,,,,,,,,,,,,,,,,,,,,,,,,,,,,,,,,,,,,,,,,,,,,,,,,,,,,,,,,,,,,,,,,,,,,,,,,,,,,,,,,,,,,,,,,,,,,,,,,,,,,,,,,,,
,,65bbd33f8f716cd35c027c25,2024-02-21_21h28.01.237,kallum_motion_pilot,2023.2.2,MacIntel,56.49717514,65bbd33f8f716cd35c027c25,65d6bb0e977760de756971f7,65d6bf2efb200c80632a4d85,0.0459,0.046,1,66,228,55,1,fourthree,,,,,,,,,,,,,,,,,,,,,,,,,,,,,,,,,,,,,,,,,,,,,,,,,,,,,,,,,,,,,,,,,,,,,,,,,,,,,,,,,,,,,,,,,,,,,,,,,,,,,,,,,,,,,,,,,,,,,,,,,,,,,,,,,,,,,,,,,
,,65bbd33f8f716cd35c027c25,2024-02-21_21h28.01.237,kallum_motion_pilot,2023.2.2,MacIntel,56.49717514,65bbd33f8f716cd35c027c25,65d6bb0e977760de756971f7,65d6bf2efb200c80632a4d85,0.046,0.046,1,67,229,63,1,fourthree,,,,,,,,,,,,,,,,,,,,,,,,,,,,,,,,,,,,,,,,,,,,,,,,,,,,,,,,,,,,,,,,,,,,,,,,,,,,,,,,,,,,,,,,,,,,,,,,,,,,,,,,,,,,,,,,,,,,,,,,,,,,,,,,,,,,,,,,,
,,65bbd33f8f716cd35c027c25,2024-02-21_21h28.01.237,kallum_motion_pilot,2023.2.2,MacIntel,56.49717514,65bbd33f8f716cd35c027c25,65d6bb0e977760de756971f7,65d6bf2efb200c80632a4d85,0.046,0.0462,1,68,230,10,1,twoone,,,,,,,,,,,,,,,,,,,,,,,,,,,,,,,,,,,,,,,,,,,,,,,,,,,,,,,,,,,,,,,,,,,,,,,,,,,,,,,,,,,,,,,,,,,,,,,,,,,,,,,,,,,,,,,,,,,,,,,,,,,,,,,,,,,,,,,,,
,,65bbd33f8f716cd35c027c25,2024-02-21_21h28.01.237,kallum_motion_pilot,2023.2.2,MacIntel,56.49717514,65bbd33f8f716cd35c027c25,65d6bb0e977760de756971f7,65d6bf2efb200c80632a4d85,0.0462,0.0462,1,69,231,107,1,sixeight,,,,,,,,,,,,,,,,,,,,,,,,,,,,,,,,,,,,,,,,,,,,,,,,,,,,,,,,,,,,,,,,,,,,,,,,,,,,,,,,,,,,,,,,,,,,,,,,,,,,,,,,,,,,,,,,,,,,,,,,,,,,,,,,,,,,,,,,,
,,65bbd33f8f716cd35c027c25,2024-02-21_21h28.01.237,kallum_motion_pilot,2023.2.2,MacIntel,56.49717514,65bbd33f8f716cd35c027c25,65d6bb0e977760de756971f7,65d6bf2efb200c80632a4d85,0.0462,0.0463,1,70,232,92,1,sevenfive,,,,,,,,,,,,,,,,,,,,,,,,,,,,,,,,,,,,,,,,,,,,,,,,,,,,,,,,,,,,,,,,,,,,,,,,,,,,,,,,,,,,,,,,,,,,,,,,,,,,,,,,,,,,,,,,,,,,,,,,,,,,,,,,,,,,,,,,,
,,65bbd33f8f716cd35c027c25,2024-02-21_21h28.01.237,kallum_motion_pilot,2023.2.2,MacIntel,56.49717514,65bbd33f8f716cd35c027c25,65d6bb0e977760de756971f7,65d6bf2efb200c80632a4d85,0.0463,0.0463,1,71,233,102,1,eightsix,,,,,,,,,,,,,,,,,,,,,,,,,,,,,,,,,,,,,,,,,,,,,,,,,,,,,,,,,,,,,,,,,,,,,,,,,,,,,,,,,,,,,,,,,,,,,,,,,,,,,,,,,,,,,,,,,,,,,,,,,,,,,,,,,,,,,,,,,
,,65bbd33f8f716cd35c027c25,2024-02-21_21h28.01.237,kallum_motion_pilot,2023.2.2,MacIntel,56.49717514,65bbd33f8f716cd35c027c25,65d6bb0e977760de756971f7,65d6bf2efb200c80632a4d85,0.0465,0.0465,1,72,234,138,1,sixfive,,,,,,,,,,,,,,,,,,,,,,,,,,,,,,,,,,,,,,,,,,,,,,,,,,,,,,,,,,,,,,,,,,,,,,,,,,,,,,,,,,,,,,,,,,,,,,,,,,,,,,,,,,,,,,,,,,,,,,,,,,,,,,,,,,,,,,,,,
,,65bbd33f8f716cd35c027c25,2024-02-21_21h28.01.237,kallum_motion_pilot,2023.2.2,MacIntel,56.49717514,65bbd33f8f716cd35c027c25,65d6bb0e977760de756971f7,65d6bf2efb200c80632a4d85,0.0465,0.0465,1,73,235,25,1,onethree,,,,,,,,,,,,,,,,,,,,,,,,,,,,,,,,,,,,,,,,,,,,,,,,,,,,,,,,,,,,,,,,,,,,,,,,,,,,,,,,,,,,,,,,,,,,,,,,,,,,,,,,,,,,,,,,,,,,,,,,,,,,,,,,,,,,,,,,,
,,65bbd33f8f716cd35c027c25,2024-02-21_21h28.01.237,kallum_motion_pilot,2023.2.2,MacIntel,56.49717514,65bbd33f8f716cd35c027c25,65d6bb0e977760de756971f7,65d6bf2efb200c80632a4d85,0.0466,0.0467,1,74,236,97,1,fiveseven,,,,,,,,,,,,,,,,,,,,,,,,,,,,,,,,,,,,,,,,,,,,,,,,,,,,,,,,,,,,,,,,,,,,,,,,,,,,,,,,,,,,,,,,,,,,,,,,,,,,,,,,,,,,,,,,,,,,,,,,,,,,,,,,,,,,,,,,,
,,65bbd33f8f716cd35c027c25,2024-02-21_21h28.01.237,kallum_motion_pilot,2023.2.2,MacIntel,56.49717514,65bbd33f8f716cd35c027c25,65d6bb0e977760de756971f7,65d6bf2efb200c80632a4d85,0.0467,0.0468,1,75,237,72,1,onetwo,,,,,,,,,,,,,,,,,,,,,,,,,,,,,,,,,,,,,,,,,,,,,,,,,,,,,,,,,,,,,,,,,,,,,,,,,,,,,,,,,,,,,,,,,,,,,,,,,,,,,,,,,,,,,,,,,,,,,,,,,,,,,,,,,,,,,,,,,
,,65bbd33f8f716cd35c027c25,2024-02-21_21h28.01.237,kallum_motion_pilot,2023.2.2,MacIntel,56.49717514,65bbd33f8f716cd35c027c25,65d6bb0e977760de756971f7,65d6bf2efb200c80632a4d85,0.0468,0.0468,1,76,238,8,1,onetwo,,,,,,,,,,,,,,,,,,,,,,,,,,,,,,,,,,,,,,,,,,,,,,,,,,,,,,,,,,,,,,,,,,,,,,,,,,,,,,,,,,,,,,,,,,,,,,,,,,,,,,,,,,,,,,,,,,,,,,,,,,,,,,,,,,,,,,,,,
,,65bbd33f8f716cd35c027c25,2024-02-21_21h28.01.237,kallum_motion_pilot,2023.2.2,MacIntel,56.49717514,65bbd33f8f716cd35c027c25,65d6bb0e977760de756971f7,65d6bf2efb200c80632a4d85,0.0469,0.0469,1,77,239,47,1,fourthree,,,,,,,,,,,,,,,,,,,,,,,,,,,,,,,,,,,,,,,,,,,,,,,,,,,,,,,,,,,,,,,,,,,,,,,,,,,,,,,,,,,,,,,,,,,,,,,,,,,,,,,,,,,,,,,,,,,,,,,,,,,,,,,,,,,,,,,,,
,,65bbd33f8f716cd35c027c25,2024-02-21_21h28.01.237,kallum_motion_pilot,2023.2.2,MacIntel,56.49717514,65bbd33f8f716cd35c027c25,65d6bb0e977760de756971f7,65d6bf2efb200c80632a4d85,0.047,0.047,1,78,240,59,1,twofour,,,,,,,,,,,,,,,,,,,,,,,,,,,,,,,,,,,,,,,,,,,,,,,,,,,,,,,,,,,,,,,,,,,,,,,,,,,,,,,,,,,,,,,,,,,,,,,,,,,,,,,,,,,,,,,,,,,,,,,,,,,,,,,,,,,,,,,,,
,,65bbd33f8f716cd35c027c25,2024-02-21_21h28.01.237,kallum_motion_pilot,2023.2.2,MacIntel,56.49717514,65bbd33f8f716cd35c027c25,65d6bb0e977760de756971f7,65d6bf2efb200c80632a4d85,0.047,0.0471,1,79,241,28,1,threeone,,,,,,,,,,,,,,,,,,,,,,,,,,,,,,,,,,,,,,,,,,,,,,,,,,,,,,,,,,,,,,,,,,,,,,,,,,,,,,,,,,,,,,,,,,,,,,,,,,,,,,,,,,,,,,,,,,,,,,,,,,,,,,,,,,,,,,,,,
,,65bbd33f8f716cd35c027c25,2024-02-21_21h28.01.237,kallum_motion_pilot,2023.2.2,MacIntel,56.49717514,65bbd33f8f716cd35c027c25,65d6bb0e977760de756971f7,65d6bf2efb200c80632a4d85,0.0471,0.0471,1,80,242,69,1,threefour,,,,,,,,,,,,,,,,,,,,,,,,,,,,,,,,,,,,,,,,,,,,,,,,,,,,,,,,,,,,,,,,,,,,,,,,,,,,,,,,,,,,,,,,,,,,,,,,,,,,,,,,,,,,,,,,,,,,,,,,,,,,,,,,,,,,,,,,,
,,65bbd33f8f716cd35c027c25,2024-02-21_21h28.01.237,kallum_motion_pilot,2023.2.2,MacIntel,56.49717514,65bbd33f8f716cd35c027c25,65d6bb0e977760de756971f7,65d6bf2efb200c80632a4d85,0.0472,0.0472,1,81,243,36,1,threeone,,,,,,,,,,,,,,,,,,,,,,,,,,,,,,,,,,,,,,,,,,,,,,,,,,,,,,,,,,,,,,,,,,,,,,,,,,,,,,,,,,,,,,,,,,,,,,,,,,,,,,,,,,,,,,,,,,,,,,,,,,,,,,,,,,,,,,,,,
,,65bbd33f8f716cd35c027c25,2024-02-21_21h28.01.237,kallum_motion_pilot,2023.2.2,MacIntel,56.49717514,65bbd33f8f716cd35c027c25,65d6bb0e977760de756971f7,65d6bf2efb200c80632a4d85,0.0473,0.0474,1,82,244,91,1,sixeight,,,,,,,,,,,,,,,,,,,,,,,,,,,,,,,,,,,,,,,,,,,,,,,,,,,,,,,,,,,,,,,,,,,,,,,,,,,,,,,,,,,,,,,,,,,,,,,,,,,,,,,,,,,,,,,,,,,,,,,,,,,,,,,,,,,,,,,,,
,,65bbd33f8f716cd35c027c25,2024-02-21_21h28.01.237,kallum_motion_pilot,2023.2.2,MacIntel,56.49717514,65bbd33f8f716cd35c027c25,65d6bb0e977760de756971f7,65d6bf2efb200c80632a4d85,0.0474,0.0474,1,83,245,114,1,sixfive,,,,,,,,,,,,,,,,,,,,,,,,,,,,,,,,,,,,,,,,,,,,,,,,,,,,,,,,,,,,,,,,,,,,,,,,,,,,,,,,,,,,,,,,,,,,,,,,,,,,,,,,,,,,,,,,,,,,,,,,,,,,,,,,,,,,,,,,,
,,65bbd33f8f716cd35c027c25,2024-02-21_21h28.01.237,kallum_motion_pilot,2023.2.2,MacIntel,56.49717514,65bbd33f8f716cd35c027c25,65d6bb0e977760de756971f7,65d6bf2efb200c80632a4d85,0.0475,0.0475,1,84,246,122,1,sixfive,,,,,,,,,,,,,,,,,,,,,,,,,,,,,,,,,,,,,,,,,,,,,,,,,,,,,,,,,,,,,,,,,,,,,,,,,,,,,,,,,,,,,,,,,,,,,,,,,,,,,,,,,,,,,,,,,,,,,,,,,,,,,,,,,,,,,,,,,
,,65bbd33f8f716cd35c027c25,2024-02-21_21h28.01.237,kallum_motion_pilot,2023.2.2,MacIntel,56.49717514,65bbd33f8f716cd35c027c25,65d6bb0e977760de756971f7,65d6bf2efb200c80632a4d85,0.0476,0.0476,1,85,247,46,1,fourtwo,,,,,,,,,,,,,,,,,,,,,,,,,,,,,,,,,,,,,,,,,,,,,,,,,,,,,,,,,,,,,,,,,,,,,,,,,,,,,,,,,,,,,,,,,,,,,,,,,,,,,,,,,,,,,,,,,,,,,,,,,,,,,,,,,,,,,,,,,
,,65bbd33f8f716cd35c027c25,2024-02-21_21h28.01.237,kallum_motion_pilot,2023.2.2,MacIntel,56.49717514,65bbd33f8f716cd35c027c25,65d6bb0e977760de756971f7,65d6bf2efb200c80632a4d85,0.0477,0.0477,1,86,248,66,1,twoone,,,,,,,,,,,,,,,,,,,,,,,,,,,,,,,,,,,,,,,,,,,,,,,,,,,,,,,,,,,,,,,,,,,,,,,,,,,,,,,,,,,,,,,,,,,,,,,,,,,,,,,,,,,,,,,,,,,,,,,,,,,,,,,,,,,,,,,,,
,,65bbd33f8f716cd35c027c25,2024-02-21_21h28.01.237,kallum_motion_pilot,2023.2.2,MacIntel,56.49717514,65bbd33f8f716cd35c027c25,65d6bb0e977760de756971f7,65d6bf2efb200c80632a4d85,0.0478,0.048,1,87,249,133,1,seveneight,,,,,,,,,,,,,,,,,,,,,,,,,,,,,,,,,,,,,,,,,,,,,,,,,,,,,,,,,,,,,,,,,,,,,,,,,,,,,,,,,,,,,,,,,,,,,,,,,,,,,,,,,,,,,,,,,,,,,,,,,,,,,,,,,,,,,,,,,
,,65bbd33f8f716cd35c027c25,2024-02-21_21h28.01.237,kallum_motion_pilot,2023.2.2,MacIntel,56.49717514,65bbd33f8f716cd35c027c25,65d6bb0e977760de756971f7,65d6bf2efb200c80632a4d85,0.048,0.048,1,88,250,48,1,onetwo,,,,,,,,,,,,,,,,,,,,,,,,,,,,,,,,,,,,,,,,,,,,,,,,,,,,,,,,,,,,,,,,,,,,,,,,,,,,,,,,,,,,,,,,,,,,,,,,,,,,,,,,,,,,,,,,,,,,,,,,,,,,,,,,,,,,,,,,,
,,65bbd33f8f716cd35c027c25,2024-02-21_21h28.01.237,kallum_motion_pilot,2023.2.2,MacIntel,56.49717514,65bbd33f8f716cd35c027c25,65d6bb0e977760de756971f7,65d6bf2efb200c80632a4d85,0.0482,0.0482,1,89,251,11,1,twofour,,,,,,,,,,,,,,,,,,,,,,,,,,,,,,,,,,,,,,,,,,,,,,,,,,,,,,,,,,,,,,,,,,,,,,,,,,,,,,,,,,,,,,,,,,,,,,,,,,,,,,,,,,,,,,,,,,,,,,,,,,,,,,,,,,,,,,,,,
,,65bbd33f8f716cd35c027c25,2024-02-21_21h28.01.237,kallum_motion_pilot,2023.2.2,MacIntel,56.49717514,65bbd33f8f716cd35c027c25,65d6bb0e977760de756971f7,65d6bf2efb200c80632a4d85,0.0483,0.0483,1,90,252,119,1,eightseven,,,,,,,,,,,,,,,,,,,,,,,,,,,,,,,,,,,,,,,,,,,,,,,,,,,,,,,,,,,,,,,,,,,,,,,,,,,,,,,,,,,,,,,,,,,,,,,,,,,,,,,,,,,,,,,,,,,,,,,,,,,,,,,,,,,,,,,,,
,,65bbd33f8f716cd35c027c25,2024-02-21_21h28.01.237,kallum_motion_pilot,2023.2.2,MacIntel,56.49717514,65bbd33f8f716cd35c027c25,65d6bb0e977760de756971f7,65d6bf2efb200c80632a4d85,0.0484,0.0485,1,91,253,9,1,onethree,,,,,,,,,,,,,,,,,,,,,,,,,,,,,,,,,,,,,,,,,,,,,,,,,,,,,,,,,,,,,,,,,,,,,,,,,,,,,,,,,,,,,,,,,,,,,,,,,,,,,,,,,,,,,,,,,,,,,,,,,,,,,,,,,,,,,,,,,
,,65bbd33f8f716cd35c027c25,2024-02-21_21h28.01.237,kallum_motion_pilot,2023.2.2,MacIntel,56.49717514,65bbd33f8f716cd35c027c25,65d6bb0e977760de756971f7,65d6bf2efb200c80632a4d85,0.0486,0.0486,1,92,254,37,1,threefour,,,,,,,,,,,,,,,,,,,,,,,,,,,,,,,,,,,,,,,,,,,,,,,,,,,,,,,,,,,,,,,,,,,,,,,,,,,,,,,,,,,,,,,,,,,,,,,,,,,,,,,,,,,,,,,,,,,,,,,,,,,,,,,,,,,,,,,,,
,,65bbd33f8f716cd35c027c25,2024-02-21_21h28.01.237,kallum_motion_pilot,2023.2.2,MacIntel,56.49717514,65bbd33f8f716cd35c027c25,65d6bb0e977760de756971f7,65d6bf2efb200c80632a4d85,0.0487,0.0488,1,93,255,26,1,twoone,,,,,,,,,,,,,,,,,,,,,,,,,,,,,,,,,,,,,,,,,,,,,,,,,,,,,,,,,,,,,,,,,,,,,,,,,,,,,,,,,,,,,,,,,,,,,,,,,,,,,,,,,,,,,,,,,,,,,,,,,,,,,,,,,,,,,,,,,
,,65bbd33f8f716cd35c027c25,2024-02-21_21h28.01.237,kallum_motion_pilot,2023.2.2,MacIntel,56.49717514,65bbd33f8f716cd35c027c25,65d6bb0e977760de756971f7,65d6bf2efb200c80632a4d85,0.0489,0.049,1,94,256,118,1,eightsix,,,,,,,,,,,,,,,,,,,,,,,,,,,,,,,,,,,,,,,,,,,,,,,,,,,,,,,,,,,,,,,,,,,,,,,,,,,,,,,,,,,,,,,,,,,,,,,,,,,,,,,,,,,,,,,,,,,,,,,,,,,,,,,,,,,,,,,,,
,,65bbd33f8f716cd35c027c25,2024-02-21_21h28.01.237,kallum_motion_pilot,2023.2.2,MacIntel,56.49717514,65bbd33f8f716cd35c027c25,65d6bb0e977760de756971f7,65d6bf2efb200c80632a4d85,0.049,0.0491,1,95,257,50,1,twoone,,,,,,,,,,,,,,,,,,,,,,,,,,,,,,,,,,,,,,,,,,,,,,,,,,,,,,,,,,,,,,,,,,,,,,,,,,,,,,,,,,,,,,,,,,,,,,,,,,,,,,,,,,,,,,,,,,,,,,,,,,,,,,,,,,,,,,,,,
,,65bbd33f8f716cd35c027c25,2024-02-21_21h28.01.237,kallum_motion_pilot,2023.2.2,MacIntel,56.49717514,65bbd33f8f716cd35c027c25,65d6bb0e977760de756971f7,65d6bf2efb200c80632a4d85,0.0491,0.0491,1,96,258,161,1,fiveseven,,,,,,,,,,,,,,,,,,,,,,,,,,,,,,,,,,,,,,,,,,,,,,,,,,,,,,,,,,,,,,,,,,,,,,,,,,,,,,,,,,,,,,,,,,,,,,,,,,,,,,,,,,,,,,,,,,,,,,,,,,,,,,,,,,,,,,,,,
,,65bbd33f8f716cd35c027c25,2024-02-21_21h28.01.237,kallum_motion_pilot,2023.2.2,MacIntel,56.49717514,65bbd33f8f716cd35c027c25,65d6bb0e977760de756971f7,65d6bf2efb200c80632a4d85,0.0492,0.0493,1,97,259,147,1,sixeight,,,,,,,,,,,,,,,,,,,,,,,,,,,,,,,,,,,,,,,,,,,,,,,,,,,,,,,,,,,,,,,,,,,,,,,,,,,,,,,,,,,,,,,,,,,,,,,,,,,,,,,,,,,,,,,,,,,,,,,,,,,,,,,,,,,,,,,,,
,,65bbd33f8f716cd35c027c25,2024-02-21_21h28.01.237,kallum_motion_pilot,2023.2.2,MacIntel,56.49717514,65bbd33f8f716cd35c027c25,65d6bb0e977760de756971f7,65d6bf2efb200c80632a4d85,0.0493,0.0495,1,98,260,76,1,threeone,,,,,,,,,,,,,,,,,,,,,,,,,,,,,,,,,,,,,,,,,,,,,,,,,,,,,,,,,,,,,,,,,,,,,,,,,,,,,,,,,,,,,,,,,,,,,,,,,,,,,,,,,,,,,,,,,,,,,,,,,,,,,,,,,,,,,,,,,
,,65bbd33f8f716cd35c027c25,2024-02-21_21h28.01.237,kallum_motion_pilot,2023.2.2,MacIntel,56.49717514,65bbd33f8f716cd35c027c25,65d6bb0e977760de756971f7,65d6bf2efb200c80632a4d85,0.0495,0.0496,1,99,261,41,1,onethree,,,,,,,,,,,,,,,,,,,,,,,,,,,,,,,,,,,,,,,,,,,,,,,,,,,,,,,,,,,,,,,,,,,,,,,,,,,,,,,,,,,,,,,,,,,,,,,,,,,,,,,,,,,,,,,,,,,,,,,,,,,,,,,,,,,,,,,,,
,,65bbd33f8f716cd35c027c25,2024-02-21_21h28.01.237,kallum_motion_pilot,2023.2.2,MacIntel,56.49717514,65bbd33f8f716cd35c027c25,65d6bb0e977760de756971f7,65d6bf2efb200c80632a4d85,0.0496,0.0497,1,100,262,113,1,fiveseven,,,,,,,,,,,,,,,,,,,,,,,,,,,,,,,,,,,,,,,,,,,,,,,,,,,,,,,,,,,,,,,,,,,,,,,,,,,,,,,,,,,,,,,,,,,,,,,,,,,,,,,,,,,,,,,,,,,,,,,,,,,,,,,,,,,,,,,,,
,,65bbd33f8f716cd35c027c25,2024-02-21_21h28.01.237,kallum_motion_pilot,2023.2.2,MacIntel,56.49717514,65bbd33f8f716cd35c027c25,65d6bb0e977760de756971f7,65d6bf2efb200c80632a4d85,0.0497,0.0498,1,101,263,12,1,threeone,,,,,,,,,,,,,,,,,,,,,,,,,,,,,,,,,,,,,,,,,,,,,,,,,,,,,,,,,,,,,,,,,,,,,,,,,,,,,,,,,,,,,,,,,,,,,,,,,,,,,,,,,,,,,,,,,,,,,,,,,,,,,,,,,,,,,,,,,
,,65bbd33f8f716cd35c027c25,2024-02-21_21h28.01.237,kallum_motion_pilot,2023.2.2,MacIntel,56.49717514,65bbd33f8f716cd35c027c25,65d6bb0e977760de756971f7,65d6bf2efb200c80632a4d85,0.0498,0.0498,1,102,264,21,1,threefour,,,,,,,,,,,,,,,,,,,,,,,,,,,,,,,,,,,,,,,,,,,,,,,,,,,,,,,,,,,,,,,,,,,,,,,,,,,,,,,,,,,,,,,,,,,,,,,,,,,,,,,,,,,,,,,,,,,,,,,,,,,,,,,,,,,,,,,,,
,,65bbd33f8f716cd35c027c25,2024-02-21_21h28.01.237,kallum_motion_pilot,2023.2.2,MacIntel,56.49717514,65bbd33f8f716cd35c027c25,65d6bb0e977760de756971f7,65d6bf2efb200c80632a4d85,0.0499,0.05,1,103,265,83,1,sixeight,,,,,,,,,,,,,,,,,,,,,,,,,,,,,,,,,,,,,,,,,,,,,,,,,,,,,,,,,,,,,,,,,,,,,,,,,,,,,,,,,,,,,,,,,,,,,,,,,,,,,,,,,,,,,,,,,,,,,,,,,,,,,,,,,,,,,,,,,
,,65bbd33f8f716cd35c027c25,2024-02-21_21h28.01.237,kallum_motion_pilot,2023.2.2,MacIntel,56.49717514,65bbd33f8f716cd35c027c25,65d6bb0e977760de756971f7,65d6bf2efb200c80632a4d85,0.05,0.0501,1,104,266,139,1,sixeight,,,,,,,,,,,,,,,,,,,,,,,,,,,,,,,,,,,,,,,,,,,,,,,,,,,,,,,,,,,,,,,,,,,,,,,,,,,,,,,,,,,,,,,,,,,,,,,,,,,,,,,,,,,,,,,,,,,,,,,,,,,,,,,,,,,,,,,,,
,,65bbd33f8f716cd35c027c25,2024-02-21_21h28.01.237,kallum_motion_pilot,2023.2.2,MacIntel,56.49717514,65bbd33f8f716cd35c027c25,65d6bb0e977760de756971f7,65d6bf2efb200c80632a4d85,0.0501,0.0502,1,105,267,43,1,twofour,,,,,,,,,,,,,,,,,,,,,,,,,,,,,,,,,,,,,,,,,,,,,,,,,,,,,,,,,,,,,,,,,,,,,,,,,,,,,,,,,,,,,,,,,,,,,,,,,,,,,,,,,,,,,,,,,,,,,,,,,,,,,,,,,,,,,,,,,
,,65bbd33f8f716cd35c027c25,2024-02-21_21h28.01.237,kallum_motion_pilot,2023.2.2,MacIntel,56.49717514,65bbd33f8f716cd35c027c25,65d6bb0e977760de756971f7,65d6bf2efb200c80632a4d85,0.0502,0.0502,1,106,268,0,1,onetwo,,,,,,,,,,,,,,,,,,,,,,,,,,,,,,,,,,,,,,,,,,,,,,,,,,,,,,,,,,,,,,,,,,,,,,,,,,,,,,,,,,,,,,,,,,,,,,,,,,,,,,,,,,,,,,,,,,,,,,,,,,,,,,,,,,,,,,,,,
,,65bbd33f8f716cd35c027c25,2024-02-21_21h28.01.237,kallum_motion_pilot,2023.2.2,MacIntel,56.49717514,65bbd33f8f716cd35c027c25,65d6bb0e977760de756971f7,65d6bf2efb200c80632a4d85,0.0504,0.0504,1,107,269,140,1,sevenfive,,,,,,,,,,,,,,,,,,,,,,,,,,,,,,,,,,,,,,,,,,,,,,,,,,,,,,,,,,,,,,,,,,,,,,,,,,,,,,,,,,,,,,,,,,,,,,,,,,,,,,,,,,,,,,,,,,,,,,,,,,,,,,,,,,,,,,,,,
,,65bbd33f8f716cd35c027c25,2024-02-21_21h28.01.237,kallum_motion_pilot,2023.2.2,MacIntel,56.49717514,65bbd33f8f716cd35c027c25,65d6bb0e977760de756971f7,65d6bf2efb200c80632a4d85,0.0504,0.0504,1,108,270,111,1,eightseven,,,,,,,,,,,,,,,,,,,,,,,,,,,,,,,,,,,,,,,,,,,,,,,,,,,,,,,,,,,,,,,,,,,,,,,,,,,,,,,,,,,,,,,,,,,,,,,,,,,,,,,,,,,,,,,,,,,,,,,,,,,,,,,,,,,,,,,,,
,,65bbd33f8f716cd35c027c25,2024-02-21_21h28.01.237,kallum_motion_pilot,2023.2.2,MacIntel,56.49717514,65bbd33f8f716cd35c027c25,65d6bb0e977760de756971f7,65d6bf2efb200c80632a4d85,0.0504,0.0506,1,109,271,112,1,fivesix,,,,,,,,,,,,,,,,,,,,,,,,,,,,,,,,,,,,,,,,,,,,,,,,,,,,,,,,,,,,,,,,,,,,,,,,,,,,,,,,,,,,,,,,,,,,,,,,,,,,,,,,,,,,,,,,,,,,,,,,,,,,,,,,,,,,,,,,,
,,65bbd33f8f716cd35c027c25,2024-02-21_21h28.01.237,kallum_motion_pilot,2023.2.2,MacIntel,56.49717514,65bbd33f8f716cd35c027c25,65d6bb0e977760de756971f7,65d6bf2efb200c80632a4d85,0.0506,0.0506,1,110,272,40,1,onetwo,,,,,,,,,,,,,,,,,,,,,,,,,,,,,,,,,,,,,,,,,,,,,,,,,,,,,,,,,,,,,,,,,,,,,,,,,,,,,,,,,,,,,,,,,,,,,,,,,,,,,,,,,,,,,,,,,,,,,,,,,,,,,,,,,,,,,,,,,
,,65bbd33f8f716cd35c027c25,2024-02-21_21h28.01.237,kallum_motion_pilot,2023.2.2,MacIntel,56.49717514,65bbd33f8f716cd35c027c25,65d6bb0e977760de756971f7,65d6bf2efb200c80632a4d85,0.0507,0.0507,1,111,273,23,1,fourthree,,,,,,,,,,,,,,,,,,,,,,,,,,,,,,,,,,,,,,,,,,,,,,,,,,,,,,,,,,,,,,,,,,,,,,,,,,,,,,,,,,,,,,,,,,,,,,,,,,,,,,,,,,,,,,,,,,,,,,,,,,,,,,,,,,,,,,,,,
,,65bbd33f8f716cd35c027c25,2024-02-21_21h28.01.237,kallum_motion_pilot,2023.2.2,MacIntel,56.49717514,65bbd33f8f716cd35c027c25,65d6bb0e977760de756971f7,65d6bf2efb200c80632a4d85,0.0508,0.0508,1,112,274,20,1,threeone,,,,,,,,,,,,,,,,,,,,,,,,,,,,,,,,,,,,,,,,,,,,,,,,,,,,,,,,,,,,,,,,,,,,,,,,,,,,,,,,,,,,,,,,,,,,,,,,,,,,,,,,,,,,,,,,,,,,,,,,,,,,,,,,,,,,,,,,,
,,65bbd33f8f716cd35c027c25,2024-02-21_21h28.01.237,kallum_motion_pilot,2023.2.2,MacIntel,56.49717514,65bbd33f8f716cd35c027c25,65d6bb0e977760de756971f7,65d6bf2efb200c80632a4d85,0.0509,0.0509,1,113,275,159,1,eightseven,,,,,,,,,,,,,,,,,,,,,,,,,,,,,,,,,,,,,,,,,,,,,,,,,,,,,,,,,,,,,,,,,,,,,,,,,,,,,,,,,,,,,,,,,,,,,,,,,,,,,,,,,,,,,,,,,,,,,,,,,,,,,,,,,,,,,,,,,
