startup.started,startup.stopped,Prolific ID*,date,expName,psychopyVersion,OS,frameRate,participant,study_id,session,stimpositions.started,stimpositions.stopped,hardcoded_stimulus_positions.thisRepN,hardcoded_stimulus_positions.thisTrialN,hardcoded_stimulus_positions.thisN,hardcoded_stimulus_positions.thisIndex,hardcoded_stimulus_positions.ran,StimulusPos,stimorientation.started,stimorientation.stopped,prac_stimorientation_import_loop.thisRepN,prac_stimorientation_import_loop.thisTrialN,prac_stimorientation_import_loop.thisN,prac_stimorientation_import_loop.thisIndex,prac_stimorientation_import_loop.ran,Stimorientation,welcome_instr.started,welcome_instr.stopped,key_resp.keys,key_resp.rt,key_resp.duration,response_steppedout_1.started,response_steppedout_1.stopped,key_resp_20.keys,key_resp_20.rt,key_resp_20.duration,response_steppedout_2.started,response_steppedout_2.stopped,key_resp_19.keys,key_resp_19.rt,key_resp_19.duration,stim_response_instr.started,stim_response_instr.stopped,key_resp_15.keys,key_resp_15.rt,key_resp_15.duration,direction_instr_2.started,direction_instr_2.stopped,key_resp_9.keys,key_resp_9.rt,key_resp_9.duration,instr_prac.started,instr_prac.stopped,key_resp_10.keys,key_resp_10.rt,key_resp_10.duration,Stim1_display_prac.started,Stim1_display_prac.stopped,Ecc,Circle1_ori,Circle2_ori,response_prac.started,similarity,response_time,response_prac.stopped,mouse_5.x,mouse_5.y,mouse_5.leftButton,mouse_5.midButton,mouse_5.rightButton,mouse_5.clicked_name,responseprac_feedback.started,responseprac_feedback.stopped,summary2_prac.started,summary2_prac.stopped,mouse_6.x,mouse_6.y,mouse_6.leftButton,mouse_6.midButton,mouse_6.rightButton,mouse_6.clicked_name,duringprac.thisRepN,duringprac.thisTrialN,duringprac.thisN,duringprac.thisIndex,duringprac.ran,begin.started,begin.stopped,key_resp_22.keys,key_resp_22.rt,key_resp_22.duration,Stim1_display.started,Stim1_display.stopped,circle1_ori,circle2_ori,circle1_SF,circle2_SF,response.started,response.stopped,mouse.x,mouse.y,mouse.leftButton,mouse.midButton,mouse.rightButton,mouse.clicked_name,trialnumber,double_pass.thisRepN,double_pass.thisTrialN,double_pass.thisN,double_pass.thisIndex,double_pass.ran,double_pass.order,main_trial.thisRepN,main_trial.thisTrialN,main_trial.thisN,main_trial.thisIndex,main_trial.ran,main_trial.order,Trial_Counter,Catch,Frequencies,response_2.started,response_2.stopped,mouse_2.x,mouse_2.y,mouse_2.leftButton,mouse_2.midButton,mouse_2.rightButton,mouse_2.clicked_name,special_trial.started,special_trial.stopped,catch_1.started,catch_1.stopped,mouse_3.x,mouse_3.y,mouse_3.leftButton,mouse_3.midButton,mouse_3.rightButton,catchresponse,catchnumber,response_time_catch,response_sum.started,response_sum.stopped,mouse_11.x,mouse_11.y,mouse_11.leftButton,mouse_11.midButton,mouse_11.rightButton,flip_presentation_sequence_for_double_pass.started,flip_presentation_sequence_for_double_pass.stopped,goodbye.started,goodbye.stopped,key_resp_3.keys,key_resp_3.rt,key_resp_3.duration
0.0006,0.0007,65d6bb0e977760de756971f7,2024-02-22_06h08.12.739,kallum_motion_pilot,2023.2.2,Win32,59.88023952,65c0f98cdf650fa372206adf,65d6bb0e977760de756971f7,65d6d4d3431f118201ca1cba,,,,,,,,,,,,,,,,,,,,,,,,,,,,,,,,,,,,,,,,,,,,,,,,,,,,,,,,,,,,,,,,,,,,,,,,,,,,,,,,,,,,,,,,,,,,,,,,,,,,,,,,,,,,,,,,,,,,,,,,,,,,,,,,,,,,,,,,,,,,,,,,,
,,65d6bb0e977760de756971f7,2024-02-22_06h08.12.739,kallum_motion_pilot,2023.2.2,Win32,59.88023952,65c0f98cdf650fa372206adf,65d6bb0e977760de756971f7,65d6d4d3431f118201ca1cba,0.0446,0.0449,0,0,0,109,1,seveneight,,,,,,,,,,,,,,,,,,,,,,,,,,,,,,,,,,,,,,,,,,,,,,,,,,,,,,,,,,,,,,,,,,,,,,,,,,,,,,,,,,,,,,,,,,,,,,,,,,,,,,,,,,,,,,,,,,,,,,,,,,,,,,,,,,,,,,,,,
,,65d6bb0e977760de756971f7,2024-02-22_06h08.12.739,kallum_motion_pilot,2023.2.2,Win32,59.88023952,65c0f98cdf650fa372206adf,65d6bb0e977760de756971f7,65d6d4d3431f118201ca1cba,0.0454,0.0454,0,1,1,154,1,sixfive,,,,,,,,,,,,,,,,,,,,,,,,,,,,,,,,,,,,,,,,,,,,,,,,,,,,,,,,,,,,,,,,,,,,,,,,,,,,,,,,,,,,,,,,,,,,,,,,,,,,,,,,,,,,,,,,,,,,,,,,,,,,,,,,,,,,,,,,,
,,65d6bb0e977760de756971f7,2024-02-22_06h08.12.739,kallum_motion_pilot,2023.2.2,Win32,59.88023952,65c0f98cdf650fa372206adf,65d6bb0e977760de756971f7,65d6d4d3431f118201ca1cba,0.0456,0.0457,0,2,2,26,1,twoone,,,,,,,,,,,,,,,,,,,,,,,,,,,,,,,,,,,,,,,,,,,,,,,,,,,,,,,,,,,,,,,,,,,,,,,,,,,,,,,,,,,,,,,,,,,,,,,,,,,,,,,,,,,,,,,,,,,,,,,,,,,,,,,,,,,,,,,,,
,,65d6bb0e977760de756971f7,2024-02-22_06h08.12.739,kallum_motion_pilot,2023.2.2,Win32,59.88023952,65c0f98cdf650fa372206adf,65d6bb0e977760de756971f7,65d6d4d3431f118201ca1cba,0.0459,0.0459,0,3,3,22,1,fourtwo,,,,,,,,,,,,,,,,,,,,,,,,,,,,,,,,,,,,,,,,,,,,,,,,,,,,,,,,,,,,,,,,,,,,,,,,,,,,,,,,,,,,,,,,,,,,,,,,,,,,,,,,,,,,,,,,,,,,,,,,,,,,,,,,,,,,,,,,,
,,65d6bb0e977760de756971f7,2024-02-22_06h08.12.739,kallum_motion_pilot,2023.2.2,Win32,59.88023952,65c0f98cdf650fa372206adf,65d6bb0e977760de756971f7,65d6d4d3431f118201ca1cba,0.0462,0.0462,0,4,4,6,1,fourtwo,,,,,,,,,,,,,,,,,,,,,,,,,,,,,,,,,,,,,,,,,,,,,,,,,,,,,,,,,,,,,,,,,,,,,,,,,,,,,,,,,,,,,,,,,,,,,,,,,,,,,,,,,,,,,,,,,,,,,,,,,,,,,,,,,,,,,,,,,
,,65d6bb0e977760de756971f7,2024-02-22_06h08.12.739,kallum_motion_pilot,2023.2.2,Win32,59.88023952,65c0f98cdf650fa372206adf,65d6bb0e977760de756971f7,65d6d4d3431f118201ca1cba,0.0464,0.0464,0,5,5,43,1,twofour,,,,,,,,,,,,,,,,,,,,,,,,,,,,,,,,,,,,,,,,,,,,,,,,,,,,,,,,,,,,,,,,,,,,,,,,,,,,,,,,,,,,,,,,,,,,,,,,,,,,,,,,,,,,,,,,,,,,,,,,,,,,,,,,,,,,,,,,,
,,65d6bb0e977760de756971f7,2024-02-22_06h08.12.739,kallum_motion_pilot,2023.2.2,Win32,59.88023952,65c0f98cdf650fa372206adf,65d6bb0e977760de756971f7,65d6d4d3431f118201ca1cba,0.0468,0.0469,0,6,6,1,1,onethree,,,,,,,,,,,,,,,,,,,,,,,,,,,,,,,,,,,,,,,,,,,,,,,,,,,,,,,,,,,,,,,,,,,,,,,,,,,,,,,,,,,,,,,,,,,,,,,,,,,,,,,,,,,,,,,,,,,,,,,,,,,,,,,,,,,,,,,,,
,,65d6bb0e977760de756971f7,2024-02-22_06h08.12.739,kallum_motion_pilot,2023.2.2,Win32,59.88023952,65c0f98cdf650fa372206adf,65d6bb0e977760de756971f7,65d6d4d3431f118201ca1cba,0.0471,0.0472,0,7,7,29,1,threefour,,,,,,,,,,,,,,,,,,,,,,,,,,,,,,,,,,,,,,,,,,,,,,,,,,,,,,,,,,,,,,,,,,,,,,,,,,,,,,,,,,,,,,,,,,,,,,,,,,,,,,,,,,,,,,,,,,,,,,,,,,,,,,,,,,,,,,,,,
,,65d6bb0e977760de756971f7,2024-02-22_06h08.12.739,kallum_motion_pilot,2023.2.2,Win32,59.88023952,65c0f98cdf650fa372206adf,65d6bb0e977760de756971f7,65d6d4d3431f118201ca1cba,0.0475,0.0475,0,8,8,83,1,sixeight,,,,,,,,,,,,,,,,,,,,,,,,,,,,,,,,,,,,,,,,,,,,,,,,,,,,,,,,,,,,,,,,,,,,,,,,,,,,,,,,,,,,,,,,,,,,,,,,,,,,,,,,,,,,,,,,,,,,,,,,,,,,,,,,,,,,,,,,,
,,65d6bb0e977760de756971f7,2024-02-22_06h08.12.739,kallum_motion_pilot,2023.2.2,Win32,59.88023952,65c0f98cdf650fa372206adf,65d6bb0e977760de756971f7,65d6d4d3431f118201ca1cba,0.0477,0.0478,0,9,9,14,1,fourtwo,,,,,,,,,,,,,,,,,,,,,,,,,,,,,,,,,,,,,,,,,,,,,,,,,,,,,,,,,,,,,,,,,,,,,,,,,,,,,,,,,,,,,,,,,,,,,,,,,,,,,,,,,,,,,,,,,,,,,,,,,,,,,,,,,,,,,,,,,
,,65d6bb0e977760de756971f7,2024-02-22_06h08.12.739,kallum_motion_pilot,2023.2.2,Win32,59.88023952,65c0f98cdf650fa372206adf,65d6bb0e977760de756971f7,65d6d4d3431f118201ca1cba,0.048,0.0481,0,10,10,80,1,fivesix,,,,,,,,,,,,,,,,,,,,,,,,,,,,,,,,,,,,,,,,,,,,,,,,,,,,,,,,,,,,,,,,,,,,,,,,,,,,,,,,,,,,,,,,,,,,,,,,,,,,,,,,,,,,,,,,,,,,,,,,,,,,,,,,,,,,,,,,,
,,65d6bb0e977760de756971f7,2024-02-22_06h08.12.739,kallum_motion_pilot,2023.2.2,Win32,59.88023952,65c0f98cdf650fa372206adf,65d6bb0e977760de756971f7,65d6d4d3431f118201ca1cba,0.0483,0.0483,0,11,11,92,1,sevenfive,,,,,,,,,,,,,,,,,,,,,,,,,,,,,,,,,,,,,,,,,,,,,,,,,,,,,,,,,,,,,,,,,,,,,,,,,,,,,,,,,,,,,,,,,,,,,,,,,,,,,,,,,,,,,,,,,,,,,,,,,,,,,,,,,,,,,,,,,
,,65d6bb0e977760de756971f7,2024-02-22_06h08.12.739,kallum_motion_pilot,2023.2.2,Win32,59.88023952,65c0f98cdf650fa372206adf,65d6bb0e977760de756971f7,65d6d4d3431f118201ca1cba,0.0485,0.0485,0,12,12,152,1,fivesix,,,,,,,,,,,,,,,,,,,,,,,,,,,,,,,,,,,,,,,,,,,,,,,,,,,,,,,,,,,,,,,,,,,,,,,,,,,,,,,,,,,,,,,,,,,,,,,,,,,,,,,,,,,,,,,,,,,,,,,,,,,,,,,,,,,,,,,,,
,,65d6bb0e977760de756971f7,2024-02-22_06h08.12.739,kallum_motion_pilot,2023.2.2,Win32,59.88023952,65c0f98cdf650fa372206adf,65d6bb0e977760de756971f7,65d6d4d3431f118201ca1cba,0.0486,0.0487,0,13,13,35,1,twofour,,,,,,,,,,,,,,,,,,,,,,,,,,,,,,,,,,,,,,,,,,,,,,,,,,,,,,,,,,,,,,,,,,,,,,,,,,,,,,,,,,,,,,,,,,,,,,,,,,,,,,,,,,,,,,,,,,,,,,,,,,,,,,,,,,,,,,,,,
,,65d6bb0e977760de756971f7,2024-02-22_06h08.12.739,kallum_motion_pilot,2023.2.2,Win32,59.88023952,65c0f98cdf650fa372206adf,65d6bb0e977760de756971f7,65d6d4d3431f118201ca1cba,0.0489,0.0489,0,14,14,42,1,twoone,,,,,,,,,,,,,,,,,,,,,,,,,,,,,,,,,,,,,,,,,,,,,,,,,,,,,,,,,,,,,,,,,,,,,,,,,,,,,,,,,,,,,,,,,,,,,,,,,,,,,,,,,,,,,,,,,,,,,,,,,,,,,,,,,,,,,,,,,
,,65d6bb0e977760de756971f7,2024-02-22_06h08.12.739,kallum_motion_pilot,2023.2.2,Win32,59.88023952,65c0f98cdf650fa372206adf,65d6bb0e977760de756971f7,65d6d4d3431f118201ca1cba,0.049,0.0491,0,15,15,106,1,sixfive,,,,,,,,,,,,,,,,,,,,,,,,,,,,,,,,,,,,,,,,,,,,,,,,,,,,,,,,,,,,,,,,,,,,,,,,,,,,,,,,,,,,,,,,,,,,,,,,,,,,,,,,,,,,,,,,,,,,,,,,,,,,,,,,,,,,,,,,,
,,65d6bb0e977760de756971f7,2024-02-22_06h08.12.739,kallum_motion_pilot,2023.2.2,Win32,59.88023952,65c0f98cdf650fa372206adf,65d6bb0e977760de756971f7,65d6d4d3431f118201ca1cba,0.0493,0.0493,0,16,16,82,1,sixfive,,,,,,,,,,,,,,,,,,,,,,,,,,,,,,,,,,,,,,,,,,,,,,,,,,,,,,,,,,,,,,,,,,,,,,,,,,,,,,,,,,,,,,,,,,,,,,,,,,,,,,,,,,,,,,,,,,,,,,,,,,,,,,,,,,,,,,,,,
,,65d6bb0e977760de756971f7,2024-02-22_06h08.12.739,kallum_motion_pilot,2023.2.2,Win32,59.88023952,65c0f98cdf650fa372206adf,65d6bb0e977760de756971f7,65d6d4d3431f118201ca1cba,0.0495,0.0495,0,17,17,11,1,twofour,,,,,,,,,,,,,,,,,,,,,,,,,,,,,,,,,,,,,,,,,,,,,,,,,,,,,,,,,,,,,,,,,,,,,,,,,,,,,,,,,,,,,,,,,,,,,,,,,,,,,,,,,,,,,,,,,,,,,,,,,,,,,,,,,,,,,,,,,
,,65d6bb0e977760de756971f7,2024-02-22_06h08.12.739,kallum_motion_pilot,2023.2.2,Win32,59.88023952,65c0f98cdf650fa372206adf,65d6bb0e977760de756971f7,65d6d4d3431f118201ca1cba,0.0497,0.0497,0,18,18,46,1,fourtwo,,,,,,,,,,,,,,,,,,,,,,,,,,,,,,,,,,,,,,,,,,,,,,,,,,,,,,,,,,,,,,,,,,,,,,,,,,,,,,,,,,,,,,,,,,,,,,,,,,,,,,,,,,,,,,,,,,,,,,,,,,,,,,,,,,,,,,,,,
,,65d6bb0e977760de756971f7,2024-02-22_06h08.12.739,kallum_motion_pilot,2023.2.2,Win32,59.88023952,65c0f98cdf650fa372206adf,65d6bb0e977760de756971f7,65d6d4d3431f118201ca1cba,0.0499,0.0499,0,19,19,155,1,sixeight,,,,,,,,,,,,,,,,,,,,,,,,,,,,,,,,,,,,,,,,,,,,,,,,,,,,,,,,,,,,,,,,,,,,,,,,,,,,,,,,,,,,,,,,,,,,,,,,,,,,,,,,,,,,,,,,,,,,,,,,,,,,,,,,,,,,,,,,,
,,65d6bb0e977760de756971f7,2024-02-22_06h08.12.739,kallum_motion_pilot,2023.2.2,Win32,59.88023952,65c0f98cdf650fa372206adf,65d6bb0e977760de756971f7,65d6d4d3431f118201ca1cba,0.05,0.0501,0,20,20,132,1,sevenfive,,,,,,,,,,,,,,,,,,,,,,,,,,,,,,,,,,,,,,,,,,,,,,,,,,,,,,,,,,,,,,,,,,,,,,,,,,,,,,,,,,,,,,,,,,,,,,,,,,,,,,,,,,,,,,,,,,,,,,,,,,,,,,,,,,,,,,,,,
,,65d6bb0e977760de756971f7,2024-02-22_06h08.12.739,kallum_motion_pilot,2023.2.2,Win32,59.88023952,65c0f98cdf650fa372206adf,65d6bb0e977760de756971f7,65d6d4d3431f118201ca1cba,0.0502,0.0503,0,21,21,27,1,twofour,,,,,,,,,,,,,,,,,,,,,,,,,,,,,,,,,,,,,,,,,,,,,,,,,,,,,,,,,,,,,,,,,,,,,,,,,,,,,,,,,,,,,,,,,,,,,,,,,,,,,,,,,,,,,,,,,,,,,,,,,,,,,,,,,,,,,,,,,
,,65d6bb0e977760de756971f7,2024-02-22_06h08.12.739,kallum_motion_pilot,2023.2.2,Win32,59.88023952,65c0f98cdf650fa372206adf,65d6bb0e977760de756971f7,65d6d4d3431f118201ca1cba,0.0504,0.0505,0,22,22,63,1,fourthree,,,,,,,,,,,,,,,,,,,,,,,,,,,,,,,,,,,,,,,,,,,,,,,,,,,,,,,,,,,,,,,,,,,,,,,,,,,,,,,,,,,,,,,,,,,,,,,,,,,,,,,,,,,,,,,,,,,,,,,,,,,,,,,,,,,,,,,,,
,,65d6bb0e977760de756971f7,2024-02-22_06h08.12.739,kallum_motion_pilot,2023.2.2,Win32,59.88023952,65c0f98cdf650fa372206adf,65d6bb0e977760de756971f7,65d6d4d3431f118201ca1cba,0.0507,0.0507,0,23,23,121,1,fiveseven,,,,,,,,,,,,,,,,,,,,,,,,,,,,,,,,,,,,,,,,,,,,,,,,,,,,,,,,,,,,,,,,,,,,,,,,,,,,,,,,,,,,,,,,,,,,,,,,,,,,,,,,,,,,,,,,,,,,,,,,,,,,,,,,,,,,,,,,,
,,65d6bb0e977760de756971f7,2024-02-22_06h08.12.739,kallum_motion_pilot,2023.2.2,Win32,59.88023952,65c0f98cdf650fa372206adf,65d6bb0e977760de756971f7,65d6d4d3431f118201ca1cba,0.0508,0.051,0,24,24,125,1,seveneight,,,,,,,,,,,,,,,,,,,,,,,,,,,,,,,,,,,,,,,,,,,,,,,,,,,,,,,,,,,,,,,,,,,,,,,,,,,,,,,,,,,,,,,,,,,,,,,,,,,,,,,,,,,,,,,,,,,,,,,,,,,,,,,,,,,,,,,,,
,,65d6bb0e977760de756971f7,2024-02-22_06h08.12.739,kallum_motion_pilot,2023.2.2,Win32,59.88023952,65c0f98cdf650fa372206adf,65d6bb0e977760de756971f7,65d6d4d3431f118201ca1cba,0.0512,0.0512,0,25,25,131,1,sixeight,,,,,,,,,,,,,,,,,,,,,,,,,,,,,,,,,,,,,,,,,,,,,,,,,,,,,,,,,,,,,,,,,,,,,,,,,,,,,,,,,,,,,,,,,,,,,,,,,,,,,,,,,,,,,,,,,,,,,,,,,,,,,,,,,,,,,,,,,
,,65d6bb0e977760de756971f7,2024-02-22_06h08.12.739,kallum_motion_pilot,2023.2.2,Win32,59.88023952,65c0f98cdf650fa372206adf,65d6bb0e977760de756971f7,65d6d4d3431f118201ca1cba,0.0514,0.0514,0,26,26,148,1,sevenfive,,,,,,,,,,,,,,,,,,,,,,,,,,,,,,,,,,,,,,,,,,,,,,,,,,,,,,,,,,,,,,,,,,,,,,,,,,,,,,,,,,,,,,,,,,,,,,,,,,,,,,,,,,,,,,,,,,,,,,,,,,,,,,,,,,,,,,,,,
,,65d6bb0e977760de756971f7,2024-02-22_06h08.12.739,kallum_motion_pilot,2023.2.2,Win32,59.88023952,65c0f98cdf650fa372206adf,65d6bb0e977760de756971f7,65d6d4d3431f118201ca1cba,0.0515,0.0516,0,27,27,136,1,fivesix,,,,,,,,,,,,,,,,,,,,,,,,,,,,,,,,,,,,,,,,,,,,,,,,,,,,,,,,,,,,,,,,,,,,,,,,,,,,,,,,,,,,,,,,,,,,,,,,,,,,,,,,,,,,,,,,,,,,,,,,,,,,,,,,,,,,,,,,,
,,65d6bb0e977760de756971f7,2024-02-22_06h08.12.739,kallum_motion_pilot,2023.2.2,Win32,59.88023952,65c0f98cdf650fa372206adf,65d6bb0e977760de756971f7,65d6d4d3431f118201ca1cba,0.0517,0.0518,0,28,28,143,1,eightseven,,,,,,,,,,,,,,,,,,,,,,,,,,,,,,,,,,,,,,,,,,,,,,,,,,,,,,,,,,,,,,,,,,,,,,,,,,,,,,,,,,,,,,,,,,,,,,,,,,,,,,,,,,,,,,,,,,,,,,,,,,,,,,,,,,,,,,,,,
,,65d6bb0e977760de756971f7,2024-02-22_06h08.12.739,kallum_motion_pilot,2023.2.2,Win32,59.88023952,65c0f98cdf650fa372206adf,65d6bb0e977760de756971f7,65d6d4d3431f118201ca1cba,0.052,0.052,0,29,29,68,1,threeone,,,,,,,,,,,,,,,,,,,,,,,,,,,,,,,,,,,,,,,,,,,,,,,,,,,,,,,,,,,,,,,,,,,,,,,,,,,,,,,,,,,,,,,,,,,,,,,,,,,,,,,,,,,,,,,,,,,,,,,,,,,,,,,,,,,,,,,,,
,,65d6bb0e977760de756971f7,2024-02-22_06h08.12.739,kallum_motion_pilot,2023.2.2,Win32,59.88023952,65c0f98cdf650fa372206adf,65d6bb0e977760de756971f7,65d6d4d3431f118201ca1cba,0.0525,0.0525,0,30,30,158,1,eightsix,,,,,,,,,,,,,,,,,,,,,,,,,,,,,,,,,,,,,,,,,,,,,,,,,,,,,,,,,,,,,,,,,,,,,,,,,,,,,,,,,,,,,,,,,,,,,,,,,,,,,,,,,,,,,,,,,,,,,,,,,,,,,,,,,,,,,,,,,
,,65d6bb0e977760de756971f7,2024-02-22_06h08.12.739,kallum_motion_pilot,2023.2.2,Win32,59.88023952,65c0f98cdf650fa372206adf,65d6bb0e977760de756971f7,65d6d4d3431f118201ca1cba,0.0529,0.053,0,31,31,112,1,fivesix,,,,,,,,,,,,,,,,,,,,,,,,,,,,,,,,,,,,,,,,,,,,,,,,,,,,,,,,,,,,,,,,,,,,,,,,,,,,,,,,,,,,,,,,,,,,,,,,,,,,,,,,,,,,,,,,,,,,,,,,,,,,,,,,,,,,,,,,,
,,65d6bb0e977760de756971f7,2024-02-22_06h08.12.739,kallum_motion_pilot,2023.2.2,Win32,59.88023952,65c0f98cdf650fa372206adf,65d6bb0e977760de756971f7,65d6d4d3431f118201ca1cba,0.0534,0.0534,0,32,32,41,1,onethree,,,,,,,,,,,,,,,,,,,,,,,,,,,,,,,,,,,,,,,,,,,,,,,,,,,,,,,,,,,,,,,,,,,,,,,,,,,,,,,,,,,,,,,,,,,,,,,,,,,,,,,,,,,,,,,,,,,,,,,,,,,,,,,,,,,,,,,,,
,,65d6bb0e977760de756971f7,2024-02-22_06h08.12.739,kallum_motion_pilot,2023.2.2,Win32,59.88023952,65c0f98cdf650fa372206adf,65d6bb0e977760de756971f7,65d6d4d3431f118201ca1cba,0.0536,0.0537,0,33,33,36,1,threeone,,,,,,,,,,,,,,,,,,,,,,,,,,,,,,,,,,,,,,,,,,,,,,,,,,,,,,,,,,,,,,,,,,,,,,,,,,,,,,,,,,,,,,,,,,,,,,,,,,,,,,,,,,,,,,,,,,,,,,,,,,,,,,,,,,,,,,,,,
,,65d6bb0e977760de756971f7,2024-02-22_06h08.12.739,kallum_motion_pilot,2023.2.2,Win32,59.88023952,65c0f98cdf650fa372206adf,65d6bb0e977760de756971f7,65d6d4d3431f118201ca1cba,0.0539,0.0539,0,34,34,140,1,sevenfive,,,,,,,,,,,,,,,,,,,,,,,,,,,,,,,,,,,,,,,,,,,,,,,,,,,,,,,,,,,,,,,,,,,,,,,,,,,,,,,,,,,,,,,,,,,,,,,,,,,,,,,,,,,,,,,,,,,,,,,,,,,,,,,,,,,,,,,,,
,,65d6bb0e977760de756971f7,2024-02-22_06h08.12.739,kallum_motion_pilot,2023.2.2,Win32,59.88023952,65c0f98cdf650fa372206adf,65d6bb0e977760de756971f7,65d6d4d3431f118201ca1cba,0.0541,0.0541,0,35,35,85,1,seveneight,,,,,,,,,,,,,,,,,,,,,,,,,,,,,,,,,,,,,,,,,,,,,,,,,,,,,,,,,,,,,,,,,,,,,,,,,,,,,,,,,,,,,,,,,,,,,,,,,,,,,,,,,,,,,,,,,,,,,,,,,,,,,,,,,,,,,,,,,
,,65d6bb0e977760de756971f7,2024-02-22_06h08.12.739,kallum_motion_pilot,2023.2.2,Win32,59.88023952,65c0f98cdf650fa372206adf,65d6bb0e977760de756971f7,65d6d4d3431f118201ca1cba,0.0543,0.0543,0,36,36,78,1,fourtwo,,,,,,,,,,,,,,,,,,,,,,,,,,,,,,,,,,,,,,,,,,,,,,,,,,,,,,,,,,,,,,,,,,,,,,,,,,,,,,,,,,,,,,,,,,,,,,,,,,,,,,,,,,,,,,,,,,,,,,,,,,,,,,,,,,,,,,,,,
,,65d6bb0e977760de756971f7,2024-02-22_06h08.12.739,kallum_motion_pilot,2023.2.2,Win32,59.88023952,65c0f98cdf650fa372206adf,65d6bb0e977760de756971f7,65d6d4d3431f118201ca1cba,0.0545,0.0546,0,37,37,25,1,onethree,,,,,,,,,,,,,,,,,,,,,,,,,,,,,,,,,,,,,,,,,,,,,,,,,,,,,,,,,,,,,,,,,,,,,,,,,,,,,,,,,,,,,,,,,,,,,,,,,,,,,,,,,,,,,,,,,,,,,,,,,,,,,,,,,,,,,,,,,
,,65d6bb0e977760de756971f7,2024-02-22_06h08.12.739,kallum_motion_pilot,2023.2.2,Win32,59.88023952,65c0f98cdf650fa372206adf,65d6bb0e977760de756971f7,65d6d4d3431f118201ca1cba,0.0547,0.0548,0,38,38,0,1,onetwo,,,,,,,,,,,,,,,,,,,,,,,,,,,,,,,,,,,,,,,,,,,,,,,,,,,,,,,,,,,,,,,,,,,,,,,,,,,,,,,,,,,,,,,,,,,,,,,,,,,,,,,,,,,,,,,,,,,,,,,,,,,,,,,,,,,,,,,,,
,,65d6bb0e977760de756971f7,2024-02-22_06h08.12.739,kallum_motion_pilot,2023.2.2,Win32,59.88023952,65c0f98cdf650fa372206adf,65d6bb0e977760de756971f7,65d6d4d3431f118201ca1cba,0.055,0.0551,0,39,39,123,1,sixeight,,,,,,,,,,,,,,,,,,,,,,,,,,,,,,,,,,,,,,,,,,,,,,,,,,,,,,,,,,,,,,,,,,,,,,,,,,,,,,,,,,,,,,,,,,,,,,,,,,,,,,,,,,,,,,,,,,,,,,,,,,,,,,,,,,,,,,,,,
,,65d6bb0e977760de756971f7,2024-02-22_06h08.12.739,kallum_motion_pilot,2023.2.2,Win32,59.88023952,65c0f98cdf650fa372206adf,65d6bb0e977760de756971f7,65d6d4d3431f118201ca1cba,0.0552,0.0553,0,40,40,30,1,fourtwo,,,,,,,,,,,,,,,,,,,,,,,,,,,,,,,,,,,,,,,,,,,,,,,,,,,,,,,,,,,,,,,,,,,,,,,,,,,,,,,,,,,,,,,,,,,,,,,,,,,,,,,,,,,,,,,,,,,,,,,,,,,,,,,,,,,,,,,,,
,,65d6bb0e977760de756971f7,2024-02-22_06h08.12.739,kallum_motion_pilot,2023.2.2,Win32,59.88023952,65c0f98cdf650fa372206adf,65d6bb0e977760de756971f7,65d6d4d3431f118201ca1cba,0.0554,0.0554,0,41,41,146,1,sixfive,,,,,,,,,,,,,,,,,,,,,,,,,,,,,,,,,,,,,,,,,,,,,,,,,,,,,,,,,,,,,,,,,,,,,,,,,,,,,,,,,,,,,,,,,,,,,,,,,,,,,,,,,,,,,,,,,,,,,,,,,,,,,,,,,,,,,,,,,
,,65d6bb0e977760de756971f7,2024-02-22_06h08.12.739,kallum_motion_pilot,2023.2.2,Win32,59.88023952,65c0f98cdf650fa372206adf,65d6bb0e977760de756971f7,65d6d4d3431f118201ca1cba,0.0556,0.0557,0,42,42,52,1,threeone,,,,,,,,,,,,,,,,,,,,,,,,,,,,,,,,,,,,,,,,,,,,,,,,,,,,,,,,,,,,,,,,,,,,,,,,,,,,,,,,,,,,,,,,,,,,,,,,,,,,,,,,,,,,,,,,,,,,,,,,,,,,,,,,,,,,,,,,,
,,65d6bb0e977760de756971f7,2024-02-22_06h08.12.739,kallum_motion_pilot,2023.2.2,Win32,59.88023952,65c0f98cdf650fa372206adf,65d6bb0e977760de756971f7,65d6d4d3431f118201ca1cba,0.0559,0.0559,0,43,43,15,1,fourthree,,,,,,,,,,,,,,,,,,,,,,,,,,,,,,,,,,,,,,,,,,,,,,,,,,,,,,,,,,,,,,,,,,,,,,,,,,,,,,,,,,,,,,,,,,,,,,,,,,,,,,,,,,,,,,,,,,,,,,,,,,,,,,,,,,,,,,,,,
,,65d6bb0e977760de756971f7,2024-02-22_06h08.12.739,kallum_motion_pilot,2023.2.2,Win32,59.88023952,65c0f98cdf650fa372206adf,65d6bb0e977760de756971f7,65d6d4d3431f118201ca1cba,0.0561,0.0561,0,44,44,56,1,onetwo,,,,,,,,,,,,,,,,,,,,,,,,,,,,,,,,,,,,,,,,,,,,,,,,,,,,,,,,,,,,,,,,,,,,,,,,,,,,,,,,,,,,,,,,,,,,,,,,,,,,,,,,,,,,,,,,,,,,,,,,,,,,,,,,,,,,,,,,,
,,65d6bb0e977760de756971f7,2024-02-22_06h08.12.739,kallum_motion_pilot,2023.2.2,Win32,59.88023952,65c0f98cdf650fa372206adf,65d6bb0e977760de756971f7,65d6d4d3431f118201ca1cba,0.0562,0.0563,0,45,45,7,1,fourthree,,,,,,,,,,,,,,,,,,,,,,,,,,,,,,,,,,,,,,,,,,,,,,,,,,,,,,,,,,,,,,,,,,,,,,,,,,,,,,,,,,,,,,,,,,,,,,,,,,,,,,,,,,,,,,,,,,,,,,,,,,,,,,,,,,,,,,,,,
,,65d6bb0e977760de756971f7,2024-02-22_06h08.12.739,kallum_motion_pilot,2023.2.2,Win32,59.88023952,65c0f98cdf650fa372206adf,65d6bb0e977760de756971f7,65d6d4d3431f118201ca1cba,0.0565,0.0566,0,46,46,124,1,sevenfive,,,,,,,,,,,,,,,,,,,,,,,,,,,,,,,,,,,,,,,,,,,,,,,,,,,,,,,,,,,,,,,,,,,,,,,,,,,,,,,,,,,,,,,,,,,,,,,,,,,,,,,,,,,,,,,,,,,,,,,,,,,,,,,,,,,,,,,,,
,,65d6bb0e977760de756971f7,2024-02-22_06h08.12.739,kallum_motion_pilot,2023.2.2,Win32,59.88023952,65c0f98cdf650fa372206adf,65d6bb0e977760de756971f7,65d6d4d3431f118201ca1cba,0.0566,0.0568,0,47,47,133,1,seveneight,,,,,,,,,,,,,,,,,,,,,,,,,,,,,,,,,,,,,,,,,,,,,,,,,,,,,,,,,,,,,,,,,,,,,,,,,,,,,,,,,,,,,,,,,,,,,,,,,,,,,,,,,,,,,,,,,,,,,,,,,,,,,,,,,,,,,,,,,
,,65d6bb0e977760de756971f7,2024-02-22_06h08.12.739,kallum_motion_pilot,2023.2.2,Win32,59.88023952,65c0f98cdf650fa372206adf,65d6bb0e977760de756971f7,65d6d4d3431f118201ca1cba,0.0569,0.0569,0,48,48,75,1,twofour,,,,,,,,,,,,,,,,,,,,,,,,,,,,,,,,,,,,,,,,,,,,,,,,,,,,,,,,,,,,,,,,,,,,,,,,,,,,,,,,,,,,,,,,,,,,,,,,,,,,,,,,,,,,,,,,,,,,,,,,,,,,,,,,,,,,,,,,,
,,65d6bb0e977760de756971f7,2024-02-22_06h08.12.739,kallum_motion_pilot,2023.2.2,Win32,59.88023952,65c0f98cdf650fa372206adf,65d6bb0e977760de756971f7,65d6d4d3431f118201ca1cba,0.0571,0.0572,0,49,49,87,1,eightseven,,,,,,,,,,,,,,,,,,,,,,,,,,,,,,,,,,,,,,,,,,,,,,,,,,,,,,,,,,,,,,,,,,,,,,,,,,,,,,,,,,,,,,,,,,,,,,,,,,,,,,,,,,,,,,,,,,,,,,,,,,,,,,,,,,,,,,,,,
,,65d6bb0e977760de756971f7,2024-02-22_06h08.12.739,kallum_motion_pilot,2023.2.2,Win32,59.88023952,65c0f98cdf650fa372206adf,65d6bb0e977760de756971f7,65d6d4d3431f118201ca1cba,0.0574,0.0575,0,50,50,95,1,eightseven,,,,,,,,,,,,,,,,,,,,,,,,,,,,,,,,,,,,,,,,,,,,,,,,,,,,,,,,,,,,,,,,,,,,,,,,,,,,,,,,,,,,,,,,,,,,,,,,,,,,,,,,,,,,,,,,,,,,,,,,,,,,,,,,,,,,,,,,,
,,65d6bb0e977760de756971f7,2024-02-22_06h08.12.739,kallum_motion_pilot,2023.2.2,Win32,59.88023952,65c0f98cdf650fa372206adf,65d6bb0e977760de756971f7,65d6d4d3431f118201ca1cba,0.0576,0.0577,0,51,51,157,1,seveneight,,,,,,,,,,,,,,,,,,,,,,,,,,,,,,,,,,,,,,,,,,,,,,,,,,,,,,,,,,,,,,,,,,,,,,,,,,,,,,,,,,,,,,,,,,,,,,,,,,,,,,,,,,,,,,,,,,,,,,,,,,,,,,,,,,,,,,,,,
,,65d6bb0e977760de756971f7,2024-02-22_06h08.12.739,kallum_motion_pilot,2023.2.2,Win32,59.88023952,65c0f98cdf650fa372206adf,65d6bb0e977760de756971f7,65d6d4d3431f118201ca1cba,0.0579,0.0579,0,52,52,49,1,onethree,,,,,,,,,,,,,,,,,,,,,,,,,,,,,,,,,,,,,,,,,,,,,,,,,,,,,,,,,,,,,,,,,,,,,,,,,,,,,,,,,,,,,,,,,,,,,,,,,,,,,,,,,,,,,,,,,,,,,,,,,,,,,,,,,,,,,,,,,
,,65d6bb0e977760de756971f7,2024-02-22_06h08.12.739,kallum_motion_pilot,2023.2.2,Win32,59.88023952,65c0f98cdf650fa372206adf,65d6bb0e977760de756971f7,65d6d4d3431f118201ca1cba,0.0581,0.0581,0,53,53,108,1,sevenfive,,,,,,,,,,,,,,,,,,,,,,,,,,,,,,,,,,,,,,,,,,,,,,,,,,,,,,,,,,,,,,,,,,,,,,,,,,,,,,,,,,,,,,,,,,,,,,,,,,,,,,,,,,,,,,,,,,,,,,,,,,,,,,,,,,,,,,,,,
,,65d6bb0e977760de756971f7,2024-02-22_06h08.12.739,kallum_motion_pilot,2023.2.2,Win32,59.88023952,65c0f98cdf650fa372206adf,65d6bb0e977760de756971f7,65d6d4d3431f118201ca1cba,0.0583,0.0584,0,54,54,34,1,twoone,,,,,,,,,,,,,,,,,,,,,,,,,,,,,,,,,,,,,,,,,,,,,,,,,,,,,,,,,,,,,,,,,,,,,,,,,,,,,,,,,,,,,,,,,,,,,,,,,,,,,,,,,,,,,,,,,,,,,,,,,,,,,,,,,,,,,,,,,
,,65d6bb0e977760de756971f7,2024-02-22_06h08.12.739,kallum_motion_pilot,2023.2.2,Win32,59.88023952,65c0f98cdf650fa372206adf,65d6bb0e977760de756971f7,65d6d4d3431f118201ca1cba,0.0585,0.0586,0,55,55,84,1,sevenfive,,,,,,,,,,,,,,,,,,,,,,,,,,,,,,,,,,,,,,,,,,,,,,,,,,,,,,,,,,,,,,,,,,,,,,,,,,,,,,,,,,,,,,,,,,,,,,,,,,,,,,,,,,,,,,,,,,,,,,,,,,,,,,,,,,,,,,,,,
,,65d6bb0e977760de756971f7,2024-02-22_06h08.12.739,kallum_motion_pilot,2023.2.2,Win32,59.88023952,65c0f98cdf650fa372206adf,65d6bb0e977760de756971f7,65d6d4d3431f118201ca1cba,0.0587,0.0588,0,56,56,73,1,onethree,,,,,,,,,,,,,,,,,,,,,,,,,,,,,,,,,,,,,,,,,,,,,,,,,,,,,,,,,,,,,,,,,,,,,,,,,,,,,,,,,,,,,,,,,,,,,,,,,,,,,,,,,,,,,,,,,,,,,,,,,,,,,,,,,,,,,,,,,
,,65d6bb0e977760de756971f7,2024-02-22_06h08.12.739,kallum_motion_pilot,2023.2.2,Win32,59.88023952,65c0f98cdf650fa372206adf,65d6bb0e977760de756971f7,65d6d4d3431f118201ca1cba,0.059,0.059,0,57,57,159,1,eightseven,,,,,,,,,,,,,,,,,,,,,,,,,,,,,,,,,,,,,,,,,,,,,,,,,,,,,,,,,,,,,,,,,,,,,,,,,,,,,,,,,,,,,,,,,,,,,,,,,,,,,,,,,,,,,,,,,,,,,,,,,,,,,,,,,,,,,,,,,
,,65d6bb0e977760de756971f7,2024-02-22_06h08.12.739,kallum_motion_pilot,2023.2.2,Win32,59.88023952,65c0f98cdf650fa372206adf,65d6bb0e977760de756971f7,65d6d4d3431f118201ca1cba,0.0593,0.0593,0,58,58,151,1,eightseven,,,,,,,,,,,,,,,,,,,,,,,,,,,,,,,,,,,,,,,,,,,,,,,,,,,,,,,,,,,,,,,,,,,,,,,,,,,,,,,,,,,,,,,,,,,,,,,,,,,,,,,,,,,,,,,,,,,,,,,,,,,,,,,,,,,,,,,,,
,,65d6bb0e977760de756971f7,2024-02-22_06h08.12.739,kallum_motion_pilot,2023.2.2,Win32,59.88023952,65c0f98cdf650fa372206adf,65d6bb0e977760de756971f7,65d6d4d3431f118201ca1cba,0.0596,0.0596,0,59,59,47,1,fourthree,,,,,,,,,,,,,,,,,,,,,,,,,,,,,,,,,,,,,,,,,,,,,,,,,,,,,,,,,,,,,,,,,,,,,,,,,,,,,,,,,,,,,,,,,,,,,,,,,,,,,,,,,,,,,,,,,,,,,,,,,,,,,,,,,,,,,,,,,
,,65d6bb0e977760de756971f7,2024-02-22_06h08.12.739,kallum_motion_pilot,2023.2.2,Win32,59.88023952,65c0f98cdf650fa372206adf,65d6bb0e977760de756971f7,65d6d4d3431f118201ca1cba,0.0598,0.0599,0,60,60,127,1,eightseven,,,,,,,,,,,,,,,,,,,,,,,,,,,,,,,,,,,,,,,,,,,,,,,,,,,,,,,,,,,,,,,,,,,,,,,,,,,,,,,,,,,,,,,,,,,,,,,,,,,,,,,,,,,,,,,,,,,,,,,,,,,,,,,,,,,,,,,,,
,,65d6bb0e977760de756971f7,2024-02-22_06h08.12.739,kallum_motion_pilot,2023.2.2,Win32,59.88023952,65c0f98cdf650fa372206adf,65d6bb0e977760de756971f7,65d6d4d3431f118201ca1cba,0.0601,0.0601,0,61,61,66,1,twoone,,,,,,,,,,,,,,,,,,,,,,,,,,,,,,,,,,,,,,,,,,,,,,,,,,,,,,,,,,,,,,,,,,,,,,,,,,,,,,,,,,,,,,,,,,,,,,,,,,,,,,,,,,,,,,,,,,,,,,,,,,,,,,,,,,,,,,,,,
,,65d6bb0e977760de756971f7,2024-02-22_06h08.12.739,kallum_motion_pilot,2023.2.2,Win32,59.88023952,65c0f98cdf650fa372206adf,65d6bb0e977760de756971f7,65d6d4d3431f118201ca1cba,0.0603,0.0604,0,62,62,142,1,eightsix,,,,,,,,,,,,,,,,,,,,,,,,,,,,,,,,,,,,,,,,,,,,,,,,,,,,,,,,,,,,,,,,,,,,,,,,,,,,,,,,,,,,,,,,,,,,,,,,,,,,,,,,,,,,,,,,,,,,,,,,,,,,,,,,,,,,,,,,,
,,65d6bb0e977760de756971f7,2024-02-22_06h08.12.739,kallum_motion_pilot,2023.2.2,Win32,59.88023952,65c0f98cdf650fa372206adf,65d6bb0e977760de756971f7,65d6d4d3431f118201ca1cba,0.0607,0.0607,0,63,63,65,1,onethree,,,,,,,,,,,,,,,,,,,,,,,,,,,,,,,,,,,,,,,,,,,,,,,,,,,,,,,,,,,,,,,,,,,,,,,,,,,,,,,,,,,,,,,,,,,,,,,,,,,,,,,,,,,,,,,,,,,,,,,,,,,,,,,,,,,,,,,,,
,,65d6bb0e977760de756971f7,2024-02-22_06h08.12.739,kallum_motion_pilot,2023.2.2,Win32,59.88023952,65c0f98cdf650fa372206adf,65d6bb0e977760de756971f7,65d6d4d3431f118201ca1cba,0.0609,0.061,0,64,64,62,1,fourtwo,,,,,,,,,,,,,,,,,,,,,,,,,,,,,,,,,,,,,,,,,,,,,,,,,,,,,,,,,,,,,,,,,,,,,,,,,,,,,,,,,,,,,,,,,,,,,,,,,,,,,,,,,,,,,,,,,,,,,,,,,,,,,,,,,,,,,,,,,
,,65d6bb0e977760de756971f7,2024-02-22_06h08.12.739,kallum_motion_pilot,2023.2.2,Win32,59.88023952,65c0f98cdf650fa372206adf,65d6bb0e977760de756971f7,65d6d4d3431f118201ca1cba,0.0613,0.0613,0,65,65,72,1,onetwo,,,,,,,,,,,,,,,,,,,,,,,,,,,,,,,,,,,,,,,,,,,,,,,,,,,,,,,,,,,,,,,,,,,,,,,,,,,,,,,,,,,,,,,,,,,,,,,,,,,,,,,,,,,,,,,,,,,,,,,,,,,,,,,,,,,,,,,,,
,,65d6bb0e977760de756971f7,2024-02-22_06h08.12.739,kallum_motion_pilot,2023.2.2,Win32,59.88023952,65c0f98cdf650fa372206adf,65d6bb0e977760de756971f7,65d6d4d3431f118201ca1cba,0.0615,0.0616,0,66,66,122,1,sixfive,,,,,,,,,,,,,,,,,,,,,,,,,,,,,,,,,,,,,,,,,,,,,,,,,,,,,,,,,,,,,,,,,,,,,,,,,,,,,,,,,,,,,,,,,,,,,,,,,,,,,,,,,,,,,,,,,,,,,,,,,,,,,,,,,,,,,,,,,
,,65d6bb0e977760de756971f7,2024-02-22_06h08.12.739,kallum_motion_pilot,2023.2.2,Win32,59.88023952,65c0f98cdf650fa372206adf,65d6bb0e977760de756971f7,65d6d4d3431f118201ca1cba,0.0617,0.0618,0,67,67,5,1,threefour,,,,,,,,,,,,,,,,,,,,,,,,,,,,,,,,,,,,,,,,,,,,,,,,,,,,,,,,,,,,,,,,,,,,,,,,,,,,,,,,,,,,,,,,,,,,,,,,,,,,,,,,,,,,,,,,,,,,,,,,,,,,,,,,,,,,,,,,,
,,65d6bb0e977760de756971f7,2024-02-22_06h08.12.739,kallum_motion_pilot,2023.2.2,Win32,59.88023952,65c0f98cdf650fa372206adf,65d6bb0e977760de756971f7,65d6d4d3431f118201ca1cba,0.0619,0.062,0,68,68,60,1,threeone,,,,,,,,,,,,,,,,,,,,,,,,,,,,,,,,,,,,,,,,,,,,,,,,,,,,,,,,,,,,,,,,,,,,,,,,,,,,,,,,,,,,,,,,,,,,,,,,,,,,,,,,,,,,,,,,,,,,,,,,,,,,,,,,,,,,,,,,,
,,65d6bb0e977760de756971f7,2024-02-22_06h08.12.739,kallum_motion_pilot,2023.2.2,Win32,59.88023952,65c0f98cdf650fa372206adf,65d6bb0e977760de756971f7,65d6d4d3431f118201ca1cba,0.0622,0.0622,0,69,69,153,1,fiveseven,,,,,,,,,,,,,,,,,,,,,,,,,,,,,,,,,,,,,,,,,,,,,,,,,,,,,,,,,,,,,,,,,,,,,,,,,,,,,,,,,,,,,,,,,,,,,,,,,,,,,,,,,,,,,,,,,,,,,,,,,,,,,,,,,,,,,,,,,
,,65d6bb0e977760de756971f7,2024-02-22_06h08.12.739,kallum_motion_pilot,2023.2.2,Win32,59.88023952,65c0f98cdf650fa372206adf,65d6bb0e977760de756971f7,65d6d4d3431f118201ca1cba,0.0624,0.0625,0,70,70,137,1,fiveseven,,,,,,,,,,,,,,,,,,,,,,,,,,,,,,,,,,,,,,,,,,,,,,,,,,,,,,,,,,,,,,,,,,,,,,,,,,,,,,,,,,,,,,,,,,,,,,,,,,,,,,,,,,,,,,,,,,,,,,,,,,,,,,,,,,,,,,,,,
,,65d6bb0e977760de756971f7,2024-02-22_06h08.12.739,kallum_motion_pilot,2023.2.2,Win32,59.88023952,65c0f98cdf650fa372206adf,65d6bb0e977760de756971f7,65d6d4d3431f118201ca1cba,0.0627,0.0628,0,71,71,103,1,eightseven,,,,,,,,,,,,,,,,,,,,,,,,,,,,,,,,,,,,,,,,,,,,,,,,,,,,,,,,,,,,,,,,,,,,,,,,,,,,,,,,,,,,,,,,,,,,,,,,,,,,,,,,,,,,,,,,,,,,,,,,,,,,,,,,,,,,,,,,,
,,65d6bb0e977760de756971f7,2024-02-22_06h08.12.739,kallum_motion_pilot,2023.2.2,Win32,59.88023952,65c0f98cdf650fa372206adf,65d6bb0e977760de756971f7,65d6d4d3431f118201ca1cba,0.063,0.0631,0,72,72,129,1,fiveseven,,,,,,,,,,,,,,,,,,,,,,,,,,,,,,,,,,,,,,,,,,,,,,,,,,,,,,,,,,,,,,,,,,,,,,,,,,,,,,,,,,,,,,,,,,,,,,,,,,,,,,,,,,,,,,,,,,,,,,,,,,,,,,,,,,,,,,,,,
,,65d6bb0e977760de756971f7,2024-02-22_06h08.12.739,kallum_motion_pilot,2023.2.2,Win32,59.88023952,65c0f98cdf650fa372206adf,65d6bb0e977760de756971f7,65d6d4d3431f118201ca1cba,0.0633,0.0634,0,73,73,69,1,threefour,,,,,,,,,,,,,,,,,,,,,,,,,,,,,,,,,,,,,,,,,,,,,,,,,,,,,,,,,,,,,,,,,,,,,,,,,,,,,,,,,,,,,,,,,,,,,,,,,,,,,,,,,,,,,,,,,,,,,,,,,,,,,,,,,,,,,,,,,
,,65d6bb0e977760de756971f7,2024-02-22_06h08.12.739,kallum_motion_pilot,2023.2.2,Win32,59.88023952,65c0f98cdf650fa372206adf,65d6bb0e977760de756971f7,65d6d4d3431f118201ca1cba,0.0636,0.0637,0,74,74,156,1,sevenfive,,,,,,,,,,,,,,,,,,,,,,,,,,,,,,,,,,,,,,,,,,,,,,,,,,,,,,,,,,,,,,,,,,,,,,,,,,,,,,,,,,,,,,,,,,,,,,,,,,,,,,,,,,,,,,,,,,,,,,,,,,,,,,,,,,,,,,,,,
,,65d6bb0e977760de756971f7,2024-02-22_06h08.12.739,kallum_motion_pilot,2023.2.2,Win32,59.88023952,65c0f98cdf650fa372206adf,65d6bb0e977760de756971f7,65d6d4d3431f118201ca1cba,0.0639,0.064,0,75,75,144,1,fivesix,,,,,,,,,,,,,,,,,,,,,,,,,,,,,,,,,,,,,,,,,,,,,,,,,,,,,,,,,,,,,,,,,,,,,,,,,,,,,,,,,,,,,,,,,,,,,,,,,,,,,,,,,,,,,,,,,,,,,,,,,,,,,,,,,,,,,,,,,
,,65d6bb0e977760de756971f7,2024-02-22_06h08.12.739,kallum_motion_pilot,2023.2.2,Win32,59.88023952,65c0f98cdf650fa372206adf,65d6bb0e977760de756971f7,65d6d4d3431f118201ca1cba,0.0642,0.0643,0,76,76,53,1,threefour,,,,,,,,,,,,,,,,,,,,,,,,,,,,,,,,,,,,,,,,,,,,,,,,,,,,,,,,,,,,,,,,,,,,,,,,,,,,,,,,,,,,,,,,,,,,,,,,,,,,,,,,,,,,,,,,,,,,,,,,,,,,,,,,,,,,,,,,,
,,65d6bb0e977760de756971f7,2024-02-22_06h08.12.739,kallum_motion_pilot,2023.2.2,Win32,59.88023952,65c0f98cdf650fa372206adf,65d6bb0e977760de756971f7,65d6d4d3431f118201ca1cba,0.0644,0.0645,0,77,77,98,1,sixfive,,,,,,,,,,,,,,,,,,,,,,,,,,,,,,,,,,,,,,,,,,,,,,,,,,,,,,,,,,,,,,,,,,,,,,,,,,,,,,,,,,,,,,,,,,,,,,,,,,,,,,,,,,,,,,,,,,,,,,,,,,,,,,,,,,,,,,,,,
,,65d6bb0e977760de756971f7,2024-02-22_06h08.12.739,kallum_motion_pilot,2023.2.2,Win32,59.88023952,65c0f98cdf650fa372206adf,65d6bb0e977760de756971f7,65d6d4d3431f118201ca1cba,0.0647,0.0648,0,78,78,21,1,threefour,,,,,,,,,,,,,,,,,,,,,,,,,,,,,,,,,,,,,,,,,,,,,,,,,,,,,,,,,,,,,,,,,,,,,,,,,,,,,,,,,,,,,,,,,,,,,,,,,,,,,,,,,,,,,,,,,,,,,,,,,,,,,,,,,,,,,,,,,
,,65d6bb0e977760de756971f7,2024-02-22_06h08.12.739,kallum_motion_pilot,2023.2.2,Win32,59.88023952,65c0f98cdf650fa372206adf,65d6bb0e977760de756971f7,65d6d4d3431f118201ca1cba,0.0649,0.065,0,79,79,19,1,twofour,,,,,,,,,,,,,,,,,,,,,,,,,,,,,,,,,,,,,,,,,,,,,,,,,,,,,,,,,,,,,,,,,,,,,,,,,,,,,,,,,,,,,,,,,,,,,,,,,,,,,,,,,,,,,,,,,,,,,,,,,,,,,,,,,,,,,,,,,
,,65d6bb0e977760de756971f7,2024-02-22_06h08.12.739,kallum_motion_pilot,2023.2.2,Win32,59.88023952,65c0f98cdf650fa372206adf,65d6bb0e977760de756971f7,65d6d4d3431f118201ca1cba,0.0651,0.0651,0,80,80,16,1,onetwo,,,,,,,,,,,,,,,,,,,,,,,,,,,,,,,,,,,,,,,,,,,,,,,,,,,,,,,,,,,,,,,,,,,,,,,,,,,,,,,,,,,,,,,,,,,,,,,,,,,,,,,,,,,,,,,,,,,,,,,,,,,,,,,,,,,,,,,,,
,,65d6bb0e977760de756971f7,2024-02-22_06h08.12.739,kallum_motion_pilot,2023.2.2,Win32,59.88023952,65c0f98cdf650fa372206adf,65d6bb0e977760de756971f7,65d6d4d3431f118201ca1cba,0.0652,0.0653,0,81,81,31,1,fourthree,,,,,,,,,,,,,,,,,,,,,,,,,,,,,,,,,,,,,,,,,,,,,,,,,,,,,,,,,,,,,,,,,,,,,,,,,,,,,,,,,,,,,,,,,,,,,,,,,,,,,,,,,,,,,,,,,,,,,,,,,,,,,,,,,,,,,,,,,
,,65d6bb0e977760de756971f7,2024-02-22_06h08.12.739,kallum_motion_pilot,2023.2.2,Win32,59.88023952,65c0f98cdf650fa372206adf,65d6bb0e977760de756971f7,65d6d4d3431f118201ca1cba,0.0655,0.0655,0,82,82,18,1,twoone,,,,,,,,,,,,,,,,,,,,,,,,,,,,,,,,,,,,,,,,,,,,,,,,,,,,,,,,,,,,,,,,,,,,,,,,,,,,,,,,,,,,,,,,,,,,,,,,,,,,,,,,,,,,,,,,,,,,,,,,,,,,,,,,,,,,,,,,,
,,65d6bb0e977760de756971f7,2024-02-22_06h08.12.739,kallum_motion_pilot,2023.2.2,Win32,59.88023952,65c0f98cdf650fa372206adf,65d6bb0e977760de756971f7,65d6d4d3431f118201ca1cba,0.0656,0.0657,0,83,83,150,1,eightsix,,,,,,,,,,,,,,,,,,,,,,,,,,,,,,,,,,,,,,,,,,,,,,,,,,,,,,,,,,,,,,,,,,,,,,,,,,,,,,,,,,,,,,,,,,,,,,,,,,,,,,,,,,,,,,,,,,,,,,,,,,,,,,,,,,,,,,,,,
,,65d6bb0e977760de756971f7,2024-02-22_06h08.12.739,kallum_motion_pilot,2023.2.2,Win32,59.88023952,65c0f98cdf650fa372206adf,65d6bb0e977760de756971f7,65d6d4d3431f118201ca1cba,0.0659,0.066,0,84,84,89,1,fiveseven,,,,,,,,,,,,,,,,,,,,,,,,,,,,,,,,,,,,,,,,,,,,,,,,,,,,,,,,,,,,,,,,,,,,,,,,,,,,,,,,,,,,,,,,,,,,,,,,,,,,,,,,,,,,,,,,,,,,,,,,,,,,,,,,,,,,,,,,,
,,65d6bb0e977760de756971f7,2024-02-22_06h08.12.739,kallum_motion_pilot,2023.2.2,Win32,59.88023952,65c0f98cdf650fa372206adf,65d6bb0e977760de756971f7,65d6d4d3431f118201ca1cba,0.0661,0.0662,0,85,85,99,1,sixeight,,,,,,,,,,,,,,,,,,,,,,,,,,,,,,,,,,,,,,,,,,,,,,,,,,,,,,,,,,,,,,,,,,,,,,,,,,,,,,,,,,,,,,,,,,,,,,,,,,,,,,,,,,,,,,,,,,,,,,,,,,,,,,,,,,,,,,,,,
,,65d6bb0e977760de756971f7,2024-02-22_06h08.12.739,kallum_motion_pilot,2023.2.2,Win32,59.88023952,65c0f98cdf650fa372206adf,65d6bb0e977760de756971f7,65d6d4d3431f118201ca1cba,0.0663,0.0665,0,86,86,117,1,seveneight,,,,,,,,,,,,,,,,,,,,,,,,,,,,,,,,,,,,,,,,,,,,,,,,,,,,,,,,,,,,,,,,,,,,,,,,,,,,,,,,,,,,,,,,,,,,,,,,,,,,,,,,,,,,,,,,,,,,,,,,,,,,,,,,,,,,,,,,,
,,65d6bb0e977760de756971f7,2024-02-22_06h08.12.739,kallum_motion_pilot,2023.2.2,Win32,59.88023952,65c0f98cdf650fa372206adf,65d6bb0e977760de756971f7,65d6d4d3431f118201ca1cba,0.0666,0.0667,0,87,87,81,1,fiveseven,,,,,,,,,,,,,,,,,,,,,,,,,,,,,,,,,,,,,,,,,,,,,,,,,,,,,,,,,,,,,,,,,,,,,,,,,,,,,,,,,,,,,,,,,,,,,,,,,,,,,,,,,,,,,,,,,,,,,,,,,,,,,,,,,,,,,,,,,
,,65d6bb0e977760de756971f7,2024-02-22_06h08.12.739,kallum_motion_pilot,2023.2.2,Win32,59.88023952,65c0f98cdf650fa372206adf,65d6bb0e977760de756971f7,65d6d4d3431f118201ca1cba,0.0668,0.0668,0,88,88,86,1,eightsix,,,,,,,,,,,,,,,,,,,,,,,,,,,,,,,,,,,,,,,,,,,,,,,,,,,,,,,,,,,,,,,,,,,,,,,,,,,,,,,,,,,,,,,,,,,,,,,,,,,,,,,,,,,,,,,,,,,,,,,,,,,,,,,,,,,,,,,,,
,,65d6bb0e977760de756971f7,2024-02-22_06h08.12.739,kallum_motion_pilot,2023.2.2,Win32,59.88023952,65c0f98cdf650fa372206adf,65d6bb0e977760de756971f7,65d6d4d3431f118201ca1cba,0.067,0.0671,0,89,89,55,1,fourthree,,,,,,,,,,,,,,,,,,,,,,,,,,,,,,,,,,,,,,,,,,,,,,,,,,,,,,,,,,,,,,,,,,,,,,,,,,,,,,,,,,,,,,,,,,,,,,,,,,,,,,,,,,,,,,,,,,,,,,,,,,,,,,,,,,,,,,,,,
,,65d6bb0e977760de756971f7,2024-02-22_06h08.12.739,kallum_motion_pilot,2023.2.2,Win32,59.88023952,65c0f98cdf650fa372206adf,65d6bb0e977760de756971f7,65d6d4d3431f118201ca1cba,0.0672,0.0673,0,90,90,59,1,twofour,,,,,,,,,,,,,,,,,,,,,,,,,,,,,,,,,,,,,,,,,,,,,,,,,,,,,,,,,,,,,,,,,,,,,,,,,,,,,,,,,,,,,,,,,,,,,,,,,,,,,,,,,,,,,,,,,,,,,,,,,,,,,,,,,,,,,,,,,
,,65d6bb0e977760de756971f7,2024-02-22_06h08.12.739,kallum_motion_pilot,2023.2.2,Win32,59.88023952,65c0f98cdf650fa372206adf,65d6bb0e977760de756971f7,65d6d4d3431f118201ca1cba,0.0674,0.0675,0,91,91,20,1,threeone,,,,,,,,,,,,,,,,,,,,,,,,,,,,,,,,,,,,,,,,,,,,,,,,,,,,,,,,,,,,,,,,,,,,,,,,,,,,,,,,,,,,,,,,,,,,,,,,,,,,,,,,,,,,,,,,,,,,,,,,,,,,,,,,,,,,,,,,,
,,65d6bb0e977760de756971f7,2024-02-22_06h08.12.739,kallum_motion_pilot,2023.2.2,Win32,59.88023952,65c0f98cdf650fa372206adf,65d6bb0e977760de756971f7,65d6d4d3431f118201ca1cba,0.0677,0.0677,0,92,92,107,1,sixeight,,,,,,,,,,,,,,,,,,,,,,,,,,,,,,,,,,,,,,,,,,,,,,,,,,,,,,,,,,,,,,,,,,,,,,,,,,,,,,,,,,,,,,,,,,,,,,,,,,,,,,,,,,,,,,,,,,,,,,,,,,,,,,,,,,,,,,,,,
,,65d6bb0e977760de756971f7,2024-02-22_06h08.12.739,kallum_motion_pilot,2023.2.2,Win32,59.88023952,65c0f98cdf650fa372206adf,65d6bb0e977760de756971f7,65d6d4d3431f118201ca1cba,0.0679,0.0679,0,93,93,130,1,sixfive,,,,,,,,,,,,,,,,,,,,,,,,,,,,,,,,,,,,,,,,,,,,,,,,,,,,,,,,,,,,,,,,,,,,,,,,,,,,,,,,,,,,,,,,,,,,,,,,,,,,,,,,,,,,,,,,,,,,,,,,,,,,,,,,,,,,,,,,,
,,65d6bb0e977760de756971f7,2024-02-22_06h08.12.739,kallum_motion_pilot,2023.2.2,Win32,59.88023952,65c0f98cdf650fa372206adf,65d6bb0e977760de756971f7,65d6d4d3431f118201ca1cba,0.0682,0.0683,0,94,94,135,1,eightseven,,,,,,,,,,,,,,,,,,,,,,,,,,,,,,,,,,,,,,,,,,,,,,,,,,,,,,,,,,,,,,,,,,,,,,,,,,,,,,,,,,,,,,,,,,,,,,,,,,,,,,,,,,,,,,,,,,,,,,,,,,,,,,,,,,,,,,,,,
,,65d6bb0e977760de756971f7,2024-02-22_06h08.12.739,kallum_motion_pilot,2023.2.2,Win32,59.88023952,65c0f98cdf650fa372206adf,65d6bb0e977760de756971f7,65d6d4d3431f118201ca1cba,0.0683,0.0685,0,95,95,118,1,eightsix,,,,,,,,,,,,,,,,,,,,,,,,,,,,,,,,,,,,,,,,,,,,,,,,,,,,,,,,,,,,,,,,,,,,,,,,,,,,,,,,,,,,,,,,,,,,,,,,,,,,,,,,,,,,,,,,,,,,,,,,,,,,,,,,,,,,,,,,,
,,65d6bb0e977760de756971f7,2024-02-22_06h08.12.739,kallum_motion_pilot,2023.2.2,Win32,59.88023952,65c0f98cdf650fa372206adf,65d6bb0e977760de756971f7,65d6d4d3431f118201ca1cba,0.0686,0.0687,0,96,96,134,1,eightsix,,,,,,,,,,,,,,,,,,,,,,,,,,,,,,,,,,,,,,,,,,,,,,,,,,,,,,,,,,,,,,,,,,,,,,,,,,,,,,,,,,,,,,,,,,,,,,,,,,,,,,,,,,,,,,,,,,,,,,,,,,,,,,,,,,,,,,,,,
,,65d6bb0e977760de756971f7,2024-02-22_06h08.12.739,kallum_motion_pilot,2023.2.2,Win32,59.88023952,65c0f98cdf650fa372206adf,65d6bb0e977760de756971f7,65d6d4d3431f118201ca1cba,0.069,0.0691,0,97,97,4,1,threeone,,,,,,,,,,,,,,,,,,,,,,,,,,,,,,,,,,,,,,,,,,,,,,,,,,,,,,,,,,,,,,,,,,,,,,,,,,,,,,,,,,,,,,,,,,,,,,,,,,,,,,,,,,,,,,,,,,,,,,,,,,,,,,,,,,,,,,,,,
,,65d6bb0e977760de756971f7,2024-02-22_06h08.12.739,kallum_motion_pilot,2023.2.2,Win32,59.88023952,65c0f98cdf650fa372206adf,65d6bb0e977760de756971f7,65d6d4d3431f118201ca1cba,0.0694,0.0695,0,98,98,105,1,fiveseven,,,,,,,,,,,,,,,,,,,,,,,,,,,,,,,,,,,,,,,,,,,,,,,,,,,,,,,,,,,,,,,,,,,,,,,,,,,,,,,,,,,,,,,,,,,,,,,,,,,,,,,,,,,,,,,,,,,,,,,,,,,,,,,,,,,,,,,,,
,,65d6bb0e977760de756971f7,2024-02-22_06h08.12.739,kallum_motion_pilot,2023.2.2,Win32,59.88023952,65c0f98cdf650fa372206adf,65d6bb0e977760de756971f7,65d6d4d3431f118201ca1cba,0.0698,0.0699,0,99,99,149,1,seveneight,,,,,,,,,,,,,,,,,,,,,,,,,,,,,,,,,,,,,,,,,,,,,,,,,,,,,,,,,,,,,,,,,,,,,,,,,,,,,,,,,,,,,,,,,,,,,,,,,,,,,,,,,,,,,,,,,,,,,,,,,,,,,,,,,,,,,,,,,
,,65d6bb0e977760de756971f7,2024-02-22_06h08.12.739,kallum_motion_pilot,2023.2.2,Win32,59.88023952,65c0f98cdf650fa372206adf,65d6bb0e977760de756971f7,65d6d4d3431f118201ca1cba,0.0704,0.0705,0,100,100,44,1,threeone,,,,,,,,,,,,,,,,,,,,,,,,,,,,,,,,,,,,,,,,,,,,,,,,,,,,,,,,,,,,,,,,,,,,,,,,,,,,,,,,,,,,,,,,,,,,,,,,,,,,,,,,,,,,,,,,,,,,,,,,,,,,,,,,,,,,,,,,,
,,65d6bb0e977760de756971f7,2024-02-22_06h08.12.739,kallum_motion_pilot,2023.2.2,Win32,59.88023952,65c0f98cdf650fa372206adf,65d6bb0e977760de756971f7,65d6d4d3431f118201ca1cba,0.0708,0.0708,0,101,101,115,1,sixeight,,,,,,,,,,,,,,,,,,,,,,,,,,,,,,,,,,,,,,,,,,,,,,,,,,,,,,,,,,,,,,,,,,,,,,,,,,,,,,,,,,,,,,,,,,,,,,,,,,,,,,,,,,,,,,,,,,,,,,,,,,,,,,,,,,,,,,,,,
,,65d6bb0e977760de756971f7,2024-02-22_06h08.12.739,kallum_motion_pilot,2023.2.2,Win32,59.88023952,65c0f98cdf650fa372206adf,65d6bb0e977760de756971f7,65d6d4d3431f118201ca1cba,0.071,0.0712,0,102,102,145,1,fiveseven,,,,,,,,,,,,,,,,,,,,,,,,,,,,,,,,,,,,,,,,,,,,,,,,,,,,,,,,,,,,,,,,,,,,,,,,,,,,,,,,,,,,,,,,,,,,,,,,,,,,,,,,,,,,,,,,,,,,,,,,,,,,,,,,,,,,,,,,,
,,65d6bb0e977760de756971f7,2024-02-22_06h08.12.739,kallum_motion_pilot,2023.2.2,Win32,59.88023952,65c0f98cdf650fa372206adf,65d6bb0e977760de756971f7,65d6d4d3431f118201ca1cba,0.0723,0.0723,0,103,103,79,1,eightseven,,,,,,,,,,,,,,,,,,,,,,,,,,,,,,,,,,,,,,,,,,,,,,,,,,,,,,,,,,,,,,,,,,,,,,,,,,,,,,,,,,,,,,,,,,,,,,,,,,,,,,,,,,,,,,,,,,,,,,,,,,,,,,,,,,,,,,,,,
,,65d6bb0e977760de756971f7,2024-02-22_06h08.12.739,kallum_motion_pilot,2023.2.2,Win32,59.88023952,65c0f98cdf650fa372206adf,65d6bb0e977760de756971f7,65d6d4d3431f118201ca1cba,0.0725,0.0727,0,104,104,17,1,onethree,,,,,,,,,,,,,,,,,,,,,,,,,,,,,,,,,,,,,,,,,,,,,,,,,,,,,,,,,,,,,,,,,,,,,,,,,,,,,,,,,,,,,,,,,,,,,,,,,,,,,,,,,,,,,,,,,,,,,,,,,,,,,,,,,,,,,,,,,
,,65d6bb0e977760de756971f7,2024-02-22_06h08.12.739,kallum_motion_pilot,2023.2.2,Win32,59.88023952,65c0f98cdf650fa372206adf,65d6bb0e977760de756971f7,65d6d4d3431f118201ca1cba,0.0728,0.0728,0,105,105,111,1,eightseven,,,,,,,,,,,,,,,,,,,,,,,,,,,,,,,,,,,,,,,,,,,,,,,,,,,,,,,,,,,,,,,,,,,,,,,,,,,,,,,,,,,,,,,,,,,,,,,,,,,,,,,,,,,,,,,,,,,,,,,,,,,,,,,,,,,,,,,,,
,,65d6bb0e977760de756971f7,2024-02-22_06h08.12.739,kallum_motion_pilot,2023.2.2,Win32,59.88023952,65c0f98cdf650fa372206adf,65d6bb0e977760de756971f7,65d6d4d3431f118201ca1cba,0.0731,0.0731,0,106,106,102,1,eightsix,,,,,,,,,,,,,,,,,,,,,,,,,,,,,,,,,,,,,,,,,,,,,,,,,,,,,,,,,,,,,,,,,,,,,,,,,,,,,,,,,,,,,,,,,,,,,,,,,,,,,,,,,,,,,,,,,,,,,,,,,,,,,,,,,,,,,,,,,
,,65d6bb0e977760de756971f7,2024-02-22_06h08.12.739,kallum_motion_pilot,2023.2.2,Win32,59.88023952,65c0f98cdf650fa372206adf,65d6bb0e977760de756971f7,65d6d4d3431f118201ca1cba,0.0732,0.0732,0,107,107,23,1,fourthree,,,,,,,,,,,,,,,,,,,,,,,,,,,,,,,,,,,,,,,,,,,,,,,,,,,,,,,,,,,,,,,,,,,,,,,,,,,,,,,,,,,,,,,,,,,,,,,,,,,,,,,,,,,,,,,,,,,,,,,,,,,,,,,,,,,,,,,,,
,,65d6bb0e977760de756971f7,2024-02-22_06h08.12.739,kallum_motion_pilot,2023.2.2,Win32,59.88023952,65c0f98cdf650fa372206adf,65d6bb0e977760de756971f7,65d6d4d3431f118201ca1cba,0.0734,0.0735,0,108,108,101,1,seveneight,,,,,,,,,,,,,,,,,,,,,,,,,,,,,,,,,,,,,,,,,,,,,,,,,,,,,,,,,,,,,,,,,,,,,,,,,,,,,,,,,,,,,,,,,,,,,,,,,,,,,,,,,,,,,,,,,,,,,,,,,,,,,,,,,,,,,,,,,
,,65d6bb0e977760de756971f7,2024-02-22_06h08.12.739,kallum_motion_pilot,2023.2.2,Win32,59.88023952,65c0f98cdf650fa372206adf,65d6bb0e977760de756971f7,65d6d4d3431f118201ca1cba,0.0736,0.0737,0,109,109,71,1,fourthree,,,,,,,,,,,,,,,,,,,,,,,,,,,,,,,,,,,,,,,,,,,,,,,,,,,,,,,,,,,,,,,,,,,,,,,,,,,,,,,,,,,,,,,,,,,,,,,,,,,,,,,,,,,,,,,,,,,,,,,,,,,,,,,,,,,,,,,,,
,,65d6bb0e977760de756971f7,2024-02-22_06h08.12.739,kallum_motion_pilot,2023.2.2,Win32,59.88023952,65c0f98cdf650fa372206adf,65d6bb0e977760de756971f7,65d6d4d3431f118201ca1cba,0.0738,0.0738,0,110,110,39,1,fourthree,,,,,,,,,,,,,,,,,,,,,,,,,,,,,,,,,,,,,,,,,,,,,,,,,,,,,,,,,,,,,,,,,,,,,,,,,,,,,,,,,,,,,,,,,,,,,,,,,,,,,,,,,,,,,,,,,,,,,,,,,,,,,,,,,,,,,,,,,
,,65d6bb0e977760de756971f7,2024-02-22_06h08.12.739,kallum_motion_pilot,2023.2.2,Win32,59.88023952,65c0f98cdf650fa372206adf,65d6bb0e977760de756971f7,65d6d4d3431f118201ca1cba,0.074,0.074,0,111,111,76,1,threeone,,,,,,,,,,,,,,,,,,,,,,,,,,,,,,,,,,,,,,,,,,,,,,,,,,,,,,,,,,,,,,,,,,,,,,,,,,,,,,,,,,,,,,,,,,,,,,,,,,,,,,,,,,,,,,,,,,,,,,,,,,,,,,,,,,,,,,,,,
,,65d6bb0e977760de756971f7,2024-02-22_06h08.12.739,kallum_motion_pilot,2023.2.2,Win32,59.88023952,65c0f98cdf650fa372206adf,65d6bb0e977760de756971f7,65d6d4d3431f118201ca1cba,0.0742,0.0743,0,112,112,91,1,sixeight,,,,,,,,,,,,,,,,,,,,,,,,,,,,,,,,,,,,,,,,,,,,,,,,,,,,,,,,,,,,,,,,,,,,,,,,,,,,,,,,,,,,,,,,,,,,,,,,,,,,,,,,,,,,,,,,,,,,,,,,,,,,,,,,,,,,,,,,,
,,65d6bb0e977760de756971f7,2024-02-22_06h08.12.739,kallum_motion_pilot,2023.2.2,Win32,59.88023952,65c0f98cdf650fa372206adf,65d6bb0e977760de756971f7,65d6d4d3431f118201ca1cba,0.0743,0.0745,0,113,113,128,1,fivesix,,,,,,,,,,,,,,,,,,,,,,,,,,,,,,,,,,,,,,,,,,,,,,,,,,,,,,,,,,,,,,,,,,,,,,,,,,,,,,,,,,,,,,,,,,,,,,,,,,,,,,,,,,,,,,,,,,,,,,,,,,,,,,,,,,,,,,,,,
,,65d6bb0e977760de756971f7,2024-02-22_06h08.12.739,kallum_motion_pilot,2023.2.2,Win32,59.88023952,65c0f98cdf650fa372206adf,65d6bb0e977760de756971f7,65d6d4d3431f118201ca1cba,0.0745,0.0746,0,114,114,28,1,threeone,,,,,,,,,,,,,,,,,,,,,,,,,,,,,,,,,,,,,,,,,,,,,,,,,,,,,,,,,,,,,,,,,,,,,,,,,,,,,,,,,,,,,,,,,,,,,,,,,,,,,,,,,,,,,,,,,,,,,,,,,,,,,,,,,,,,,,,,,
,,65d6bb0e977760de756971f7,2024-02-22_06h08.12.739,kallum_motion_pilot,2023.2.2,Win32,59.88023952,65c0f98cdf650fa372206adf,65d6bb0e977760de756971f7,65d6d4d3431f118201ca1cba,0.0748,0.0748,0,115,115,58,1,twoone,,,,,,,,,,,,,,,,,,,,,,,,,,,,,,,,,,,,,,,,,,,,,,,,,,,,,,,,,,,,,,,,,,,,,,,,,,,,,,,,,,,,,,,,,,,,,,,,,,,,,,,,,,,,,,,,,,,,,,,,,,,,,,,,,,,,,,,,,
,,65d6bb0e977760de756971f7,2024-02-22_06h08.12.739,kallum_motion_pilot,2023.2.2,Win32,59.88023952,65c0f98cdf650fa372206adf,65d6bb0e977760de756971f7,65d6d4d3431f118201ca1cba,0.0749,0.0749,0,116,116,116,1,sevenfive,,,,,,,,,,,,,,,,,,,,,,,,,,,,,,,,,,,,,,,,,,,,,,,,,,,,,,,,,,,,,,,,,,,,,,,,,,,,,,,,,,,,,,,,,,,,,,,,,,,,,,,,,,,,,,,,,,,,,,,,,,,,,,,,,,,,,,,,,
,,65d6bb0e977760de756971f7,2024-02-22_06h08.12.739,kallum_motion_pilot,2023.2.2,Win32,59.88023952,65c0f98cdf650fa372206adf,65d6bb0e977760de756971f7,65d6d4d3431f118201ca1cba,0.0751,0.0752,0,117,117,100,1,sevenfive,,,,,,,,,,,,,,,,,,,,,,,,,,,,,,,,,,,,,,,,,,,,,,,,,,,,,,,,,,,,,,,,,,,,,,,,,,,,,,,,,,,,,,,,,,,,,,,,,,,,,,,,,,,,,,,,,,,,,,,,,,,,,,,,,,,,,,,,,
,,65d6bb0e977760de756971f7,2024-02-22_06h08.12.739,kallum_motion_pilot,2023.2.2,Win32,59.88023952,65c0f98cdf650fa372206adf,65d6bb0e977760de756971f7,65d6d4d3431f118201ca1cba,0.0753,0.0754,0,118,118,38,1,fourtwo,,,,,,,,,,,,,,,,,,,,,,,,,,,,,,,,,,,,,,,,,,,,,,,,,,,,,,,,,,,,,,,,,,,,,,,,,,,,,,,,,,,,,,,,,,,,,,,,,,,,,,,,,,,,,,,,,,,,,,,,,,,,,,,,,,,,,,,,,
,,65d6bb0e977760de756971f7,2024-02-22_06h08.12.739,kallum_motion_pilot,2023.2.2,Win32,59.88023952,65c0f98cdf650fa372206adf,65d6bb0e977760de756971f7,65d6d4d3431f118201ca1cba,0.0756,0.0756,0,119,119,24,1,onetwo,,,,,,,,,,,,,,,,,,,,,,,,,,,,,,,,,,,,,,,,,,,,,,,,,,,,,,,,,,,,,,,,,,,,,,,,,,,,,,,,,,,,,,,,,,,,,,,,,,,,,,,,,,,,,,,,,,,,,,,,,,,,,,,,,,,,,,,,,
,,65d6bb0e977760de756971f7,2024-02-22_06h08.12.739,kallum_motion_pilot,2023.2.2,Win32,59.88023952,65c0f98cdf650fa372206adf,65d6bb0e977760de756971f7,65d6d4d3431f118201ca1cba,0.0757,0.0757,0,120,120,33,1,onethree,,,,,,,,,,,,,,,,,,,,,,,,,,,,,,,,,,,,,,,,,,,,,,,,,,,,,,,,,,,,,,,,,,,,,,,,,,,,,,,,,,,,,,,,,,,,,,,,,,,,,,,,,,,,,,,,,,,,,,,,,,,,,,,,,,,,,,,,,
,,65d6bb0e977760de756971f7,2024-02-22_06h08.12.739,kallum_motion_pilot,2023.2.2,Win32,59.88023952,65c0f98cdf650fa372206adf,65d6bb0e977760de756971f7,65d6d4d3431f118201ca1cba,0.0759,0.076,0,121,121,10,1,twoone,,,,,,,,,,,,,,,,,,,,,,,,,,,,,,,,,,,,,,,,,,,,,,,,,,,,,,,,,,,,,,,,,,,,,,,,,,,,,,,,,,,,,,,,,,,,,,,,,,,,,,,,,,,,,,,,,,,,,,,,,,,,,,,,,,,,,,,,,
,,65d6bb0e977760de756971f7,2024-02-22_06h08.12.739,kallum_motion_pilot,2023.2.2,Win32,59.88023952,65c0f98cdf650fa372206adf,65d6bb0e977760de756971f7,65d6d4d3431f118201ca1cba,0.0761,0.0761,0,122,122,160,1,fivesix,,,,,,,,,,,,,,,,,,,,,,,,,,,,,,,,,,,,,,,,,,,,,,,,,,,,,,,,,,,,,,,,,,,,,,,,,,,,,,,,,,,,,,,,,,,,,,,,,,,,,,,,,,,,,,,,,,,,,,,,,,,,,,,,,,,,,,,,,
,,65d6bb0e977760de756971f7,2024-02-22_06h08.12.739,kallum_motion_pilot,2023.2.2,Win32,59.88023952,65c0f98cdf650fa372206adf,65d6bb0e977760de756971f7,65d6d4d3431f118201ca1cba,0.0763,0.0764,0,123,123,32,1,onetwo,,,,,,,,,,,,,,,,,,,,,,,,,,,,,,,,,,,,,,,,,,,,,,,,,,,,,,,,,,,,,,,,,,,,,,,,,,,,,,,,,,,,,,,,,,,,,,,,,,,,,,,,,,,,,,,,,,,,,,,,,,,,,,,,,,,,,,,,,
,,65d6bb0e977760de756971f7,2024-02-22_06h08.12.739,kallum_motion_pilot,2023.2.2,Win32,59.88023952,65c0f98cdf650fa372206adf,65d6bb0e977760de756971f7,65d6d4d3431f118201ca1cba,0.0765,0.0766,0,124,124,48,1,onetwo,,,,,,,,,,,,,,,,,,,,,,,,,,,,,,,,,,,,,,,,,,,,,,,,,,,,,,,,,,,,,,,,,,,,,,,,,,,,,,,,,,,,,,,,,,,,,,,,,,,,,,,,,,,,,,,,,,,,,,,,,,,,,,,,,,,,,,,,,
,,65d6bb0e977760de756971f7,2024-02-22_06h08.12.739,kallum_motion_pilot,2023.2.2,Win32,59.88023952,65c0f98cdf650fa372206adf,65d6bb0e977760de756971f7,65d6d4d3431f118201ca1cba,0.0767,0.0769,0,125,125,8,1,onetwo,,,,,,,,,,,,,,,,,,,,,,,,,,,,,,,,,,,,,,,,,,,,,,,,,,,,,,,,,,,,,,,,,,,,,,,,,,,,,,,,,,,,,,,,,,,,,,,,,,,,,,,,,,,,,,,,,,,,,,,,,,,,,,,,,,,,,,,,,
,,65d6bb0e977760de756971f7,2024-02-22_06h08.12.739,kallum_motion_pilot,2023.2.2,Win32,59.88023952,65c0f98cdf650fa372206adf,65d6bb0e977760de756971f7,65d6d4d3431f118201ca1cba,0.0771,0.0771,0,126,126,67,1,twofour,,,,,,,,,,,,,,,,,,,,,,,,,,,,,,,,,,,,,,,,,,,,,,,,,,,,,,,,,,,,,,,,,,,,,,,,,,,,,,,,,,,,,,,,,,,,,,,,,,,,,,,,,,,,,,,,,,,,,,,,,,,,,,,,,,,,,,,,,
,,65d6bb0e977760de756971f7,2024-02-22_06h08.12.739,kallum_motion_pilot,2023.2.2,Win32,59.88023952,65c0f98cdf650fa372206adf,65d6bb0e977760de756971f7,65d6d4d3431f118201ca1cba,0.0773,0.0774,0,127,127,64,1,onetwo,,,,,,,,,,,,,,,,,,,,,,,,,,,,,,,,,,,,,,,,,,,,,,,,,,,,,,,,,,,,,,,,,,,,,,,,,,,,,,,,,,,,,,,,,,,,,,,,,,,,,,,,,,,,,,,,,,,,,,,,,,,,,,,,,,,,,,,,,
,,65d6bb0e977760de756971f7,2024-02-22_06h08.12.739,kallum_motion_pilot,2023.2.2,Win32,59.88023952,65c0f98cdf650fa372206adf,65d6bb0e977760de756971f7,65d6d4d3431f118201ca1cba,0.0775,0.0775,0,128,128,147,1,sixeight,,,,,,,,,,,,,,,,,,,,,,,,,,,,,,,,,,,,,,,,,,,,,,,,,,,,,,,,,,,,,,,,,,,,,,,,,,,,,,,,,,,,,,,,,,,,,,,,,,,,,,,,,,,,,,,,,,,,,,,,,,,,,,,,,,,,,,,,,
,,65d6bb0e977760de756971f7,2024-02-22_06h08.12.739,kallum_motion_pilot,2023.2.2,Win32,59.88023952,65c0f98cdf650fa372206adf,65d6bb0e977760de756971f7,65d6d4d3431f118201ca1cba,0.0777,0.0778,0,129,129,126,1,eightsix,,,,,,,,,,,,,,,,,,,,,,,,,,,,,,,,,,,,,,,,,,,,,,,,,,,,,,,,,,,,,,,,,,,,,,,,,,,,,,,,,,,,,,,,,,,,,,,,,,,,,,,,,,,,,,,,,,,,,,,,,,,,,,,,,,,,,,,,,
,,65d6bb0e977760de756971f7,2024-02-22_06h08.12.739,kallum_motion_pilot,2023.2.2,Win32,59.88023952,65c0f98cdf650fa372206adf,65d6bb0e977760de756971f7,65d6d4d3431f118201ca1cba,0.078,0.078,0,130,130,97,1,fiveseven,,,,,,,,,,,,,,,,,,,,,,,,,,,,,,,,,,,,,,,,,,,,,,,,,,,,,,,,,,,,,,,,,,,,,,,,,,,,,,,,,,,,,,,,,,,,,,,,,,,,,,,,,,,,,,,,,,,,,,,,,,,,,,,,,,,,,,,,,
,,65d6bb0e977760de756971f7,2024-02-22_06h08.12.739,kallum_motion_pilot,2023.2.2,Win32,59.88023952,65c0f98cdf650fa372206adf,65d6bb0e977760de756971f7,65d6d4d3431f118201ca1cba,0.0781,0.0782,0,131,131,45,1,threefour,,,,,,,,,,,,,,,,,,,,,,,,,,,,,,,,,,,,,,,,,,,,,,,,,,,,,,,,,,,,,,,,,,,,,,,,,,,,,,,,,,,,,,,,,,,,,,,,,,,,,,,,,,,,,,,,,,,,,,,,,,,,,,,,,,,,,,,,,
,,65d6bb0e977760de756971f7,2024-02-22_06h08.12.739,kallum_motion_pilot,2023.2.2,Win32,59.88023952,65c0f98cdf650fa372206adf,65d6bb0e977760de756971f7,65d6d4d3431f118201ca1cba,0.0784,0.0785,0,132,132,96,1,fivesix,,,,,,,,,,,,,,,,,,,,,,,,,,,,,,,,,,,,,,,,,,,,,,,,,,,,,,,,,,,,,,,,,,,,,,,,,,,,,,,,,,,,,,,,,,,,,,,,,,,,,,,,,,,,,,,,,,,,,,,,,,,,,,,,,,,,,,,,,
,,65d6bb0e977760de756971f7,2024-02-22_06h08.12.739,kallum_motion_pilot,2023.2.2,Win32,59.88023952,65c0f98cdf650fa372206adf,65d6bb0e977760de756971f7,65d6d4d3431f118201ca1cba,0.0786,0.0786,0,133,133,70,1,fourtwo,,,,,,,,,,,,,,,,,,,,,,,,,,,,,,,,,,,,,,,,,,,,,,,,,,,,,,,,,,,,,,,,,,,,,,,,,,,,,,,,,,,,,,,,,,,,,,,,,,,,,,,,,,,,,,,,,,,,,,,,,,,,,,,,,,,,,,,,,
,,65d6bb0e977760de756971f7,2024-02-22_06h08.12.739,kallum_motion_pilot,2023.2.2,Win32,59.88023952,65c0f98cdf650fa372206adf,65d6bb0e977760de756971f7,65d6d4d3431f118201ca1cba,0.0788,0.0789,0,134,134,139,1,sixeight,,,,,,,,,,,,,,,,,,,,,,,,,,,,,,,,,,,,,,,,,,,,,,,,,,,,,,,,,,,,,,,,,,,,,,,,,,,,,,,,,,,,,,,,,,,,,,,,,,,,,,,,,,,,,,,,,,,,,,,,,,,,,,,,,,,,,,,,,
,,65d6bb0e977760de756971f7,2024-02-22_06h08.12.739,kallum_motion_pilot,2023.2.2,Win32,59.88023952,65c0f98cdf650fa372206adf,65d6bb0e977760de756971f7,65d6d4d3431f118201ca1cba,0.079,0.0791,0,135,135,94,1,eightsix,,,,,,,,,,,,,,,,,,,,,,,,,,,,,,,,,,,,,,,,,,,,,,,,,,,,,,,,,,,,,,,,,,,,,,,,,,,,,,,,,,,,,,,,,,,,,,,,,,,,,,,,,,,,,,,,,,,,,,,,,,,,,,,,,,,,,,,,,
,,65d6bb0e977760de756971f7,2024-02-22_06h08.12.739,kallum_motion_pilot,2023.2.2,Win32,59.88023952,65c0f98cdf650fa372206adf,65d6bb0e977760de756971f7,65d6d4d3431f118201ca1cba,0.0792,0.0793,0,136,136,113,1,fiveseven,,,,,,,,,,,,,,,,,,,,,,,,,,,,,,,,,,,,,,,,,,,,,,,,,,,,,,,,,,,,,,,,,,,,,,,,,,,,,,,,,,,,,,,,,,,,,,,,,,,,,,,,,,,,,,,,,,,,,,,,,,,,,,,,,,,,,,,,,
,,65d6bb0e977760de756971f7,2024-02-22_06h08.12.739,kallum_motion_pilot,2023.2.2,Win32,59.88023952,65c0f98cdf650fa372206adf,65d6bb0e977760de756971f7,65d6d4d3431f118201ca1cba,0.0794,0.0795,0,137,137,61,1,threefour,,,,,,,,,,,,,,,,,,,,,,,,,,,,,,,,,,,,,,,,,,,,,,,,,,,,,,,,,,,,,,,,,,,,,,,,,,,,,,,,,,,,,,,,,,,,,,,,,,,,,,,,,,,,,,,,,,,,,,,,,,,,,,,,,,,,,,,,,
,,65d6bb0e977760de756971f7,2024-02-22_06h08.12.739,kallum_motion_pilot,2023.2.2,Win32,59.88023952,65c0f98cdf650fa372206adf,65d6bb0e977760de756971f7,65d6d4d3431f118201ca1cba,0.0796,0.0797,0,138,138,13,1,threefour,,,,,,,,,,,,,,,,,,,,,,,,,,,,,,,,,,,,,,,,,,,,,,,,,,,,,,,,,,,,,,,,,,,,,,,,,,,,,,,,,,,,,,,,,,,,,,,,,,,,,,,,,,,,,,,,,,,,,,,,,,,,,,,,,,,,,,,,,
,,65d6bb0e977760de756971f7,2024-02-22_06h08.12.739,kallum_motion_pilot,2023.2.2,Win32,59.88023952,65c0f98cdf650fa372206adf,65d6bb0e977760de756971f7,65d6d4d3431f118201ca1cba,0.0799,0.08,0,139,139,9,1,onethree,,,,,,,,,,,,,,,,,,,,,,,,,,,,,,,,,,,,,,,,,,,,,,,,,,,,,,,,,,,,,,,,,,,,,,,,,,,,,,,,,,,,,,,,,,,,,,,,,,,,,,,,,,,,,,,,,,,,,,,,,,,,,,,,,,,,,,,,,
,,65d6bb0e977760de756971f7,2024-02-22_06h08.12.739,kallum_motion_pilot,2023.2.2,Win32,59.88023952,65c0f98cdf650fa372206adf,65d6bb0e977760de756971f7,65d6d4d3431f118201ca1cba,0.0801,0.0802,0,140,140,40,1,onetwo,,,,,,,,,,,,,,,,,,,,,,,,,,,,,,,,,,,,,,,,,,,,,,,,,,,,,,,,,,,,,,,,,,,,,,,,,,,,,,,,,,,,,,,,,,,,,,,,,,,,,,,,,,,,,,,,,,,,,,,,,,,,,,,,,,,,,,,,,
,,65d6bb0e977760de756971f7,2024-02-22_06h08.12.739,kallum_motion_pilot,2023.2.2,Win32,59.88023952,65c0f98cdf650fa372206adf,65d6bb0e977760de756971f7,65d6d4d3431f118201ca1cba,0.0804,0.0805,0,141,141,54,1,fourtwo,,,,,,,,,,,,,,,,,,,,,,,,,,,,,,,,,,,,,,,,,,,,,,,,,,,,,,,,,,,,,,,,,,,,,,,,,,,,,,,,,,,,,,,,,,,,,,,,,,,,,,,,,,,,,,,,,,,,,,,,,,,,,,,,,,,,,,,,,
,,65d6bb0e977760de756971f7,2024-02-22_06h08.12.739,kallum_motion_pilot,2023.2.2,Win32,59.88023952,65c0f98cdf650fa372206adf,65d6bb0e977760de756971f7,65d6d4d3431f118201ca1cba,0.0807,0.0809,0,142,142,74,1,twoone,,,,,,,,,,,,,,,,,,,,,,,,,,,,,,,,,,,,,,,,,,,,,,,,,,,,,,,,,,,,,,,,,,,,,,,,,,,,,,,,,,,,,,,,,,,,,,,,,,,,,,,,,,,,,,,,,,,,,,,,,,,,,,,,,,,,,,,,,
,,65d6bb0e977760de756971f7,2024-02-22_06h08.12.739,kallum_motion_pilot,2023.2.2,Win32,59.88023952,65c0f98cdf650fa372206adf,65d6bb0e977760de756971f7,65d6d4d3431f118201ca1cba,0.081,0.0812,0,143,143,90,1,sixfive,,,,,,,,,,,,,,,,,,,,,,,,,,,,,,,,,,,,,,,,,,,,,,,,,,,,,,,,,,,,,,,,,,,,,,,,,,,,,,,,,,,,,,,,,,,,,,,,,,,,,,,,,,,,,,,,,,,,,,,,,,,,,,,,,,,,,,,,,
,,65d6bb0e977760de756971f7,2024-02-22_06h08.12.739,kallum_motion_pilot,2023.2.2,Win32,59.88023952,65c0f98cdf650fa372206adf,65d6bb0e977760de756971f7,65d6d4d3431f118201ca1cba,0.0813,0.0815,0,144,144,141,1,seveneight,,,,,,,,,,,,,,,,,,,,,,,,,,,,,,,,,,,,,,,,,,,,,,,,,,,,,,,,,,,,,,,,,,,,,,,,,,,,,,,,,,,,,,,,,,,,,,,,,,,,,,,,,,,,,,,,,,,,,,,,,,,,,,,,,,,,,,,,,
,,65d6bb0e977760de756971f7,2024-02-22_06h08.12.739,kallum_motion_pilot,2023.2.2,Win32,59.88023952,65c0f98cdf650fa372206adf,65d6bb0e977760de756971f7,65d6d4d3431f118201ca1cba,0.0816,0.0817,0,145,145,120,1,fivesix,,,,,,,,,,,,,,,,,,,,,,,,,,,,,,,,,,,,,,,,,,,,,,,,,,,,,,,,,,,,,,,,,,,,,,,,,,,,,,,,,,,,,,,,,,,,,,,,,,,,,,,,,,,,,,,,,,,,,,,,,,,,,,,,,,,,,,,,,
,,65d6bb0e977760de756971f7,2024-02-22_06h08.12.739,kallum_motion_pilot,2023.2.2,Win32,59.88023952,65c0f98cdf650fa372206adf,65d6bb0e977760de756971f7,65d6d4d3431f118201ca1cba,0.0819,0.082,0,146,146,12,1,threeone,,,,,,,,,,,,,,,,,,,,,,,,,,,,,,,,,,,,,,,,,,,,,,,,,,,,,,,,,,,,,,,,,,,,,,,,,,,,,,,,,,,,,,,,,,,,,,,,,,,,,,,,,,,,,,,,,,,,,,,,,,,,,,,,,,,,,,,,,
,,65d6bb0e977760de756971f7,2024-02-22_06h08.12.739,kallum_motion_pilot,2023.2.2,Win32,59.88023952,65c0f98cdf650fa372206adf,65d6bb0e977760de756971f7,65d6d4d3431f118201ca1cba,0.0822,0.0823,0,147,147,77,1,threefour,,,,,,,,,,,,,,,,,,,,,,,,,,,,,,,,,,,,,,,,,,,,,,,,,,,,,,,,,,,,,,,,,,,,,,,,,,,,,,,,,,,,,,,,,,,,,,,,,,,,,,,,,,,,,,,,,,,,,,,,,,,,,,,,,,,,,,,,,
,,65d6bb0e977760de756971f7,2024-02-22_06h08.12.739,kallum_motion_pilot,2023.2.2,Win32,59.88023952,65c0f98cdf650fa372206adf,65d6bb0e977760de756971f7,65d6d4d3431f118201ca1cba,0.0825,0.0826,0,148,148,104,1,fivesix,,,,,,,,,,,,,,,,,,,,,,,,,,,,,,,,,,,,,,,,,,,,,,,,,,,,,,,,,,,,,,,,,,,,,,,,,,,,,,,,,,,,,,,,,,,,,,,,,,,,,,,,,,,,,,,,,,,,,,,,,,,,,,,,,,,,,,,,,
,,65d6bb0e977760de756971f7,2024-02-22_06h08.12.739,kallum_motion_pilot,2023.2.2,Win32,59.88023952,65c0f98cdf650fa372206adf,65d6bb0e977760de756971f7,65d6d4d3431f118201ca1cba,0.0828,0.0829,0,149,149,114,1,sixfive,,,,,,,,,,,,,,,,,,,,,,,,,,,,,,,,,,,,,,,,,,,,,,,,,,,,,,,,,,,,,,,,,,,,,,,,,,,,,,,,,,,,,,,,,,,,,,,,,,,,,,,,,,,,,,,,,,,,,,,,,,,,,,,,,,,,,,,,,
,,65d6bb0e977760de756971f7,2024-02-22_06h08.12.739,kallum_motion_pilot,2023.2.2,Win32,59.88023952,65c0f98cdf650fa372206adf,65d6bb0e977760de756971f7,65d6d4d3431f118201ca1cba,0.0831,0.0831,0,150,150,57,1,onethree,,,,,,,,,,,,,,,,,,,,,,,,,,,,,,,,,,,,,,,,,,,,,,,,,,,,,,,,,,,,,,,,,,,,,,,,,,,,,,,,,,,,,,,,,,,,,,,,,,,,,,,,,,,,,,,,,,,,,,,,,,,,,,,,,,,,,,,,,
,,65d6bb0e977760de756971f7,2024-02-22_06h08.12.739,kallum_motion_pilot,2023.2.2,Win32,59.88023952,65c0f98cdf650fa372206adf,65d6bb0e977760de756971f7,65d6d4d3431f118201ca1cba,0.0833,0.0835,0,151,151,119,1,eightseven,,,,,,,,,,,,,,,,,,,,,,,,,,,,,,,,,,,,,,,,,,,,,,,,,,,,,,,,,,,,,,,,,,,,,,,,,,,,,,,,,,,,,,,,,,,,,,,,,,,,,,,,,,,,,,,,,,,,,,,,,,,,,,,,,,,,,,,,,
,,65d6bb0e977760de756971f7,2024-02-22_06h08.12.739,kallum_motion_pilot,2023.2.2,Win32,59.88023952,65c0f98cdf650fa372206adf,65d6bb0e977760de756971f7,65d6d4d3431f118201ca1cba,0.0836,0.0837,0,152,152,3,1,twofour,,,,,,,,,,,,,,,,,,,,,,,,,,,,,,,,,,,,,,,,,,,,,,,,,,,,,,,,,,,,,,,,,,,,,,,,,,,,,,,,,,,,,,,,,,,,,,,,,,,,,,,,,,,,,,,,,,,,,,,,,,,,,,,,,,,,,,,,,
,,65d6bb0e977760de756971f7,2024-02-22_06h08.12.739,kallum_motion_pilot,2023.2.2,Win32,59.88023952,65c0f98cdf650fa372206adf,65d6bb0e977760de756971f7,65d6d4d3431f118201ca1cba,0.0839,0.084,0,153,153,110,1,eightsix,,,,,,,,,,,,,,,,,,,,,,,,,,,,,,,,,,,,,,,,,,,,,,,,,,,,,,,,,,,,,,,,,,,,,,,,,,,,,,,,,,,,,,,,,,,,,,,,,,,,,,,,,,,,,,,,,,,,,,,,,,,,,,,,,,,,,,,,,
,,65d6bb0e977760de756971f7,2024-02-22_06h08.12.739,kallum_motion_pilot,2023.2.2,Win32,59.88023952,65c0f98cdf650fa372206adf,65d6bb0e977760de756971f7,65d6d4d3431f118201ca1cba,0.0842,0.0843,0,154,154,93,1,seveneight,,,,,,,,,,,,,,,,,,,,,,,,,,,,,,,,,,,,,,,,,,,,,,,,,,,,,,,,,,,,,,,,,,,,,,,,,,,,,,,,,,,,,,,,,,,,,,,,,,,,,,,,,,,,,,,,,,,,,,,,,,,,,,,,,,,,,,,,,
,,65d6bb0e977760de756971f7,2024-02-22_06h08.12.739,kallum_motion_pilot,2023.2.2,Win32,59.88023952,65c0f98cdf650fa372206adf,65d6bb0e977760de756971f7,65d6d4d3431f118201ca1cba,0.0845,0.0846,0,155,155,37,1,threefour,,,,,,,,,,,,,,,,,,,,,,,,,,,,,,,,,,,,,,,,,,,,,,,,,,,,,,,,,,,,,,,,,,,,,,,,,,,,,,,,,,,,,,,,,,,,,,,,,,,,,,,,,,,,,,,,,,,,,,,,,,,,,,,,,,,,,,,,,
,,65d6bb0e977760de756971f7,2024-02-22_06h08.12.739,kallum_motion_pilot,2023.2.2,Win32,59.88023952,65c0f98cdf650fa372206adf,65d6bb0e977760de756971f7,65d6d4d3431f118201ca1cba,0.0848,0.0849,0,156,156,50,1,twoone,,,,,,,,,,,,,,,,,,,,,,,,,,,,,,,,,,,,,,,,,,,,,,,,,,,,,,,,,,,,,,,,,,,,,,,,,,,,,,,,,,,,,,,,,,,,,,,,,,,,,,,,,,,,,,,,,,,,,,,,,,,,,,,,,,,,,,,,,
,,65d6bb0e977760de756971f7,2024-02-22_06h08.12.739,kallum_motion_pilot,2023.2.2,Win32,59.88023952,65c0f98cdf650fa372206adf,65d6bb0e977760de756971f7,65d6d4d3431f118201ca1cba,0.085,0.0851,0,157,157,161,1,fiveseven,,,,,,,,,,,,,,,,,,,,,,,,,,,,,,,,,,,,,,,,,,,,,,,,,,,,,,,,,,,,,,,,,,,,,,,,,,,,,,,,,,,,,,,,,,,,,,,,,,,,,,,,,,,,,,,,,,,,,,,,,,,,,,,,,,,,,,,,,
,,65d6bb0e977760de756971f7,2024-02-22_06h08.12.739,kallum_motion_pilot,2023.2.2,Win32,59.88023952,65c0f98cdf650fa372206adf,65d6bb0e977760de756971f7,65d6d4d3431f118201ca1cba,0.0852,0.0853,0,158,158,138,1,sixfive,,,,,,,,,,,,,,,,,,,,,,,,,,,,,,,,,,,,,,,,,,,,,,,,,,,,,,,,,,,,,,,,,,,,,,,,,,,,,,,,,,,,,,,,,,,,,,,,,,,,,,,,,,,,,,,,,,,,,,,,,,,,,,,,,,,,,,,,,
,,65d6bb0e977760de756971f7,2024-02-22_06h08.12.739,kallum_motion_pilot,2023.2.2,Win32,59.88023952,65c0f98cdf650fa372206adf,65d6bb0e977760de756971f7,65d6d4d3431f118201ca1cba,0.0854,0.0856,0,159,159,51,1,twofour,,,,,,,,,,,,,,,,,,,,,,,,,,,,,,,,,,,,,,,,,,,,,,,,,,,,,,,,,,,,,,,,,,,,,,,,,,,,,,,,,,,,,,,,,,,,,,,,,,,,,,,,,,,,,,,,,,,,,,,,,,,,,,,,,,,,,,,,,
,,65d6bb0e977760de756971f7,2024-02-22_06h08.12.739,kallum_motion_pilot,2023.2.2,Win32,59.88023952,65c0f98cdf650fa372206adf,65d6bb0e977760de756971f7,65d6d4d3431f118201ca1cba,0.0858,0.086,0,160,160,88,1,fivesix,,,,,,,,,,,,,,,,,,,,,,,,,,,,,,,,,,,,,,,,,,,,,,,,,,,,,,,,,,,,,,,,,,,,,,,,,,,,,,,,,,,,,,,,,,,,,,,,,,,,,,,,,,,,,,,,,,,,,,,,,,,,,,,,,,,,,,,,,
,,65d6bb0e977760de756971f7,2024-02-22_06h08.12.739,kallum_motion_pilot,2023.2.2,Win32,59.88023952,65c0f98cdf650fa372206adf,65d6bb0e977760de756971f7,65d6d4d3431f118201ca1cba,0.0864,0.0866,0,161,161,2,1,twoone,,,,,,,,,,,,,,,,,,,,,,,,,,,,,,,,,,,,,,,,,,,,,,,,,,,,,,,,,,,,,,,,,,,,,,,,,,,,,,,,,,,,,,,,,,,,,,,,,,,,,,,,,,,,,,,,,,,,,,,,,,,,,,,,,,,,,,,,,
,,65d6bb0e977760de756971f7,2024-02-22_06h08.12.739,kallum_motion_pilot,2023.2.2,Win32,59.88023952,65c0f98cdf650fa372206adf,65d6bb0e977760de756971f7,65d6d4d3431f118201ca1cba,0.0868,0.0869,1,0,162,69,1,threefour,,,,,,,,,,,,,,,,,,,,,,,,,,,,,,,,,,,,,,,,,,,,,,,,,,,,,,,,,,,,,,,,,,,,,,,,,,,,,,,,,,,,,,,,,,,,,,,,,,,,,,,,,,,,,,,,,,,,,,,,,,,,,,,,,,,,,,,,,
,,65d6bb0e977760de756971f7,2024-02-22_06h08.12.739,kallum_motion_pilot,2023.2.2,Win32,59.88023952,65c0f98cdf650fa372206adf,65d6bb0e977760de756971f7,65d6d4d3431f118201ca1cba,0.087,0.0871,1,1,163,156,1,sevenfive,,,,,,,,,,,,,,,,,,,,,,,,,,,,,,,,,,,,,,,,,,,,,,,,,,,,,,,,,,,,,,,,,,,,,,,,,,,,,,,,,,,,,,,,,,,,,,,,,,,,,,,,,,,,,,,,,,,,,,,,,,,,,,,,,,,,,,,,,
,,65d6bb0e977760de756971f7,2024-02-22_06h08.12.739,kallum_motion_pilot,2023.2.2,Win32,59.88023952,65c0f98cdf650fa372206adf,65d6bb0e977760de756971f7,65d6d4d3431f118201ca1cba,0.0872,0.0874,1,2,164,75,1,twofour,,,,,,,,,,,,,,,,,,,,,,,,,,,,,,,,,,,,,,,,,,,,,,,,,,,,,,,,,,,,,,,,,,,,,,,,,,,,,,,,,,,,,,,,,,,,,,,,,,,,,,,,,,,,,,,,,,,,,,,,,,,,,,,,,,,,,,,,,
,,65d6bb0e977760de756971f7,2024-02-22_06h08.12.739,kallum_motion_pilot,2023.2.2,Win32,59.88023952,65c0f98cdf650fa372206adf,65d6bb0e977760de756971f7,65d6d4d3431f118201ca1cba,0.0875,0.0875,1,3,165,107,1,sixeight,,,,,,,,,,,,,,,,,,,,,,,,,,,,,,,,,,,,,,,,,,,,,,,,,,,,,,,,,,,,,,,,,,,,,,,,,,,,,,,,,,,,,,,,,,,,,,,,,,,,,,,,,,,,,,,,,,,,,,,,,,,,,,,,,,,,,,,,,
,,65d6bb0e977760de756971f7,2024-02-22_06h08.12.739,kallum_motion_pilot,2023.2.2,Win32,59.88023952,65c0f98cdf650fa372206adf,65d6bb0e977760de756971f7,65d6d4d3431f118201ca1cba,0.0876,0.0877,1,4,166,25,1,onethree,,,,,,,,,,,,,,,,,,,,,,,,,,,,,,,,,,,,,,,,,,,,,,,,,,,,,,,,,,,,,,,,,,,,,,,,,,,,,,,,,,,,,,,,,,,,,,,,,,,,,,,,,,,,,,,,,,,,,,,,,,,,,,,,,,,,,,,,,
,,65d6bb0e977760de756971f7,2024-02-22_06h08.12.739,kallum_motion_pilot,2023.2.2,Win32,59.88023952,65c0f98cdf650fa372206adf,65d6bb0e977760de756971f7,65d6d4d3431f118201ca1cba,0.0878,0.0879,1,5,167,112,1,fivesix,,,,,,,,,,,,,,,,,,,,,,,,,,,,,,,,,,,,,,,,,,,,,,,,,,,,,,,,,,,,,,,,,,,,,,,,,,,,,,,,,,,,,,,,,,,,,,,,,,,,,,,,,,,,,,,,,,,,,,,,,,,,,,,,,,,,,,,,,
,,65d6bb0e977760de756971f7,2024-02-22_06h08.12.739,kallum_motion_pilot,2023.2.2,Win32,59.88023952,65c0f98cdf650fa372206adf,65d6bb0e977760de756971f7,65d6d4d3431f118201ca1cba,0.088,0.0881,1,6,168,61,1,threefour,,,,,,,,,,,,,,,,,,,,,,,,,,,,,,,,,,,,,,,,,,,,,,,,,,,,,,,,,,,,,,,,,,,,,,,,,,,,,,,,,,,,,,,,,,,,,,,,,,,,,,,,,,,,,,,,,,,,,,,,,,,,,,,,,,,,,,,,,
,,65d6bb0e977760de756971f7,2024-02-22_06h08.12.739,kallum_motion_pilot,2023.2.2,Win32,59.88023952,65c0f98cdf650fa372206adf,65d6bb0e977760de756971f7,65d6d4d3431f118201ca1cba,0.0881,0.0882,1,7,169,97,1,fiveseven,,,,,,,,,,,,,,,,,,,,,,,,,,,,,,,,,,,,,,,,,,,,,,,,,,,,,,,,,,,,,,,,,,,,,,,,,,,,,,,,,,,,,,,,,,,,,,,,,,,,,,,,,,,,,,,,,,,,,,,,,,,,,,,,,,,,,,,,,
,,65d6bb0e977760de756971f7,2024-02-22_06h08.12.739,kallum_motion_pilot,2023.2.2,Win32,59.88023952,65c0f98cdf650fa372206adf,65d6bb0e977760de756971f7,65d6d4d3431f118201ca1cba,0.0884,0.0885,1,8,170,113,1,fiveseven,,,,,,,,,,,,,,,,,,,,,,,,,,,,,,,,,,,,,,,,,,,,,,,,,,,,,,,,,,,,,,,,,,,,,,,,,,,,,,,,,,,,,,,,,,,,,,,,,,,,,,,,,,,,,,,,,,,,,,,,,,,,,,,,,,,,,,,,,
,,65d6bb0e977760de756971f7,2024-02-22_06h08.12.739,kallum_motion_pilot,2023.2.2,Win32,59.88023952,65c0f98cdf650fa372206adf,65d6bb0e977760de756971f7,65d6d4d3431f118201ca1cba,0.0885,0.0887,1,9,171,91,1,sixeight,,,,,,,,,,,,,,,,,,,,,,,,,,,,,,,,,,,,,,,,,,,,,,,,,,,,,,,,,,,,,,,,,,,,,,,,,,,,,,,,,,,,,,,,,,,,,,,,,,,,,,,,,,,,,,,,,,,,,,,,,,,,,,,,,,,,,,,,,
,,65d6bb0e977760de756971f7,2024-02-22_06h08.12.739,kallum_motion_pilot,2023.2.2,Win32,59.88023952,65c0f98cdf650fa372206adf,65d6bb0e977760de756971f7,65d6d4d3431f118201ca1cba,0.0888,0.0888,1,10,172,41,1,onethree,,,,,,,,,,,,,,,,,,,,,,,,,,,,,,,,,,,,,,,,,,,,,,,,,,,,,,,,,,,,,,,,,,,,,,,,,,,,,,,,,,,,,,,,,,,,,,,,,,,,,,,,,,,,,,,,,,,,,,,,,,,,,,,,,,,,,,,,,
,,65d6bb0e977760de756971f7,2024-02-22_06h08.12.739,kallum_motion_pilot,2023.2.2,Win32,59.88023952,65c0f98cdf650fa372206adf,65d6bb0e977760de756971f7,65d6d4d3431f118201ca1cba,0.0889,0.0891,1,11,173,29,1,threefour,,,,,,,,,,,,,,,,,,,,,,,,,,,,,,,,,,,,,,,,,,,,,,,,,,,,,,,,,,,,,,,,,,,,,,,,,,,,,,,,,,,,,,,,,,,,,,,,,,,,,,,,,,,,,,,,,,,,,,,,,,,,,,,,,,,,,,,,,
,,65d6bb0e977760de756971f7,2024-02-22_06h08.12.739,kallum_motion_pilot,2023.2.2,Win32,59.88023952,65c0f98cdf650fa372206adf,65d6bb0e977760de756971f7,65d6d4d3431f118201ca1cba,0.0891,0.0892,1,12,174,159,1,eightseven,,,,,,,,,,,,,,,,,,,,,,,,,,,,,,,,,,,,,,,,,,,,,,,,,,,,,,,,,,,,,,,,,,,,,,,,,,,,,,,,,,,,,,,,,,,,,,,,,,,,,,,,,,,,,,,,,,,,,,,,,,,,,,,,,,,,,,,,,
,,65d6bb0e977760de756971f7,2024-02-22_06h08.12.739,kallum_motion_pilot,2023.2.2,Win32,59.88023952,65c0f98cdf650fa372206adf,65d6bb0e977760de756971f7,65d6d4d3431f118201ca1cba,0.0893,0.0894,1,13,175,80,1,fivesix,,,,,,,,,,,,,,,,,,,,,,,,,,,,,,,,,,,,,,,,,,,,,,,,,,,,,,,,,,,,,,,,,,,,,,,,,,,,,,,,,,,,,,,,,,,,,,,,,,,,,,,,,,,,,,,,,,,,,,,,,,,,,,,,,,,,,,,,,
,,65d6bb0e977760de756971f7,2024-02-22_06h08.12.739,kallum_motion_pilot,2023.2.2,Win32,59.88023952,65c0f98cdf650fa372206adf,65d6bb0e977760de756971f7,65d6d4d3431f118201ca1cba,0.0895,0.0896,1,14,176,34,1,twoone,,,,,,,,,,,,,,,,,,,,,,,,,,,,,,,,,,,,,,,,,,,,,,,,,,,,,,,,,,,,,,,,,,,,,,,,,,,,,,,,,,,,,,,,,,,,,,,,,,,,,,,,,,,,,,,,,,,,,,,,,,,,,,,,,,,,,,,,,
,,65d6bb0e977760de756971f7,2024-02-22_06h08.12.739,kallum_motion_pilot,2023.2.2,Win32,59.88023952,65c0f98cdf650fa372206adf,65d6bb0e977760de756971f7,65d6d4d3431f118201ca1cba,0.0897,0.0898,1,15,177,105,1,fiveseven,,,,,,,,,,,,,,,,,,,,,,,,,,,,,,,,,,,,,,,,,,,,,,,,,,,,,,,,,,,,,,,,,,,,,,,,,,,,,,,,,,,,,,,,,,,,,,,,,,,,,,,,,,,,,,,,,,,,,,,,,,,,,,,,,,,,,,,,,
,,65d6bb0e977760de756971f7,2024-02-22_06h08.12.739,kallum_motion_pilot,2023.2.2,Win32,59.88023952,65c0f98cdf650fa372206adf,65d6bb0e977760de756971f7,65d6d4d3431f118201ca1cba,0.0899,0.09,1,16,178,150,1,eightsix,,,,,,,,,,,,,,,,,,,,,,,,,,,,,,,,,,,,,,,,,,,,,,,,,,,,,,,,,,,,,,,,,,,,,,,,,,,,,,,,,,,,,,,,,,,,,,,,,,,,,,,,,,,,,,,,,,,,,,,,,,,,,,,,,,,,,,,,,
,,65d6bb0e977760de756971f7,2024-02-22_06h08.12.739,kallum_motion_pilot,2023.2.2,Win32,59.88023952,65c0f98cdf650fa372206adf,65d6bb0e977760de756971f7,65d6d4d3431f118201ca1cba,0.0901,0.0902,1,17,179,10,1,twoone,,,,,,,,,,,,,,,,,,,,,,,,,,,,,,,,,,,,,,,,,,,,,,,,,,,,,,,,,,,,,,,,,,,,,,,,,,,,,,,,,,,,,,,,,,,,,,,,,,,,,,,,,,,,,,,,,,,,,,,,,,,,,,,,,,,,,,,,,
,,65d6bb0e977760de756971f7,2024-02-22_06h08.12.739,kallum_motion_pilot,2023.2.2,Win32,59.88023952,65c0f98cdf650fa372206adf,65d6bb0e977760de756971f7,65d6d4d3431f118201ca1cba,0.0903,0.0904,1,18,180,145,1,fiveseven,,,,,,,,,,,,,,,,,,,,,,,,,,,,,,,,,,,,,,,,,,,,,,,,,,,,,,,,,,,,,,,,,,,,,,,,,,,,,,,,,,,,,,,,,,,,,,,,,,,,,,,,,,,,,,,,,,,,,,,,,,,,,,,,,,,,,,,,,
,,65d6bb0e977760de756971f7,2024-02-22_06h08.12.739,kallum_motion_pilot,2023.2.2,Win32,59.88023952,65c0f98cdf650fa372206adf,65d6bb0e977760de756971f7,65d6d4d3431f118201ca1cba,0.0905,0.0906,1,19,181,84,1,sevenfive,,,,,,,,,,,,,,,,,,,,,,,,,,,,,,,,,,,,,,,,,,,,,,,,,,,,,,,,,,,,,,,,,,,,,,,,,,,,,,,,,,,,,,,,,,,,,,,,,,,,,,,,,,,,,,,,,,,,,,,,,,,,,,,,,,,,,,,,,
,,65d6bb0e977760de756971f7,2024-02-22_06h08.12.739,kallum_motion_pilot,2023.2.2,Win32,59.88023952,65c0f98cdf650fa372206adf,65d6bb0e977760de756971f7,65d6d4d3431f118201ca1cba,0.0907,0.0907,1,20,182,0,1,onetwo,,,,,,,,,,,,,,,,,,,,,,,,,,,,,,,,,,,,,,,,,,,,,,,,,,,,,,,,,,,,,,,,,,,,,,,,,,,,,,,,,,,,,,,,,,,,,,,,,,,,,,,,,,,,,,,,,,,,,,,,,,,,,,,,,,,,,,,,,
,,65d6bb0e977760de756971f7,2024-02-22_06h08.12.739,kallum_motion_pilot,2023.2.2,Win32,59.88023952,65c0f98cdf650fa372206adf,65d6bb0e977760de756971f7,65d6d4d3431f118201ca1cba,0.0908,0.091,1,21,183,66,1,twoone,,,,,,,,,,,,,,,,,,,,,,,,,,,,,,,,,,,,,,,,,,,,,,,,,,,,,,,,,,,,,,,,,,,,,,,,,,,,,,,,,,,,,,,,,,,,,,,,,,,,,,,,,,,,,,,,,,,,,,,,,,,,,,,,,,,,,,,,,
,,65d6bb0e977760de756971f7,2024-02-22_06h08.12.739,kallum_motion_pilot,2023.2.2,Win32,59.88023952,65c0f98cdf650fa372206adf,65d6bb0e977760de756971f7,65d6d4d3431f118201ca1cba,0.0911,0.0911,1,22,184,20,1,threeone,,,,,,,,,,,,,,,,,,,,,,,,,,,,,,,,,,,,,,,,,,,,,,,,,,,,,,,,,,,,,,,,,,,,,,,,,,,,,,,,,,,,,,,,,,,,,,,,,,,,,,,,,,,,,,,,,,,,,,,,,,,,,,,,,,,,,,,,,
,,65d6bb0e977760de756971f7,2024-02-22_06h08.12.739,kallum_motion_pilot,2023.2.2,Win32,59.88023952,65c0f98cdf650fa372206adf,65d6bb0e977760de756971f7,65d6d4d3431f118201ca1cba,0.0913,0.0914,1,23,185,36,1,threeone,,,,,,,,,,,,,,,,,,,,,,,,,,,,,,,,,,,,,,,,,,,,,,,,,,,,,,,,,,,,,,,,,,,,,,,,,,,,,,,,,,,,,,,,,,,,,,,,,,,,,,,,,,,,,,,,,,,,,,,,,,,,,,,,,,,,,,,,,
,,65d6bb0e977760de756971f7,2024-02-22_06h08.12.739,kallum_motion_pilot,2023.2.2,Win32,59.88023952,65c0f98cdf650fa372206adf,65d6bb0e977760de756971f7,65d6d4d3431f118201ca1cba,0.0915,0.0916,1,24,186,143,1,eightseven,,,,,,,,,,,,,,,,,,,,,,,,,,,,,,,,,,,,,,,,,,,,,,,,,,,,,,,,,,,,,,,,,,,,,,,,,,,,,,,,,,,,,,,,,,,,,,,,,,,,,,,,,,,,,,,,,,,,,,,,,,,,,,,,,,,,,,,,,
,,65d6bb0e977760de756971f7,2024-02-22_06h08.12.739,kallum_motion_pilot,2023.2.2,Win32,59.88023952,65c0f98cdf650fa372206adf,65d6bb0e977760de756971f7,65d6d4d3431f118201ca1cba,0.0916,0.0918,1,25,187,104,1,fivesix,,,,,,,,,,,,,,,,,,,,,,,,,,,,,,,,,,,,,,,,,,,,,,,,,,,,,,,,,,,,,,,,,,,,,,,,,,,,,,,,,,,,,,,,,,,,,,,,,,,,,,,,,,,,,,,,,,,,,,,,,,,,,,,,,,,,,,,,,
,,65d6bb0e977760de756971f7,2024-02-22_06h08.12.739,kallum_motion_pilot,2023.2.2,Win32,59.88023952,65c0f98cdf650fa372206adf,65d6bb0e977760de756971f7,65d6d4d3431f118201ca1cba,0.0919,0.0919,1,26,188,93,1,seveneight,,,,,,,,,,,,,,,,,,,,,,,,,,,,,,,,,,,,,,,,,,,,,,,,,,,,,,,,,,,,,,,,,,,,,,,,,,,,,,,,,,,,,,,,,,,,,,,,,,,,,,,,,,,,,,,,,,,,,,,,,,,,,,,,,,,,,,,,,
,,65d6bb0e977760de756971f7,2024-02-22_06h08.12.739,kallum_motion_pilot,2023.2.2,Win32,59.88023952,65c0f98cdf650fa372206adf,65d6bb0e977760de756971f7,65d6d4d3431f118201ca1cba,0.0921,0.0922,1,27,189,78,1,fourtwo,,,,,,,,,,,,,,,,,,,,,,,,,,,,,,,,,,,,,,,,,,,,,,,,,,,,,,,,,,,,,,,,,,,,,,,,,,,,,,,,,,,,,,,,,,,,,,,,,,,,,,,,,,,,,,,,,,,,,,,,,,,,,,,,,,,,,,,,,
,,65d6bb0e977760de756971f7,2024-02-22_06h08.12.739,kallum_motion_pilot,2023.2.2,Win32,59.88023952,65c0f98cdf650fa372206adf,65d6bb0e977760de756971f7,65d6d4d3431f118201ca1cba,0.0923,0.0923,1,28,190,65,1,onethree,,,,,,,,,,,,,,,,,,,,,,,,,,,,,,,,,,,,,,,,,,,,,,,,,,,,,,,,,,,,,,,,,,,,,,,,,,,,,,,,,,,,,,,,,,,,,,,,,,,,,,,,,,,,,,,,,,,,,,,,,,,,,,,,,,,,,,,,,
,,65d6bb0e977760de756971f7,2024-02-22_06h08.12.739,kallum_motion_pilot,2023.2.2,Win32,59.88023952,65c0f98cdf650fa372206adf,65d6bb0e977760de756971f7,65d6d4d3431f118201ca1cba,0.0925,0.0925,1,29,191,27,1,twofour,,,,,,,,,,,,,,,,,,,,,,,,,,,,,,,,,,,,,,,,,,,,,,,,,,,,,,,,,,,,,,,,,,,,,,,,,,,,,,,,,,,,,,,,,,,,,,,,,,,,,,,,,,,,,,,,,,,,,,,,,,,,,,,,,,,,,,,,,
,,65d6bb0e977760de756971f7,2024-02-22_06h08.12.739,kallum_motion_pilot,2023.2.2,Win32,59.88023952,65c0f98cdf650fa372206adf,65d6bb0e977760de756971f7,65d6d4d3431f118201ca1cba,0.0926,0.0927,1,30,192,8,1,onetwo,,,,,,,,,,,,,,,,,,,,,,,,,,,,,,,,,,,,,,,,,,,,,,,,,,,,,,,,,,,,,,,,,,,,,,,,,,,,,,,,,,,,,,,,,,,,,,,,,,,,,,,,,,,,,,,,,,,,,,,,,,,,,,,,,,,,,,,,,
,,65d6bb0e977760de756971f7,2024-02-22_06h08.12.739,kallum_motion_pilot,2023.2.2,Win32,59.88023952,65c0f98cdf650fa372206adf,65d6bb0e977760de756971f7,65d6d4d3431f118201ca1cba,0.0928,0.0929,1,31,193,46,1,fourtwo,,,,,,,,,,,,,,,,,,,,,,,,,,,,,,,,,,,,,,,,,,,,,,,,,,,,,,,,,,,,,,,,,,,,,,,,,,,,,,,,,,,,,,,,,,,,,,,,,,,,,,,,,,,,,,,,,,,,,,,,,,,,,,,,,,,,,,,,,
,,65d6bb0e977760de756971f7,2024-02-22_06h08.12.739,kallum_motion_pilot,2023.2.2,Win32,59.88023952,65c0f98cdf650fa372206adf,65d6bb0e977760de756971f7,65d6d4d3431f118201ca1cba,0.0931,0.0931,1,32,194,118,1,eightsix,,,,,,,,,,,,,,,,,,,,,,,,,,,,,,,,,,,,,,,,,,,,,,,,,,,,,,,,,,,,,,,,,,,,,,,,,,,,,,,,,,,,,,,,,,,,,,,,,,,,,,,,,,,,,,,,,,,,,,,,,,,,,,,,,,,,,,,,,
,,65d6bb0e977760de756971f7,2024-02-22_06h08.12.739,kallum_motion_pilot,2023.2.2,Win32,59.88023952,65c0f98cdf650fa372206adf,65d6bb0e977760de756971f7,65d6d4d3431f118201ca1cba,0.0933,0.0934,1,33,195,122,1,sixfive,,,,,,,,,,,,,,,,,,,,,,,,,,,,,,,,,,,,,,,,,,,,,,,,,,,,,,,,,,,,,,,,,,,,,,,,,,,,,,,,,,,,,,,,,,,,,,,,,,,,,,,,,,,,,,,,,,,,,,,,,,,,,,,,,,,,,,,,,
,,65d6bb0e977760de756971f7,2024-02-22_06h08.12.739,kallum_motion_pilot,2023.2.2,Win32,59.88023952,65c0f98cdf650fa372206adf,65d6bb0e977760de756971f7,65d6d4d3431f118201ca1cba,0.0934,0.0935,1,34,196,102,1,eightsix,,,,,,,,,,,,,,,,,,,,,,,,,,,,,,,,,,,,,,,,,,,,,,,,,,,,,,,,,,,,,,,,,,,,,,,,,,,,,,,,,,,,,,,,,,,,,,,,,,,,,,,,,,,,,,,,,,,,,,,,,,,,,,,,,,,,,,,,,
,,65d6bb0e977760de756971f7,2024-02-22_06h08.12.739,kallum_motion_pilot,2023.2.2,Win32,59.88023952,65c0f98cdf650fa372206adf,65d6bb0e977760de756971f7,65d6d4d3431f118201ca1cba,0.0937,0.0937,1,35,197,38,1,fourtwo,,,,,,,,,,,,,,,,,,,,,,,,,,,,,,,,,,,,,,,,,,,,,,,,,,,,,,,,,,,,,,,,,,,,,,,,,,,,,,,,,,,,,,,,,,,,,,,,,,,,,,,,,,,,,,,,,,,,,,,,,,,,,,,,,,,,,,,,,
,,65d6bb0e977760de756971f7,2024-02-22_06h08.12.739,kallum_motion_pilot,2023.2.2,Win32,59.88023952,65c0f98cdf650fa372206adf,65d6bb0e977760de756971f7,65d6d4d3431f118201ca1cba,0.0939,0.0939,1,36,198,121,1,fiveseven,,,,,,,,,,,,,,,,,,,,,,,,,,,,,,,,,,,,,,,,,,,,,,,,,,,,,,,,,,,,,,,,,,,,,,,,,,,,,,,,,,,,,,,,,,,,,,,,,,,,,,,,,,,,,,,,,,,,,,,,,,,,,,,,,,,,,,,,,
,,65d6bb0e977760de756971f7,2024-02-22_06h08.12.739,kallum_motion_pilot,2023.2.2,Win32,59.88023952,65c0f98cdf650fa372206adf,65d6bb0e977760de756971f7,65d6d4d3431f118201ca1cba,0.0941,0.0942,1,37,199,60,1,threeone,,,,,,,,,,,,,,,,,,,,,,,,,,,,,,,,,,,,,,,,,,,,,,,,,,,,,,,,,,,,,,,,,,,,,,,,,,,,,,,,,,,,,,,,,,,,,,,,,,,,,,,,,,,,,,,,,,,,,,,,,,,,,,,,,,,,,,,,,
,,65d6bb0e977760de756971f7,2024-02-22_06h08.12.739,kallum_motion_pilot,2023.2.2,Win32,59.88023952,65c0f98cdf650fa372206adf,65d6bb0e977760de756971f7,65d6d4d3431f118201ca1cba,0.0942,0.0944,1,38,200,157,1,seveneight,,,,,,,,,,,,,,,,,,,,,,,,,,,,,,,,,,,,,,,,,,,,,,,,,,,,,,,,,,,,,,,,,,,,,,,,,,,,,,,,,,,,,,,,,,,,,,,,,,,,,,,,,,,,,,,,,,,,,,,,,,,,,,,,,,,,,,,,,
,,65d6bb0e977760de756971f7,2024-02-22_06h08.12.739,kallum_motion_pilot,2023.2.2,Win32,59.88023952,65c0f98cdf650fa372206adf,65d6bb0e977760de756971f7,65d6d4d3431f118201ca1cba,0.0945,0.0946,1,39,201,129,1,fiveseven,,,,,,,,,,,,,,,,,,,,,,,,,,,,,,,,,,,,,,,,,,,,,,,,,,,,,,,,,,,,,,,,,,,,,,,,,,,,,,,,,,,,,,,,,,,,,,,,,,,,,,,,,,,,,,,,,,,,,,,,,,,,,,,,,,,,,,,,,
,,65d6bb0e977760de756971f7,2024-02-22_06h08.12.739,kallum_motion_pilot,2023.2.2,Win32,59.88023952,65c0f98cdf650fa372206adf,65d6bb0e977760de756971f7,65d6d4d3431f118201ca1cba,0.0947,0.0948,1,40,202,62,1,fourtwo,,,,,,,,,,,,,,,,,,,,,,,,,,,,,,,,,,,,,,,,,,,,,,,,,,,,,,,,,,,,,,,,,,,,,,,,,,,,,,,,,,,,,,,,,,,,,,,,,,,,,,,,,,,,,,,,,,,,,,,,,,,,,,,,,,,,,,,,,
,,65d6bb0e977760de756971f7,2024-02-22_06h08.12.739,kallum_motion_pilot,2023.2.2,Win32,59.88023952,65c0f98cdf650fa372206adf,65d6bb0e977760de756971f7,65d6d4d3431f118201ca1cba,0.0949,0.095,1,41,203,24,1,onetwo,,,,,,,,,,,,,,,,,,,,,,,,,,,,,,,,,,,,,,,,,,,,,,,,,,,,,,,,,,,,,,,,,,,,,,,,,,,,,,,,,,,,,,,,,,,,,,,,,,,,,,,,,,,,,,,,,,,,,,,,,,,,,,,,,,,,,,,,,
,,65d6bb0e977760de756971f7,2024-02-22_06h08.12.739,kallum_motion_pilot,2023.2.2,Win32,59.88023952,65c0f98cdf650fa372206adf,65d6bb0e977760de756971f7,65d6d4d3431f118201ca1cba,0.095,0.0952,1,42,204,116,1,sevenfive,,,,,,,,,,,,,,,,,,,,,,,,,,,,,,,,,,,,,,,,,,,,,,,,,,,,,,,,,,,,,,,,,,,,,,,,,,,,,,,,,,,,,,,,,,,,,,,,,,,,,,,,,,,,,,,,,,,,,,,,,,,,,,,,,,,,,,,,,
,,65d6bb0e977760de756971f7,2024-02-22_06h08.12.739,kallum_motion_pilot,2023.2.2,Win32,59.88023952,65c0f98cdf650fa372206adf,65d6bb0e977760de756971f7,65d6d4d3431f118201ca1cba,0.0952,0.0954,1,43,205,13,1,threefour,,,,,,,,,,,,,,,,,,,,,,,,,,,,,,,,,,,,,,,,,,,,,,,,,,,,,,,,,,,,,,,,,,,,,,,,,,,,,,,,,,,,,,,,,,,,,,,,,,,,,,,,,,,,,,,,,,,,,,,,,,,,,,,,,,,,,,,,,
,,65d6bb0e977760de756971f7,2024-02-22_06h08.12.739,kallum_motion_pilot,2023.2.2,Win32,59.88023952,65c0f98cdf650fa372206adf,65d6bb0e977760de756971f7,65d6d4d3431f118201ca1cba,0.0954,0.0956,1,44,206,53,1,threefour,,,,,,,,,,,,,,,,,,,,,,,,,,,,,,,,,,,,,,,,,,,,,,,,,,,,,,,,,,,,,,,,,,,,,,,,,,,,,,,,,,,,,,,,,,,,,,,,,,,,,,,,,,,,,,,,,,,,,,,,,,,,,,,,,,,,,,,,,
,,65d6bb0e977760de756971f7,2024-02-22_06h08.12.739,kallum_motion_pilot,2023.2.2,Win32,59.88023952,65c0f98cdf650fa372206adf,65d6bb0e977760de756971f7,65d6d4d3431f118201ca1cba,0.0958,0.0958,1,45,207,15,1,fourthree,,,,,,,,,,,,,,,,,,,,,,,,,,,,,,,,,,,,,,,,,,,,,,,,,,,,,,,,,,,,,,,,,,,,,,,,,,,,,,,,,,,,,,,,,,,,,,,,,,,,,,,,,,,,,,,,,,,,,,,,,,,,,,,,,,,,,,,,,
,,65d6bb0e977760de756971f7,2024-02-22_06h08.12.739,kallum_motion_pilot,2023.2.2,Win32,59.88023952,65c0f98cdf650fa372206adf,65d6bb0e977760de756971f7,65d6d4d3431f118201ca1cba,0.096,0.0961,1,46,208,144,1,fivesix,,,,,,,,,,,,,,,,,,,,,,,,,,,,,,,,,,,,,,,,,,,,,,,,,,,,,,,,,,,,,,,,,,,,,,,,,,,,,,,,,,,,,,,,,,,,,,,,,,,,,,,,,,,,,,,,,,,,,,,,,,,,,,,,,,,,,,,,,
,,65d6bb0e977760de756971f7,2024-02-22_06h08.12.739,kallum_motion_pilot,2023.2.2,Win32,59.88023952,65c0f98cdf650fa372206adf,65d6bb0e977760de756971f7,65d6d4d3431f118201ca1cba,0.0963,0.0963,1,47,209,90,1,sixfive,,,,,,,,,,,,,,,,,,,,,,,,,,,,,,,,,,,,,,,,,,,,,,,,,,,,,,,,,,,,,,,,,,,,,,,,,,,,,,,,,,,,,,,,,,,,,,,,,,,,,,,,,,,,,,,,,,,,,,,,,,,,,,,,,,,,,,,,,
,,65d6bb0e977760de756971f7,2024-02-22_06h08.12.739,kallum_motion_pilot,2023.2.2,Win32,59.88023952,65c0f98cdf650fa372206adf,65d6bb0e977760de756971f7,65d6d4d3431f118201ca1cba,0.0965,0.0966,1,48,210,56,1,onetwo,,,,,,,,,,,,,,,,,,,,,,,,,,,,,,,,,,,,,,,,,,,,,,,,,,,,,,,,,,,,,,,,,,,,,,,,,,,,,,,,,,,,,,,,,,,,,,,,,,,,,,,,,,,,,,,,,,,,,,,,,,,,,,,,,,,,,,,,,
,,65d6bb0e977760de756971f7,2024-02-22_06h08.12.739,kallum_motion_pilot,2023.2.2,Win32,59.88023952,65c0f98cdf650fa372206adf,65d6bb0e977760de756971f7,65d6d4d3431f118201ca1cba,0.0967,0.0968,1,49,211,12,1,threeone,,,,,,,,,,,,,,,,,,,,,,,,,,,,,,,,,,,,,,,,,,,,,,,,,,,,,,,,,,,,,,,,,,,,,,,,,,,,,,,,,,,,,,,,,,,,,,,,,,,,,,,,,,,,,,,,,,,,,,,,,,,,,,,,,,,,,,,,,
,,65d6bb0e977760de756971f7,2024-02-22_06h08.12.739,kallum_motion_pilot,2023.2.2,Win32,59.88023952,65c0f98cdf650fa372206adf,65d6bb0e977760de756971f7,65d6d4d3431f118201ca1cba,0.097,0.097,1,50,212,11,1,twofour,,,,,,,,,,,,,,,,,,,,,,,,,,,,,,,,,,,,,,,,,,,,,,,,,,,,,,,,,,,,,,,,,,,,,,,,,,,,,,,,,,,,,,,,,,,,,,,,,,,,,,,,,,,,,,,,,,,,,,,,,,,,,,,,,,,,,,,,,
,,65d6bb0e977760de756971f7,2024-02-22_06h08.12.739,kallum_motion_pilot,2023.2.2,Win32,59.88023952,65c0f98cdf650fa372206adf,65d6bb0e977760de756971f7,65d6d4d3431f118201ca1cba,0.0972,0.0972,1,51,213,89,1,fiveseven,,,,,,,,,,,,,,,,,,,,,,,,,,,,,,,,,,,,,,,,,,,,,,,,,,,,,,,,,,,,,,,,,,,,,,,,,,,,,,,,,,,,,,,,,,,,,,,,,,,,,,,,,,,,,,,,,,,,,,,,,,,,,,,,,,,,,,,,,
,,65d6bb0e977760de756971f7,2024-02-22_06h08.12.739,kallum_motion_pilot,2023.2.2,Win32,59.88023952,65c0f98cdf650fa372206adf,65d6bb0e977760de756971f7,65d6d4d3431f118201ca1cba,0.0974,0.0974,1,52,214,126,1,eightsix,,,,,,,,,,,,,,,,,,,,,,,,,,,,,,,,,,,,,,,,,,,,,,,,,,,,,,,,,,,,,,,,,,,,,,,,,,,,,,,,,,,,,,,,,,,,,,,,,,,,,,,,,,,,,,,,,,,,,,,,,,,,,,,,,,,,,,,,,
,,65d6bb0e977760de756971f7,2024-02-22_06h08.12.739,kallum_motion_pilot,2023.2.2,Win32,59.88023952,65c0f98cdf650fa372206adf,65d6bb0e977760de756971f7,65d6d4d3431f118201ca1cba,0.0975,0.0977,1,53,215,109,1,seveneight,,,,,,,,,,,,,,,,,,,,,,,,,,,,,,,,,,,,,,,,,,,,,,,,,,,,,,,,,,,,,,,,,,,,,,,,,,,,,,,,,,,,,,,,,,,,,,,,,,,,,,,,,,,,,,,,,,,,,,,,,,,,,,,,,,,,,,,,,
,,65d6bb0e977760de756971f7,2024-02-22_06h08.12.739,kallum_motion_pilot,2023.2.2,Win32,59.88023952,65c0f98cdf650fa372206adf,65d6bb0e977760de756971f7,65d6d4d3431f118201ca1cba,0.0978,0.0978,1,54,216,127,1,eightseven,,,,,,,,,,,,,,,,,,,,,,,,,,,,,,,,,,,,,,,,,,,,,,,,,,,,,,,,,,,,,,,,,,,,,,,,,,,,,,,,,,,,,,,,,,,,,,,,,,,,,,,,,,,,,,,,,,,,,,,,,,,,,,,,,,,,,,,,,
,,65d6bb0e977760de756971f7,2024-02-22_06h08.12.739,kallum_motion_pilot,2023.2.2,Win32,59.88023952,65c0f98cdf650fa372206adf,65d6bb0e977760de756971f7,65d6d4d3431f118201ca1cba,0.098,0.0981,1,55,217,120,1,fivesix,,,,,,,,,,,,,,,,,,,,,,,,,,,,,,,,,,,,,,,,,,,,,,,,,,,,,,,,,,,,,,,,,,,,,,,,,,,,,,,,,,,,,,,,,,,,,,,,,,,,,,,,,,,,,,,,,,,,,,,,,,,,,,,,,,,,,,,,,
,,65d6bb0e977760de756971f7,2024-02-22_06h08.12.739,kallum_motion_pilot,2023.2.2,Win32,59.88023952,65c0f98cdf650fa372206adf,65d6bb0e977760de756971f7,65d6d4d3431f118201ca1cba,0.0982,0.0982,1,56,218,134,1,eightsix,,,,,,,,,,,,,,,,,,,,,,,,,,,,,,,,,,,,,,,,,,,,,,,,,,,,,,,,,,,,,,,,,,,,,,,,,,,,,,,,,,,,,,,,,,,,,,,,,,,,,,,,,,,,,,,,,,,,,,,,,,,,,,,,,,,,,,,,,
,,65d6bb0e977760de756971f7,2024-02-22_06h08.12.739,kallum_motion_pilot,2023.2.2,Win32,59.88023952,65c0f98cdf650fa372206adf,65d6bb0e977760de756971f7,65d6d4d3431f118201ca1cba,0.0983,0.0984,1,57,219,19,1,twofour,,,,,,,,,,,,,,,,,,,,,,,,,,,,,,,,,,,,,,,,,,,,,,,,,,,,,,,,,,,,,,,,,,,,,,,,,,,,,,,,,,,,,,,,,,,,,,,,,,,,,,,,,,,,,,,,,,,,,,,,,,,,,,,,,,,,,,,,,
,,65d6bb0e977760de756971f7,2024-02-22_06h08.12.739,kallum_motion_pilot,2023.2.2,Win32,59.88023952,65c0f98cdf650fa372206adf,65d6bb0e977760de756971f7,65d6d4d3431f118201ca1cba,0.0986,0.0986,1,58,220,55,1,fourthree,,,,,,,,,,,,,,,,,,,,,,,,,,,,,,,,,,,,,,,,,,,,,,,,,,,,,,,,,,,,,,,,,,,,,,,,,,,,,,,,,,,,,,,,,,,,,,,,,,,,,,,,,,,,,,,,,,,,,,,,,,,,,,,,,,,,,,,,,
,,65d6bb0e977760de756971f7,2024-02-22_06h08.12.739,kallum_motion_pilot,2023.2.2,Win32,59.88023952,65c0f98cdf650fa372206adf,65d6bb0e977760de756971f7,65d6d4d3431f118201ca1cba,0.0988,0.0988,1,59,221,146,1,sixfive,,,,,,,,,,,,,,,,,,,,,,,,,,,,,,,,,,,,,,,,,,,,,,,,,,,,,,,,,,,,,,,,,,,,,,,,,,,,,,,,,,,,,,,,,,,,,,,,,,,,,,,,,,,,,,,,,,,,,,,,,,,,,,,,,,,,,,,,,
,,65d6bb0e977760de756971f7,2024-02-22_06h08.12.739,kallum_motion_pilot,2023.2.2,Win32,59.88023952,65c0f98cdf650fa372206adf,65d6bb0e977760de756971f7,65d6d4d3431f118201ca1cba,0.099,0.099,1,60,222,39,1,fourthree,,,,,,,,,,,,,,,,,,,,,,,,,,,,,,,,,,,,,,,,,,,,,,,,,,,,,,,,,,,,,,,,,,,,,,,,,,,,,,,,,,,,,,,,,,,,,,,,,,,,,,,,,,,,,,,,,,,,,,,,,,,,,,,,,,,,,,,,,
,,65d6bb0e977760de756971f7,2024-02-22_06h08.12.739,kallum_motion_pilot,2023.2.2,Win32,59.88023952,65c0f98cdf650fa372206adf,65d6bb0e977760de756971f7,65d6d4d3431f118201ca1cba,0.0991,0.0993,1,61,223,152,1,fivesix,,,,,,,,,,,,,,,,,,,,,,,,,,,,,,,,,,,,,,,,,,,,,,,,,,,,,,,,,,,,,,,,,,,,,,,,,,,,,,,,,,,,,,,,,,,,,,,,,,,,,,,,,,,,,,,,,,,,,,,,,,,,,,,,,,,,,,,,,
,,65d6bb0e977760de756971f7,2024-02-22_06h08.12.739,kallum_motion_pilot,2023.2.2,Win32,59.88023952,65c0f98cdf650fa372206adf,65d6bb0e977760de756971f7,65d6d4d3431f118201ca1cba,0.0993,0.0994,1,62,224,32,1,onetwo,,,,,,,,,,,,,,,,,,,,,,,,,,,,,,,,,,,,,,,,,,,,,,,,,,,,,,,,,,,,,,,,,,,,,,,,,,,,,,,,,,,,,,,,,,,,,,,,,,,,,,,,,,,,,,,,,,,,,,,,,,,,,,,,,,,,,,,,,
,,65d6bb0e977760de756971f7,2024-02-22_06h08.12.739,kallum_motion_pilot,2023.2.2,Win32,59.88023952,65c0f98cdf650fa372206adf,65d6bb0e977760de756971f7,65d6d4d3431f118201ca1cba,0.0996,0.0996,1,63,225,35,1,twofour,,,,,,,,,,,,,,,,,,,,,,,,,,,,,,,,,,,,,,,,,,,,,,,,,,,,,,,,,,,,,,,,,,,,,,,,,,,,,,,,,,,,,,,,,,,,,,,,,,,,,,,,,,,,,,,,,,,,,,,,,,,,,,,,,,,,,,,,,
,,65d6bb0e977760de756971f7,2024-02-22_06h08.12.739,kallum_motion_pilot,2023.2.2,Win32,59.88023952,65c0f98cdf650fa372206adf,65d6bb0e977760de756971f7,65d6d4d3431f118201ca1cba,0.0998,0.0998,1,64,226,28,1,threeone,,,,,,,,,,,,,,,,,,,,,,,,,,,,,,,,,,,,,,,,,,,,,,,,,,,,,,,,,,,,,,,,,,,,,,,,,,,,,,,,,,,,,,,,,,,,,,,,,,,,,,,,,,,,,,,,,,,,,,,,,,,,,,,,,,,,,,,,,
,,65d6bb0e977760de756971f7,2024-02-22_06h08.12.739,kallum_motion_pilot,2023.2.2,Win32,59.88023952,65c0f98cdf650fa372206adf,65d6bb0e977760de756971f7,65d6d4d3431f118201ca1cba,0.0999,0.1001,1,65,227,140,1,sevenfive,,,,,,,,,,,,,,,,,,,,,,,,,,,,,,,,,,,,,,,,,,,,,,,,,,,,,,,,,,,,,,,,,,,,,,,,,,,,,,,,,,,,,,,,,,,,,,,,,,,,,,,,,,,,,,,,,,,,,,,,,,,,,,,,,,,,,,,,,
,,65d6bb0e977760de756971f7,2024-02-22_06h08.12.739,kallum_motion_pilot,2023.2.2,Win32,59.88023952,65c0f98cdf650fa372206adf,65d6bb0e977760de756971f7,65d6d4d3431f118201ca1cba,0.1002,0.1003,1,66,228,71,1,fourthree,,,,,,,,,,,,,,,,,,,,,,,,,,,,,,,,,,,,,,,,,,,,,,,,,,,,,,,,,,,,,,,,,,,,,,,,,,,,,,,,,,,,,,,,,,,,,,,,,,,,,,,,,,,,,,,,,,,,,,,,,,,,,,,,,,,,,,,,,
,,65d6bb0e977760de756971f7,2024-02-22_06h08.12.739,kallum_motion_pilot,2023.2.2,Win32,59.88023952,65c0f98cdf650fa372206adf,65d6bb0e977760de756971f7,65d6d4d3431f118201ca1cba,0.1004,0.1005,1,67,229,92,1,sevenfive,,,,,,,,,,,,,,,,,,,,,,,,,,,,,,,,,,,,,,,,,,,,,,,,,,,,,,,,,,,,,,,,,,,,,,,,,,,,,,,,,,,,,,,,,,,,,,,,,,,,,,,,,,,,,,,,,,,,,,,,,,,,,,,,,,,,,,,,,
,,65d6bb0e977760de756971f7,2024-02-22_06h08.12.739,kallum_motion_pilot,2023.2.2,Win32,59.88023952,65c0f98cdf650fa372206adf,65d6bb0e977760de756971f7,65d6d4d3431f118201ca1cba,0.1006,0.1006,1,68,230,70,1,fourtwo,,,,,,,,,,,,,,,,,,,,,,,,,,,,,,,,,,,,,,,,,,,,,,,,,,,,,,,,,,,,,,,,,,,,,,,,,,,,,,,,,,,,,,,,,,,,,,,,,,,,,,,,,,,,,,,,,,,,,,,,,,,,,,,,,,,,,,,,,
,,65d6bb0e977760de756971f7,2024-02-22_06h08.12.739,kallum_motion_pilot,2023.2.2,Win32,59.88023952,65c0f98cdf650fa372206adf,65d6bb0e977760de756971f7,65d6d4d3431f118201ca1cba,0.1008,0.1009,1,69,231,161,1,fiveseven,,,,,,,,,,,,,,,,,,,,,,,,,,,,,,,,,,,,,,,,,,,,,,,,,,,,,,,,,,,,,,,,,,,,,,,,,,,,,,,,,,,,,,,,,,,,,,,,,,,,,,,,,,,,,,,,,,,,,,,,,,,,,,,,,,,,,,,,,
,,65d6bb0e977760de756971f7,2024-02-22_06h08.12.739,kallum_motion_pilot,2023.2.2,Win32,59.88023952,65c0f98cdf650fa372206adf,65d6bb0e977760de756971f7,65d6d4d3431f118201ca1cba,0.101,0.1011,1,70,232,155,1,sixeight,,,,,,,,,,,,,,,,,,,,,,,,,,,,,,,,,,,,,,,,,,,,,,,,,,,,,,,,,,,,,,,,,,,,,,,,,,,,,,,,,,,,,,,,,,,,,,,,,,,,,,,,,,,,,,,,,,,,,,,,,,,,,,,,,,,,,,,,,
,,65d6bb0e977760de756971f7,2024-02-22_06h08.12.739,kallum_motion_pilot,2023.2.2,Win32,59.88023952,65c0f98cdf650fa372206adf,65d6bb0e977760de756971f7,65d6d4d3431f118201ca1cba,0.1013,0.1013,1,71,233,7,1,fourthree,,,,,,,,,,,,,,,,,,,,,,,,,,,,,,,,,,,,,,,,,,,,,,,,,,,,,,,,,,,,,,,,,,,,,,,,,,,,,,,,,,,,,,,,,,,,,,,,,,,,,,,,,,,,,,,,,,,,,,,,,,,,,,,,,,,,,,,,,
,,65d6bb0e977760de756971f7,2024-02-22_06h08.12.739,kallum_motion_pilot,2023.2.2,Win32,59.88023952,65c0f98cdf650fa372206adf,65d6bb0e977760de756971f7,65d6d4d3431f118201ca1cba,0.1014,0.1016,1,72,234,30,1,fourtwo,,,,,,,,,,,,,,,,,,,,,,,,,,,,,,,,,,,,,,,,,,,,,,,,,,,,,,,,,,,,,,,,,,,,,,,,,,,,,,,,,,,,,,,,,,,,,,,,,,,,,,,,,,,,,,,,,,,,,,,,,,,,,,,,,,,,,,,,,
,,65d6bb0e977760de756971f7,2024-02-22_06h08.12.739,kallum_motion_pilot,2023.2.2,Win32,59.88023952,65c0f98cdf650fa372206adf,65d6bb0e977760de756971f7,65d6d4d3431f118201ca1cba,0.1016,0.1017,1,73,235,54,1,fourtwo,,,,,,,,,,,,,,,,,,,,,,,,,,,,,,,,,,,,,,,,,,,,,,,,,,,,,,,,,,,,,,,,,,,,,,,,,,,,,,,,,,,,,,,,,,,,,,,,,,,,,,,,,,,,,,,,,,,,,,,,,,,,,,,,,,,,,,,,,
,,65d6bb0e977760de756971f7,2024-02-22_06h08.12.739,kallum_motion_pilot,2023.2.2,Win32,59.88023952,65c0f98cdf650fa372206adf,65d6bb0e977760de756971f7,65d6d4d3431f118201ca1cba,0.1019,0.1019,1,74,236,57,1,onethree,,,,,,,,,,,,,,,,,,,,,,,,,,,,,,,,,,,,,,,,,,,,,,,,,,,,,,,,,,,,,,,,,,,,,,,,,,,,,,,,,,,,,,,,,,,,,,,,,,,,,,,,,,,,,,,,,,,,,,,,,,,,,,,,,,,,,,,,,
,,65d6bb0e977760de756971f7,2024-02-22_06h08.12.739,kallum_motion_pilot,2023.2.2,Win32,59.88023952,65c0f98cdf650fa372206adf,65d6bb0e977760de756971f7,65d6d4d3431f118201ca1cba,0.1021,0.1024,1,75,237,21,1,threefour,,,,,,,,,,,,,,,,,,,,,,,,,,,,,,,,,,,,,,,,,,,,,,,,,,,,,,,,,,,,,,,,,,,,,,,,,,,,,,,,,,,,,,,,,,,,,,,,,,,,,,,,,,,,,,,,,,,,,,,,,,,,,,,,,,,,,,,,,
,,65d6bb0e977760de756971f7,2024-02-22_06h08.12.739,kallum_motion_pilot,2023.2.2,Win32,59.88023952,65c0f98cdf650fa372206adf,65d6bb0e977760de756971f7,65d6d4d3431f118201ca1cba,0.1026,0.1062,1,76,238,136,1,fivesix,,,,,,,,,,,,,,,,,,,,,,,,,,,,,,,,,,,,,,,,,,,,,,,,,,,,,,,,,,,,,,,,,,,,,,,,,,,,,,,,,,,,,,,,,,,,,,,,,,,,,,,,,,,,,,,,,,,,,,,,,,,,,,,,,,,,,,,,,
,,65d6bb0e977760de756971f7,2024-02-22_06h08.12.739,kallum_motion_pilot,2023.2.2,Win32,59.88023952,65c0f98cdf650fa372206adf,65d6bb0e977760de756971f7,65d6d4d3431f118201ca1cba,0.1066,0.1067,1,77,239,87,1,eightseven,,,,,,,,,,,,,,,,,,,,,,,,,,,,,,,,,,,,,,,,,,,,,,,,,,,,,,,,,,,,,,,,,,,,,,,,,,,,,,,,,,,,,,,,,,,,,,,,,,,,,,,,,,,,,,,,,,,,,,,,,,,,,,,,,,,,,,,,,
,,65d6bb0e977760de756971f7,2024-02-22_06h08.12.739,kallum_motion_pilot,2023.2.2,Win32,59.88023952,65c0f98cdf650fa372206adf,65d6bb0e977760de756971f7,65d6d4d3431f118201ca1cba,0.107,0.1071,1,78,240,115,1,sixeight,,,,,,,,,,,,,,,,,,,,,,,,,,,,,,,,,,,,,,,,,,,,,,,,,,,,,,,,,,,,,,,,,,,,,,,,,,,,,,,,,,,,,,,,,,,,,,,,,,,,,,,,,,,,,,,,,,,,,,,,,,,,,,,,,,,,,,,,,
,,65d6bb0e977760de756971f7,2024-02-22_06h08.12.739,kallum_motion_pilot,2023.2.2,Win32,59.88023952,65c0f98cdf650fa372206adf,65d6bb0e977760de756971f7,65d6d4d3431f118201ca1cba,0.1073,0.1074,1,79,241,31,1,fourthree,,,,,,,,,,,,,,,,,,,,,,,,,,,,,,,,,,,,,,,,,,,,,,,,,,,,,,,,,,,,,,,,,,,,,,,,,,,,,,,,,,,,,,,,,,,,,,,,,,,,,,,,,,,,,,,,,,,,,,,,,,,,,,,,,,,,,,,,,
,,65d6bb0e977760de756971f7,2024-02-22_06h08.12.739,kallum_motion_pilot,2023.2.2,Win32,59.88023952,65c0f98cdf650fa372206adf,65d6bb0e977760de756971f7,65d6d4d3431f118201ca1cba,0.1075,0.1076,1,80,242,88,1,fivesix,,,,,,,,,,,,,,,,,,,,,,,,,,,,,,,,,,,,,,,,,,,,,,,,,,,,,,,,,,,,,,,,,,,,,,,,,,,,,,,,,,,,,,,,,,,,,,,,,,,,,,,,,,,,,,,,,,,,,,,,,,,,,,,,,,,,,,,,,
,,65d6bb0e977760de756971f7,2024-02-22_06h08.12.739,kallum_motion_pilot,2023.2.2,Win32,59.88023952,65c0f98cdf650fa372206adf,65d6bb0e977760de756971f7,65d6d4d3431f118201ca1cba,0.1078,0.108,1,81,243,45,1,threefour,,,,,,,,,,,,,,,,,,,,,,,,,,,,,,,,,,,,,,,,,,,,,,,,,,,,,,,,,,,,,,,,,,,,,,,,,,,,,,,,,,,,,,,,,,,,,,,,,,,,,,,,,,,,,,,,,,,,,,,,,,,,,,,,,,,,,,,,,
,,65d6bb0e977760de756971f7,2024-02-22_06h08.12.739,kallum_motion_pilot,2023.2.2,Win32,59.88023952,65c0f98cdf650fa372206adf,65d6bb0e977760de756971f7,65d6d4d3431f118201ca1cba,0.1081,0.1082,1,82,244,16,1,onetwo,,,,,,,,,,,,,,,,,,,,,,,,,,,,,,,,,,,,,,,,,,,,,,,,,,,,,,,,,,,,,,,,,,,,,,,,,,,,,,,,,,,,,,,,,,,,,,,,,,,,,,,,,,,,,,,,,,,,,,,,,,,,,,,,,,,,,,,,,
,,65d6bb0e977760de756971f7,2024-02-22_06h08.12.739,kallum_motion_pilot,2023.2.2,Win32,59.88023952,65c0f98cdf650fa372206adf,65d6bb0e977760de756971f7,65d6d4d3431f118201ca1cba,0.1084,0.1085,1,83,245,141,1,seveneight,,,,,,,,,,,,,,,,,,,,,,,,,,,,,,,,,,,,,,,,,,,,,,,,,,,,,,,,,,,,,,,,,,,,,,,,,,,,,,,,,,,,,,,,,,,,,,,,,,,,,,,,,,,,,,,,,,,,,,,,,,,,,,,,,,,,,,,,,
,,65d6bb0e977760de756971f7,2024-02-22_06h08.12.739,kallum_motion_pilot,2023.2.2,Win32,59.88023952,65c0f98cdf650fa372206adf,65d6bb0e977760de756971f7,65d6d4d3431f118201ca1cba,0.1087,0.1089,1,84,246,5,1,threefour,,,,,,,,,,,,,,,,,,,,,,,,,,,,,,,,,,,,,,,,,,,,,,,,,,,,,,,,,,,,,,,,,,,,,,,,,,,,,,,,,,,,,,,,,,,,,,,,,,,,,,,,,,,,,,,,,,,,,,,,,,,,,,,,,,,,,,,,,
,,65d6bb0e977760de756971f7,2024-02-22_06h08.12.739,kallum_motion_pilot,2023.2.2,Win32,59.88023952,65c0f98cdf650fa372206adf,65d6bb0e977760de756971f7,65d6d4d3431f118201ca1cba,0.1091,0.1093,1,85,247,125,1,seveneight,,,,,,,,,,,,,,,,,,,,,,,,,,,,,,,,,,,,,,,,,,,,,,,,,,,,,,,,,,,,,,,,,,,,,,,,,,,,,,,,,,,,,,,,,,,,,,,,,,,,,,,,,,,,,,,,,,,,,,,,,,,,,,,,,,,,,,,,,
,,65d6bb0e977760de756971f7,2024-02-22_06h08.12.739,kallum_motion_pilot,2023.2.2,Win32,59.88023952,65c0f98cdf650fa372206adf,65d6bb0e977760de756971f7,65d6d4d3431f118201ca1cba,0.1096,0.1098,1,86,248,96,1,fivesix,,,,,,,,,,,,,,,,,,,,,,,,,,,,,,,,,,,,,,,,,,,,,,,,,,,,,,,,,,,,,,,,,,,,,,,,,,,,,,,,,,,,,,,,,,,,,,,,,,,,,,,,,,,,,,,,,,,,,,,,,,,,,,,,,,,,,,,,,
,,65d6bb0e977760de756971f7,2024-02-22_06h08.12.739,kallum_motion_pilot,2023.2.2,Win32,59.88023952,65c0f98cdf650fa372206adf,65d6bb0e977760de756971f7,65d6d4d3431f118201ca1cba,0.1099,0.1101,1,87,249,3,1,twofour,,,,,,,,,,,,,,,,,,,,,,,,,,,,,,,,,,,,,,,,,,,,,,,,,,,,,,,,,,,,,,,,,,,,,,,,,,,,,,,,,,,,,,,,,,,,,,,,,,,,,,,,,,,,,,,,,,,,,,,,,,,,,,,,,,,,,,,,,
,,65d6bb0e977760de756971f7,2024-02-22_06h08.12.739,kallum_motion_pilot,2023.2.2,Win32,59.88023952,65c0f98cdf650fa372206adf,65d6bb0e977760de756971f7,65d6d4d3431f118201ca1cba,0.1102,0.1104,1,88,250,79,1,eightseven,,,,,,,,,,,,,,,,,,,,,,,,,,,,,,,,,,,,,,,,,,,,,,,,,,,,,,,,,,,,,,,,,,,,,,,,,,,,,,,,,,,,,,,,,,,,,,,,,,,,,,,,,,,,,,,,,,,,,,,,,,,,,,,,,,,,,,,,,
,,65d6bb0e977760de756971f7,2024-02-22_06h08.12.739,kallum_motion_pilot,2023.2.2,Win32,59.88023952,65c0f98cdf650fa372206adf,65d6bb0e977760de756971f7,65d6d4d3431f118201ca1cba,0.1106,0.1106,1,89,251,142,1,eightsix,,,,,,,,,,,,,,,,,,,,,,,,,,,,,,,,,,,,,,,,,,,,,,,,,,,,,,,,,,,,,,,,,,,,,,,,,,,,,,,,,,,,,,,,,,,,,,,,,,,,,,,,,,,,,,,,,,,,,,,,,,,,,,,,,,,,,,,,,
,,65d6bb0e977760de756971f7,2024-02-22_06h08.12.739,kallum_motion_pilot,2023.2.2,Win32,59.88023952,65c0f98cdf650fa372206adf,65d6bb0e977760de756971f7,65d6d4d3431f118201ca1cba,0.1108,0.1109,1,90,252,52,1,threeone,,,,,,,,,,,,,,,,,,,,,,,,,,,,,,,,,,,,,,,,,,,,,,,,,,,,,,,,,,,,,,,,,,,,,,,,,,,,,,,,,,,,,,,,,,,,,,,,,,,,,,,,,,,,,,,,,,,,,,,,,,,,,,,,,,,,,,,,,
,,65d6bb0e977760de756971f7,2024-02-22_06h08.12.739,kallum_motion_pilot,2023.2.2,Win32,59.88023952,65c0f98cdf650fa372206adf,65d6bb0e977760de756971f7,65d6d4d3431f118201ca1cba,0.1111,0.1112,1,91,253,17,1,onethree,,,,,,,,,,,,,,,,,,,,,,,,,,,,,,,,,,,,,,,,,,,,,,,,,,,,,,,,,,,,,,,,,,,,,,,,,,,,,,,,,,,,,,,,,,,,,,,,,,,,,,,,,,,,,,,,,,,,,,,,,,,,,,,,,,,,,,,,,
,,65d6bb0e977760de756971f7,2024-02-22_06h08.12.739,kallum_motion_pilot,2023.2.2,Win32,59.88023952,65c0f98cdf650fa372206adf,65d6bb0e977760de756971f7,65d6d4d3431f118201ca1cba,0.1114,0.1115,1,92,254,59,1,twofour,,,,,,,,,,,,,,,,,,,,,,,,,,,,,,,,,,,,,,,,,,,,,,,,,,,,,,,,,,,,,,,,,,,,,,,,,,,,,,,,,,,,,,,,,,,,,,,,,,,,,,,,,,,,,,,,,,,,,,,,,,,,,,,,,,,,,,,,,
,,65d6bb0e977760de756971f7,2024-02-22_06h08.12.739,kallum_motion_pilot,2023.2.2,Win32,59.88023952,65c0f98cdf650fa372206adf,65d6bb0e977760de756971f7,65d6d4d3431f118201ca1cba,0.1116,0.1119,1,93,255,130,1,sixfive,,,,,,,,,,,,,,,,,,,,,,,,,,,,,,,,,,,,,,,,,,,,,,,,,,,,,,,,,,,,,,,,,,,,,,,,,,,,,,,,,,,,,,,,,,,,,,,,,,,,,,,,,,,,,,,,,,,,,,,,,,,,,,,,,,,,,,,,,
,,65d6bb0e977760de756971f7,2024-02-22_06h08.12.739,kallum_motion_pilot,2023.2.2,Win32,59.88023952,65c0f98cdf650fa372206adf,65d6bb0e977760de756971f7,65d6d4d3431f118201ca1cba,0.112,0.1121,1,94,256,74,1,twoone,,,,,,,,,,,,,,,,,,,,,,,,,,,,,,,,,,,,,,,,,,,,,,,,,,,,,,,,,,,,,,,,,,,,,,,,,,,,,,,,,,,,,,,,,,,,,,,,,,,,,,,,,,,,,,,,,,,,,,,,,,,,,,,,,,,,,,,,,
,,65d6bb0e977760de756971f7,2024-02-22_06h08.12.739,kallum_motion_pilot,2023.2.2,Win32,59.88023952,65c0f98cdf650fa372206adf,65d6bb0e977760de756971f7,65d6d4d3431f118201ca1cba,0.1122,0.1124,1,95,257,47,1,fourthree,,,,,,,,,,,,,,,,,,,,,,,,,,,,,,,,,,,,,,,,,,,,,,,,,,,,,,,,,,,,,,,,,,,,,,,,,,,,,,,,,,,,,,,,,,,,,,,,,,,,,,,,,,,,,,,,,,,,,,,,,,,,,,,,,,,,,,,,,
,,65d6bb0e977760de756971f7,2024-02-22_06h08.12.739,kallum_motion_pilot,2023.2.2,Win32,59.88023952,65c0f98cdf650fa372206adf,65d6bb0e977760de756971f7,65d6d4d3431f118201ca1cba,0.1125,0.1126,1,96,258,9,1,onethree,,,,,,,,,,,,,,,,,,,,,,,,,,,,,,,,,,,,,,,,,,,,,,,,,,,,,,,,,,,,,,,,,,,,,,,,,,,,,,,,,,,,,,,,,,,,,,,,,,,,,,,,,,,,,,,,,,,,,,,,,,,,,,,,,,,,,,,,,
,,65d6bb0e977760de756971f7,2024-02-22_06h08.12.739,kallum_motion_pilot,2023.2.2,Win32,59.88023952,65c0f98cdf650fa372206adf,65d6bb0e977760de756971f7,65d6d4d3431f118201ca1cba,0.1127,0.1128,1,97,259,2,1,twoone,,,,,,,,,,,,,,,,,,,,,,,,,,,,,,,,,,,,,,,,,,,,,,,,,,,,,,,,,,,,,,,,,,,,,,,,,,,,,,,,,,,,,,,,,,,,,,,,,,,,,,,,,,,,,,,,,,,,,,,,,,,,,,,,,,,,,,,,,
,,65d6bb0e977760de756971f7,2024-02-22_06h08.12.739,kallum_motion_pilot,2023.2.2,Win32,59.88023952,65c0f98cdf650fa372206adf,65d6bb0e977760de756971f7,65d6d4d3431f118201ca1cba,0.113,0.1131,1,98,260,139,1,sixeight,,,,,,,,,,,,,,,,,,,,,,,,,,,,,,,,,,,,,,,,,,,,,,,,,,,,,,,,,,,,,,,,,,,,,,,,,,,,,,,,,,,,,,,,,,,,,,,,,,,,,,,,,,,,,,,,,,,,,,,,,,,,,,,,,,,,,,,,,
,,65d6bb0e977760de756971f7,2024-02-22_06h08.12.739,kallum_motion_pilot,2023.2.2,Win32,59.88023952,65c0f98cdf650fa372206adf,65d6bb0e977760de756971f7,65d6d4d3431f118201ca1cba,0.1132,0.1134,1,99,261,18,1,twoone,,,,,,,,,,,,,,,,,,,,,,,,,,,,,,,,,,,,,,,,,,,,,,,,,,,,,,,,,,,,,,,,,,,,,,,,,,,,,,,,,,,,,,,,,,,,,,,,,,,,,,,,,,,,,,,,,,,,,,,,,,,,,,,,,,,,,,,,,
,,65d6bb0e977760de756971f7,2024-02-22_06h08.12.739,kallum_motion_pilot,2023.2.2,Win32,59.88023952,65c0f98cdf650fa372206adf,65d6bb0e977760de756971f7,65d6d4d3431f118201ca1cba,0.1136,0.1138,1,100,262,160,1,fivesix,,,,,,,,,,,,,,,,,,,,,,,,,,,,,,,,,,,,,,,,,,,,,,,,,,,,,,,,,,,,,,,,,,,,,,,,,,,,,,,,,,,,,,,,,,,,,,,,,,,,,,,,,,,,,,,,,,,,,,,,,,,,,,,,,,,,,,,,,
,,65d6bb0e977760de756971f7,2024-02-22_06h08.12.739,kallum_motion_pilot,2023.2.2,Win32,59.88023952,65c0f98cdf650fa372206adf,65d6bb0e977760de756971f7,65d6d4d3431f118201ca1cba,0.114,0.1141,1,101,263,82,1,sixfive,,,,,,,,,,,,,,,,,,,,,,,,,,,,,,,,,,,,,,,,,,,,,,,,,,,,,,,,,,,,,,,,,,,,,,,,,,,,,,,,,,,,,,,,,,,,,,,,,,,,,,,,,,,,,,,,,,,,,,,,,,,,,,,,,,,,,,,,,
,,65d6bb0e977760de756971f7,2024-02-22_06h08.12.739,kallum_motion_pilot,2023.2.2,Win32,59.88023952,65c0f98cdf650fa372206adf,65d6bb0e977760de756971f7,65d6d4d3431f118201ca1cba,0.1143,0.1144,1,102,264,99,1,sixeight,,,,,,,,,,,,,,,,,,,,,,,,,,,,,,,,,,,,,,,,,,,,,,,,,,,,,,,,,,,,,,,,,,,,,,,,,,,,,,,,,,,,,,,,,,,,,,,,,,,,,,,,,,,,,,,,,,,,,,,,,,,,,,,,,,,,,,,,,
,,65d6bb0e977760de756971f7,2024-02-22_06h08.12.739,kallum_motion_pilot,2023.2.2,Win32,59.88023952,65c0f98cdf650fa372206adf,65d6bb0e977760de756971f7,65d6d4d3431f118201ca1cba,0.1146,0.1147,1,103,265,95,1,eightseven,,,,,,,,,,,,,,,,,,,,,,,,,,,,,,,,,,,,,,,,,,,,,,,,,,,,,,,,,,,,,,,,,,,,,,,,,,,,,,,,,,,,,,,,,,,,,,,,,,,,,,,,,,,,,,,,,,,,,,,,,,,,,,,,,,,,,,,,,
,,65d6bb0e977760de756971f7,2024-02-22_06h08.12.739,kallum_motion_pilot,2023.2.2,Win32,59.88023952,65c0f98cdf650fa372206adf,65d6bb0e977760de756971f7,65d6d4d3431f118201ca1cba,0.1149,0.1151,1,104,266,108,1,sevenfive,,,,,,,,,,,,,,,,,,,,,,,,,,,,,,,,,,,,,,,,,,,,,,,,,,,,,,,,,,,,,,,,,,,,,,,,,,,,,,,,,,,,,,,,,,,,,,,,,,,,,,,,,,,,,,,,,,,,,,,,,,,,,,,,,,,,,,,,,
,,65d6bb0e977760de756971f7,2024-02-22_06h08.12.739,kallum_motion_pilot,2023.2.2,Win32,59.88023952,65c0f98cdf650fa372206adf,65d6bb0e977760de756971f7,65d6d4d3431f118201ca1cba,0.1153,0.1155,1,105,267,103,1,eightseven,,,,,,,,,,,,,,,,,,,,,,,,,,,,,,,,,,,,,,,,,,,,,,,,,,,,,,,,,,,,,,,,,,,,,,,,,,,,,,,,,,,,,,,,,,,,,,,,,,,,,,,,,,,,,,,,,,,,,,,,,,,,,,,,,,,,,,,,,
,,65d6bb0e977760de756971f7,2024-02-22_06h08.12.739,kallum_motion_pilot,2023.2.2,Win32,59.88023952,65c0f98cdf650fa372206adf,65d6bb0e977760de756971f7,65d6d4d3431f118201ca1cba,0.1157,0.1159,1,106,268,43,1,twofour,,,,,,,,,,,,,,,,,,,,,,,,,,,,,,,,,,,,,,,,,,,,,,,,,,,,,,,,,,,,,,,,,,,,,,,,,,,,,,,,,,,,,,,,,,,,,,,,,,,,,,,,,,,,,,,,,,,,,,,,,,,,,,,,,,,,,,,,,
,,65d6bb0e977760de756971f7,2024-02-22_06h08.12.739,kallum_motion_pilot,2023.2.2,Win32,59.88023952,65c0f98cdf650fa372206adf,65d6bb0e977760de756971f7,65d6d4d3431f118201ca1cba,0.116,0.1162,1,107,269,33,1,onethree,,,,,,,,,,,,,,,,,,,,,,,,,,,,,,,,,,,,,,,,,,,,,,,,,,,,,,,,,,,,,,,,,,,,,,,,,,,,,,,,,,,,,,,,,,,,,,,,,,,,,,,,,,,,,,,,,,,,,,,,,,,,,,,,,,,,,,,,,
,,65d6bb0e977760de756971f7,2024-02-22_06h08.12.739,kallum_motion_pilot,2023.2.2,Win32,59.88023952,65c0f98cdf650fa372206adf,65d6bb0e977760de756971f7,65d6d4d3431f118201ca1cba,0.1164,0.1165,1,108,270,44,1,threeone,,,,,,,,,,,,,,,,,,,,,,,,,,,,,,,,,,,,,,,,,,,,,,,,,,,,,,,,,,,,,,,,,,,,,,,,,,,,,,,,,,,,,,,,,,,,,,,,,,,,,,,,,,,,,,,,,,,,,,,,,,,,,,,,,,,,,,,,,
,,65d6bb0e977760de756971f7,2024-02-22_06h08.12.739,kallum_motion_pilot,2023.2.2,Win32,59.88023952,65c0f98cdf650fa372206adf,65d6bb0e977760de756971f7,65d6d4d3431f118201ca1cba,0.1167,0.1168,1,109,271,123,1,sixeight,,,,,,,,,,,,,,,,,,,,,,,,,,,,,,,,,,,,,,,,,,,,,,,,,,,,,,,,,,,,,,,,,,,,,,,,,,,,,,,,,,,,,,,,,,,,,,,,,,,,,,,,,,,,,,,,,,,,,,,,,,,,,,,,,,,,,,,,,
,,65d6bb0e977760de756971f7,2024-02-22_06h08.12.739,kallum_motion_pilot,2023.2.2,Win32,59.88023952,65c0f98cdf650fa372206adf,65d6bb0e977760de756971f7,65d6d4d3431f118201ca1cba,0.1169,0.1171,1,110,272,58,1,twoone,,,,,,,,,,,,,,,,,,,,,,,,,,,,,,,,,,,,,,,,,,,,,,,,,,,,,,,,,,,,,,,,,,,,,,,,,,,,,,,,,,,,,,,,,,,,,,,,,,,,,,,,,,,,,,,,,,,,,,,,,,,,,,,,,,,,,,,,,
,,65d6bb0e977760de756971f7,2024-02-22_06h08.12.739,kallum_motion_pilot,2023.2.2,Win32,59.88023952,65c0f98cdf650fa372206adf,65d6bb0e977760de756971f7,65d6d4d3431f118201ca1cba,0.1173,0.1174,1,111,273,133,1,seveneight,,,,,,,,,,,,,,,,,,,,,,,,,,,,,,,,,,,,,,,,,,,,,,,,,,,,,,,,,,,,,,,,,,,,,,,,,,,,,,,,,,,,,,,,,,,,,,,,,,,,,,,,,,,,,,,,,,,,,,,,,,,,,,,,,,,,,,,,,
,,65d6bb0e977760de756971f7,2024-02-22_06h08.12.739,kallum_motion_pilot,2023.2.2,Win32,59.88023952,65c0f98cdf650fa372206adf,65d6bb0e977760de756971f7,65d6d4d3431f118201ca1cba,0.1176,0.1177,1,112,274,100,1,sevenfive,,,,,,,,,,,,,,,,,,,,,,,,,,,,,,,,,,,,,,,,,,,,,,,,,,,,,,,,,,,,,,,,,,,,,,,,,,,,,,,,,,,,,,,,,,,,,,,,,,,,,,,,,,,,,,,,,,,,,,,,,,,,,,,,,,,,,,,,,
,,65d6bb0e977760de756971f7,2024-02-22_06h08.12.739,kallum_motion_pilot,2023.2.2,Win32,59.88023952,65c0f98cdf650fa372206adf,65d6bb0e977760de756971f7,65d6d4d3431f118201ca1cba,0.1191,0.1192,1,113,275,81,1,fiveseven,,,,,,,,,,,,,,,,,,,,,,,,,,,,,,,,,,,,,,,,,,,,,,,,,,,,,,,,,,,,,,,,,,,,,,,,,,,,,,,,,,,,,,,,,,,,,,,,,,,,,,,,,,,,,,,,,,,,,,,,,,,,,,,,,,,,,,,,,
,,65d6bb0e977760de756971f7,2024-02-22_06h08.12.739,kallum_motion_pilot,2023.2.2,Win32,59.88023952,65c0f98cdf650fa372206adf,65d6bb0e977760de756971f7,65d6d4d3431f118201ca1cba,0.1197,0.1201,1,114,276,1,1,onethree,,,,,,,,,,,,,,,,,,,,,,,,,,,,,,,,,,,,,,,,,,,,,,,,,,,,,,,,,,,,,,,,,,,,,,,,,,,,,,,,,,,,,,,,,,,,,,,,,,,,,,,,,,,,,,,,,,,,,,,,,,,,,,,,,,,,,,,,,
,,65d6bb0e977760de756971f7,2024-02-22_06h08.12.739,kallum_motion_pilot,2023.2.2,Win32,59.88023952,65c0f98cdf650fa372206adf,65d6bb0e977760de756971f7,65d6d4d3431f118201ca1cba,0.1206,0.1209,1,115,277,37,1,threefour,,,,,,,,,,,,,,,,,,,,,,,,,,,,,,,,,,,,,,,,,,,,,,,,,,,,,,,,,,,,,,,,,,,,,,,,,,,,,,,,,,,,,,,,,,,,,,,,,,,,,,,,,,,,,,,,,,,,,,,,,,,,,,,,,,,,,,,,,
