startup.started,startup.stopped,Prolific ID*,date,expName,psychopyVersion,OS,frameRate,participant,study_id,session,stimpositions.started,stimpositions.stopped,hardcoded_stimulus_positions.thisRepN,hardcoded_stimulus_positions.thisTrialN,hardcoded_stimulus_positions.thisN,hardcoded_stimulus_positions.thisIndex,hardcoded_stimulus_positions.ran,StimulusPos,stimorientation.started,stimorientation.stopped,prac_stimorientation_import_loop.thisRepN,prac_stimorientation_import_loop.thisTrialN,prac_stimorientation_import_loop.thisN,prac_stimorientation_import_loop.thisIndex,prac_stimorientation_import_loop.ran,Stimorientation,welcome_instr.started,welcome_instr.stopped,key_resp.keys,key_resp.rt,key_resp.duration,response_steppedout_1.started,response_steppedout_1.stopped,key_resp_20.keys,key_resp_20.rt,key_resp_20.duration,response_steppedout_2.started,response_steppedout_2.stopped,key_resp_19.keys,key_resp_19.rt,key_resp_19.duration,stim_response_instr.started,stim_response_instr.stopped,key_resp_15.keys,key_resp_15.rt,key_resp_15.duration,direction_instr_2.started,direction_instr_2.stopped,key_resp_9.keys,key_resp_9.rt,key_resp_9.duration,instr_prac.started,instr_prac.stopped,key_resp_10.keys,key_resp_10.rt,key_resp_10.duration,Stim1_display_prac.started,Stim1_display_prac.stopped,Ecc,Circle1_ori,Circle2_ori,response_prac.started,similarity,response_time,response_prac.stopped,mouse_5.x,mouse_5.y,mouse_5.leftButton,mouse_5.midButton,mouse_5.rightButton,mouse_5.clicked_name,responseprac_feedback.started,responseprac_feedback.stopped,summary2_prac.started,summary2_prac.stopped,mouse_6.x,mouse_6.y,mouse_6.leftButton,mouse_6.midButton,mouse_6.rightButton,mouse_6.clicked_name,duringprac.thisRepN,duringprac.thisTrialN,duringprac.thisN,duringprac.thisIndex,duringprac.ran,begin.started,begin.stopped,key_resp_22.keys,key_resp_22.rt,key_resp_22.duration,Stim1_display.started,Stim1_display.stopped,circle1_ori,circle2_ori,circle1_SF,circle2_SF,response.started,response.stopped,mouse.x,mouse.y,mouse.leftButton,mouse.midButton,mouse.rightButton,mouse.clicked_name,trialnumber,double_pass.thisRepN,double_pass.thisTrialN,double_pass.thisN,double_pass.thisIndex,double_pass.ran,double_pass.order,main_trial.thisRepN,main_trial.thisTrialN,main_trial.thisN,main_trial.thisIndex,main_trial.ran,main_trial.order,Trial_Counter,Catch,Frequencies,response_2.started,response_2.stopped,mouse_2.x,mouse_2.y,mouse_2.leftButton,mouse_2.midButton,mouse_2.rightButton,mouse_2.clicked_name,special_trial.started,special_trial.stopped,catch_1.started,catch_1.stopped,mouse_3.x,mouse_3.y,mouse_3.leftButton,mouse_3.midButton,mouse_3.rightButton,catchresponse,catchnumber,response_time_catch,response_sum.started,response_sum.stopped,mouse_11.x,mouse_11.y,mouse_11.leftButton,mouse_11.midButton,mouse_11.rightButton,flip_presentation_sequence_for_double_pass.started,flip_presentation_sequence_for_double_pass.stopped,goodbye.started,goodbye.stopped,key_resp_3.keys,key_resp_3.rt,key_resp_3.duration
0.0005,0.0007,65c12f82f8bf47156aa06152,2024-02-21_21h28.08.193,kallum_motion_pilot,2023.2.2,Win32,7.44047619,65c12f82f8bf47156aa06152,65d6bb0e977760de756971f7,65d6bf2c6871e82dfed53f29,,,,,,,,,,,,,,,,,,,,,,,,,,,,,,,,,,,,,,,,,,,,,,,,,,,,,,,,,,,,,,,,,,,,,,,,,,,,,,,,,,,,,,,,,,,,,,,,,,,,,,,,,,,,,,,,,,,,,,,,,,,,,,,,,,,,,,,,,,,,,,,,,
,,65c12f82f8bf47156aa06152,2024-02-21_21h28.08.193,kallum_motion_pilot,2023.2.2,Win32,7.44047619,65c12f82f8bf47156aa06152,65d6bb0e977760de756971f7,65d6bf2c6871e82dfed53f29,0.0334,0.0338,0,0,0,0,1,onetwo,,,,,,,,,,,,,,,,,,,,,,,,,,,,,,,,,,,,,,,,,,,,,,,,,,,,,,,,,,,,,,,,,,,,,,,,,,,,,,,,,,,,,,,,,,,,,,,,,,,,,,,,,,,,,,,,,,,,,,,,,,,,,,,,,,,,,,,,,
,,65c12f82f8bf47156aa06152,2024-02-21_21h28.08.193,kallum_motion_pilot,2023.2.2,Win32,7.44047619,65c12f82f8bf47156aa06152,65d6bb0e977760de756971f7,65d6bf2c6871e82dfed53f29,0.0342,0.0342,0,1,1,34,1,twoone,,,,,,,,,,,,,,,,,,,,,,,,,,,,,,,,,,,,,,,,,,,,,,,,,,,,,,,,,,,,,,,,,,,,,,,,,,,,,,,,,,,,,,,,,,,,,,,,,,,,,,,,,,,,,,,,,,,,,,,,,,,,,,,,,,,,,,,,,
,,65c12f82f8bf47156aa06152,2024-02-21_21h28.08.193,kallum_motion_pilot,2023.2.2,Win32,7.44047619,65c12f82f8bf47156aa06152,65d6bb0e977760de756971f7,65d6bf2c6871e82dfed53f29,0.0344,0.0345,0,2,2,39,1,fourthree,,,,,,,,,,,,,,,,,,,,,,,,,,,,,,,,,,,,,,,,,,,,,,,,,,,,,,,,,,,,,,,,,,,,,,,,,,,,,,,,,,,,,,,,,,,,,,,,,,,,,,,,,,,,,,,,,,,,,,,,,,,,,,,,,,,,,,,,,
,,65c12f82f8bf47156aa06152,2024-02-21_21h28.08.193,kallum_motion_pilot,2023.2.2,Win32,7.44047619,65c12f82f8bf47156aa06152,65d6bb0e977760de756971f7,65d6bf2c6871e82dfed53f29,0.0346,0.0347,0,3,3,51,1,twofour,,,,,,,,,,,,,,,,,,,,,,,,,,,,,,,,,,,,,,,,,,,,,,,,,,,,,,,,,,,,,,,,,,,,,,,,,,,,,,,,,,,,,,,,,,,,,,,,,,,,,,,,,,,,,,,,,,,,,,,,,,,,,,,,,,,,,,,,,
,,65c12f82f8bf47156aa06152,2024-02-21_21h28.08.193,kallum_motion_pilot,2023.2.2,Win32,7.44047619,65c12f82f8bf47156aa06152,65d6bb0e977760de756971f7,65d6bf2c6871e82dfed53f29,0.035,0.0351,0,4,4,16,1,onetwo,,,,,,,,,,,,,,,,,,,,,,,,,,,,,,,,,,,,,,,,,,,,,,,,,,,,,,,,,,,,,,,,,,,,,,,,,,,,,,,,,,,,,,,,,,,,,,,,,,,,,,,,,,,,,,,,,,,,,,,,,,,,,,,,,,,,,,,,,
,,65c12f82f8bf47156aa06152,2024-02-21_21h28.08.193,kallum_motion_pilot,2023.2.2,Win32,7.44047619,65c12f82f8bf47156aa06152,65d6bb0e977760de756971f7,65d6bf2c6871e82dfed53f29,0.0352,0.0352,0,5,5,122,1,sixfive,,,,,,,,,,,,,,,,,,,,,,,,,,,,,,,,,,,,,,,,,,,,,,,,,,,,,,,,,,,,,,,,,,,,,,,,,,,,,,,,,,,,,,,,,,,,,,,,,,,,,,,,,,,,,,,,,,,,,,,,,,,,,,,,,,,,,,,,,
,,65c12f82f8bf47156aa06152,2024-02-21_21h28.08.193,kallum_motion_pilot,2023.2.2,Win32,7.44047619,65c12f82f8bf47156aa06152,65d6bb0e977760de756971f7,65d6bf2c6871e82dfed53f29,0.0355,0.0355,0,6,6,126,1,eightsix,,,,,,,,,,,,,,,,,,,,,,,,,,,,,,,,,,,,,,,,,,,,,,,,,,,,,,,,,,,,,,,,,,,,,,,,,,,,,,,,,,,,,,,,,,,,,,,,,,,,,,,,,,,,,,,,,,,,,,,,,,,,,,,,,,,,,,,,,
,,65c12f82f8bf47156aa06152,2024-02-21_21h28.08.193,kallum_motion_pilot,2023.2.2,Win32,7.44047619,65c12f82f8bf47156aa06152,65d6bb0e977760de756971f7,65d6bf2c6871e82dfed53f29,0.0357,0.0357,0,7,7,156,1,sevenfive,,,,,,,,,,,,,,,,,,,,,,,,,,,,,,,,,,,,,,,,,,,,,,,,,,,,,,,,,,,,,,,,,,,,,,,,,,,,,,,,,,,,,,,,,,,,,,,,,,,,,,,,,,,,,,,,,,,,,,,,,,,,,,,,,,,,,,,,,
,,65c12f82f8bf47156aa06152,2024-02-21_21h28.08.193,kallum_motion_pilot,2023.2.2,Win32,7.44047619,65c12f82f8bf47156aa06152,65d6bb0e977760de756971f7,65d6bf2c6871e82dfed53f29,0.0359,0.0361,0,8,8,158,1,eightsix,,,,,,,,,,,,,,,,,,,,,,,,,,,,,,,,,,,,,,,,,,,,,,,,,,,,,,,,,,,,,,,,,,,,,,,,,,,,,,,,,,,,,,,,,,,,,,,,,,,,,,,,,,,,,,,,,,,,,,,,,,,,,,,,,,,,,,,,,
,,65c12f82f8bf47156aa06152,2024-02-21_21h28.08.193,kallum_motion_pilot,2023.2.2,Win32,7.44047619,65c12f82f8bf47156aa06152,65d6bb0e977760de756971f7,65d6bf2c6871e82dfed53f29,0.0363,0.0363,0,9,9,83,1,sixeight,,,,,,,,,,,,,,,,,,,,,,,,,,,,,,,,,,,,,,,,,,,,,,,,,,,,,,,,,,,,,,,,,,,,,,,,,,,,,,,,,,,,,,,,,,,,,,,,,,,,,,,,,,,,,,,,,,,,,,,,,,,,,,,,,,,,,,,,,
,,65c12f82f8bf47156aa06152,2024-02-21_21h28.08.193,kallum_motion_pilot,2023.2.2,Win32,7.44047619,65c12f82f8bf47156aa06152,65d6bb0e977760de756971f7,65d6bf2c6871e82dfed53f29,0.0364,0.0365,0,10,10,125,1,seveneight,,,,,,,,,,,,,,,,,,,,,,,,,,,,,,,,,,,,,,,,,,,,,,,,,,,,,,,,,,,,,,,,,,,,,,,,,,,,,,,,,,,,,,,,,,,,,,,,,,,,,,,,,,,,,,,,,,,,,,,,,,,,,,,,,,,,,,,,,
,,65c12f82f8bf47156aa06152,2024-02-21_21h28.08.193,kallum_motion_pilot,2023.2.2,Win32,7.44047619,65c12f82f8bf47156aa06152,65d6bb0e977760de756971f7,65d6bf2c6871e82dfed53f29,0.0368,0.0368,0,11,11,61,1,threefour,,,,,,,,,,,,,,,,,,,,,,,,,,,,,,,,,,,,,,,,,,,,,,,,,,,,,,,,,,,,,,,,,,,,,,,,,,,,,,,,,,,,,,,,,,,,,,,,,,,,,,,,,,,,,,,,,,,,,,,,,,,,,,,,,,,,,,,,,
,,65c12f82f8bf47156aa06152,2024-02-21_21h28.08.193,kallum_motion_pilot,2023.2.2,Win32,7.44047619,65c12f82f8bf47156aa06152,65d6bb0e977760de756971f7,65d6bf2c6871e82dfed53f29,0.037,0.0371,0,12,12,91,1,sixeight,,,,,,,,,,,,,,,,,,,,,,,,,,,,,,,,,,,,,,,,,,,,,,,,,,,,,,,,,,,,,,,,,,,,,,,,,,,,,,,,,,,,,,,,,,,,,,,,,,,,,,,,,,,,,,,,,,,,,,,,,,,,,,,,,,,,,,,,,
,,65c12f82f8bf47156aa06152,2024-02-21_21h28.08.193,kallum_motion_pilot,2023.2.2,Win32,7.44047619,65c12f82f8bf47156aa06152,65d6bb0e977760de756971f7,65d6bf2c6871e82dfed53f29,0.0373,0.0373,0,13,13,32,1,onetwo,,,,,,,,,,,,,,,,,,,,,,,,,,,,,,,,,,,,,,,,,,,,,,,,,,,,,,,,,,,,,,,,,,,,,,,,,,,,,,,,,,,,,,,,,,,,,,,,,,,,,,,,,,,,,,,,,,,,,,,,,,,,,,,,,,,,,,,,,
,,65c12f82f8bf47156aa06152,2024-02-21_21h28.08.193,kallum_motion_pilot,2023.2.2,Win32,7.44047619,65c12f82f8bf47156aa06152,65d6bb0e977760de756971f7,65d6bf2c6871e82dfed53f29,0.0375,0.0375,0,14,14,7,1,fourthree,,,,,,,,,,,,,,,,,,,,,,,,,,,,,,,,,,,,,,,,,,,,,,,,,,,,,,,,,,,,,,,,,,,,,,,,,,,,,,,,,,,,,,,,,,,,,,,,,,,,,,,,,,,,,,,,,,,,,,,,,,,,,,,,,,,,,,,,,
,,65c12f82f8bf47156aa06152,2024-02-21_21h28.08.193,kallum_motion_pilot,2023.2.2,Win32,7.44047619,65c12f82f8bf47156aa06152,65d6bb0e977760de756971f7,65d6bf2c6871e82dfed53f29,0.0376,0.0376,0,15,15,149,1,seveneight,,,,,,,,,,,,,,,,,,,,,,,,,,,,,,,,,,,,,,,,,,,,,,,,,,,,,,,,,,,,,,,,,,,,,,,,,,,,,,,,,,,,,,,,,,,,,,,,,,,,,,,,,,,,,,,,,,,,,,,,,,,,,,,,,,,,,,,,,
,,65c12f82f8bf47156aa06152,2024-02-21_21h28.08.193,kallum_motion_pilot,2023.2.2,Win32,7.44047619,65c12f82f8bf47156aa06152,65d6bb0e977760de756971f7,65d6bf2c6871e82dfed53f29,0.0377,0.0377,0,16,16,101,1,seveneight,,,,,,,,,,,,,,,,,,,,,,,,,,,,,,,,,,,,,,,,,,,,,,,,,,,,,,,,,,,,,,,,,,,,,,,,,,,,,,,,,,,,,,,,,,,,,,,,,,,,,,,,,,,,,,,,,,,,,,,,,,,,,,,,,,,,,,,,,
,,65c12f82f8bf47156aa06152,2024-02-21_21h28.08.193,kallum_motion_pilot,2023.2.2,Win32,7.44047619,65c12f82f8bf47156aa06152,65d6bb0e977760de756971f7,65d6bf2c6871e82dfed53f29,0.0379,0.0379,0,17,17,92,1,sevenfive,,,,,,,,,,,,,,,,,,,,,,,,,,,,,,,,,,,,,,,,,,,,,,,,,,,,,,,,,,,,,,,,,,,,,,,,,,,,,,,,,,,,,,,,,,,,,,,,,,,,,,,,,,,,,,,,,,,,,,,,,,,,,,,,,,,,,,,,,
,,65c12f82f8bf47156aa06152,2024-02-21_21h28.08.193,kallum_motion_pilot,2023.2.2,Win32,7.44047619,65c12f82f8bf47156aa06152,65d6bb0e977760de756971f7,65d6bf2c6871e82dfed53f29,0.038,0.0381,0,18,18,15,1,fourthree,,,,,,,,,,,,,,,,,,,,,,,,,,,,,,,,,,,,,,,,,,,,,,,,,,,,,,,,,,,,,,,,,,,,,,,,,,,,,,,,,,,,,,,,,,,,,,,,,,,,,,,,,,,,,,,,,,,,,,,,,,,,,,,,,,,,,,,,,
,,65c12f82f8bf47156aa06152,2024-02-21_21h28.08.193,kallum_motion_pilot,2023.2.2,Win32,7.44047619,65c12f82f8bf47156aa06152,65d6bb0e977760de756971f7,65d6bf2c6871e82dfed53f29,0.0382,0.0383,0,19,19,67,1,twofour,,,,,,,,,,,,,,,,,,,,,,,,,,,,,,,,,,,,,,,,,,,,,,,,,,,,,,,,,,,,,,,,,,,,,,,,,,,,,,,,,,,,,,,,,,,,,,,,,,,,,,,,,,,,,,,,,,,,,,,,,,,,,,,,,,,,,,,,,
,,65c12f82f8bf47156aa06152,2024-02-21_21h28.08.193,kallum_motion_pilot,2023.2.2,Win32,7.44047619,65c12f82f8bf47156aa06152,65d6bb0e977760de756971f7,65d6bf2c6871e82dfed53f29,0.0385,0.0385,0,20,20,48,1,onetwo,,,,,,,,,,,,,,,,,,,,,,,,,,,,,,,,,,,,,,,,,,,,,,,,,,,,,,,,,,,,,,,,,,,,,,,,,,,,,,,,,,,,,,,,,,,,,,,,,,,,,,,,,,,,,,,,,,,,,,,,,,,,,,,,,,,,,,,,,
,,65c12f82f8bf47156aa06152,2024-02-21_21h28.08.193,kallum_motion_pilot,2023.2.2,Win32,7.44047619,65c12f82f8bf47156aa06152,65d6bb0e977760de756971f7,65d6bf2c6871e82dfed53f29,0.0386,0.0386,0,21,21,105,1,fiveseven,,,,,,,,,,,,,,,,,,,,,,,,,,,,,,,,,,,,,,,,,,,,,,,,,,,,,,,,,,,,,,,,,,,,,,,,,,,,,,,,,,,,,,,,,,,,,,,,,,,,,,,,,,,,,,,,,,,,,,,,,,,,,,,,,,,,,,,,,
,,65c12f82f8bf47156aa06152,2024-02-21_21h28.08.193,kallum_motion_pilot,2023.2.2,Win32,7.44047619,65c12f82f8bf47156aa06152,65d6bb0e977760de756971f7,65d6bf2c6871e82dfed53f29,0.0387,0.0388,0,22,22,65,1,onethree,,,,,,,,,,,,,,,,,,,,,,,,,,,,,,,,,,,,,,,,,,,,,,,,,,,,,,,,,,,,,,,,,,,,,,,,,,,,,,,,,,,,,,,,,,,,,,,,,,,,,,,,,,,,,,,,,,,,,,,,,,,,,,,,,,,,,,,,,
,,65c12f82f8bf47156aa06152,2024-02-21_21h28.08.193,kallum_motion_pilot,2023.2.2,Win32,7.44047619,65c12f82f8bf47156aa06152,65d6bb0e977760de756971f7,65d6bf2c6871e82dfed53f29,0.039,0.039,0,23,23,94,1,eightsix,,,,,,,,,,,,,,,,,,,,,,,,,,,,,,,,,,,,,,,,,,,,,,,,,,,,,,,,,,,,,,,,,,,,,,,,,,,,,,,,,,,,,,,,,,,,,,,,,,,,,,,,,,,,,,,,,,,,,,,,,,,,,,,,,,,,,,,,,
,,65c12f82f8bf47156aa06152,2024-02-21_21h28.08.193,kallum_motion_pilot,2023.2.2,Win32,7.44047619,65c12f82f8bf47156aa06152,65d6bb0e977760de756971f7,65d6bf2c6871e82dfed53f29,0.0392,0.0393,0,24,24,18,1,twoone,,,,,,,,,,,,,,,,,,,,,,,,,,,,,,,,,,,,,,,,,,,,,,,,,,,,,,,,,,,,,,,,,,,,,,,,,,,,,,,,,,,,,,,,,,,,,,,,,,,,,,,,,,,,,,,,,,,,,,,,,,,,,,,,,,,,,,,,,
,,65c12f82f8bf47156aa06152,2024-02-21_21h28.08.193,kallum_motion_pilot,2023.2.2,Win32,7.44047619,65c12f82f8bf47156aa06152,65d6bb0e977760de756971f7,65d6bf2c6871e82dfed53f29,0.0395,0.0396,0,25,25,124,1,sevenfive,,,,,,,,,,,,,,,,,,,,,,,,,,,,,,,,,,,,,,,,,,,,,,,,,,,,,,,,,,,,,,,,,,,,,,,,,,,,,,,,,,,,,,,,,,,,,,,,,,,,,,,,,,,,,,,,,,,,,,,,,,,,,,,,,,,,,,,,,
,,65c12f82f8bf47156aa06152,2024-02-21_21h28.08.193,kallum_motion_pilot,2023.2.2,Win32,7.44047619,65c12f82f8bf47156aa06152,65d6bb0e977760de756971f7,65d6bf2c6871e82dfed53f29,0.0398,0.0398,0,26,26,140,1,sevenfive,,,,,,,,,,,,,,,,,,,,,,,,,,,,,,,,,,,,,,,,,,,,,,,,,,,,,,,,,,,,,,,,,,,,,,,,,,,,,,,,,,,,,,,,,,,,,,,,,,,,,,,,,,,,,,,,,,,,,,,,,,,,,,,,,,,,,,,,,
,,65c12f82f8bf47156aa06152,2024-02-21_21h28.08.193,kallum_motion_pilot,2023.2.2,Win32,7.44047619,65c12f82f8bf47156aa06152,65d6bb0e977760de756971f7,65d6bf2c6871e82dfed53f29,0.0399,0.04,0,27,27,160,1,fivesix,,,,,,,,,,,,,,,,,,,,,,,,,,,,,,,,,,,,,,,,,,,,,,,,,,,,,,,,,,,,,,,,,,,,,,,,,,,,,,,,,,,,,,,,,,,,,,,,,,,,,,,,,,,,,,,,,,,,,,,,,,,,,,,,,,,,,,,,,
,,65c12f82f8bf47156aa06152,2024-02-21_21h28.08.193,kallum_motion_pilot,2023.2.2,Win32,7.44047619,65c12f82f8bf47156aa06152,65d6bb0e977760de756971f7,65d6bf2c6871e82dfed53f29,0.0401,0.0401,0,28,28,70,1,fourtwo,,,,,,,,,,,,,,,,,,,,,,,,,,,,,,,,,,,,,,,,,,,,,,,,,,,,,,,,,,,,,,,,,,,,,,,,,,,,,,,,,,,,,,,,,,,,,,,,,,,,,,,,,,,,,,,,,,,,,,,,,,,,,,,,,,,,,,,,,
,,65c12f82f8bf47156aa06152,2024-02-21_21h28.08.193,kallum_motion_pilot,2023.2.2,Win32,7.44047619,65c12f82f8bf47156aa06152,65d6bb0e977760de756971f7,65d6bf2c6871e82dfed53f29,0.0403,0.0403,0,29,29,137,1,fiveseven,,,,,,,,,,,,,,,,,,,,,,,,,,,,,,,,,,,,,,,,,,,,,,,,,,,,,,,,,,,,,,,,,,,,,,,,,,,,,,,,,,,,,,,,,,,,,,,,,,,,,,,,,,,,,,,,,,,,,,,,,,,,,,,,,,,,,,,,,
,,65c12f82f8bf47156aa06152,2024-02-21_21h28.08.193,kallum_motion_pilot,2023.2.2,Win32,7.44047619,65c12f82f8bf47156aa06152,65d6bb0e977760de756971f7,65d6bf2c6871e82dfed53f29,0.0404,0.0404,0,30,30,2,1,twoone,,,,,,,,,,,,,,,,,,,,,,,,,,,,,,,,,,,,,,,,,,,,,,,,,,,,,,,,,,,,,,,,,,,,,,,,,,,,,,,,,,,,,,,,,,,,,,,,,,,,,,,,,,,,,,,,,,,,,,,,,,,,,,,,,,,,,,,,,
,,65c12f82f8bf47156aa06152,2024-02-21_21h28.08.193,kallum_motion_pilot,2023.2.2,Win32,7.44047619,65c12f82f8bf47156aa06152,65d6bb0e977760de756971f7,65d6bf2c6871e82dfed53f29,0.0406,0.0406,0,31,31,8,1,onetwo,,,,,,,,,,,,,,,,,,,,,,,,,,,,,,,,,,,,,,,,,,,,,,,,,,,,,,,,,,,,,,,,,,,,,,,,,,,,,,,,,,,,,,,,,,,,,,,,,,,,,,,,,,,,,,,,,,,,,,,,,,,,,,,,,,,,,,,,,
,,65c12f82f8bf47156aa06152,2024-02-21_21h28.08.193,kallum_motion_pilot,2023.2.2,Win32,7.44047619,65c12f82f8bf47156aa06152,65d6bb0e977760de756971f7,65d6bf2c6871e82dfed53f29,0.0408,0.0409,0,32,32,159,1,eightseven,,,,,,,,,,,,,,,,,,,,,,,,,,,,,,,,,,,,,,,,,,,,,,,,,,,,,,,,,,,,,,,,,,,,,,,,,,,,,,,,,,,,,,,,,,,,,,,,,,,,,,,,,,,,,,,,,,,,,,,,,,,,,,,,,,,,,,,,,
,,65c12f82f8bf47156aa06152,2024-02-21_21h28.08.193,kallum_motion_pilot,2023.2.2,Win32,7.44047619,65c12f82f8bf47156aa06152,65d6bb0e977760de756971f7,65d6bf2c6871e82dfed53f29,0.041,0.0411,0,33,33,1,1,onethree,,,,,,,,,,,,,,,,,,,,,,,,,,,,,,,,,,,,,,,,,,,,,,,,,,,,,,,,,,,,,,,,,,,,,,,,,,,,,,,,,,,,,,,,,,,,,,,,,,,,,,,,,,,,,,,,,,,,,,,,,,,,,,,,,,,,,,,,,
,,65c12f82f8bf47156aa06152,2024-02-21_21h28.08.193,kallum_motion_pilot,2023.2.2,Win32,7.44047619,65c12f82f8bf47156aa06152,65d6bb0e977760de756971f7,65d6bf2c6871e82dfed53f29,0.0412,0.0413,0,34,34,3,1,twofour,,,,,,,,,,,,,,,,,,,,,,,,,,,,,,,,,,,,,,,,,,,,,,,,,,,,,,,,,,,,,,,,,,,,,,,,,,,,,,,,,,,,,,,,,,,,,,,,,,,,,,,,,,,,,,,,,,,,,,,,,,,,,,,,,,,,,,,,,
,,65c12f82f8bf47156aa06152,2024-02-21_21h28.08.193,kallum_motion_pilot,2023.2.2,Win32,7.44047619,65c12f82f8bf47156aa06152,65d6bb0e977760de756971f7,65d6bf2c6871e82dfed53f29,0.0414,0.0415,0,35,35,52,1,threeone,,,,,,,,,,,,,,,,,,,,,,,,,,,,,,,,,,,,,,,,,,,,,,,,,,,,,,,,,,,,,,,,,,,,,,,,,,,,,,,,,,,,,,,,,,,,,,,,,,,,,,,,,,,,,,,,,,,,,,,,,,,,,,,,,,,,,,,,,
,,65c12f82f8bf47156aa06152,2024-02-21_21h28.08.193,kallum_motion_pilot,2023.2.2,Win32,7.44047619,65c12f82f8bf47156aa06152,65d6bb0e977760de756971f7,65d6bf2c6871e82dfed53f29,0.0416,0.0416,0,36,36,30,1,fourtwo,,,,,,,,,,,,,,,,,,,,,,,,,,,,,,,,,,,,,,,,,,,,,,,,,,,,,,,,,,,,,,,,,,,,,,,,,,,,,,,,,,,,,,,,,,,,,,,,,,,,,,,,,,,,,,,,,,,,,,,,,,,,,,,,,,,,,,,,,
,,65c12f82f8bf47156aa06152,2024-02-21_21h28.08.193,kallum_motion_pilot,2023.2.2,Win32,7.44047619,65c12f82f8bf47156aa06152,65d6bb0e977760de756971f7,65d6bf2c6871e82dfed53f29,0.0419,0.0419,0,37,37,45,1,threefour,,,,,,,,,,,,,,,,,,,,,,,,,,,,,,,,,,,,,,,,,,,,,,,,,,,,,,,,,,,,,,,,,,,,,,,,,,,,,,,,,,,,,,,,,,,,,,,,,,,,,,,,,,,,,,,,,,,,,,,,,,,,,,,,,,,,,,,,,
,,65c12f82f8bf47156aa06152,2024-02-21_21h28.08.193,kallum_motion_pilot,2023.2.2,Win32,7.44047619,65c12f82f8bf47156aa06152,65d6bb0e977760de756971f7,65d6bf2c6871e82dfed53f29,0.0421,0.0421,0,38,38,107,1,sixeight,,,,,,,,,,,,,,,,,,,,,,,,,,,,,,,,,,,,,,,,,,,,,,,,,,,,,,,,,,,,,,,,,,,,,,,,,,,,,,,,,,,,,,,,,,,,,,,,,,,,,,,,,,,,,,,,,,,,,,,,,,,,,,,,,,,,,,,,,
,,65c12f82f8bf47156aa06152,2024-02-21_21h28.08.193,kallum_motion_pilot,2023.2.2,Win32,7.44047619,65c12f82f8bf47156aa06152,65d6bb0e977760de756971f7,65d6bf2c6871e82dfed53f29,0.0423,0.0424,0,39,39,78,1,fourtwo,,,,,,,,,,,,,,,,,,,,,,,,,,,,,,,,,,,,,,,,,,,,,,,,,,,,,,,,,,,,,,,,,,,,,,,,,,,,,,,,,,,,,,,,,,,,,,,,,,,,,,,,,,,,,,,,,,,,,,,,,,,,,,,,,,,,,,,,,
,,65c12f82f8bf47156aa06152,2024-02-21_21h28.08.193,kallum_motion_pilot,2023.2.2,Win32,7.44047619,65c12f82f8bf47156aa06152,65d6bb0e977760de756971f7,65d6bf2c6871e82dfed53f29,0.0424,0.0425,0,40,40,19,1,twofour,,,,,,,,,,,,,,,,,,,,,,,,,,,,,,,,,,,,,,,,,,,,,,,,,,,,,,,,,,,,,,,,,,,,,,,,,,,,,,,,,,,,,,,,,,,,,,,,,,,,,,,,,,,,,,,,,,,,,,,,,,,,,,,,,,,,,,,,,
,,65c12f82f8bf47156aa06152,2024-02-21_21h28.08.193,kallum_motion_pilot,2023.2.2,Win32,7.44047619,65c12f82f8bf47156aa06152,65d6bb0e977760de756971f7,65d6bf2c6871e82dfed53f29,0.0427,0.0427,0,41,41,82,1,sixfive,,,,,,,,,,,,,,,,,,,,,,,,,,,,,,,,,,,,,,,,,,,,,,,,,,,,,,,,,,,,,,,,,,,,,,,,,,,,,,,,,,,,,,,,,,,,,,,,,,,,,,,,,,,,,,,,,,,,,,,,,,,,,,,,,,,,,,,,,
,,65c12f82f8bf47156aa06152,2024-02-21_21h28.08.193,kallum_motion_pilot,2023.2.2,Win32,7.44047619,65c12f82f8bf47156aa06152,65d6bb0e977760de756971f7,65d6bf2c6871e82dfed53f29,0.0428,0.0428,0,42,42,71,1,fourthree,,,,,,,,,,,,,,,,,,,,,,,,,,,,,,,,,,,,,,,,,,,,,,,,,,,,,,,,,,,,,,,,,,,,,,,,,,,,,,,,,,,,,,,,,,,,,,,,,,,,,,,,,,,,,,,,,,,,,,,,,,,,,,,,,,,,,,,,,
,,65c12f82f8bf47156aa06152,2024-02-21_21h28.08.193,kallum_motion_pilot,2023.2.2,Win32,7.44047619,65c12f82f8bf47156aa06152,65d6bb0e977760de756971f7,65d6bf2c6871e82dfed53f29,0.043,0.043,0,43,43,144,1,fivesix,,,,,,,,,,,,,,,,,,,,,,,,,,,,,,,,,,,,,,,,,,,,,,,,,,,,,,,,,,,,,,,,,,,,,,,,,,,,,,,,,,,,,,,,,,,,,,,,,,,,,,,,,,,,,,,,,,,,,,,,,,,,,,,,,,,,,,,,,
,,65c12f82f8bf47156aa06152,2024-02-21_21h28.08.193,kallum_motion_pilot,2023.2.2,Win32,7.44047619,65c12f82f8bf47156aa06152,65d6bb0e977760de756971f7,65d6bf2c6871e82dfed53f29,0.0432,0.0432,0,44,44,151,1,eightseven,,,,,,,,,,,,,,,,,,,,,,,,,,,,,,,,,,,,,,,,,,,,,,,,,,,,,,,,,,,,,,,,,,,,,,,,,,,,,,,,,,,,,,,,,,,,,,,,,,,,,,,,,,,,,,,,,,,,,,,,,,,,,,,,,,,,,,,,,
,,65c12f82f8bf47156aa06152,2024-02-21_21h28.08.193,kallum_motion_pilot,2023.2.2,Win32,7.44047619,65c12f82f8bf47156aa06152,65d6bb0e977760de756971f7,65d6bf2c6871e82dfed53f29,0.0433,0.0434,0,45,45,150,1,eightsix,,,,,,,,,,,,,,,,,,,,,,,,,,,,,,,,,,,,,,,,,,,,,,,,,,,,,,,,,,,,,,,,,,,,,,,,,,,,,,,,,,,,,,,,,,,,,,,,,,,,,,,,,,,,,,,,,,,,,,,,,,,,,,,,,,,,,,,,,
,,65c12f82f8bf47156aa06152,2024-02-21_21h28.08.193,kallum_motion_pilot,2023.2.2,Win32,7.44047619,65c12f82f8bf47156aa06152,65d6bb0e977760de756971f7,65d6bf2c6871e82dfed53f29,0.0435,0.0436,0,46,46,104,1,fivesix,,,,,,,,,,,,,,,,,,,,,,,,,,,,,,,,,,,,,,,,,,,,,,,,,,,,,,,,,,,,,,,,,,,,,,,,,,,,,,,,,,,,,,,,,,,,,,,,,,,,,,,,,,,,,,,,,,,,,,,,,,,,,,,,,,,,,,,,,
,,65c12f82f8bf47156aa06152,2024-02-21_21h28.08.193,kallum_motion_pilot,2023.2.2,Win32,7.44047619,65c12f82f8bf47156aa06152,65d6bb0e977760de756971f7,65d6bf2c6871e82dfed53f29,0.0437,0.0437,0,47,47,43,1,twofour,,,,,,,,,,,,,,,,,,,,,,,,,,,,,,,,,,,,,,,,,,,,,,,,,,,,,,,,,,,,,,,,,,,,,,,,,,,,,,,,,,,,,,,,,,,,,,,,,,,,,,,,,,,,,,,,,,,,,,,,,,,,,,,,,,,,,,,,,
,,65c12f82f8bf47156aa06152,2024-02-21_21h28.08.193,kallum_motion_pilot,2023.2.2,Win32,7.44047619,65c12f82f8bf47156aa06152,65d6bb0e977760de756971f7,65d6bf2c6871e82dfed53f29,0.0438,0.0439,0,48,48,141,1,seveneight,,,,,,,,,,,,,,,,,,,,,,,,,,,,,,,,,,,,,,,,,,,,,,,,,,,,,,,,,,,,,,,,,,,,,,,,,,,,,,,,,,,,,,,,,,,,,,,,,,,,,,,,,,,,,,,,,,,,,,,,,,,,,,,,,,,,,,,,,
,,65c12f82f8bf47156aa06152,2024-02-21_21h28.08.193,kallum_motion_pilot,2023.2.2,Win32,7.44047619,65c12f82f8bf47156aa06152,65d6bb0e977760de756971f7,65d6bf2c6871e82dfed53f29,0.0439,0.044,0,49,49,87,1,eightseven,,,,,,,,,,,,,,,,,,,,,,,,,,,,,,,,,,,,,,,,,,,,,,,,,,,,,,,,,,,,,,,,,,,,,,,,,,,,,,,,,,,,,,,,,,,,,,,,,,,,,,,,,,,,,,,,,,,,,,,,,,,,,,,,,,,,,,,,,
,,65c12f82f8bf47156aa06152,2024-02-21_21h28.08.193,kallum_motion_pilot,2023.2.2,Win32,7.44047619,65c12f82f8bf47156aa06152,65d6bb0e977760de756971f7,65d6bf2c6871e82dfed53f29,0.0442,0.0443,0,50,50,86,1,eightsix,,,,,,,,,,,,,,,,,,,,,,,,,,,,,,,,,,,,,,,,,,,,,,,,,,,,,,,,,,,,,,,,,,,,,,,,,,,,,,,,,,,,,,,,,,,,,,,,,,,,,,,,,,,,,,,,,,,,,,,,,,,,,,,,,,,,,,,,,
,,65c12f82f8bf47156aa06152,2024-02-21_21h28.08.193,kallum_motion_pilot,2023.2.2,Win32,7.44047619,65c12f82f8bf47156aa06152,65d6bb0e977760de756971f7,65d6bf2c6871e82dfed53f29,0.0444,0.0444,0,51,51,90,1,sixfive,,,,,,,,,,,,,,,,,,,,,,,,,,,,,,,,,,,,,,,,,,,,,,,,,,,,,,,,,,,,,,,,,,,,,,,,,,,,,,,,,,,,,,,,,,,,,,,,,,,,,,,,,,,,,,,,,,,,,,,,,,,,,,,,,,,,,,,,,
,,65c12f82f8bf47156aa06152,2024-02-21_21h28.08.193,kallum_motion_pilot,2023.2.2,Win32,7.44047619,65c12f82f8bf47156aa06152,65d6bb0e977760de756971f7,65d6bf2c6871e82dfed53f29,0.0445,0.0447,0,52,52,29,1,threefour,,,,,,,,,,,,,,,,,,,,,,,,,,,,,,,,,,,,,,,,,,,,,,,,,,,,,,,,,,,,,,,,,,,,,,,,,,,,,,,,,,,,,,,,,,,,,,,,,,,,,,,,,,,,,,,,,,,,,,,,,,,,,,,,,,,,,,,,,
,,65c12f82f8bf47156aa06152,2024-02-21_21h28.08.193,kallum_motion_pilot,2023.2.2,Win32,7.44047619,65c12f82f8bf47156aa06152,65d6bb0e977760de756971f7,65d6bf2c6871e82dfed53f29,0.0447,0.0447,0,53,53,80,1,fivesix,,,,,,,,,,,,,,,,,,,,,,,,,,,,,,,,,,,,,,,,,,,,,,,,,,,,,,,,,,,,,,,,,,,,,,,,,,,,,,,,,,,,,,,,,,,,,,,,,,,,,,,,,,,,,,,,,,,,,,,,,,,,,,,,,,,,,,,,,
,,65c12f82f8bf47156aa06152,2024-02-21_21h28.08.193,kallum_motion_pilot,2023.2.2,Win32,7.44047619,65c12f82f8bf47156aa06152,65d6bb0e977760de756971f7,65d6bf2c6871e82dfed53f29,0.0449,0.0449,0,54,54,13,1,threefour,,,,,,,,,,,,,,,,,,,,,,,,,,,,,,,,,,,,,,,,,,,,,,,,,,,,,,,,,,,,,,,,,,,,,,,,,,,,,,,,,,,,,,,,,,,,,,,,,,,,,,,,,,,,,,,,,,,,,,,,,,,,,,,,,,,,,,,,,
,,65c12f82f8bf47156aa06152,2024-02-21_21h28.08.193,kallum_motion_pilot,2023.2.2,Win32,7.44047619,65c12f82f8bf47156aa06152,65d6bb0e977760de756971f7,65d6bf2c6871e82dfed53f29,0.0451,0.0451,0,55,55,96,1,fivesix,,,,,,,,,,,,,,,,,,,,,,,,,,,,,,,,,,,,,,,,,,,,,,,,,,,,,,,,,,,,,,,,,,,,,,,,,,,,,,,,,,,,,,,,,,,,,,,,,,,,,,,,,,,,,,,,,,,,,,,,,,,,,,,,,,,,,,,,,
,,65c12f82f8bf47156aa06152,2024-02-21_21h28.08.193,kallum_motion_pilot,2023.2.2,Win32,7.44047619,65c12f82f8bf47156aa06152,65d6bb0e977760de756971f7,65d6bf2c6871e82dfed53f29,0.0453,0.0453,0,56,56,108,1,sevenfive,,,,,,,,,,,,,,,,,,,,,,,,,,,,,,,,,,,,,,,,,,,,,,,,,,,,,,,,,,,,,,,,,,,,,,,,,,,,,,,,,,,,,,,,,,,,,,,,,,,,,,,,,,,,,,,,,,,,,,,,,,,,,,,,,,,,,,,,,
,,65c12f82f8bf47156aa06152,2024-02-21_21h28.08.193,kallum_motion_pilot,2023.2.2,Win32,7.44047619,65c12f82f8bf47156aa06152,65d6bb0e977760de756971f7,65d6bf2c6871e82dfed53f29,0.0455,0.0455,0,57,57,153,1,fiveseven,,,,,,,,,,,,,,,,,,,,,,,,,,,,,,,,,,,,,,,,,,,,,,,,,,,,,,,,,,,,,,,,,,,,,,,,,,,,,,,,,,,,,,,,,,,,,,,,,,,,,,,,,,,,,,,,,,,,,,,,,,,,,,,,,,,,,,,,,
,,65c12f82f8bf47156aa06152,2024-02-21_21h28.08.193,kallum_motion_pilot,2023.2.2,Win32,7.44047619,65c12f82f8bf47156aa06152,65d6bb0e977760de756971f7,65d6bf2c6871e82dfed53f29,0.0456,0.0457,0,58,58,139,1,sixeight,,,,,,,,,,,,,,,,,,,,,,,,,,,,,,,,,,,,,,,,,,,,,,,,,,,,,,,,,,,,,,,,,,,,,,,,,,,,,,,,,,,,,,,,,,,,,,,,,,,,,,,,,,,,,,,,,,,,,,,,,,,,,,,,,,,,,,,,,
,,65c12f82f8bf47156aa06152,2024-02-21_21h28.08.193,kallum_motion_pilot,2023.2.2,Win32,7.44047619,65c12f82f8bf47156aa06152,65d6bb0e977760de756971f7,65d6bf2c6871e82dfed53f29,0.0458,0.0459,0,59,59,72,1,onetwo,,,,,,,,,,,,,,,,,,,,,,,,,,,,,,,,,,,,,,,,,,,,,,,,,,,,,,,,,,,,,,,,,,,,,,,,,,,,,,,,,,,,,,,,,,,,,,,,,,,,,,,,,,,,,,,,,,,,,,,,,,,,,,,,,,,,,,,,,
,,65c12f82f8bf47156aa06152,2024-02-21_21h28.08.193,kallum_motion_pilot,2023.2.2,Win32,7.44047619,65c12f82f8bf47156aa06152,65d6bb0e977760de756971f7,65d6bf2c6871e82dfed53f29,0.0461,0.0462,0,60,60,142,1,eightsix,,,,,,,,,,,,,,,,,,,,,,,,,,,,,,,,,,,,,,,,,,,,,,,,,,,,,,,,,,,,,,,,,,,,,,,,,,,,,,,,,,,,,,,,,,,,,,,,,,,,,,,,,,,,,,,,,,,,,,,,,,,,,,,,,,,,,,,,,
,,65c12f82f8bf47156aa06152,2024-02-21_21h28.08.193,kallum_motion_pilot,2023.2.2,Win32,7.44047619,65c12f82f8bf47156aa06152,65d6bb0e977760de756971f7,65d6bf2c6871e82dfed53f29,0.0463,0.0465,0,61,61,25,1,onethree,,,,,,,,,,,,,,,,,,,,,,,,,,,,,,,,,,,,,,,,,,,,,,,,,,,,,,,,,,,,,,,,,,,,,,,,,,,,,,,,,,,,,,,,,,,,,,,,,,,,,,,,,,,,,,,,,,,,,,,,,,,,,,,,,,,,,,,,,
,,65c12f82f8bf47156aa06152,2024-02-21_21h28.08.193,kallum_motion_pilot,2023.2.2,Win32,7.44047619,65c12f82f8bf47156aa06152,65d6bb0e977760de756971f7,65d6bf2c6871e82dfed53f29,0.0466,0.0466,0,62,62,103,1,eightseven,,,,,,,,,,,,,,,,,,,,,,,,,,,,,,,,,,,,,,,,,,,,,,,,,,,,,,,,,,,,,,,,,,,,,,,,,,,,,,,,,,,,,,,,,,,,,,,,,,,,,,,,,,,,,,,,,,,,,,,,,,,,,,,,,,,,,,,,,
,,65c12f82f8bf47156aa06152,2024-02-21_21h28.08.193,kallum_motion_pilot,2023.2.2,Win32,7.44047619,65c12f82f8bf47156aa06152,65d6bb0e977760de756971f7,65d6bf2c6871e82dfed53f29,0.0468,0.0468,0,63,63,74,1,twoone,,,,,,,,,,,,,,,,,,,,,,,,,,,,,,,,,,,,,,,,,,,,,,,,,,,,,,,,,,,,,,,,,,,,,,,,,,,,,,,,,,,,,,,,,,,,,,,,,,,,,,,,,,,,,,,,,,,,,,,,,,,,,,,,,,,,,,,,,
,,65c12f82f8bf47156aa06152,2024-02-21_21h28.08.193,kallum_motion_pilot,2023.2.2,Win32,7.44047619,65c12f82f8bf47156aa06152,65d6bb0e977760de756971f7,65d6bf2c6871e82dfed53f29,0.0471,0.0471,0,64,64,85,1,seveneight,,,,,,,,,,,,,,,,,,,,,,,,,,,,,,,,,,,,,,,,,,,,,,,,,,,,,,,,,,,,,,,,,,,,,,,,,,,,,,,,,,,,,,,,,,,,,,,,,,,,,,,,,,,,,,,,,,,,,,,,,,,,,,,,,,,,,,,,,
,,65c12f82f8bf47156aa06152,2024-02-21_21h28.08.193,kallum_motion_pilot,2023.2.2,Win32,7.44047619,65c12f82f8bf47156aa06152,65d6bb0e977760de756971f7,65d6bf2c6871e82dfed53f29,0.0473,0.0474,0,65,65,60,1,threeone,,,,,,,,,,,,,,,,,,,,,,,,,,,,,,,,,,,,,,,,,,,,,,,,,,,,,,,,,,,,,,,,,,,,,,,,,,,,,,,,,,,,,,,,,,,,,,,,,,,,,,,,,,,,,,,,,,,,,,,,,,,,,,,,,,,,,,,,,
,,65c12f82f8bf47156aa06152,2024-02-21_21h28.08.193,kallum_motion_pilot,2023.2.2,Win32,7.44047619,65c12f82f8bf47156aa06152,65d6bb0e977760de756971f7,65d6bf2c6871e82dfed53f29,0.0476,0.0476,0,66,66,36,1,threeone,,,,,,,,,,,,,,,,,,,,,,,,,,,,,,,,,,,,,,,,,,,,,,,,,,,,,,,,,,,,,,,,,,,,,,,,,,,,,,,,,,,,,,,,,,,,,,,,,,,,,,,,,,,,,,,,,,,,,,,,,,,,,,,,,,,,,,,,,
,,65c12f82f8bf47156aa06152,2024-02-21_21h28.08.193,kallum_motion_pilot,2023.2.2,Win32,7.44047619,65c12f82f8bf47156aa06152,65d6bb0e977760de756971f7,65d6bf2c6871e82dfed53f29,0.0477,0.0478,0,67,67,81,1,fiveseven,,,,,,,,,,,,,,,,,,,,,,,,,,,,,,,,,,,,,,,,,,,,,,,,,,,,,,,,,,,,,,,,,,,,,,,,,,,,,,,,,,,,,,,,,,,,,,,,,,,,,,,,,,,,,,,,,,,,,,,,,,,,,,,,,,,,,,,,,
,,65c12f82f8bf47156aa06152,2024-02-21_21h28.08.193,kallum_motion_pilot,2023.2.2,Win32,7.44047619,65c12f82f8bf47156aa06152,65d6bb0e977760de756971f7,65d6bf2c6871e82dfed53f29,0.0479,0.048,0,68,68,55,1,fourthree,,,,,,,,,,,,,,,,,,,,,,,,,,,,,,,,,,,,,,,,,,,,,,,,,,,,,,,,,,,,,,,,,,,,,,,,,,,,,,,,,,,,,,,,,,,,,,,,,,,,,,,,,,,,,,,,,,,,,,,,,,,,,,,,,,,,,,,,,
,,65c12f82f8bf47156aa06152,2024-02-21_21h28.08.193,kallum_motion_pilot,2023.2.2,Win32,7.44047619,65c12f82f8bf47156aa06152,65d6bb0e977760de756971f7,65d6bf2c6871e82dfed53f29,0.0481,0.0482,0,69,69,26,1,twoone,,,,,,,,,,,,,,,,,,,,,,,,,,,,,,,,,,,,,,,,,,,,,,,,,,,,,,,,,,,,,,,,,,,,,,,,,,,,,,,,,,,,,,,,,,,,,,,,,,,,,,,,,,,,,,,,,,,,,,,,,,,,,,,,,,,,,,,,,
,,65c12f82f8bf47156aa06152,2024-02-21_21h28.08.193,kallum_motion_pilot,2023.2.2,Win32,7.44047619,65c12f82f8bf47156aa06152,65d6bb0e977760de756971f7,65d6bf2c6871e82dfed53f29,0.0483,0.0484,0,70,70,112,1,fivesix,,,,,,,,,,,,,,,,,,,,,,,,,,,,,,,,,,,,,,,,,,,,,,,,,,,,,,,,,,,,,,,,,,,,,,,,,,,,,,,,,,,,,,,,,,,,,,,,,,,,,,,,,,,,,,,,,,,,,,,,,,,,,,,,,,,,,,,,,
,,65c12f82f8bf47156aa06152,2024-02-21_21h28.08.193,kallum_motion_pilot,2023.2.2,Win32,7.44047619,65c12f82f8bf47156aa06152,65d6bb0e977760de756971f7,65d6bf2c6871e82dfed53f29,0.0485,0.0486,0,71,71,68,1,threeone,,,,,,,,,,,,,,,,,,,,,,,,,,,,,,,,,,,,,,,,,,,,,,,,,,,,,,,,,,,,,,,,,,,,,,,,,,,,,,,,,,,,,,,,,,,,,,,,,,,,,,,,,,,,,,,,,,,,,,,,,,,,,,,,,,,,,,,,,
,,65c12f82f8bf47156aa06152,2024-02-21_21h28.08.193,kallum_motion_pilot,2023.2.2,Win32,7.44047619,65c12f82f8bf47156aa06152,65d6bb0e977760de756971f7,65d6bf2c6871e82dfed53f29,0.0487,0.0487,0,72,72,12,1,threeone,,,,,,,,,,,,,,,,,,,,,,,,,,,,,,,,,,,,,,,,,,,,,,,,,,,,,,,,,,,,,,,,,,,,,,,,,,,,,,,,,,,,,,,,,,,,,,,,,,,,,,,,,,,,,,,,,,,,,,,,,,,,,,,,,,,,,,,,,
,,65c12f82f8bf47156aa06152,2024-02-21_21h28.08.193,kallum_motion_pilot,2023.2.2,Win32,7.44047619,65c12f82f8bf47156aa06152,65d6bb0e977760de756971f7,65d6bf2c6871e82dfed53f29,0.0489,0.049,0,73,73,136,1,fivesix,,,,,,,,,,,,,,,,,,,,,,,,,,,,,,,,,,,,,,,,,,,,,,,,,,,,,,,,,,,,,,,,,,,,,,,,,,,,,,,,,,,,,,,,,,,,,,,,,,,,,,,,,,,,,,,,,,,,,,,,,,,,,,,,,,,,,,,,,
,,65c12f82f8bf47156aa06152,2024-02-21_21h28.08.193,kallum_motion_pilot,2023.2.2,Win32,7.44047619,65c12f82f8bf47156aa06152,65d6bb0e977760de756971f7,65d6bf2c6871e82dfed53f29,0.0491,0.0491,0,74,74,64,1,onetwo,,,,,,,,,,,,,,,,,,,,,,,,,,,,,,,,,,,,,,,,,,,,,,,,,,,,,,,,,,,,,,,,,,,,,,,,,,,,,,,,,,,,,,,,,,,,,,,,,,,,,,,,,,,,,,,,,,,,,,,,,,,,,,,,,,,,,,,,,
,,65c12f82f8bf47156aa06152,2024-02-21_21h28.08.193,kallum_motion_pilot,2023.2.2,Win32,7.44047619,65c12f82f8bf47156aa06152,65d6bb0e977760de756971f7,65d6bf2c6871e82dfed53f29,0.0493,0.0494,0,75,75,63,1,fourthree,,,,,,,,,,,,,,,,,,,,,,,,,,,,,,,,,,,,,,,,,,,,,,,,,,,,,,,,,,,,,,,,,,,,,,,,,,,,,,,,,,,,,,,,,,,,,,,,,,,,,,,,,,,,,,,,,,,,,,,,,,,,,,,,,,,,,,,,,
,,65c12f82f8bf47156aa06152,2024-02-21_21h28.08.193,kallum_motion_pilot,2023.2.2,Win32,7.44047619,65c12f82f8bf47156aa06152,65d6bb0e977760de756971f7,65d6bf2c6871e82dfed53f29,0.0495,0.0495,0,76,76,53,1,threefour,,,,,,,,,,,,,,,,,,,,,,,,,,,,,,,,,,,,,,,,,,,,,,,,,,,,,,,,,,,,,,,,,,,,,,,,,,,,,,,,,,,,,,,,,,,,,,,,,,,,,,,,,,,,,,,,,,,,,,,,,,,,,,,,,,,,,,,,,
,,65c12f82f8bf47156aa06152,2024-02-21_21h28.08.193,kallum_motion_pilot,2023.2.2,Win32,7.44047619,65c12f82f8bf47156aa06152,65d6bb0e977760de756971f7,65d6bf2c6871e82dfed53f29,0.0496,0.0497,0,77,77,57,1,onethree,,,,,,,,,,,,,,,,,,,,,,,,,,,,,,,,,,,,,,,,,,,,,,,,,,,,,,,,,,,,,,,,,,,,,,,,,,,,,,,,,,,,,,,,,,,,,,,,,,,,,,,,,,,,,,,,,,,,,,,,,,,,,,,,,,,,,,,,,
,,65c12f82f8bf47156aa06152,2024-02-21_21h28.08.193,kallum_motion_pilot,2023.2.2,Win32,7.44047619,65c12f82f8bf47156aa06152,65d6bb0e977760de756971f7,65d6bf2c6871e82dfed53f29,0.0498,0.0498,0,78,78,130,1,sixfive,,,,,,,,,,,,,,,,,,,,,,,,,,,,,,,,,,,,,,,,,,,,,,,,,,,,,,,,,,,,,,,,,,,,,,,,,,,,,,,,,,,,,,,,,,,,,,,,,,,,,,,,,,,,,,,,,,,,,,,,,,,,,,,,,,,,,,,,,
,,65c12f82f8bf47156aa06152,2024-02-21_21h28.08.193,kallum_motion_pilot,2023.2.2,Win32,7.44047619,65c12f82f8bf47156aa06152,65d6bb0e977760de756971f7,65d6bf2c6871e82dfed53f29,0.0501,0.0502,0,79,79,44,1,threeone,,,,,,,,,,,,,,,,,,,,,,,,,,,,,,,,,,,,,,,,,,,,,,,,,,,,,,,,,,,,,,,,,,,,,,,,,,,,,,,,,,,,,,,,,,,,,,,,,,,,,,,,,,,,,,,,,,,,,,,,,,,,,,,,,,,,,,,,,
,,65c12f82f8bf47156aa06152,2024-02-21_21h28.08.193,kallum_motion_pilot,2023.2.2,Win32,7.44047619,65c12f82f8bf47156aa06152,65d6bb0e977760de756971f7,65d6bf2c6871e82dfed53f29,0.0503,0.0504,0,80,80,119,1,eightseven,,,,,,,,,,,,,,,,,,,,,,,,,,,,,,,,,,,,,,,,,,,,,,,,,,,,,,,,,,,,,,,,,,,,,,,,,,,,,,,,,,,,,,,,,,,,,,,,,,,,,,,,,,,,,,,,,,,,,,,,,,,,,,,,,,,,,,,,,
,,65c12f82f8bf47156aa06152,2024-02-21_21h28.08.193,kallum_motion_pilot,2023.2.2,Win32,7.44047619,65c12f82f8bf47156aa06152,65d6bb0e977760de756971f7,65d6bf2c6871e82dfed53f29,0.0505,0.0506,0,81,81,154,1,sixfive,,,,,,,,,,,,,,,,,,,,,,,,,,,,,,,,,,,,,,,,,,,,,,,,,,,,,,,,,,,,,,,,,,,,,,,,,,,,,,,,,,,,,,,,,,,,,,,,,,,,,,,,,,,,,,,,,,,,,,,,,,,,,,,,,,,,,,,,,
,,65c12f82f8bf47156aa06152,2024-02-21_21h28.08.193,kallum_motion_pilot,2023.2.2,Win32,7.44047619,65c12f82f8bf47156aa06152,65d6bb0e977760de756971f7,65d6bf2c6871e82dfed53f29,0.0507,0.0508,0,82,82,73,1,onethree,,,,,,,,,,,,,,,,,,,,,,,,,,,,,,,,,,,,,,,,,,,,,,,,,,,,,,,,,,,,,,,,,,,,,,,,,,,,,,,,,,,,,,,,,,,,,,,,,,,,,,,,,,,,,,,,,,,,,,,,,,,,,,,,,,,,,,,,,
,,65c12f82f8bf47156aa06152,2024-02-21_21h28.08.193,kallum_motion_pilot,2023.2.2,Win32,7.44047619,65c12f82f8bf47156aa06152,65d6bb0e977760de756971f7,65d6bf2c6871e82dfed53f29,0.051,0.051,0,83,83,24,1,onetwo,,,,,,,,,,,,,,,,,,,,,,,,,,,,,,,,,,,,,,,,,,,,,,,,,,,,,,,,,,,,,,,,,,,,,,,,,,,,,,,,,,,,,,,,,,,,,,,,,,,,,,,,,,,,,,,,,,,,,,,,,,,,,,,,,,,,,,,,,
,,65c12f82f8bf47156aa06152,2024-02-21_21h28.08.193,kallum_motion_pilot,2023.2.2,Win32,7.44047619,65c12f82f8bf47156aa06152,65d6bb0e977760de756971f7,65d6bf2c6871e82dfed53f29,0.0512,0.0513,0,84,84,17,1,onethree,,,,,,,,,,,,,,,,,,,,,,,,,,,,,,,,,,,,,,,,,,,,,,,,,,,,,,,,,,,,,,,,,,,,,,,,,,,,,,,,,,,,,,,,,,,,,,,,,,,,,,,,,,,,,,,,,,,,,,,,,,,,,,,,,,,,,,,,,
,,65c12f82f8bf47156aa06152,2024-02-21_21h28.08.193,kallum_motion_pilot,2023.2.2,Win32,7.44047619,65c12f82f8bf47156aa06152,65d6bb0e977760de756971f7,65d6bf2c6871e82dfed53f29,0.0515,0.0515,0,85,85,129,1,fiveseven,,,,,,,,,,,,,,,,,,,,,,,,,,,,,,,,,,,,,,,,,,,,,,,,,,,,,,,,,,,,,,,,,,,,,,,,,,,,,,,,,,,,,,,,,,,,,,,,,,,,,,,,,,,,,,,,,,,,,,,,,,,,,,,,,,,,,,,,,
,,65c12f82f8bf47156aa06152,2024-02-21_21h28.08.193,kallum_motion_pilot,2023.2.2,Win32,7.44047619,65c12f82f8bf47156aa06152,65d6bb0e977760de756971f7,65d6bf2c6871e82dfed53f29,0.0517,0.0518,0,86,86,123,1,sixeight,,,,,,,,,,,,,,,,,,,,,,,,,,,,,,,,,,,,,,,,,,,,,,,,,,,,,,,,,,,,,,,,,,,,,,,,,,,,,,,,,,,,,,,,,,,,,,,,,,,,,,,,,,,,,,,,,,,,,,,,,,,,,,,,,,,,,,,,,
,,65c12f82f8bf47156aa06152,2024-02-21_21h28.08.193,kallum_motion_pilot,2023.2.2,Win32,7.44047619,65c12f82f8bf47156aa06152,65d6bb0e977760de756971f7,65d6bf2c6871e82dfed53f29,0.0519,0.052,0,87,87,135,1,eightseven,,,,,,,,,,,,,,,,,,,,,,,,,,,,,,,,,,,,,,,,,,,,,,,,,,,,,,,,,,,,,,,,,,,,,,,,,,,,,,,,,,,,,,,,,,,,,,,,,,,,,,,,,,,,,,,,,,,,,,,,,,,,,,,,,,,,,,,,,
,,65c12f82f8bf47156aa06152,2024-02-21_21h28.08.193,kallum_motion_pilot,2023.2.2,Win32,7.44047619,65c12f82f8bf47156aa06152,65d6bb0e977760de756971f7,65d6bf2c6871e82dfed53f29,0.0522,0.0523,0,88,88,42,1,twoone,,,,,,,,,,,,,,,,,,,,,,,,,,,,,,,,,,,,,,,,,,,,,,,,,,,,,,,,,,,,,,,,,,,,,,,,,,,,,,,,,,,,,,,,,,,,,,,,,,,,,,,,,,,,,,,,,,,,,,,,,,,,,,,,,,,,,,,,,
,,65c12f82f8bf47156aa06152,2024-02-21_21h28.08.193,kallum_motion_pilot,2023.2.2,Win32,7.44047619,65c12f82f8bf47156aa06152,65d6bb0e977760de756971f7,65d6bf2c6871e82dfed53f29,0.0525,0.0526,0,89,89,22,1,fourtwo,,,,,,,,,,,,,,,,,,,,,,,,,,,,,,,,,,,,,,,,,,,,,,,,,,,,,,,,,,,,,,,,,,,,,,,,,,,,,,,,,,,,,,,,,,,,,,,,,,,,,,,,,,,,,,,,,,,,,,,,,,,,,,,,,,,,,,,,,
,,65c12f82f8bf47156aa06152,2024-02-21_21h28.08.193,kallum_motion_pilot,2023.2.2,Win32,7.44047619,65c12f82f8bf47156aa06152,65d6bb0e977760de756971f7,65d6bf2c6871e82dfed53f29,0.0528,0.0528,0,90,90,47,1,fourthree,,,,,,,,,,,,,,,,,,,,,,,,,,,,,,,,,,,,,,,,,,,,,,,,,,,,,,,,,,,,,,,,,,,,,,,,,,,,,,,,,,,,,,,,,,,,,,,,,,,,,,,,,,,,,,,,,,,,,,,,,,,,,,,,,,,,,,,,,
,,65c12f82f8bf47156aa06152,2024-02-21_21h28.08.193,kallum_motion_pilot,2023.2.2,Win32,7.44047619,65c12f82f8bf47156aa06152,65d6bb0e977760de756971f7,65d6bf2c6871e82dfed53f29,0.053,0.0531,0,91,91,93,1,seveneight,,,,,,,,,,,,,,,,,,,,,,,,,,,,,,,,,,,,,,,,,,,,,,,,,,,,,,,,,,,,,,,,,,,,,,,,,,,,,,,,,,,,,,,,,,,,,,,,,,,,,,,,,,,,,,,,,,,,,,,,,,,,,,,,,,,,,,,,,
,,65c12f82f8bf47156aa06152,2024-02-21_21h28.08.193,kallum_motion_pilot,2023.2.2,Win32,7.44047619,65c12f82f8bf47156aa06152,65d6bb0e977760de756971f7,65d6bf2c6871e82dfed53f29,0.0532,0.0533,0,92,92,120,1,fivesix,,,,,,,,,,,,,,,,,,,,,,,,,,,,,,,,,,,,,,,,,,,,,,,,,,,,,,,,,,,,,,,,,,,,,,,,,,,,,,,,,,,,,,,,,,,,,,,,,,,,,,,,,,,,,,,,,,,,,,,,,,,,,,,,,,,,,,,,,
,,65c12f82f8bf47156aa06152,2024-02-21_21h28.08.193,kallum_motion_pilot,2023.2.2,Win32,7.44047619,65c12f82f8bf47156aa06152,65d6bb0e977760de756971f7,65d6bf2c6871e82dfed53f29,0.0534,0.0535,0,93,93,62,1,fourtwo,,,,,,,,,,,,,,,,,,,,,,,,,,,,,,,,,,,,,,,,,,,,,,,,,,,,,,,,,,,,,,,,,,,,,,,,,,,,,,,,,,,,,,,,,,,,,,,,,,,,,,,,,,,,,,,,,,,,,,,,,,,,,,,,,,,,,,,,,
,,65c12f82f8bf47156aa06152,2024-02-21_21h28.08.193,kallum_motion_pilot,2023.2.2,Win32,7.44047619,65c12f82f8bf47156aa06152,65d6bb0e977760de756971f7,65d6bf2c6871e82dfed53f29,0.0536,0.0537,0,94,94,9,1,onethree,,,,,,,,,,,,,,,,,,,,,,,,,,,,,,,,,,,,,,,,,,,,,,,,,,,,,,,,,,,,,,,,,,,,,,,,,,,,,,,,,,,,,,,,,,,,,,,,,,,,,,,,,,,,,,,,,,,,,,,,,,,,,,,,,,,,,,,,,
,,65c12f82f8bf47156aa06152,2024-02-21_21h28.08.193,kallum_motion_pilot,2023.2.2,Win32,7.44047619,65c12f82f8bf47156aa06152,65d6bb0e977760de756971f7,65d6bf2c6871e82dfed53f29,0.0539,0.0539,0,95,95,157,1,seveneight,,,,,,,,,,,,,,,,,,,,,,,,,,,,,,,,,,,,,,,,,,,,,,,,,,,,,,,,,,,,,,,,,,,,,,,,,,,,,,,,,,,,,,,,,,,,,,,,,,,,,,,,,,,,,,,,,,,,,,,,,,,,,,,,,,,,,,,,,
,,65c12f82f8bf47156aa06152,2024-02-21_21h28.08.193,kallum_motion_pilot,2023.2.2,Win32,7.44047619,65c12f82f8bf47156aa06152,65d6bb0e977760de756971f7,65d6bf2c6871e82dfed53f29,0.054,0.0541,0,96,96,38,1,fourtwo,,,,,,,,,,,,,,,,,,,,,,,,,,,,,,,,,,,,,,,,,,,,,,,,,,,,,,,,,,,,,,,,,,,,,,,,,,,,,,,,,,,,,,,,,,,,,,,,,,,,,,,,,,,,,,,,,,,,,,,,,,,,,,,,,,,,,,,,,
,,65c12f82f8bf47156aa06152,2024-02-21_21h28.08.193,kallum_motion_pilot,2023.2.2,Win32,7.44047619,65c12f82f8bf47156aa06152,65d6bb0e977760de756971f7,65d6bf2c6871e82dfed53f29,0.0543,0.0544,0,97,97,152,1,fivesix,,,,,,,,,,,,,,,,,,,,,,,,,,,,,,,,,,,,,,,,,,,,,,,,,,,,,,,,,,,,,,,,,,,,,,,,,,,,,,,,,,,,,,,,,,,,,,,,,,,,,,,,,,,,,,,,,,,,,,,,,,,,,,,,,,,,,,,,,
,,65c12f82f8bf47156aa06152,2024-02-21_21h28.08.193,kallum_motion_pilot,2023.2.2,Win32,7.44047619,65c12f82f8bf47156aa06152,65d6bb0e977760de756971f7,65d6bf2c6871e82dfed53f29,0.0547,0.0548,0,98,98,114,1,sixfive,,,,,,,,,,,,,,,,,,,,,,,,,,,,,,,,,,,,,,,,,,,,,,,,,,,,,,,,,,,,,,,,,,,,,,,,,,,,,,,,,,,,,,,,,,,,,,,,,,,,,,,,,,,,,,,,,,,,,,,,,,,,,,,,,,,,,,,,,
,,65c12f82f8bf47156aa06152,2024-02-21_21h28.08.193,kallum_motion_pilot,2023.2.2,Win32,7.44047619,65c12f82f8bf47156aa06152,65d6bb0e977760de756971f7,65d6bf2c6871e82dfed53f29,0.0549,0.0549,0,99,99,75,1,twofour,,,,,,,,,,,,,,,,,,,,,,,,,,,,,,,,,,,,,,,,,,,,,,,,,,,,,,,,,,,,,,,,,,,,,,,,,,,,,,,,,,,,,,,,,,,,,,,,,,,,,,,,,,,,,,,,,,,,,,,,,,,,,,,,,,,,,,,,,
,,65c12f82f8bf47156aa06152,2024-02-21_21h28.08.193,kallum_motion_pilot,2023.2.2,Win32,7.44047619,65c12f82f8bf47156aa06152,65d6bb0e977760de756971f7,65d6bf2c6871e82dfed53f29,0.0552,0.0552,0,100,100,111,1,eightseven,,,,,,,,,,,,,,,,,,,,,,,,,,,,,,,,,,,,,,,,,,,,,,,,,,,,,,,,,,,,,,,,,,,,,,,,,,,,,,,,,,,,,,,,,,,,,,,,,,,,,,,,,,,,,,,,,,,,,,,,,,,,,,,,,,,,,,,,,
,,65c12f82f8bf47156aa06152,2024-02-21_21h28.08.193,kallum_motion_pilot,2023.2.2,Win32,7.44047619,65c12f82f8bf47156aa06152,65d6bb0e977760de756971f7,65d6bf2c6871e82dfed53f29,0.0553,0.0554,0,101,101,131,1,sixeight,,,,,,,,,,,,,,,,,,,,,,,,,,,,,,,,,,,,,,,,,,,,,,,,,,,,,,,,,,,,,,,,,,,,,,,,,,,,,,,,,,,,,,,,,,,,,,,,,,,,,,,,,,,,,,,,,,,,,,,,,,,,,,,,,,,,,,,,,
,,65c12f82f8bf47156aa06152,2024-02-21_21h28.08.193,kallum_motion_pilot,2023.2.2,Win32,7.44047619,65c12f82f8bf47156aa06152,65d6bb0e977760de756971f7,65d6bf2c6871e82dfed53f29,0.0555,0.0555,0,102,102,37,1,threefour,,,,,,,,,,,,,,,,,,,,,,,,,,,,,,,,,,,,,,,,,,,,,,,,,,,,,,,,,,,,,,,,,,,,,,,,,,,,,,,,,,,,,,,,,,,,,,,,,,,,,,,,,,,,,,,,,,,,,,,,,,,,,,,,,,,,,,,,,
,,65c12f82f8bf47156aa06152,2024-02-21_21h28.08.193,kallum_motion_pilot,2023.2.2,Win32,7.44047619,65c12f82f8bf47156aa06152,65d6bb0e977760de756971f7,65d6bf2c6871e82dfed53f29,0.0557,0.0559,0,103,103,21,1,threefour,,,,,,,,,,,,,,,,,,,,,,,,,,,,,,,,,,,,,,,,,,,,,,,,,,,,,,,,,,,,,,,,,,,,,,,,,,,,,,,,,,,,,,,,,,,,,,,,,,,,,,,,,,,,,,,,,,,,,,,,,,,,,,,,,,,,,,,,,
,,65c12f82f8bf47156aa06152,2024-02-21_21h28.08.193,kallum_motion_pilot,2023.2.2,Win32,7.44047619,65c12f82f8bf47156aa06152,65d6bb0e977760de756971f7,65d6bf2c6871e82dfed53f29,0.0559,0.056,0,104,104,89,1,fiveseven,,,,,,,,,,,,,,,,,,,,,,,,,,,,,,,,,,,,,,,,,,,,,,,,,,,,,,,,,,,,,,,,,,,,,,,,,,,,,,,,,,,,,,,,,,,,,,,,,,,,,,,,,,,,,,,,,,,,,,,,,,,,,,,,,,,,,,,,,
,,65c12f82f8bf47156aa06152,2024-02-21_21h28.08.193,kallum_motion_pilot,2023.2.2,Win32,7.44047619,65c12f82f8bf47156aa06152,65d6bb0e977760de756971f7,65d6bf2c6871e82dfed53f29,0.0562,0.0562,0,105,105,88,1,fivesix,,,,,,,,,,,,,,,,,,,,,,,,,,,,,,,,,,,,,,,,,,,,,,,,,,,,,,,,,,,,,,,,,,,,,,,,,,,,,,,,,,,,,,,,,,,,,,,,,,,,,,,,,,,,,,,,,,,,,,,,,,,,,,,,,,,,,,,,,
,,65c12f82f8bf47156aa06152,2024-02-21_21h28.08.193,kallum_motion_pilot,2023.2.2,Win32,7.44047619,65c12f82f8bf47156aa06152,65d6bb0e977760de756971f7,65d6bf2c6871e82dfed53f29,0.0564,0.0564,0,106,106,41,1,onethree,,,,,,,,,,,,,,,,,,,,,,,,,,,,,,,,,,,,,,,,,,,,,,,,,,,,,,,,,,,,,,,,,,,,,,,,,,,,,,,,,,,,,,,,,,,,,,,,,,,,,,,,,,,,,,,,,,,,,,,,,,,,,,,,,,,,,,,,,
,,65c12f82f8bf47156aa06152,2024-02-21_21h28.08.193,kallum_motion_pilot,2023.2.2,Win32,7.44047619,65c12f82f8bf47156aa06152,65d6bb0e977760de756971f7,65d6bf2c6871e82dfed53f29,0.0565,0.0566,0,107,107,133,1,seveneight,,,,,,,,,,,,,,,,,,,,,,,,,,,,,,,,,,,,,,,,,,,,,,,,,,,,,,,,,,,,,,,,,,,,,,,,,,,,,,,,,,,,,,,,,,,,,,,,,,,,,,,,,,,,,,,,,,,,,,,,,,,,,,,,,,,,,,,,,
,,65c12f82f8bf47156aa06152,2024-02-21_21h28.08.193,kallum_motion_pilot,2023.2.2,Win32,7.44047619,65c12f82f8bf47156aa06152,65d6bb0e977760de756971f7,65d6bf2c6871e82dfed53f29,0.0568,0.0569,0,108,108,102,1,eightsix,,,,,,,,,,,,,,,,,,,,,,,,,,,,,,,,,,,,,,,,,,,,,,,,,,,,,,,,,,,,,,,,,,,,,,,,,,,,,,,,,,,,,,,,,,,,,,,,,,,,,,,,,,,,,,,,,,,,,,,,,,,,,,,,,,,,,,,,,
,,65c12f82f8bf47156aa06152,2024-02-21_21h28.08.193,kallum_motion_pilot,2023.2.2,Win32,7.44047619,65c12f82f8bf47156aa06152,65d6bb0e977760de756971f7,65d6bf2c6871e82dfed53f29,0.0571,0.0572,0,109,109,132,1,sevenfive,,,,,,,,,,,,,,,,,,,,,,,,,,,,,,,,,,,,,,,,,,,,,,,,,,,,,,,,,,,,,,,,,,,,,,,,,,,,,,,,,,,,,,,,,,,,,,,,,,,,,,,,,,,,,,,,,,,,,,,,,,,,,,,,,,,,,,,,,
,,65c12f82f8bf47156aa06152,2024-02-21_21h28.08.193,kallum_motion_pilot,2023.2.2,Win32,7.44047619,65c12f82f8bf47156aa06152,65d6bb0e977760de756971f7,65d6bf2c6871e82dfed53f29,0.0573,0.0575,0,110,110,23,1,fourthree,,,,,,,,,,,,,,,,,,,,,,,,,,,,,,,,,,,,,,,,,,,,,,,,,,,,,,,,,,,,,,,,,,,,,,,,,,,,,,,,,,,,,,,,,,,,,,,,,,,,,,,,,,,,,,,,,,,,,,,,,,,,,,,,,,,,,,,,,
,,65c12f82f8bf47156aa06152,2024-02-21_21h28.08.193,kallum_motion_pilot,2023.2.2,Win32,7.44047619,65c12f82f8bf47156aa06152,65d6bb0e977760de756971f7,65d6bf2c6871e82dfed53f29,0.0576,0.0578,0,111,111,50,1,twoone,,,,,,,,,,,,,,,,,,,,,,,,,,,,,,,,,,,,,,,,,,,,,,,,,,,,,,,,,,,,,,,,,,,,,,,,,,,,,,,,,,,,,,,,,,,,,,,,,,,,,,,,,,,,,,,,,,,,,,,,,,,,,,,,,,,,,,,,,
,,65c12f82f8bf47156aa06152,2024-02-21_21h28.08.193,kallum_motion_pilot,2023.2.2,Win32,7.44047619,65c12f82f8bf47156aa06152,65d6bb0e977760de756971f7,65d6bf2c6871e82dfed53f29,0.0579,0.058,0,112,112,100,1,sevenfive,,,,,,,,,,,,,,,,,,,,,,,,,,,,,,,,,,,,,,,,,,,,,,,,,,,,,,,,,,,,,,,,,,,,,,,,,,,,,,,,,,,,,,,,,,,,,,,,,,,,,,,,,,,,,,,,,,,,,,,,,,,,,,,,,,,,,,,,,
,,65c12f82f8bf47156aa06152,2024-02-21_21h28.08.193,kallum_motion_pilot,2023.2.2,Win32,7.44047619,65c12f82f8bf47156aa06152,65d6bb0e977760de756971f7,65d6bf2c6871e82dfed53f29,0.0582,0.0582,0,113,113,27,1,twofour,,,,,,,,,,,,,,,,,,,,,,,,,,,,,,,,,,,,,,,,,,,,,,,,,,,,,,,,,,,,,,,,,,,,,,,,,,,,,,,,,,,,,,,,,,,,,,,,,,,,,,,,,,,,,,,,,,,,,,,,,,,,,,,,,,,,,,,,,
,,65c12f82f8bf47156aa06152,2024-02-21_21h28.08.193,kallum_motion_pilot,2023.2.2,Win32,7.44047619,65c12f82f8bf47156aa06152,65d6bb0e977760de756971f7,65d6bf2c6871e82dfed53f29,0.0584,0.0584,0,114,114,148,1,sevenfive,,,,,,,,,,,,,,,,,,,,,,,,,,,,,,,,,,,,,,,,,,,,,,,,,,,,,,,,,,,,,,,,,,,,,,,,,,,,,,,,,,,,,,,,,,,,,,,,,,,,,,,,,,,,,,,,,,,,,,,,,,,,,,,,,,,,,,,,,
,,65c12f82f8bf47156aa06152,2024-02-21_21h28.08.193,kallum_motion_pilot,2023.2.2,Win32,7.44047619,65c12f82f8bf47156aa06152,65d6bb0e977760de756971f7,65d6bf2c6871e82dfed53f29,0.0586,0.0586,0,115,115,66,1,twoone,,,,,,,,,,,,,,,,,,,,,,,,,,,,,,,,,,,,,,,,,,,,,,,,,,,,,,,,,,,,,,,,,,,,,,,,,,,,,,,,,,,,,,,,,,,,,,,,,,,,,,,,,,,,,,,,,,,,,,,,,,,,,,,,,,,,,,,,,
,,65c12f82f8bf47156aa06152,2024-02-21_21h28.08.193,kallum_motion_pilot,2023.2.2,Win32,7.44047619,65c12f82f8bf47156aa06152,65d6bb0e977760de756971f7,65d6bf2c6871e82dfed53f29,0.0587,0.0588,0,116,116,40,1,onetwo,,,,,,,,,,,,,,,,,,,,,,,,,,,,,,,,,,,,,,,,,,,,,,,,,,,,,,,,,,,,,,,,,,,,,,,,,,,,,,,,,,,,,,,,,,,,,,,,,,,,,,,,,,,,,,,,,,,,,,,,,,,,,,,,,,,,,,,,,
,,65c12f82f8bf47156aa06152,2024-02-21_21h28.08.193,kallum_motion_pilot,2023.2.2,Win32,7.44047619,65c12f82f8bf47156aa06152,65d6bb0e977760de756971f7,65d6bf2c6871e82dfed53f29,0.0589,0.059,0,117,117,127,1,eightseven,,,,,,,,,,,,,,,,,,,,,,,,,,,,,,,,,,,,,,,,,,,,,,,,,,,,,,,,,,,,,,,,,,,,,,,,,,,,,,,,,,,,,,,,,,,,,,,,,,,,,,,,,,,,,,,,,,,,,,,,,,,,,,,,,,,,,,,,,
,,65c12f82f8bf47156aa06152,2024-02-21_21h28.08.193,kallum_motion_pilot,2023.2.2,Win32,7.44047619,65c12f82f8bf47156aa06152,65d6bb0e977760de756971f7,65d6bf2c6871e82dfed53f29,0.0591,0.0592,0,118,118,79,1,eightseven,,,,,,,,,,,,,,,,,,,,,,,,,,,,,,,,,,,,,,,,,,,,,,,,,,,,,,,,,,,,,,,,,,,,,,,,,,,,,,,,,,,,,,,,,,,,,,,,,,,,,,,,,,,,,,,,,,,,,,,,,,,,,,,,,,,,,,,,,
,,65c12f82f8bf47156aa06152,2024-02-21_21h28.08.193,kallum_motion_pilot,2023.2.2,Win32,7.44047619,65c12f82f8bf47156aa06152,65d6bb0e977760de756971f7,65d6bf2c6871e82dfed53f29,0.0593,0.0594,0,119,119,56,1,onetwo,,,,,,,,,,,,,,,,,,,,,,,,,,,,,,,,,,,,,,,,,,,,,,,,,,,,,,,,,,,,,,,,,,,,,,,,,,,,,,,,,,,,,,,,,,,,,,,,,,,,,,,,,,,,,,,,,,,,,,,,,,,,,,,,,,,,,,,,,
,,65c12f82f8bf47156aa06152,2024-02-21_21h28.08.193,kallum_motion_pilot,2023.2.2,Win32,7.44047619,65c12f82f8bf47156aa06152,65d6bb0e977760de756971f7,65d6bf2c6871e82dfed53f29,0.0595,0.0596,0,120,120,118,1,eightsix,,,,,,,,,,,,,,,,,,,,,,,,,,,,,,,,,,,,,,,,,,,,,,,,,,,,,,,,,,,,,,,,,,,,,,,,,,,,,,,,,,,,,,,,,,,,,,,,,,,,,,,,,,,,,,,,,,,,,,,,,,,,,,,,,,,,,,,,,
,,65c12f82f8bf47156aa06152,2024-02-21_21h28.08.193,kallum_motion_pilot,2023.2.2,Win32,7.44047619,65c12f82f8bf47156aa06152,65d6bb0e977760de756971f7,65d6bf2c6871e82dfed53f29,0.0597,0.0597,0,121,121,109,1,seveneight,,,,,,,,,,,,,,,,,,,,,,,,,,,,,,,,,,,,,,,,,,,,,,,,,,,,,,,,,,,,,,,,,,,,,,,,,,,,,,,,,,,,,,,,,,,,,,,,,,,,,,,,,,,,,,,,,,,,,,,,,,,,,,,,,,,,,,,,,
,,65c12f82f8bf47156aa06152,2024-02-21_21h28.08.193,kallum_motion_pilot,2023.2.2,Win32,7.44047619,65c12f82f8bf47156aa06152,65d6bb0e977760de756971f7,65d6bf2c6871e82dfed53f29,0.0599,0.06,0,122,122,54,1,fourtwo,,,,,,,,,,,,,,,,,,,,,,,,,,,,,,,,,,,,,,,,,,,,,,,,,,,,,,,,,,,,,,,,,,,,,,,,,,,,,,,,,,,,,,,,,,,,,,,,,,,,,,,,,,,,,,,,,,,,,,,,,,,,,,,,,,,,,,,,,
,,65c12f82f8bf47156aa06152,2024-02-21_21h28.08.193,kallum_motion_pilot,2023.2.2,Win32,7.44047619,65c12f82f8bf47156aa06152,65d6bb0e977760de756971f7,65d6bf2c6871e82dfed53f29,0.0601,0.0601,0,123,123,49,1,onethree,,,,,,,,,,,,,,,,,,,,,,,,,,,,,,,,,,,,,,,,,,,,,,,,,,,,,,,,,,,,,,,,,,,,,,,,,,,,,,,,,,,,,,,,,,,,,,,,,,,,,,,,,,,,,,,,,,,,,,,,,,,,,,,,,,,,,,,,,
,,65c12f82f8bf47156aa06152,2024-02-21_21h28.08.193,kallum_motion_pilot,2023.2.2,Win32,7.44047619,65c12f82f8bf47156aa06152,65d6bb0e977760de756971f7,65d6bf2c6871e82dfed53f29,0.0603,0.0604,0,124,124,97,1,fiveseven,,,,,,,,,,,,,,,,,,,,,,,,,,,,,,,,,,,,,,,,,,,,,,,,,,,,,,,,,,,,,,,,,,,,,,,,,,,,,,,,,,,,,,,,,,,,,,,,,,,,,,,,,,,,,,,,,,,,,,,,,,,,,,,,,,,,,,,,,
,,65c12f82f8bf47156aa06152,2024-02-21_21h28.08.193,kallum_motion_pilot,2023.2.2,Win32,7.44047619,65c12f82f8bf47156aa06152,65d6bb0e977760de756971f7,65d6bf2c6871e82dfed53f29,0.0605,0.0606,0,125,125,116,1,sevenfive,,,,,,,,,,,,,,,,,,,,,,,,,,,,,,,,,,,,,,,,,,,,,,,,,,,,,,,,,,,,,,,,,,,,,,,,,,,,,,,,,,,,,,,,,,,,,,,,,,,,,,,,,,,,,,,,,,,,,,,,,,,,,,,,,,,,,,,,,
,,65c12f82f8bf47156aa06152,2024-02-21_21h28.08.193,kallum_motion_pilot,2023.2.2,Win32,7.44047619,65c12f82f8bf47156aa06152,65d6bb0e977760de756971f7,65d6bf2c6871e82dfed53f29,0.0607,0.0608,0,126,126,59,1,twofour,,,,,,,,,,,,,,,,,,,,,,,,,,,,,,,,,,,,,,,,,,,,,,,,,,,,,,,,,,,,,,,,,,,,,,,,,,,,,,,,,,,,,,,,,,,,,,,,,,,,,,,,,,,,,,,,,,,,,,,,,,,,,,,,,,,,,,,,,
,,65c12f82f8bf47156aa06152,2024-02-21_21h28.08.193,kallum_motion_pilot,2023.2.2,Win32,7.44047619,65c12f82f8bf47156aa06152,65d6bb0e977760de756971f7,65d6bf2c6871e82dfed53f29,0.061,0.0611,0,127,127,31,1,fourthree,,,,,,,,,,,,,,,,,,,,,,,,,,,,,,,,,,,,,,,,,,,,,,,,,,,,,,,,,,,,,,,,,,,,,,,,,,,,,,,,,,,,,,,,,,,,,,,,,,,,,,,,,,,,,,,,,,,,,,,,,,,,,,,,,,,,,,,,,
,,65c12f82f8bf47156aa06152,2024-02-21_21h28.08.193,kallum_motion_pilot,2023.2.2,Win32,7.44047619,65c12f82f8bf47156aa06152,65d6bb0e977760de756971f7,65d6bf2c6871e82dfed53f29,0.0612,0.0613,0,128,128,28,1,threeone,,,,,,,,,,,,,,,,,,,,,,,,,,,,,,,,,,,,,,,,,,,,,,,,,,,,,,,,,,,,,,,,,,,,,,,,,,,,,,,,,,,,,,,,,,,,,,,,,,,,,,,,,,,,,,,,,,,,,,,,,,,,,,,,,,,,,,,,,
,,65c12f82f8bf47156aa06152,2024-02-21_21h28.08.193,kallum_motion_pilot,2023.2.2,Win32,7.44047619,65c12f82f8bf47156aa06152,65d6bb0e977760de756971f7,65d6bf2c6871e82dfed53f29,0.0615,0.0616,0,129,129,99,1,sixeight,,,,,,,,,,,,,,,,,,,,,,,,,,,,,,,,,,,,,,,,,,,,,,,,,,,,,,,,,,,,,,,,,,,,,,,,,,,,,,,,,,,,,,,,,,,,,,,,,,,,,,,,,,,,,,,,,,,,,,,,,,,,,,,,,,,,,,,,,
,,65c12f82f8bf47156aa06152,2024-02-21_21h28.08.193,kallum_motion_pilot,2023.2.2,Win32,7.44047619,65c12f82f8bf47156aa06152,65d6bb0e977760de756971f7,65d6bf2c6871e82dfed53f29,0.0618,0.0618,0,130,130,11,1,twofour,,,,,,,,,,,,,,,,,,,,,,,,,,,,,,,,,,,,,,,,,,,,,,,,,,,,,,,,,,,,,,,,,,,,,,,,,,,,,,,,,,,,,,,,,,,,,,,,,,,,,,,,,,,,,,,,,,,,,,,,,,,,,,,,,,,,,,,,,
,,65c12f82f8bf47156aa06152,2024-02-21_21h28.08.193,kallum_motion_pilot,2023.2.2,Win32,7.44047619,65c12f82f8bf47156aa06152,65d6bb0e977760de756971f7,65d6bf2c6871e82dfed53f29,0.0619,0.0621,0,131,131,95,1,eightseven,,,,,,,,,,,,,,,,,,,,,,,,,,,,,,,,,,,,,,,,,,,,,,,,,,,,,,,,,,,,,,,,,,,,,,,,,,,,,,,,,,,,,,,,,,,,,,,,,,,,,,,,,,,,,,,,,,,,,,,,,,,,,,,,,,,,,,,,,
,,65c12f82f8bf47156aa06152,2024-02-21_21h28.08.193,kallum_motion_pilot,2023.2.2,Win32,7.44047619,65c12f82f8bf47156aa06152,65d6bb0e977760de756971f7,65d6bf2c6871e82dfed53f29,0.0621,0.0622,0,132,132,121,1,fiveseven,,,,,,,,,,,,,,,,,,,,,,,,,,,,,,,,,,,,,,,,,,,,,,,,,,,,,,,,,,,,,,,,,,,,,,,,,,,,,,,,,,,,,,,,,,,,,,,,,,,,,,,,,,,,,,,,,,,,,,,,,,,,,,,,,,,,,,,,,
,,65c12f82f8bf47156aa06152,2024-02-21_21h28.08.193,kallum_motion_pilot,2023.2.2,Win32,7.44047619,65c12f82f8bf47156aa06152,65d6bb0e977760de756971f7,65d6bf2c6871e82dfed53f29,0.0624,0.0625,0,133,133,155,1,sixeight,,,,,,,,,,,,,,,,,,,,,,,,,,,,,,,,,,,,,,,,,,,,,,,,,,,,,,,,,,,,,,,,,,,,,,,,,,,,,,,,,,,,,,,,,,,,,,,,,,,,,,,,,,,,,,,,,,,,,,,,,,,,,,,,,,,,,,,,,
,,65c12f82f8bf47156aa06152,2024-02-21_21h28.08.193,kallum_motion_pilot,2023.2.2,Win32,7.44047619,65c12f82f8bf47156aa06152,65d6bb0e977760de756971f7,65d6bf2c6871e82dfed53f29,0.0626,0.0627,0,134,134,161,1,fiveseven,,,,,,,,,,,,,,,,,,,,,,,,,,,,,,,,,,,,,,,,,,,,,,,,,,,,,,,,,,,,,,,,,,,,,,,,,,,,,,,,,,,,,,,,,,,,,,,,,,,,,,,,,,,,,,,,,,,,,,,,,,,,,,,,,,,,,,,,,
,,65c12f82f8bf47156aa06152,2024-02-21_21h28.08.193,kallum_motion_pilot,2023.2.2,Win32,7.44047619,65c12f82f8bf47156aa06152,65d6bb0e977760de756971f7,65d6bf2c6871e82dfed53f29,0.0629,0.0629,0,135,135,46,1,fourtwo,,,,,,,,,,,,,,,,,,,,,,,,,,,,,,,,,,,,,,,,,,,,,,,,,,,,,,,,,,,,,,,,,,,,,,,,,,,,,,,,,,,,,,,,,,,,,,,,,,,,,,,,,,,,,,,,,,,,,,,,,,,,,,,,,,,,,,,,,
,,65c12f82f8bf47156aa06152,2024-02-21_21h28.08.193,kallum_motion_pilot,2023.2.2,Win32,7.44047619,65c12f82f8bf47156aa06152,65d6bb0e977760de756971f7,65d6bf2c6871e82dfed53f29,0.0631,0.0631,0,136,136,84,1,sevenfive,,,,,,,,,,,,,,,,,,,,,,,,,,,,,,,,,,,,,,,,,,,,,,,,,,,,,,,,,,,,,,,,,,,,,,,,,,,,,,,,,,,,,,,,,,,,,,,,,,,,,,,,,,,,,,,,,,,,,,,,,,,,,,,,,,,,,,,,,
,,65c12f82f8bf47156aa06152,2024-02-21_21h28.08.193,kallum_motion_pilot,2023.2.2,Win32,7.44047619,65c12f82f8bf47156aa06152,65d6bb0e977760de756971f7,65d6bf2c6871e82dfed53f29,0.0633,0.0634,0,137,137,77,1,threefour,,,,,,,,,,,,,,,,,,,,,,,,,,,,,,,,,,,,,,,,,,,,,,,,,,,,,,,,,,,,,,,,,,,,,,,,,,,,,,,,,,,,,,,,,,,,,,,,,,,,,,,,,,,,,,,,,,,,,,,,,,,,,,,,,,,,,,,,,
,,65c12f82f8bf47156aa06152,2024-02-21_21h28.08.193,kallum_motion_pilot,2023.2.2,Win32,7.44047619,65c12f82f8bf47156aa06152,65d6bb0e977760de756971f7,65d6bf2c6871e82dfed53f29,0.0635,0.0636,0,138,138,69,1,threefour,,,,,,,,,,,,,,,,,,,,,,,,,,,,,,,,,,,,,,,,,,,,,,,,,,,,,,,,,,,,,,,,,,,,,,,,,,,,,,,,,,,,,,,,,,,,,,,,,,,,,,,,,,,,,,,,,,,,,,,,,,,,,,,,,,,,,,,,,
,,65c12f82f8bf47156aa06152,2024-02-21_21h28.08.193,kallum_motion_pilot,2023.2.2,Win32,7.44047619,65c12f82f8bf47156aa06152,65d6bb0e977760de756971f7,65d6bf2c6871e82dfed53f29,0.0649,0.065,0,139,139,110,1,eightsix,,,,,,,,,,,,,,,,,,,,,,,,,,,,,,,,,,,,,,,,,,,,,,,,,,,,,,,,,,,,,,,,,,,,,,,,,,,,,,,,,,,,,,,,,,,,,,,,,,,,,,,,,,,,,,,,,,,,,,,,,,,,,,,,,,,,,,,,,
,,65c12f82f8bf47156aa06152,2024-02-21_21h28.08.193,kallum_motion_pilot,2023.2.2,Win32,7.44047619,65c12f82f8bf47156aa06152,65d6bb0e977760de756971f7,65d6bf2c6871e82dfed53f29,0.0652,0.0653,0,140,140,4,1,threeone,,,,,,,,,,,,,,,,,,,,,,,,,,,,,,,,,,,,,,,,,,,,,,,,,,,,,,,,,,,,,,,,,,,,,,,,,,,,,,,,,,,,,,,,,,,,,,,,,,,,,,,,,,,,,,,,,,,,,,,,,,,,,,,,,,,,,,,,,
,,65c12f82f8bf47156aa06152,2024-02-21_21h28.08.193,kallum_motion_pilot,2023.2.2,Win32,7.44047619,65c12f82f8bf47156aa06152,65d6bb0e977760de756971f7,65d6bf2c6871e82dfed53f29,0.0654,0.0656,0,141,141,106,1,sixfive,,,,,,,,,,,,,,,,,,,,,,,,,,,,,,,,,,,,,,,,,,,,,,,,,,,,,,,,,,,,,,,,,,,,,,,,,,,,,,,,,,,,,,,,,,,,,,,,,,,,,,,,,,,,,,,,,,,,,,,,,,,,,,,,,,,,,,,,,
,,65c12f82f8bf47156aa06152,2024-02-21_21h28.08.193,kallum_motion_pilot,2023.2.2,Win32,7.44047619,65c12f82f8bf47156aa06152,65d6bb0e977760de756971f7,65d6bf2c6871e82dfed53f29,0.0657,0.0658,0,142,142,20,1,threeone,,,,,,,,,,,,,,,,,,,,,,,,,,,,,,,,,,,,,,,,,,,,,,,,,,,,,,,,,,,,,,,,,,,,,,,,,,,,,,,,,,,,,,,,,,,,,,,,,,,,,,,,,,,,,,,,,,,,,,,,,,,,,,,,,,,,,,,,,
,,65c12f82f8bf47156aa06152,2024-02-21_21h28.08.193,kallum_motion_pilot,2023.2.2,Win32,7.44047619,65c12f82f8bf47156aa06152,65d6bb0e977760de756971f7,65d6bf2c6871e82dfed53f29,0.0659,0.0659,0,143,143,76,1,threeone,,,,,,,,,,,,,,,,,,,,,,,,,,,,,,,,,,,,,,,,,,,,,,,,,,,,,,,,,,,,,,,,,,,,,,,,,,,,,,,,,,,,,,,,,,,,,,,,,,,,,,,,,,,,,,,,,,,,,,,,,,,,,,,,,,,,,,,,,
,,65c12f82f8bf47156aa06152,2024-02-21_21h28.08.193,kallum_motion_pilot,2023.2.2,Win32,7.44047619,65c12f82f8bf47156aa06152,65d6bb0e977760de756971f7,65d6bf2c6871e82dfed53f29,0.066,0.0662,0,144,144,6,1,fourtwo,,,,,,,,,,,,,,,,,,,,,,,,,,,,,,,,,,,,,,,,,,,,,,,,,,,,,,,,,,,,,,,,,,,,,,,,,,,,,,,,,,,,,,,,,,,,,,,,,,,,,,,,,,,,,,,,,,,,,,,,,,,,,,,,,,,,,,,,,
,,65c12f82f8bf47156aa06152,2024-02-21_21h28.08.193,kallum_motion_pilot,2023.2.2,Win32,7.44047619,65c12f82f8bf47156aa06152,65d6bb0e977760de756971f7,65d6bf2c6871e82dfed53f29,0.0663,0.0663,0,145,145,35,1,twofour,,,,,,,,,,,,,,,,,,,,,,,,,,,,,,,,,,,,,,,,,,,,,,,,,,,,,,,,,,,,,,,,,,,,,,,,,,,,,,,,,,,,,,,,,,,,,,,,,,,,,,,,,,,,,,,,,,,,,,,,,,,,,,,,,,,,,,,,,
,,65c12f82f8bf47156aa06152,2024-02-21_21h28.08.193,kallum_motion_pilot,2023.2.2,Win32,7.44047619,65c12f82f8bf47156aa06152,65d6bb0e977760de756971f7,65d6bf2c6871e82dfed53f29,0.0665,0.0666,0,146,146,113,1,fiveseven,,,,,,,,,,,,,,,,,,,,,,,,,,,,,,,,,,,,,,,,,,,,,,,,,,,,,,,,,,,,,,,,,,,,,,,,,,,,,,,,,,,,,,,,,,,,,,,,,,,,,,,,,,,,,,,,,,,,,,,,,,,,,,,,,,,,,,,,,
,,65c12f82f8bf47156aa06152,2024-02-21_21h28.08.193,kallum_motion_pilot,2023.2.2,Win32,7.44047619,65c12f82f8bf47156aa06152,65d6bb0e977760de756971f7,65d6bf2c6871e82dfed53f29,0.0667,0.0668,0,147,147,117,1,seveneight,,,,,,,,,,,,,,,,,,,,,,,,,,,,,,,,,,,,,,,,,,,,,,,,,,,,,,,,,,,,,,,,,,,,,,,,,,,,,,,,,,,,,,,,,,,,,,,,,,,,,,,,,,,,,,,,,,,,,,,,,,,,,,,,,,,,,,,,,
,,65c12f82f8bf47156aa06152,2024-02-21_21h28.08.193,kallum_motion_pilot,2023.2.2,Win32,7.44047619,65c12f82f8bf47156aa06152,65d6bb0e977760de756971f7,65d6bf2c6871e82dfed53f29,0.0669,0.067,0,148,148,145,1,fiveseven,,,,,,,,,,,,,,,,,,,,,,,,,,,,,,,,,,,,,,,,,,,,,,,,,,,,,,,,,,,,,,,,,,,,,,,,,,,,,,,,,,,,,,,,,,,,,,,,,,,,,,,,,,,,,,,,,,,,,,,,,,,,,,,,,,,,,,,,,
,,65c12f82f8bf47156aa06152,2024-02-21_21h28.08.193,kallum_motion_pilot,2023.2.2,Win32,7.44047619,65c12f82f8bf47156aa06152,65d6bb0e977760de756971f7,65d6bf2c6871e82dfed53f29,0.0671,0.0673,0,149,149,134,1,eightsix,,,,,,,,,,,,,,,,,,,,,,,,,,,,,,,,,,,,,,,,,,,,,,,,,,,,,,,,,,,,,,,,,,,,,,,,,,,,,,,,,,,,,,,,,,,,,,,,,,,,,,,,,,,,,,,,,,,,,,,,,,,,,,,,,,,,,,,,,
,,65c12f82f8bf47156aa06152,2024-02-21_21h28.08.193,kallum_motion_pilot,2023.2.2,Win32,7.44047619,65c12f82f8bf47156aa06152,65d6bb0e977760de756971f7,65d6bf2c6871e82dfed53f29,0.0674,0.0674,0,150,150,128,1,fivesix,,,,,,,,,,,,,,,,,,,,,,,,,,,,,,,,,,,,,,,,,,,,,,,,,,,,,,,,,,,,,,,,,,,,,,,,,,,,,,,,,,,,,,,,,,,,,,,,,,,,,,,,,,,,,,,,,,,,,,,,,,,,,,,,,,,,,,,,,
,,65c12f82f8bf47156aa06152,2024-02-21_21h28.08.193,kallum_motion_pilot,2023.2.2,Win32,7.44047619,65c12f82f8bf47156aa06152,65d6bb0e977760de756971f7,65d6bf2c6871e82dfed53f29,0.0676,0.0676,0,151,151,147,1,sixeight,,,,,,,,,,,,,,,,,,,,,,,,,,,,,,,,,,,,,,,,,,,,,,,,,,,,,,,,,,,,,,,,,,,,,,,,,,,,,,,,,,,,,,,,,,,,,,,,,,,,,,,,,,,,,,,,,,,,,,,,,,,,,,,,,,,,,,,,,
,,65c12f82f8bf47156aa06152,2024-02-21_21h28.08.193,kallum_motion_pilot,2023.2.2,Win32,7.44047619,65c12f82f8bf47156aa06152,65d6bb0e977760de756971f7,65d6bf2c6871e82dfed53f29,0.0677,0.0679,0,152,152,58,1,twoone,,,,,,,,,,,,,,,,,,,,,,,,,,,,,,,,,,,,,,,,,,,,,,,,,,,,,,,,,,,,,,,,,,,,,,,,,,,,,,,,,,,,,,,,,,,,,,,,,,,,,,,,,,,,,,,,,,,,,,,,,,,,,,,,,,,,,,,,,
,,65c12f82f8bf47156aa06152,2024-02-21_21h28.08.193,kallum_motion_pilot,2023.2.2,Win32,7.44047619,65c12f82f8bf47156aa06152,65d6bb0e977760de756971f7,65d6bf2c6871e82dfed53f29,0.068,0.0681,0,153,153,143,1,eightseven,,,,,,,,,,,,,,,,,,,,,,,,,,,,,,,,,,,,,,,,,,,,,,,,,,,,,,,,,,,,,,,,,,,,,,,,,,,,,,,,,,,,,,,,,,,,,,,,,,,,,,,,,,,,,,,,,,,,,,,,,,,,,,,,,,,,,,,,,
,,65c12f82f8bf47156aa06152,2024-02-21_21h28.08.193,kallum_motion_pilot,2023.2.2,Win32,7.44047619,65c12f82f8bf47156aa06152,65d6bb0e977760de756971f7,65d6bf2c6871e82dfed53f29,0.0682,0.0683,0,154,154,115,1,sixeight,,,,,,,,,,,,,,,,,,,,,,,,,,,,,,,,,,,,,,,,,,,,,,,,,,,,,,,,,,,,,,,,,,,,,,,,,,,,,,,,,,,,,,,,,,,,,,,,,,,,,,,,,,,,,,,,,,,,,,,,,,,,,,,,,,,,,,,,,
,,65c12f82f8bf47156aa06152,2024-02-21_21h28.08.193,kallum_motion_pilot,2023.2.2,Win32,7.44047619,65c12f82f8bf47156aa06152,65d6bb0e977760de756971f7,65d6bf2c6871e82dfed53f29,0.0685,0.0685,0,155,155,146,1,sixfive,,,,,,,,,,,,,,,,,,,,,,,,,,,,,,,,,,,,,,,,,,,,,,,,,,,,,,,,,,,,,,,,,,,,,,,,,,,,,,,,,,,,,,,,,,,,,,,,,,,,,,,,,,,,,,,,,,,,,,,,,,,,,,,,,,,,,,,,,
,,65c12f82f8bf47156aa06152,2024-02-21_21h28.08.193,kallum_motion_pilot,2023.2.2,Win32,7.44047619,65c12f82f8bf47156aa06152,65d6bb0e977760de756971f7,65d6bf2c6871e82dfed53f29,0.0686,0.0687,0,156,156,14,1,fourtwo,,,,,,,,,,,,,,,,,,,,,,,,,,,,,,,,,,,,,,,,,,,,,,,,,,,,,,,,,,,,,,,,,,,,,,,,,,,,,,,,,,,,,,,,,,,,,,,,,,,,,,,,,,,,,,,,,,,,,,,,,,,,,,,,,,,,,,,,,
,,65c12f82f8bf47156aa06152,2024-02-21_21h28.08.193,kallum_motion_pilot,2023.2.2,Win32,7.44047619,65c12f82f8bf47156aa06152,65d6bb0e977760de756971f7,65d6bf2c6871e82dfed53f29,0.0688,0.0689,0,157,157,138,1,sixfive,,,,,,,,,,,,,,,,,,,,,,,,,,,,,,,,,,,,,,,,,,,,,,,,,,,,,,,,,,,,,,,,,,,,,,,,,,,,,,,,,,,,,,,,,,,,,,,,,,,,,,,,,,,,,,,,,,,,,,,,,,,,,,,,,,,,,,,,,
,,65c12f82f8bf47156aa06152,2024-02-21_21h28.08.193,kallum_motion_pilot,2023.2.2,Win32,7.44047619,65c12f82f8bf47156aa06152,65d6bb0e977760de756971f7,65d6bf2c6871e82dfed53f29,0.069,0.0691,0,158,158,33,1,onethree,,,,,,,,,,,,,,,,,,,,,,,,,,,,,,,,,,,,,,,,,,,,,,,,,,,,,,,,,,,,,,,,,,,,,,,,,,,,,,,,,,,,,,,,,,,,,,,,,,,,,,,,,,,,,,,,,,,,,,,,,,,,,,,,,,,,,,,,,
,,65c12f82f8bf47156aa06152,2024-02-21_21h28.08.193,kallum_motion_pilot,2023.2.2,Win32,7.44047619,65c12f82f8bf47156aa06152,65d6bb0e977760de756971f7,65d6bf2c6871e82dfed53f29,0.0692,0.0693,0,159,159,10,1,twoone,,,,,,,,,,,,,,,,,,,,,,,,,,,,,,,,,,,,,,,,,,,,,,,,,,,,,,,,,,,,,,,,,,,,,,,,,,,,,,,,,,,,,,,,,,,,,,,,,,,,,,,,,,,,,,,,,,,,,,,,,,,,,,,,,,,,,,,,,
,,65c12f82f8bf47156aa06152,2024-02-21_21h28.08.193,kallum_motion_pilot,2023.2.2,Win32,7.44047619,65c12f82f8bf47156aa06152,65d6bb0e977760de756971f7,65d6bf2c6871e82dfed53f29,0.0693,0.0695,0,160,160,98,1,sixfive,,,,,,,,,,,,,,,,,,,,,,,,,,,,,,,,,,,,,,,,,,,,,,,,,,,,,,,,,,,,,,,,,,,,,,,,,,,,,,,,,,,,,,,,,,,,,,,,,,,,,,,,,,,,,,,,,,,,,,,,,,,,,,,,,,,,,,,,,
,,65c12f82f8bf47156aa06152,2024-02-21_21h28.08.193,kallum_motion_pilot,2023.2.2,Win32,7.44047619,65c12f82f8bf47156aa06152,65d6bb0e977760de756971f7,65d6bf2c6871e82dfed53f29,0.0697,0.0698,0,161,161,5,1,threefour,,,,,,,,,,,,,,,,,,,,,,,,,,,,,,,,,,,,,,,,,,,,,,,,,,,,,,,,,,,,,,,,,,,,,,,,,,,,,,,,,,,,,,,,,,,,,,,,,,,,,,,,,,,,,,,,,,,,,,,,,,,,,,,,,,,,,,,,,
,,65c12f82f8bf47156aa06152,2024-02-21_21h28.08.193,kallum_motion_pilot,2023.2.2,Win32,7.44047619,65c12f82f8bf47156aa06152,65d6bb0e977760de756971f7,65d6bf2c6871e82dfed53f29,0.0699,0.07,1,0,162,32,1,onetwo,,,,,,,,,,,,,,,,,,,,,,,,,,,,,,,,,,,,,,,,,,,,,,,,,,,,,,,,,,,,,,,,,,,,,,,,,,,,,,,,,,,,,,,,,,,,,,,,,,,,,,,,,,,,,,,,,,,,,,,,,,,,,,,,,,,,,,,,,
,,65c12f82f8bf47156aa06152,2024-02-21_21h28.08.193,kallum_motion_pilot,2023.2.2,Win32,7.44047619,65c12f82f8bf47156aa06152,65d6bb0e977760de756971f7,65d6bf2c6871e82dfed53f29,0.0702,0.0703,1,1,163,127,1,eightseven,,,,,,,,,,,,,,,,,,,,,,,,,,,,,,,,,,,,,,,,,,,,,,,,,,,,,,,,,,,,,,,,,,,,,,,,,,,,,,,,,,,,,,,,,,,,,,,,,,,,,,,,,,,,,,,,,,,,,,,,,,,,,,,,,,,,,,,,,
,,65c12f82f8bf47156aa06152,2024-02-21_21h28.08.193,kallum_motion_pilot,2023.2.2,Win32,7.44047619,65c12f82f8bf47156aa06152,65d6bb0e977760de756971f7,65d6bf2c6871e82dfed53f29,0.0704,0.0707,1,2,164,86,1,eightsix,,,,,,,,,,,,,,,,,,,,,,,,,,,,,,,,,,,,,,,,,,,,,,,,,,,,,,,,,,,,,,,,,,,,,,,,,,,,,,,,,,,,,,,,,,,,,,,,,,,,,,,,,,,,,,,,,,,,,,,,,,,,,,,,,,,,,,,,,
,,65c12f82f8bf47156aa06152,2024-02-21_21h28.08.193,kallum_motion_pilot,2023.2.2,Win32,7.44047619,65c12f82f8bf47156aa06152,65d6bb0e977760de756971f7,65d6bf2c6871e82dfed53f29,0.0708,0.0708,1,3,165,53,1,threefour,,,,,,,,,,,,,,,,,,,,,,,,,,,,,,,,,,,,,,,,,,,,,,,,,,,,,,,,,,,,,,,,,,,,,,,,,,,,,,,,,,,,,,,,,,,,,,,,,,,,,,,,,,,,,,,,,,,,,,,,,,,,,,,,,,,,,,,,,
,,65c12f82f8bf47156aa06152,2024-02-21_21h28.08.193,kallum_motion_pilot,2023.2.2,Win32,7.44047619,65c12f82f8bf47156aa06152,65d6bb0e977760de756971f7,65d6bf2c6871e82dfed53f29,0.0709,0.0711,1,4,166,29,1,threefour,,,,,,,,,,,,,,,,,,,,,,,,,,,,,,,,,,,,,,,,,,,,,,,,,,,,,,,,,,,,,,,,,,,,,,,,,,,,,,,,,,,,,,,,,,,,,,,,,,,,,,,,,,,,,,,,,,,,,,,,,,,,,,,,,,,,,,,,,
,,65c12f82f8bf47156aa06152,2024-02-21_21h28.08.193,kallum_motion_pilot,2023.2.2,Win32,7.44047619,65c12f82f8bf47156aa06152,65d6bb0e977760de756971f7,65d6bf2c6871e82dfed53f29,0.0711,0.0713,1,5,167,135,1,eightseven,,,,,,,,,,,,,,,,,,,,,,,,,,,,,,,,,,,,,,,,,,,,,,,,,,,,,,,,,,,,,,,,,,,,,,,,,,,,,,,,,,,,,,,,,,,,,,,,,,,,,,,,,,,,,,,,,,,,,,,,,,,,,,,,,,,,,,,,,
,,65c12f82f8bf47156aa06152,2024-02-21_21h28.08.193,kallum_motion_pilot,2023.2.2,Win32,7.44047619,65c12f82f8bf47156aa06152,65d6bb0e977760de756971f7,65d6bf2c6871e82dfed53f29,0.0714,0.0715,1,6,168,81,1,fiveseven,,,,,,,,,,,,,,,,,,,,,,,,,,,,,,,,,,,,,,,,,,,,,,,,,,,,,,,,,,,,,,,,,,,,,,,,,,,,,,,,,,,,,,,,,,,,,,,,,,,,,,,,,,,,,,,,,,,,,,,,,,,,,,,,,,,,,,,,,
,,65c12f82f8bf47156aa06152,2024-02-21_21h28.08.193,kallum_motion_pilot,2023.2.2,Win32,7.44047619,65c12f82f8bf47156aa06152,65d6bb0e977760de756971f7,65d6bf2c6871e82dfed53f29,0.0717,0.0719,1,7,169,26,1,twoone,,,,,,,,,,,,,,,,,,,,,,,,,,,,,,,,,,,,,,,,,,,,,,,,,,,,,,,,,,,,,,,,,,,,,,,,,,,,,,,,,,,,,,,,,,,,,,,,,,,,,,,,,,,,,,,,,,,,,,,,,,,,,,,,,,,,,,,,,
,,65c12f82f8bf47156aa06152,2024-02-21_21h28.08.193,kallum_motion_pilot,2023.2.2,Win32,7.44047619,65c12f82f8bf47156aa06152,65d6bb0e977760de756971f7,65d6bf2c6871e82dfed53f29,0.0722,0.0724,1,8,170,94,1,eightsix,,,,,,,,,,,,,,,,,,,,,,,,,,,,,,,,,,,,,,,,,,,,,,,,,,,,,,,,,,,,,,,,,,,,,,,,,,,,,,,,,,,,,,,,,,,,,,,,,,,,,,,,,,,,,,,,,,,,,,,,,,,,,,,,,,,,,,,,,
,,65c12f82f8bf47156aa06152,2024-02-21_21h28.08.193,kallum_motion_pilot,2023.2.2,Win32,7.44047619,65c12f82f8bf47156aa06152,65d6bb0e977760de756971f7,65d6bf2c6871e82dfed53f29,0.0727,0.0728,1,9,171,4,1,threeone,,,,,,,,,,,,,,,,,,,,,,,,,,,,,,,,,,,,,,,,,,,,,,,,,,,,,,,,,,,,,,,,,,,,,,,,,,,,,,,,,,,,,,,,,,,,,,,,,,,,,,,,,,,,,,,,,,,,,,,,,,,,,,,,,,,,,,,,,
,,65c12f82f8bf47156aa06152,2024-02-21_21h28.08.193,kallum_motion_pilot,2023.2.2,Win32,7.44047619,65c12f82f8bf47156aa06152,65d6bb0e977760de756971f7,65d6bf2c6871e82dfed53f29,0.0729,0.073,1,10,172,129,1,fiveseven,,,,,,,,,,,,,,,,,,,,,,,,,,,,,,,,,,,,,,,,,,,,,,,,,,,,,,,,,,,,,,,,,,,,,,,,,,,,,,,,,,,,,,,,,,,,,,,,,,,,,,,,,,,,,,,,,,,,,,,,,,,,,,,,,,,,,,,,,
,,65c12f82f8bf47156aa06152,2024-02-21_21h28.08.193,kallum_motion_pilot,2023.2.2,Win32,7.44047619,65c12f82f8bf47156aa06152,65d6bb0e977760de756971f7,65d6bf2c6871e82dfed53f29,0.0732,0.0733,1,11,173,47,1,fourthree,,,,,,,,,,,,,,,,,,,,,,,,,,,,,,,,,,,,,,,,,,,,,,,,,,,,,,,,,,,,,,,,,,,,,,,,,,,,,,,,,,,,,,,,,,,,,,,,,,,,,,,,,,,,,,,,,,,,,,,,,,,,,,,,,,,,,,,,,
,,65c12f82f8bf47156aa06152,2024-02-21_21h28.08.193,kallum_motion_pilot,2023.2.2,Win32,7.44047619,65c12f82f8bf47156aa06152,65d6bb0e977760de756971f7,65d6bf2c6871e82dfed53f29,0.0734,0.0735,1,12,174,33,1,onethree,,,,,,,,,,,,,,,,,,,,,,,,,,,,,,,,,,,,,,,,,,,,,,,,,,,,,,,,,,,,,,,,,,,,,,,,,,,,,,,,,,,,,,,,,,,,,,,,,,,,,,,,,,,,,,,,,,,,,,,,,,,,,,,,,,,,,,,,,
,,65c12f82f8bf47156aa06152,2024-02-21_21h28.08.193,kallum_motion_pilot,2023.2.2,Win32,7.44047619,65c12f82f8bf47156aa06152,65d6bb0e977760de756971f7,65d6bf2c6871e82dfed53f29,0.0736,0.0737,1,13,175,72,1,onetwo,,,,,,,,,,,,,,,,,,,,,,,,,,,,,,,,,,,,,,,,,,,,,,,,,,,,,,,,,,,,,,,,,,,,,,,,,,,,,,,,,,,,,,,,,,,,,,,,,,,,,,,,,,,,,,,,,,,,,,,,,,,,,,,,,,,,,,,,,
,,65c12f82f8bf47156aa06152,2024-02-21_21h28.08.193,kallum_motion_pilot,2023.2.2,Win32,7.44047619,65c12f82f8bf47156aa06152,65d6bb0e977760de756971f7,65d6bf2c6871e82dfed53f29,0.0738,0.074,1,14,176,77,1,threefour,,,,,,,,,,,,,,,,,,,,,,,,,,,,,,,,,,,,,,,,,,,,,,,,,,,,,,,,,,,,,,,,,,,,,,,,,,,,,,,,,,,,,,,,,,,,,,,,,,,,,,,,,,,,,,,,,,,,,,,,,,,,,,,,,,,,,,,,,
,,65c12f82f8bf47156aa06152,2024-02-21_21h28.08.193,kallum_motion_pilot,2023.2.2,Win32,7.44047619,65c12f82f8bf47156aa06152,65d6bb0e977760de756971f7,65d6bf2c6871e82dfed53f29,0.0741,0.0742,1,15,177,152,1,fivesix,,,,,,,,,,,,,,,,,,,,,,,,,,,,,,,,,,,,,,,,,,,,,,,,,,,,,,,,,,,,,,,,,,,,,,,,,,,,,,,,,,,,,,,,,,,,,,,,,,,,,,,,,,,,,,,,,,,,,,,,,,,,,,,,,,,,,,,,,
,,65c12f82f8bf47156aa06152,2024-02-21_21h28.08.193,kallum_motion_pilot,2023.2.2,Win32,7.44047619,65c12f82f8bf47156aa06152,65d6bb0e977760de756971f7,65d6bf2c6871e82dfed53f29,0.0743,0.0744,1,16,178,149,1,seveneight,,,,,,,,,,,,,,,,,,,,,,,,,,,,,,,,,,,,,,,,,,,,,,,,,,,,,,,,,,,,,,,,,,,,,,,,,,,,,,,,,,,,,,,,,,,,,,,,,,,,,,,,,,,,,,,,,,,,,,,,,,,,,,,,,,,,,,,,,
,,65c12f82f8bf47156aa06152,2024-02-21_21h28.08.193,kallum_motion_pilot,2023.2.2,Win32,7.44047619,65c12f82f8bf47156aa06152,65d6bb0e977760de756971f7,65d6bf2c6871e82dfed53f29,0.0745,0.0747,1,17,179,34,1,twoone,,,,,,,,,,,,,,,,,,,,,,,,,,,,,,,,,,,,,,,,,,,,,,,,,,,,,,,,,,,,,,,,,,,,,,,,,,,,,,,,,,,,,,,,,,,,,,,,,,,,,,,,,,,,,,,,,,,,,,,,,,,,,,,,,,,,,,,,,
,,65c12f82f8bf47156aa06152,2024-02-21_21h28.08.193,kallum_motion_pilot,2023.2.2,Win32,7.44047619,65c12f82f8bf47156aa06152,65d6bb0e977760de756971f7,65d6bf2c6871e82dfed53f29,0.0748,0.0749,1,18,180,5,1,threefour,,,,,,,,,,,,,,,,,,,,,,,,,,,,,,,,,,,,,,,,,,,,,,,,,,,,,,,,,,,,,,,,,,,,,,,,,,,,,,,,,,,,,,,,,,,,,,,,,,,,,,,,,,,,,,,,,,,,,,,,,,,,,,,,,,,,,,,,,
,,65c12f82f8bf47156aa06152,2024-02-21_21h28.08.193,kallum_motion_pilot,2023.2.2,Win32,7.44047619,65c12f82f8bf47156aa06152,65d6bb0e977760de756971f7,65d6bf2c6871e82dfed53f29,0.0751,0.0752,1,19,181,93,1,seveneight,,,,,,,,,,,,,,,,,,,,,,,,,,,,,,,,,,,,,,,,,,,,,,,,,,,,,,,,,,,,,,,,,,,,,,,,,,,,,,,,,,,,,,,,,,,,,,,,,,,,,,,,,,,,,,,,,,,,,,,,,,,,,,,,,,,,,,,,,
,,65c12f82f8bf47156aa06152,2024-02-21_21h28.08.193,kallum_motion_pilot,2023.2.2,Win32,7.44047619,65c12f82f8bf47156aa06152,65d6bb0e977760de756971f7,65d6bf2c6871e82dfed53f29,0.0752,0.0753,1,20,182,100,1,sevenfive,,,,,,,,,,,,,,,,,,,,,,,,,,,,,,,,,,,,,,,,,,,,,,,,,,,,,,,,,,,,,,,,,,,,,,,,,,,,,,,,,,,,,,,,,,,,,,,,,,,,,,,,,,,,,,,,,,,,,,,,,,,,,,,,,,,,,,,,,
,,65c12f82f8bf47156aa06152,2024-02-21_21h28.08.193,kallum_motion_pilot,2023.2.2,Win32,7.44047619,65c12f82f8bf47156aa06152,65d6bb0e977760de756971f7,65d6bf2c6871e82dfed53f29,0.0755,0.0756,1,21,183,98,1,sixfive,,,,,,,,,,,,,,,,,,,,,,,,,,,,,,,,,,,,,,,,,,,,,,,,,,,,,,,,,,,,,,,,,,,,,,,,,,,,,,,,,,,,,,,,,,,,,,,,,,,,,,,,,,,,,,,,,,,,,,,,,,,,,,,,,,,,,,,,,
,,65c12f82f8bf47156aa06152,2024-02-21_21h28.08.193,kallum_motion_pilot,2023.2.2,Win32,7.44047619,65c12f82f8bf47156aa06152,65d6bb0e977760de756971f7,65d6bf2c6871e82dfed53f29,0.0757,0.0758,1,22,184,3,1,twofour,,,,,,,,,,,,,,,,,,,,,,,,,,,,,,,,,,,,,,,,,,,,,,,,,,,,,,,,,,,,,,,,,,,,,,,,,,,,,,,,,,,,,,,,,,,,,,,,,,,,,,,,,,,,,,,,,,,,,,,,,,,,,,,,,,,,,,,,,
,,65c12f82f8bf47156aa06152,2024-02-21_21h28.08.193,kallum_motion_pilot,2023.2.2,Win32,7.44047619,65c12f82f8bf47156aa06152,65d6bb0e977760de756971f7,65d6bf2c6871e82dfed53f29,0.0759,0.076,1,23,185,6,1,fourtwo,,,,,,,,,,,,,,,,,,,,,,,,,,,,,,,,,,,,,,,,,,,,,,,,,,,,,,,,,,,,,,,,,,,,,,,,,,,,,,,,,,,,,,,,,,,,,,,,,,,,,,,,,,,,,,,,,,,,,,,,,,,,,,,,,,,,,,,,,
,,65c12f82f8bf47156aa06152,2024-02-21_21h28.08.193,kallum_motion_pilot,2023.2.2,Win32,7.44047619,65c12f82f8bf47156aa06152,65d6bb0e977760de756971f7,65d6bf2c6871e82dfed53f29,0.0762,0.0763,1,24,186,20,1,threeone,,,,,,,,,,,,,,,,,,,,,,,,,,,,,,,,,,,,,,,,,,,,,,,,,,,,,,,,,,,,,,,,,,,,,,,,,,,,,,,,,,,,,,,,,,,,,,,,,,,,,,,,,,,,,,,,,,,,,,,,,,,,,,,,,,,,,,,,,
,,65c12f82f8bf47156aa06152,2024-02-21_21h28.08.193,kallum_motion_pilot,2023.2.2,Win32,7.44047619,65c12f82f8bf47156aa06152,65d6bb0e977760de756971f7,65d6bf2c6871e82dfed53f29,0.0764,0.0765,1,25,187,107,1,sixeight,,,,,,,,,,,,,,,,,,,,,,,,,,,,,,,,,,,,,,,,,,,,,,,,,,,,,,,,,,,,,,,,,,,,,,,,,,,,,,,,,,,,,,,,,,,,,,,,,,,,,,,,,,,,,,,,,,,,,,,,,,,,,,,,,,,,,,,,,
,,65c12f82f8bf47156aa06152,2024-02-21_21h28.08.193,kallum_motion_pilot,2023.2.2,Win32,7.44047619,65c12f82f8bf47156aa06152,65d6bb0e977760de756971f7,65d6bf2c6871e82dfed53f29,0.0767,0.0768,1,26,188,49,1,onethree,,,,,,,,,,,,,,,,,,,,,,,,,,,,,,,,,,,,,,,,,,,,,,,,,,,,,,,,,,,,,,,,,,,,,,,,,,,,,,,,,,,,,,,,,,,,,,,,,,,,,,,,,,,,,,,,,,,,,,,,,,,,,,,,,,,,,,,,,
,,65c12f82f8bf47156aa06152,2024-02-21_21h28.08.193,kallum_motion_pilot,2023.2.2,Win32,7.44047619,65c12f82f8bf47156aa06152,65d6bb0e977760de756971f7,65d6bf2c6871e82dfed53f29,0.0769,0.077,1,27,189,15,1,fourthree,,,,,,,,,,,,,,,,,,,,,,,,,,,,,,,,,,,,,,,,,,,,,,,,,,,,,,,,,,,,,,,,,,,,,,,,,,,,,,,,,,,,,,,,,,,,,,,,,,,,,,,,,,,,,,,,,,,,,,,,,,,,,,,,,,,,,,,,,
,,65c12f82f8bf47156aa06152,2024-02-21_21h28.08.193,kallum_motion_pilot,2023.2.2,Win32,7.44047619,65c12f82f8bf47156aa06152,65d6bb0e977760de756971f7,65d6bf2c6871e82dfed53f29,0.0771,0.0772,1,28,190,82,1,sixfive,,,,,,,,,,,,,,,,,,,,,,,,,,,,,,,,,,,,,,,,,,,,,,,,,,,,,,,,,,,,,,,,,,,,,,,,,,,,,,,,,,,,,,,,,,,,,,,,,,,,,,,,,,,,,,,,,,,,,,,,,,,,,,,,,,,,,,,,,
,,65c12f82f8bf47156aa06152,2024-02-21_21h28.08.193,kallum_motion_pilot,2023.2.2,Win32,7.44047619,65c12f82f8bf47156aa06152,65d6bb0e977760de756971f7,65d6bf2c6871e82dfed53f29,0.0774,0.0774,1,29,191,66,1,twoone,,,,,,,,,,,,,,,,,,,,,,,,,,,,,,,,,,,,,,,,,,,,,,,,,,,,,,,,,,,,,,,,,,,,,,,,,,,,,,,,,,,,,,,,,,,,,,,,,,,,,,,,,,,,,,,,,,,,,,,,,,,,,,,,,,,,,,,,,
,,65c12f82f8bf47156aa06152,2024-02-21_21h28.08.193,kallum_motion_pilot,2023.2.2,Win32,7.44047619,65c12f82f8bf47156aa06152,65d6bb0e977760de756971f7,65d6bf2c6871e82dfed53f29,0.0777,0.0778,1,30,192,96,1,fivesix,,,,,,,,,,,,,,,,,,,,,,,,,,,,,,,,,,,,,,,,,,,,,,,,,,,,,,,,,,,,,,,,,,,,,,,,,,,,,,,,,,,,,,,,,,,,,,,,,,,,,,,,,,,,,,,,,,,,,,,,,,,,,,,,,,,,,,,,,
,,65c12f82f8bf47156aa06152,2024-02-21_21h28.08.193,kallum_motion_pilot,2023.2.2,Win32,7.44047619,65c12f82f8bf47156aa06152,65d6bb0e977760de756971f7,65d6bf2c6871e82dfed53f29,0.0779,0.078,1,31,193,146,1,sixfive,,,,,,,,,,,,,,,,,,,,,,,,,,,,,,,,,,,,,,,,,,,,,,,,,,,,,,,,,,,,,,,,,,,,,,,,,,,,,,,,,,,,,,,,,,,,,,,,,,,,,,,,,,,,,,,,,,,,,,,,,,,,,,,,,,,,,,,,,
,,65c12f82f8bf47156aa06152,2024-02-21_21h28.08.193,kallum_motion_pilot,2023.2.2,Win32,7.44047619,65c12f82f8bf47156aa06152,65d6bb0e977760de756971f7,65d6bf2c6871e82dfed53f29,0.0781,0.0783,1,32,194,70,1,fourtwo,,,,,,,,,,,,,,,,,,,,,,,,,,,,,,,,,,,,,,,,,,,,,,,,,,,,,,,,,,,,,,,,,,,,,,,,,,,,,,,,,,,,,,,,,,,,,,,,,,,,,,,,,,,,,,,,,,,,,,,,,,,,,,,,,,,,,,,,,
,,65c12f82f8bf47156aa06152,2024-02-21_21h28.08.193,kallum_motion_pilot,2023.2.2,Win32,7.44047619,65c12f82f8bf47156aa06152,65d6bb0e977760de756971f7,65d6bf2c6871e82dfed53f29,0.0784,0.0785,1,33,195,108,1,sevenfive,,,,,,,,,,,,,,,,,,,,,,,,,,,,,,,,,,,,,,,,,,,,,,,,,,,,,,,,,,,,,,,,,,,,,,,,,,,,,,,,,,,,,,,,,,,,,,,,,,,,,,,,,,,,,,,,,,,,,,,,,,,,,,,,,,,,,,,,,
,,65c12f82f8bf47156aa06152,2024-02-21_21h28.08.193,kallum_motion_pilot,2023.2.2,Win32,7.44047619,65c12f82f8bf47156aa06152,65d6bb0e977760de756971f7,65d6bf2c6871e82dfed53f29,0.0786,0.0787,1,34,196,7,1,fourthree,,,,,,,,,,,,,,,,,,,,,,,,,,,,,,,,,,,,,,,,,,,,,,,,,,,,,,,,,,,,,,,,,,,,,,,,,,,,,,,,,,,,,,,,,,,,,,,,,,,,,,,,,,,,,,,,,,,,,,,,,,,,,,,,,,,,,,,,,
,,65c12f82f8bf47156aa06152,2024-02-21_21h28.08.193,kallum_motion_pilot,2023.2.2,Win32,7.44047619,65c12f82f8bf47156aa06152,65d6bb0e977760de756971f7,65d6bf2c6871e82dfed53f29,0.0788,0.079,1,35,197,155,1,sixeight,,,,,,,,,,,,,,,,,,,,,,,,,,,,,,,,,,,,,,,,,,,,,,,,,,,,,,,,,,,,,,,,,,,,,,,,,,,,,,,,,,,,,,,,,,,,,,,,,,,,,,,,,,,,,,,,,,,,,,,,,,,,,,,,,,,,,,,,,
,,65c12f82f8bf47156aa06152,2024-02-21_21h28.08.193,kallum_motion_pilot,2023.2.2,Win32,7.44047619,65c12f82f8bf47156aa06152,65d6bb0e977760de756971f7,65d6bf2c6871e82dfed53f29,0.0792,0.0793,1,36,198,43,1,twofour,,,,,,,,,,,,,,,,,,,,,,,,,,,,,,,,,,,,,,,,,,,,,,,,,,,,,,,,,,,,,,,,,,,,,,,,,,,,,,,,,,,,,,,,,,,,,,,,,,,,,,,,,,,,,,,,,,,,,,,,,,,,,,,,,,,,,,,,,
,,65c12f82f8bf47156aa06152,2024-02-21_21h28.08.193,kallum_motion_pilot,2023.2.2,Win32,7.44047619,65c12f82f8bf47156aa06152,65d6bb0e977760de756971f7,65d6bf2c6871e82dfed53f29,0.0794,0.0795,1,37,199,157,1,seveneight,,,,,,,,,,,,,,,,,,,,,,,,,,,,,,,,,,,,,,,,,,,,,,,,,,,,,,,,,,,,,,,,,,,,,,,,,,,,,,,,,,,,,,,,,,,,,,,,,,,,,,,,,,,,,,,,,,,,,,,,,,,,,,,,,,,,,,,,,
,,65c12f82f8bf47156aa06152,2024-02-21_21h28.08.193,kallum_motion_pilot,2023.2.2,Win32,7.44047619,65c12f82f8bf47156aa06152,65d6bb0e977760de756971f7,65d6bf2c6871e82dfed53f29,0.0797,0.0798,1,38,200,121,1,fiveseven,,,,,,,,,,,,,,,,,,,,,,,,,,,,,,,,,,,,,,,,,,,,,,,,,,,,,,,,,,,,,,,,,,,,,,,,,,,,,,,,,,,,,,,,,,,,,,,,,,,,,,,,,,,,,,,,,,,,,,,,,,,,,,,,,,,,,,,,,
,,65c12f82f8bf47156aa06152,2024-02-21_21h28.08.193,kallum_motion_pilot,2023.2.2,Win32,7.44047619,65c12f82f8bf47156aa06152,65d6bb0e977760de756971f7,65d6bf2c6871e82dfed53f29,0.0799,0.0801,1,39,201,118,1,eightsix,,,,,,,,,,,,,,,,,,,,,,,,,,,,,,,,,,,,,,,,,,,,,,,,,,,,,,,,,,,,,,,,,,,,,,,,,,,,,,,,,,,,,,,,,,,,,,,,,,,,,,,,,,,,,,,,,,,,,,,,,,,,,,,,,,,,,,,,,
,,65c12f82f8bf47156aa06152,2024-02-21_21h28.08.193,kallum_motion_pilot,2023.2.2,Win32,7.44047619,65c12f82f8bf47156aa06152,65d6bb0e977760de756971f7,65d6bf2c6871e82dfed53f29,0.0802,0.0803,1,40,202,63,1,fourthree,,,,,,,,,,,,,,,,,,,,,,,,,,,,,,,,,,,,,,,,,,,,,,,,,,,,,,,,,,,,,,,,,,,,,,,,,,,,,,,,,,,,,,,,,,,,,,,,,,,,,,,,,,,,,,,,,,,,,,,,,,,,,,,,,,,,,,,,,
,,65c12f82f8bf47156aa06152,2024-02-21_21h28.08.193,kallum_motion_pilot,2023.2.2,Win32,7.44047619,65c12f82f8bf47156aa06152,65d6bb0e977760de756971f7,65d6bf2c6871e82dfed53f29,0.0804,0.0805,1,41,203,156,1,sevenfive,,,,,,,,,,,,,,,,,,,,,,,,,,,,,,,,,,,,,,,,,,,,,,,,,,,,,,,,,,,,,,,,,,,,,,,,,,,,,,,,,,,,,,,,,,,,,,,,,,,,,,,,,,,,,,,,,,,,,,,,,,,,,,,,,,,,,,,,,
,,65c12f82f8bf47156aa06152,2024-02-21_21h28.08.193,kallum_motion_pilot,2023.2.2,Win32,7.44047619,65c12f82f8bf47156aa06152,65d6bb0e977760de756971f7,65d6bf2c6871e82dfed53f29,0.0807,0.0808,1,42,204,62,1,fourtwo,,,,,,,,,,,,,,,,,,,,,,,,,,,,,,,,,,,,,,,,,,,,,,,,,,,,,,,,,,,,,,,,,,,,,,,,,,,,,,,,,,,,,,,,,,,,,,,,,,,,,,,,,,,,,,,,,,,,,,,,,,,,,,,,,,,,,,,,,
,,65c12f82f8bf47156aa06152,2024-02-21_21h28.08.193,kallum_motion_pilot,2023.2.2,Win32,7.44047619,65c12f82f8bf47156aa06152,65d6bb0e977760de756971f7,65d6bf2c6871e82dfed53f29,0.081,0.081,1,43,205,122,1,sixfive,,,,,,,,,,,,,,,,,,,,,,,,,,,,,,,,,,,,,,,,,,,,,,,,,,,,,,,,,,,,,,,,,,,,,,,,,,,,,,,,,,,,,,,,,,,,,,,,,,,,,,,,,,,,,,,,,,,,,,,,,,,,,,,,,,,,,,,,,
,,65c12f82f8bf47156aa06152,2024-02-21_21h28.08.193,kallum_motion_pilot,2023.2.2,Win32,7.44047619,65c12f82f8bf47156aa06152,65d6bb0e977760de756971f7,65d6bf2c6871e82dfed53f29,0.0812,0.0812,1,44,206,103,1,eightseven,,,,,,,,,,,,,,,,,,,,,,,,,,,,,,,,,,,,,,,,,,,,,,,,,,,,,,,,,,,,,,,,,,,,,,,,,,,,,,,,,,,,,,,,,,,,,,,,,,,,,,,,,,,,,,,,,,,,,,,,,,,,,,,,,,,,,,,,,
,,65c12f82f8bf47156aa06152,2024-02-21_21h28.08.193,kallum_motion_pilot,2023.2.2,Win32,7.44047619,65c12f82f8bf47156aa06152,65d6bb0e977760de756971f7,65d6bf2c6871e82dfed53f29,0.0814,0.0814,1,45,207,61,1,threefour,,,,,,,,,,,,,,,,,,,,,,,,,,,,,,,,,,,,,,,,,,,,,,,,,,,,,,,,,,,,,,,,,,,,,,,,,,,,,,,,,,,,,,,,,,,,,,,,,,,,,,,,,,,,,,,,,,,,,,,,,,,,,,,,,,,,,,,,,
,,65c12f82f8bf47156aa06152,2024-02-21_21h28.08.193,kallum_motion_pilot,2023.2.2,Win32,7.44047619,65c12f82f8bf47156aa06152,65d6bb0e977760de756971f7,65d6bf2c6871e82dfed53f29,0.0816,0.0818,1,46,208,95,1,eightseven,,,,,,,,,,,,,,,,,,,,,,,,,,,,,,,,,,,,,,,,,,,,,,,,,,,,,,,,,,,,,,,,,,,,,,,,,,,,,,,,,,,,,,,,,,,,,,,,,,,,,,,,,,,,,,,,,,,,,,,,,,,,,,,,,,,,,,,,,
,,65c12f82f8bf47156aa06152,2024-02-21_21h28.08.193,kallum_motion_pilot,2023.2.2,Win32,7.44047619,65c12f82f8bf47156aa06152,65d6bb0e977760de756971f7,65d6bf2c6871e82dfed53f29,0.0819,0.082,1,47,209,58,1,twoone,,,,,,,,,,,,,,,,,,,,,,,,,,,,,,,,,,,,,,,,,,,,,,,,,,,,,,,,,,,,,,,,,,,,,,,,,,,,,,,,,,,,,,,,,,,,,,,,,,,,,,,,,,,,,,,,,,,,,,,,,,,,,,,,,,,,,,,,,
,,65c12f82f8bf47156aa06152,2024-02-21_21h28.08.193,kallum_motion_pilot,2023.2.2,Win32,7.44047619,65c12f82f8bf47156aa06152,65d6bb0e977760de756971f7,65d6bf2c6871e82dfed53f29,0.0821,0.0822,1,48,210,74,1,twoone,,,,,,,,,,,,,,,,,,,,,,,,,,,,,,,,,,,,,,,,,,,,,,,,,,,,,,,,,,,,,,,,,,,,,,,,,,,,,,,,,,,,,,,,,,,,,,,,,,,,,,,,,,,,,,,,,,,,,,,,,,,,,,,,,,,,,,,,,
,,65c12f82f8bf47156aa06152,2024-02-21_21h28.08.193,kallum_motion_pilot,2023.2.2,Win32,7.44047619,65c12f82f8bf47156aa06152,65d6bb0e977760de756971f7,65d6bf2c6871e82dfed53f29,0.0824,0.0825,1,49,211,109,1,seveneight,,,,,,,,,,,,,,,,,,,,,,,,,,,,,,,,,,,,,,,,,,,,,,,,,,,,,,,,,,,,,,,,,,,,,,,,,,,,,,,,,,,,,,,,,,,,,,,,,,,,,,,,,,,,,,,,,,,,,,,,,,,,,,,,,,,,,,,,,
,,65c12f82f8bf47156aa06152,2024-02-21_21h28.08.193,kallum_motion_pilot,2023.2.2,Win32,7.44047619,65c12f82f8bf47156aa06152,65d6bb0e977760de756971f7,65d6bf2c6871e82dfed53f29,0.0827,0.0828,1,50,212,104,1,fivesix,,,,,,,,,,,,,,,,,,,,,,,,,,,,,,,,,,,,,,,,,,,,,,,,,,,,,,,,,,,,,,,,,,,,,,,,,,,,,,,,,,,,,,,,,,,,,,,,,,,,,,,,,,,,,,,,,,,,,,,,,,,,,,,,,,,,,,,,,
,,65c12f82f8bf47156aa06152,2024-02-21_21h28.08.193,kallum_motion_pilot,2023.2.2,Win32,7.44047619,65c12f82f8bf47156aa06152,65d6bb0e977760de756971f7,65d6bf2c6871e82dfed53f29,0.083,0.0831,1,51,213,91,1,sixeight,,,,,,,,,,,,,,,,,,,,,,,,,,,,,,,,,,,,,,,,,,,,,,,,,,,,,,,,,,,,,,,,,,,,,,,,,,,,,,,,,,,,,,,,,,,,,,,,,,,,,,,,,,,,,,,,,,,,,,,,,,,,,,,,,,,,,,,,,
,,65c12f82f8bf47156aa06152,2024-02-21_21h28.08.193,kallum_motion_pilot,2023.2.2,Win32,7.44047619,65c12f82f8bf47156aa06152,65d6bb0e977760de756971f7,65d6bf2c6871e82dfed53f29,0.0833,0.0834,1,52,214,75,1,twofour,,,,,,,,,,,,,,,,,,,,,,,,,,,,,,,,,,,,,,,,,,,,,,,,,,,,,,,,,,,,,,,,,,,,,,,,,,,,,,,,,,,,,,,,,,,,,,,,,,,,,,,,,,,,,,,,,,,,,,,,,,,,,,,,,,,,,,,,,
,,65c12f82f8bf47156aa06152,2024-02-21_21h28.08.193,kallum_motion_pilot,2023.2.2,Win32,7.44047619,65c12f82f8bf47156aa06152,65d6bb0e977760de756971f7,65d6bf2c6871e82dfed53f29,0.0837,0.0837,1,53,215,38,1,fourtwo,,,,,,,,,,,,,,,,,,,,,,,,,,,,,,,,,,,,,,,,,,,,,,,,,,,,,,,,,,,,,,,,,,,,,,,,,,,,,,,,,,,,,,,,,,,,,,,,,,,,,,,,,,,,,,,,,,,,,,,,,,,,,,,,,,,,,,,,,
,,65c12f82f8bf47156aa06152,2024-02-21_21h28.08.193,kallum_motion_pilot,2023.2.2,Win32,7.44047619,65c12f82f8bf47156aa06152,65d6bb0e977760de756971f7,65d6bf2c6871e82dfed53f29,0.0839,0.0841,1,54,216,31,1,fourthree,,,,,,,,,,,,,,,,,,,,,,,,,,,,,,,,,,,,,,,,,,,,,,,,,,,,,,,,,,,,,,,,,,,,,,,,,,,,,,,,,,,,,,,,,,,,,,,,,,,,,,,,,,,,,,,,,,,,,,,,,,,,,,,,,,,,,,,,,
,,65c12f82f8bf47156aa06152,2024-02-21_21h28.08.193,kallum_motion_pilot,2023.2.2,Win32,7.44047619,65c12f82f8bf47156aa06152,65d6bb0e977760de756971f7,65d6bf2c6871e82dfed53f29,0.0842,0.0843,1,55,217,28,1,threeone,,,,,,,,,,,,,,,,,,,,,,,,,,,,,,,,,,,,,,,,,,,,,,,,,,,,,,,,,,,,,,,,,,,,,,,,,,,,,,,,,,,,,,,,,,,,,,,,,,,,,,,,,,,,,,,,,,,,,,,,,,,,,,,,,,,,,,,,,
,,65c12f82f8bf47156aa06152,2024-02-21_21h28.08.193,kallum_motion_pilot,2023.2.2,Win32,7.44047619,65c12f82f8bf47156aa06152,65d6bb0e977760de756971f7,65d6bf2c6871e82dfed53f29,0.0845,0.0845,1,56,218,22,1,fourtwo,,,,,,,,,,,,,,,,,,,,,,,,,,,,,,,,,,,,,,,,,,,,,,,,,,,,,,,,,,,,,,,,,,,,,,,,,,,,,,,,,,,,,,,,,,,,,,,,,,,,,,,,,,,,,,,,,,,,,,,,,,,,,,,,,,,,,,,,,
,,65c12f82f8bf47156aa06152,2024-02-21_21h28.08.193,kallum_motion_pilot,2023.2.2,Win32,7.44047619,65c12f82f8bf47156aa06152,65d6bb0e977760de756971f7,65d6bf2c6871e82dfed53f29,0.0847,0.0849,1,57,219,65,1,onethree,,,,,,,,,,,,,,,,,,,,,,,,,,,,,,,,,,,,,,,,,,,,,,,,,,,,,,,,,,,,,,,,,,,,,,,,,,,,,,,,,,,,,,,,,,,,,,,,,,,,,,,,,,,,,,,,,,,,,,,,,,,,,,,,,,,,,,,,,
,,65c12f82f8bf47156aa06152,2024-02-21_21h28.08.193,kallum_motion_pilot,2023.2.2,Win32,7.44047619,65c12f82f8bf47156aa06152,65d6bb0e977760de756971f7,65d6bf2c6871e82dfed53f29,0.0851,0.0852,1,58,220,85,1,seveneight,,,,,,,,,,,,,,,,,,,,,,,,,,,,,,,,,,,,,,,,,,,,,,,,,,,,,,,,,,,,,,,,,,,,,,,,,,,,,,,,,,,,,,,,,,,,,,,,,,,,,,,,,,,,,,,,,,,,,,,,,,,,,,,,,,,,,,,,,
,,65c12f82f8bf47156aa06152,2024-02-21_21h28.08.193,kallum_motion_pilot,2023.2.2,Win32,7.44047619,65c12f82f8bf47156aa06152,65d6bb0e977760de756971f7,65d6bf2c6871e82dfed53f29,0.0853,0.0854,1,59,221,87,1,eightseven,,,,,,,,,,,,,,,,,,,,,,,,,,,,,,,,,,,,,,,,,,,,,,,,,,,,,,,,,,,,,,,,,,,,,,,,,,,,,,,,,,,,,,,,,,,,,,,,,,,,,,,,,,,,,,,,,,,,,,,,,,,,,,,,,,,,,,,,,
,,65c12f82f8bf47156aa06152,2024-02-21_21h28.08.193,kallum_motion_pilot,2023.2.2,Win32,7.44047619,65c12f82f8bf47156aa06152,65d6bb0e977760de756971f7,65d6bf2c6871e82dfed53f29,0.0855,0.0857,1,60,222,131,1,sixeight,,,,,,,,,,,,,,,,,,,,,,,,,,,,,,,,,,,,,,,,,,,,,,,,,,,,,,,,,,,,,,,,,,,,,,,,,,,,,,,,,,,,,,,,,,,,,,,,,,,,,,,,,,,,,,,,,,,,,,,,,,,,,,,,,,,,,,,,,
,,65c12f82f8bf47156aa06152,2024-02-21_21h28.08.193,kallum_motion_pilot,2023.2.2,Win32,7.44047619,65c12f82f8bf47156aa06152,65d6bb0e977760de756971f7,65d6bf2c6871e82dfed53f29,0.0859,0.086,1,61,223,55,1,fourthree,,,,,,,,,,,,,,,,,,,,,,,,,,,,,,,,,,,,,,,,,,,,,,,,,,,,,,,,,,,,,,,,,,,,,,,,,,,,,,,,,,,,,,,,,,,,,,,,,,,,,,,,,,,,,,,,,,,,,,,,,,,,,,,,,,,,,,,,,
,,65c12f82f8bf47156aa06152,2024-02-21_21h28.08.193,kallum_motion_pilot,2023.2.2,Win32,7.44047619,65c12f82f8bf47156aa06152,65d6bb0e977760de756971f7,65d6bf2c6871e82dfed53f29,0.0862,0.0863,1,62,224,64,1,onetwo,,,,,,,,,,,,,,,,,,,,,,,,,,,,,,,,,,,,,,,,,,,,,,,,,,,,,,,,,,,,,,,,,,,,,,,,,,,,,,,,,,,,,,,,,,,,,,,,,,,,,,,,,,,,,,,,,,,,,,,,,,,,,,,,,,,,,,,,,
,,65c12f82f8bf47156aa06152,2024-02-21_21h28.08.193,kallum_motion_pilot,2023.2.2,Win32,7.44047619,65c12f82f8bf47156aa06152,65d6bb0e977760de756971f7,65d6bf2c6871e82dfed53f29,0.0864,0.0866,1,63,225,68,1,threeone,,,,,,,,,,,,,,,,,,,,,,,,,,,,,,,,,,,,,,,,,,,,,,,,,,,,,,,,,,,,,,,,,,,,,,,,,,,,,,,,,,,,,,,,,,,,,,,,,,,,,,,,,,,,,,,,,,,,,,,,,,,,,,,,,,,,,,,,,
,,65c12f82f8bf47156aa06152,2024-02-21_21h28.08.193,kallum_motion_pilot,2023.2.2,Win32,7.44047619,65c12f82f8bf47156aa06152,65d6bb0e977760de756971f7,65d6bf2c6871e82dfed53f29,0.0867,0.0869,1,64,226,25,1,onethree,,,,,,,,,,,,,,,,,,,,,,,,,,,,,,,,,,,,,,,,,,,,,,,,,,,,,,,,,,,,,,,,,,,,,,,,,,,,,,,,,,,,,,,,,,,,,,,,,,,,,,,,,,,,,,,,,,,,,,,,,,,,,,,,,,,,,,,,,
,,65c12f82f8bf47156aa06152,2024-02-21_21h28.08.193,kallum_motion_pilot,2023.2.2,Win32,7.44047619,65c12f82f8bf47156aa06152,65d6bb0e977760de756971f7,65d6bf2c6871e82dfed53f29,0.087,0.0871,1,65,227,51,1,twofour,,,,,,,,,,,,,,,,,,,,,,,,,,,,,,,,,,,,,,,,,,,,,,,,,,,,,,,,,,,,,,,,,,,,,,,,,,,,,,,,,,,,,,,,,,,,,,,,,,,,,,,,,,,,,,,,,,,,,,,,,,,,,,,,,,,,,,,,,
,,65c12f82f8bf47156aa06152,2024-02-21_21h28.08.193,kallum_motion_pilot,2023.2.2,Win32,7.44047619,65c12f82f8bf47156aa06152,65d6bb0e977760de756971f7,65d6bf2c6871e82dfed53f29,0.0872,0.0873,1,66,228,142,1,eightsix,,,,,,,,,,,,,,,,,,,,,,,,,,,,,,,,,,,,,,,,,,,,,,,,,,,,,,,,,,,,,,,,,,,,,,,,,,,,,,,,,,,,,,,,,,,,,,,,,,,,,,,,,,,,,,,,,,,,,,,,,,,,,,,,,,,,,,,,,
,,65c12f82f8bf47156aa06152,2024-02-21_21h28.08.193,kallum_motion_pilot,2023.2.2,Win32,7.44047619,65c12f82f8bf47156aa06152,65d6bb0e977760de756971f7,65d6bf2c6871e82dfed53f29,0.0875,0.0876,1,67,229,138,1,sixfive,,,,,,,,,,,,,,,,,,,,,,,,,,,,,,,,,,,,,,,,,,,,,,,,,,,,,,,,,,,,,,,,,,,,,,,,,,,,,,,,,,,,,,,,,,,,,,,,,,,,,,,,,,,,,,,,,,,,,,,,,,,,,,,,,,,,,,,,,
,,65c12f82f8bf47156aa06152,2024-02-21_21h28.08.193,kallum_motion_pilot,2023.2.2,Win32,7.44047619,65c12f82f8bf47156aa06152,65d6bb0e977760de756971f7,65d6bf2c6871e82dfed53f29,0.0877,0.088,1,68,230,39,1,fourthree,,,,,,,,,,,,,,,,,,,,,,,,,,,,,,,,,,,,,,,,,,,,,,,,,,,,,,,,,,,,,,,,,,,,,,,,,,,,,,,,,,,,,,,,,,,,,,,,,,,,,,,,,,,,,,,,,,,,,,,,,,,,,,,,,,,,,,,,,
,,65c12f82f8bf47156aa06152,2024-02-21_21h28.08.193,kallum_motion_pilot,2023.2.2,Win32,7.44047619,65c12f82f8bf47156aa06152,65d6bb0e977760de756971f7,65d6bf2c6871e82dfed53f29,0.088,0.0881,1,69,231,119,1,eightseven,,,,,,,,,,,,,,,,,,,,,,,,,,,,,,,,,,,,,,,,,,,,,,,,,,,,,,,,,,,,,,,,,,,,,,,,,,,,,,,,,,,,,,,,,,,,,,,,,,,,,,,,,,,,,,,,,,,,,,,,,,,,,,,,,,,,,,,,,
,,65c12f82f8bf47156aa06152,2024-02-21_21h28.08.193,kallum_motion_pilot,2023.2.2,Win32,7.44047619,65c12f82f8bf47156aa06152,65d6bb0e977760de756971f7,65d6bf2c6871e82dfed53f29,0.0884,0.0884,1,70,232,128,1,fivesix,,,,,,,,,,,,,,,,,,,,,,,,,,,,,,,,,,,,,,,,,,,,,,,,,,,,,,,,,,,,,,,,,,,,,,,,,,,,,,,,,,,,,,,,,,,,,,,,,,,,,,,,,,,,,,,,,,,,,,,,,,,,,,,,,,,,,,,,,
,,65c12f82f8bf47156aa06152,2024-02-21_21h28.08.193,kallum_motion_pilot,2023.2.2,Win32,7.44047619,65c12f82f8bf47156aa06152,65d6bb0e977760de756971f7,65d6bf2c6871e82dfed53f29,0.0887,0.0888,1,71,233,41,1,onethree,,,,,,,,,,,,,,,,,,,,,,,,,,,,,,,,,,,,,,,,,,,,,,,,,,,,,,,,,,,,,,,,,,,,,,,,,,,,,,,,,,,,,,,,,,,,,,,,,,,,,,,,,,,,,,,,,,,,,,,,,,,,,,,,,,,,,,,,,
,,65c12f82f8bf47156aa06152,2024-02-21_21h28.08.193,kallum_motion_pilot,2023.2.2,Win32,7.44047619,65c12f82f8bf47156aa06152,65d6bb0e977760de756971f7,65d6bf2c6871e82dfed53f29,0.089,0.0891,1,72,234,151,1,eightseven,,,,,,,,,,,,,,,,,,,,,,,,,,,,,,,,,,,,,,,,,,,,,,,,,,,,,,,,,,,,,,,,,,,,,,,,,,,,,,,,,,,,,,,,,,,,,,,,,,,,,,,,,,,,,,,,,,,,,,,,,,,,,,,,,,,,,,,,,
,,65c12f82f8bf47156aa06152,2024-02-21_21h28.08.193,kallum_motion_pilot,2023.2.2,Win32,7.44047619,65c12f82f8bf47156aa06152,65d6bb0e977760de756971f7,65d6bf2c6871e82dfed53f29,0.0892,0.0893,1,73,235,125,1,seveneight,,,,,,,,,,,,,,,,,,,,,,,,,,,,,,,,,,,,,,,,,,,,,,,,,,,,,,,,,,,,,,,,,,,,,,,,,,,,,,,,,,,,,,,,,,,,,,,,,,,,,,,,,,,,,,,,,,,,,,,,,,,,,,,,,,,,,,,,,
,,65c12f82f8bf47156aa06152,2024-02-21_21h28.08.193,kallum_motion_pilot,2023.2.2,Win32,7.44047619,65c12f82f8bf47156aa06152,65d6bb0e977760de756971f7,65d6bf2c6871e82dfed53f29,0.0895,0.0897,1,74,236,13,1,threefour,,,,,,,,,,,,,,,,,,,,,,,,,,,,,,,,,,,,,,,,,,,,,,,,,,,,,,,,,,,,,,,,,,,,,,,,,,,,,,,,,,,,,,,,,,,,,,,,,,,,,,,,,,,,,,,,,,,,,,,,,,,,,,,,,,,,,,,,,
,,65c12f82f8bf47156aa06152,2024-02-21_21h28.08.193,kallum_motion_pilot,2023.2.2,Win32,7.44047619,65c12f82f8bf47156aa06152,65d6bb0e977760de756971f7,65d6bf2c6871e82dfed53f29,0.0898,0.0898,1,75,237,120,1,fivesix,,,,,,,,,,,,,,,,,,,,,,,,,,,,,,,,,,,,,,,,,,,,,,,,,,,,,,,,,,,,,,,,,,,,,,,,,,,,,,,,,,,,,,,,,,,,,,,,,,,,,,,,,,,,,,,,,,,,,,,,,,,,,,,,,,,,,,,,,
,,65c12f82f8bf47156aa06152,2024-02-21_21h28.08.193,kallum_motion_pilot,2023.2.2,Win32,7.44047619,65c12f82f8bf47156aa06152,65d6bb0e977760de756971f7,65d6bf2c6871e82dfed53f29,0.09,0.0901,1,76,238,159,1,eightseven,,,,,,,,,,,,,,,,,,,,,,,,,,,,,,,,,,,,,,,,,,,,,,,,,,,,,,,,,,,,,,,,,,,,,,,,,,,,,,,,,,,,,,,,,,,,,,,,,,,,,,,,,,,,,,,,,,,,,,,,,,,,,,,,,,,,,,,,,
,,65c12f82f8bf47156aa06152,2024-02-21_21h28.08.193,kallum_motion_pilot,2023.2.2,Win32,7.44047619,65c12f82f8bf47156aa06152,65d6bb0e977760de756971f7,65d6bf2c6871e82dfed53f29,0.0903,0.0904,1,77,239,10,1,twoone,,,,,,,,,,,,,,,,,,,,,,,,,,,,,,,,,,,,,,,,,,,,,,,,,,,,,,,,,,,,,,,,,,,,,,,,,,,,,,,,,,,,,,,,,,,,,,,,,,,,,,,,,,,,,,,,,,,,,,,,,,,,,,,,,,,,,,,,,
,,65c12f82f8bf47156aa06152,2024-02-21_21h28.08.193,kallum_motion_pilot,2023.2.2,Win32,7.44047619,65c12f82f8bf47156aa06152,65d6bb0e977760de756971f7,65d6bf2c6871e82dfed53f29,0.0905,0.0907,1,78,240,153,1,fiveseven,,,,,,,,,,,,,,,,,,,,,,,,,,,,,,,,,,,,,,,,,,,,,,,,,,,,,,,,,,,,,,,,,,,,,,,,,,,,,,,,,,,,,,,,,,,,,,,,,,,,,,,,,,,,,,,,,,,,,,,,,,,,,,,,,,,,,,,,,
,,65c12f82f8bf47156aa06152,2024-02-21_21h28.08.193,kallum_motion_pilot,2023.2.2,Win32,7.44047619,65c12f82f8bf47156aa06152,65d6bb0e977760de756971f7,65d6bf2c6871e82dfed53f29,0.0908,0.091,1,79,241,99,1,sixeight,,,,,,,,,,,,,,,,,,,,,,,,,,,,,,,,,,,,,,,,,,,,,,,,,,,,,,,,,,,,,,,,,,,,,,,,,,,,,,,,,,,,,,,,,,,,,,,,,,,,,,,,,,,,,,,,,,,,,,,,,,,,,,,,,,,,,,,,,
,,65c12f82f8bf47156aa06152,2024-02-21_21h28.08.193,kallum_motion_pilot,2023.2.2,Win32,7.44047619,65c12f82f8bf47156aa06152,65d6bb0e977760de756971f7,65d6bf2c6871e82dfed53f29,0.0911,0.0912,1,80,242,126,1,eightsix,,,,,,,,,,,,,,,,,,,,,,,,,,,,,,,,,,,,,,,,,,,,,,,,,,,,,,,,,,,,,,,,,,,,,,,,,,,,,,,,,,,,,,,,,,,,,,,,,,,,,,,,,,,,,,,,,,,,,,,,,,,,,,,,,,,,,,,,,
,,65c12f82f8bf47156aa06152,2024-02-21_21h28.08.193,kallum_motion_pilot,2023.2.2,Win32,7.44047619,65c12f82f8bf47156aa06152,65d6bb0e977760de756971f7,65d6bf2c6871e82dfed53f29,0.0914,0.0915,1,81,243,79,1,eightseven,,,,,,,,,,,,,,,,,,,,,,,,,,,,,,,,,,,,,,,,,,,,,,,,,,,,,,,,,,,,,,,,,,,,,,,,,,,,,,,,,,,,,,,,,,,,,,,,,,,,,,,,,,,,,,,,,,,,,,,,,,,,,,,,,,,,,,,,,
,,65c12f82f8bf47156aa06152,2024-02-21_21h28.08.193,kallum_motion_pilot,2023.2.2,Win32,7.44047619,65c12f82f8bf47156aa06152,65d6bb0e977760de756971f7,65d6bf2c6871e82dfed53f29,0.0917,0.0918,1,82,244,52,1,threeone,,,,,,,,,,,,,,,,,,,,,,,,,,,,,,,,,,,,,,,,,,,,,,,,,,,,,,,,,,,,,,,,,,,,,,,,,,,,,,,,,,,,,,,,,,,,,,,,,,,,,,,,,,,,,,,,,,,,,,,,,,,,,,,,,,,,,,,,,
,,65c12f82f8bf47156aa06152,2024-02-21_21h28.08.193,kallum_motion_pilot,2023.2.2,Win32,7.44047619,65c12f82f8bf47156aa06152,65d6bb0e977760de756971f7,65d6bf2c6871e82dfed53f29,0.0919,0.092,1,83,245,105,1,fiveseven,,,,,,,,,,,,,,,,,,,,,,,,,,,,,,,,,,,,,,,,,,,,,,,,,,,,,,,,,,,,,,,,,,,,,,,,,,,,,,,,,,,,,,,,,,,,,,,,,,,,,,,,,,,,,,,,,,,,,,,,,,,,,,,,,,,,,,,,,
,,65c12f82f8bf47156aa06152,2024-02-21_21h28.08.193,kallum_motion_pilot,2023.2.2,Win32,7.44047619,65c12f82f8bf47156aa06152,65d6bb0e977760de756971f7,65d6bf2c6871e82dfed53f29,0.0922,0.0924,1,84,246,133,1,seveneight,,,,,,,,,,,,,,,,,,,,,,,,,,,,,,,,,,,,,,,,,,,,,,,,,,,,,,,,,,,,,,,,,,,,,,,,,,,,,,,,,,,,,,,,,,,,,,,,,,,,,,,,,,,,,,,,,,,,,,,,,,,,,,,,,,,,,,,,,
,,65c12f82f8bf47156aa06152,2024-02-21_21h28.08.193,kallum_motion_pilot,2023.2.2,Win32,7.44047619,65c12f82f8bf47156aa06152,65d6bb0e977760de756971f7,65d6bf2c6871e82dfed53f29,0.0925,0.0927,1,85,247,143,1,eightseven,,,,,,,,,,,,,,,,,,,,,,,,,,,,,,,,,,,,,,,,,,,,,,,,,,,,,,,,,,,,,,,,,,,,,,,,,,,,,,,,,,,,,,,,,,,,,,,,,,,,,,,,,,,,,,,,,,,,,,,,,,,,,,,,,,,,,,,,,
,,65c12f82f8bf47156aa06152,2024-02-21_21h28.08.193,kallum_motion_pilot,2023.2.2,Win32,7.44047619,65c12f82f8bf47156aa06152,65d6bb0e977760de756971f7,65d6bf2c6871e82dfed53f29,0.0928,0.0929,1,86,248,35,1,twofour,,,,,,,,,,,,,,,,,,,,,,,,,,,,,,,,,,,,,,,,,,,,,,,,,,,,,,,,,,,,,,,,,,,,,,,,,,,,,,,,,,,,,,,,,,,,,,,,,,,,,,,,,,,,,,,,,,,,,,,,,,,,,,,,,,,,,,,,,
,,65c12f82f8bf47156aa06152,2024-02-21_21h28.08.193,kallum_motion_pilot,2023.2.2,Win32,7.44047619,65c12f82f8bf47156aa06152,65d6bb0e977760de756971f7,65d6bf2c6871e82dfed53f29,0.0931,0.0932,1,87,249,24,1,onetwo,,,,,,,,,,,,,,,,,,,,,,,,,,,,,,,,,,,,,,,,,,,,,,,,,,,,,,,,,,,,,,,,,,,,,,,,,,,,,,,,,,,,,,,,,,,,,,,,,,,,,,,,,,,,,,,,,,,,,,,,,,,,,,,,,,,,,,,,,
,,65c12f82f8bf47156aa06152,2024-02-21_21h28.08.193,kallum_motion_pilot,2023.2.2,Win32,7.44047619,65c12f82f8bf47156aa06152,65d6bb0e977760de756971f7,65d6bf2c6871e82dfed53f29,0.0933,0.0935,1,88,250,158,1,eightsix,,,,,,,,,,,,,,,,,,,,,,,,,,,,,,,,,,,,,,,,,,,,,,,,,,,,,,,,,,,,,,,,,,,,,,,,,,,,,,,,,,,,,,,,,,,,,,,,,,,,,,,,,,,,,,,,,,,,,,,,,,,,,,,,,,,,,,,,,
,,65c12f82f8bf47156aa06152,2024-02-21_21h28.08.193,kallum_motion_pilot,2023.2.2,Win32,7.44047619,65c12f82f8bf47156aa06152,65d6bb0e977760de756971f7,65d6bf2c6871e82dfed53f29,0.0936,0.0938,1,89,251,114,1,sixfive,,,,,,,,,,,,,,,,,,,,,,,,,,,,,,,,,,,,,,,,,,,,,,,,,,,,,,,,,,,,,,,,,,,,,,,,,,,,,,,,,,,,,,,,,,,,,,,,,,,,,,,,,,,,,,,,,,,,,,,,,,,,,,,,,,,,,,,,,
,,65c12f82f8bf47156aa06152,2024-02-21_21h28.08.193,kallum_motion_pilot,2023.2.2,Win32,7.44047619,65c12f82f8bf47156aa06152,65d6bb0e977760de756971f7,65d6bf2c6871e82dfed53f29,0.094,0.0942,1,90,252,84,1,sevenfive,,,,,,,,,,,,,,,,,,,,,,,,,,,,,,,,,,,,,,,,,,,,,,,,,,,,,,,,,,,,,,,,,,,,,,,,,,,,,,,,,,,,,,,,,,,,,,,,,,,,,,,,,,,,,,,,,,,,,,,,,,,,,,,,,,,,,,,,,
,,65c12f82f8bf47156aa06152,2024-02-21_21h28.08.193,kallum_motion_pilot,2023.2.2,Win32,7.44047619,65c12f82f8bf47156aa06152,65d6bb0e977760de756971f7,65d6bf2c6871e82dfed53f29,0.0943,0.0943,1,91,253,144,1,fivesix,,,,,,,,,,,,,,,,,,,,,,,,,,,,,,,,,,,,,,,,,,,,,,,,,,,,,,,,,,,,,,,,,,,,,,,,,,,,,,,,,,,,,,,,,,,,,,,,,,,,,,,,,,,,,,,,,,,,,,,,,,,,,,,,,,,,,,,,,
,,65c12f82f8bf47156aa06152,2024-02-21_21h28.08.193,kallum_motion_pilot,2023.2.2,Win32,7.44047619,65c12f82f8bf47156aa06152,65d6bb0e977760de756971f7,65d6bf2c6871e82dfed53f29,0.0945,0.0946,1,92,254,40,1,onetwo,,,,,,,,,,,,,,,,,,,,,,,,,,,,,,,,,,,,,,,,,,,,,,,,,,,,,,,,,,,,,,,,,,,,,,,,,,,,,,,,,,,,,,,,,,,,,,,,,,,,,,,,,,,,,,,,,,,,,,,,,,,,,,,,,,,,,,,,,
,,65c12f82f8bf47156aa06152,2024-02-21_21h28.08.193,kallum_motion_pilot,2023.2.2,Win32,7.44047619,65c12f82f8bf47156aa06152,65d6bb0e977760de756971f7,65d6bf2c6871e82dfed53f29,0.0949,0.095,1,93,255,124,1,sevenfive,,,,,,,,,,,,,,,,,,,,,,,,,,,,,,,,,,,,,,,,,,,,,,,,,,,,,,,,,,,,,,,,,,,,,,,,,,,,,,,,,,,,,,,,,,,,,,,,,,,,,,,,,,,,,,,,,,,,,,,,,,,,,,,,,,,,,,,,,
,,65c12f82f8bf47156aa06152,2024-02-21_21h28.08.193,kallum_motion_pilot,2023.2.2,Win32,7.44047619,65c12f82f8bf47156aa06152,65d6bb0e977760de756971f7,65d6bf2c6871e82dfed53f29,0.0953,0.0955,1,94,256,71,1,fourthree,,,,,,,,,,,,,,,,,,,,,,,,,,,,,,,,,,,,,,,,,,,,,,,,,,,,,,,,,,,,,,,,,,,,,,,,,,,,,,,,,,,,,,,,,,,,,,,,,,,,,,,,,,,,,,,,,,,,,,,,,,,,,,,,,,,,,,,,,
,,65c12f82f8bf47156aa06152,2024-02-21_21h28.08.193,kallum_motion_pilot,2023.2.2,Win32,7.44047619,65c12f82f8bf47156aa06152,65d6bb0e977760de756971f7,65d6bf2c6871e82dfed53f29,0.0955,0.0957,1,95,257,36,1,threeone,,,,,,,,,,,,,,,,,,,,,,,,,,,,,,,,,,,,,,,,,,,,,,,,,,,,,,,,,,,,,,,,,,,,,,,,,,,,,,,,,,,,,,,,,,,,,,,,,,,,,,,,,,,,,,,,,,,,,,,,,,,,,,,,,,,,,,,,,
,,65c12f82f8bf47156aa06152,2024-02-21_21h28.08.193,kallum_motion_pilot,2023.2.2,Win32,7.44047619,65c12f82f8bf47156aa06152,65d6bb0e977760de756971f7,65d6bf2c6871e82dfed53f29,0.0958,0.0959,1,96,258,37,1,threefour,,,,,,,,,,,,,,,,,,,,,,,,,,,,,,,,,,,,,,,,,,,,,,,,,,,,,,,,,,,,,,,,,,,,,,,,,,,,,,,,,,,,,,,,,,,,,,,,,,,,,,,,,,,,,,,,,,,,,,,,,,,,,,,,,,,,,,,,,
,,65c12f82f8bf47156aa06152,2024-02-21_21h28.08.193,kallum_motion_pilot,2023.2.2,Win32,7.44047619,65c12f82f8bf47156aa06152,65d6bb0e977760de756971f7,65d6bf2c6871e82dfed53f29,0.0961,0.0963,1,97,259,44,1,threeone,,,,,,,,,,,,,,,,,,,,,,,,,,,,,,,,,,,,,,,,,,,,,,,,,,,,,,,,,,,,,,,,,,,,,,,,,,,,,,,,,,,,,,,,,,,,,,,,,,,,,,,,,,,,,,,,,,,,,,,,,,,,,,,,,,,,,,,,,
,,65c12f82f8bf47156aa06152,2024-02-21_21h28.08.193,kallum_motion_pilot,2023.2.2,Win32,7.44047619,65c12f82f8bf47156aa06152,65d6bb0e977760de756971f7,65d6bf2c6871e82dfed53f29,0.0964,0.0965,1,98,260,18,1,twoone,,,,,,,,,,,,,,,,,,,,,,,,,,,,,,,,,,,,,,,,,,,,,,,,,,,,,,,,,,,,,,,,,,,,,,,,,,,,,,,,,,,,,,,,,,,,,,,,,,,,,,,,,,,,,,,,,,,,,,,,,,,,,,,,,,,,,,,,,
,,65c12f82f8bf47156aa06152,2024-02-21_21h28.08.193,kallum_motion_pilot,2023.2.2,Win32,7.44047619,65c12f82f8bf47156aa06152,65d6bb0e977760de756971f7,65d6bf2c6871e82dfed53f29,0.0966,0.0968,1,99,261,19,1,twofour,,,,,,,,,,,,,,,,,,,,,,,,,,,,,,,,,,,,,,,,,,,,,,,,,,,,,,,,,,,,,,,,,,,,,,,,,,,,,,,,,,,,,,,,,,,,,,,,,,,,,,,,,,,,,,,,,,,,,,,,,,,,,,,,,,,,,,,,,
,,65c12f82f8bf47156aa06152,2024-02-21_21h28.08.193,kallum_motion_pilot,2023.2.2,Win32,7.44047619,65c12f82f8bf47156aa06152,65d6bb0e977760de756971f7,65d6bf2c6871e82dfed53f29,0.0969,0.097,1,100,262,23,1,fourthree,,,,,,,,,,,,,,,,,,,,,,,,,,,,,,,,,,,,,,,,,,,,,,,,,,,,,,,,,,,,,,,,,,,,,,,,,,,,,,,,,,,,,,,,,,,,,,,,,,,,,,,,,,,,,,,,,,,,,,,,,,,,,,,,,,,,,,,,,
,,65c12f82f8bf47156aa06152,2024-02-21_21h28.08.193,kallum_motion_pilot,2023.2.2,Win32,7.44047619,65c12f82f8bf47156aa06152,65d6bb0e977760de756971f7,65d6bf2c6871e82dfed53f29,0.0971,0.0973,1,101,263,0,1,onetwo,,,,,,,,,,,,,,,,,,,,,,,,,,,,,,,,,,,,,,,,,,,,,,,,,,,,,,,,,,,,,,,,,,,,,,,,,,,,,,,,,,,,,,,,,,,,,,,,,,,,,,,,,,,,,,,,,,,,,,,,,,,,,,,,,,,,,,,,,
,,65c12f82f8bf47156aa06152,2024-02-21_21h28.08.193,kallum_motion_pilot,2023.2.2,Win32,7.44047619,65c12f82f8bf47156aa06152,65d6bb0e977760de756971f7,65d6bf2c6871e82dfed53f29,0.0976,0.0978,1,102,264,54,1,fourtwo,,,,,,,,,,,,,,,,,,,,,,,,,,,,,,,,,,,,,,,,,,,,,,,,,,,,,,,,,,,,,,,,,,,,,,,,,,,,,,,,,,,,,,,,,,,,,,,,,,,,,,,,,,,,,,,,,,,,,,,,,,,,,,,,,,,,,,,,,
,,65c12f82f8bf47156aa06152,2024-02-21_21h28.08.193,kallum_motion_pilot,2023.2.2,Win32,7.44047619,65c12f82f8bf47156aa06152,65d6bb0e977760de756971f7,65d6bf2c6871e82dfed53f29,0.098,0.0982,1,103,265,140,1,sevenfive,,,,,,,,,,,,,,,,,,,,,,,,,,,,,,,,,,,,,,,,,,,,,,,,,,,,,,,,,,,,,,,,,,,,,,,,,,,,,,,,,,,,,,,,,,,,,,,,,,,,,,,,,,,,,,,,,,,,,,,,,,,,,,,,,,,,,,,,,
,,65c12f82f8bf47156aa06152,2024-02-21_21h28.08.193,kallum_motion_pilot,2023.2.2,Win32,7.44047619,65c12f82f8bf47156aa06152,65d6bb0e977760de756971f7,65d6bf2c6871e82dfed53f29,0.0985,0.0987,1,104,266,139,1,sixeight,,,,,,,,,,,,,,,,,,,,,,,,,,,,,,,,,,,,,,,,,,,,,,,,,,,,,,,,,,,,,,,,,,,,,,,,,,,,,,,,,,,,,,,,,,,,,,,,,,,,,,,,,,,,,,,,,,,,,,,,,,,,,,,,,,,,,,,,,
,,65c12f82f8bf47156aa06152,2024-02-21_21h28.08.193,kallum_motion_pilot,2023.2.2,Win32,7.44047619,65c12f82f8bf47156aa06152,65d6bb0e977760de756971f7,65d6bf2c6871e82dfed53f29,0.0989,0.0992,1,105,267,59,1,twofour,,,,,,,,,,,,,,,,,,,,,,,,,,,,,,,,,,,,,,,,,,,,,,,,,,,,,,,,,,,,,,,,,,,,,,,,,,,,,,,,,,,,,,,,,,,,,,,,,,,,,,,,,,,,,,,,,,,,,,,,,,,,,,,,,,,,,,,,,
,,65c12f82f8bf47156aa06152,2024-02-21_21h28.08.193,kallum_motion_pilot,2023.2.2,Win32,7.44047619,65c12f82f8bf47156aa06152,65d6bb0e977760de756971f7,65d6bf2c6871e82dfed53f29,0.0994,0.0997,1,106,268,147,1,sixeight,,,,,,,,,,,,,,,,,,,,,,,,,,,,,,,,,,,,,,,,,,,,,,,,,,,,,,,,,,,,,,,,,,,,,,,,,,,,,,,,,,,,,,,,,,,,,,,,,,,,,,,,,,,,,,,,,,,,,,,,,,,,,,,,,,,,,,,,,
,,65c12f82f8bf47156aa06152,2024-02-21_21h28.08.193,kallum_motion_pilot,2023.2.2,Win32,7.44047619,65c12f82f8bf47156aa06152,65d6bb0e977760de756971f7,65d6bf2c6871e82dfed53f29,0.0999,0.0999,1,107,269,57,1,onethree,,,,,,,,,,,,,,,,,,,,,,,,,,,,,,,,,,,,,,,,,,,,,,,,,,,,,,,,,,,,,,,,,,,,,,,,,,,,,,,,,,,,,,,,,,,,,,,,,,,,,,,,,,,,,,,,,,,,,,,,,,,,,,,,,,,,,,,,,
,,65c12f82f8bf47156aa06152,2024-02-21_21h28.08.193,kallum_motion_pilot,2023.2.2,Win32,7.44047619,65c12f82f8bf47156aa06152,65d6bb0e977760de756971f7,65d6bf2c6871e82dfed53f29,0.1001,0.1003,1,108,270,102,1,eightsix,,,,,,,,,,,,,,,,,,,,,,,,,,,,,,,,,,,,,,,,,,,,,,,,,,,,,,,,,,,,,,,,,,,,,,,,,,,,,,,,,,,,,,,,,,,,,,,,,,,,,,,,,,,,,,,,,,,,,,,,,,,,,,,,,,,,,,,,,
,,65c12f82f8bf47156aa06152,2024-02-21_21h28.08.193,kallum_motion_pilot,2023.2.2,Win32,7.44047619,65c12f82f8bf47156aa06152,65d6bb0e977760de756971f7,65d6bf2c6871e82dfed53f29,0.1003,0.1005,1,109,271,12,1,threeone,,,,,,,,,,,,,,,,,,,,,,,,,,,,,,,,,,,,,,,,,,,,,,,,,,,,,,,,,,,,,,,,,,,,,,,,,,,,,,,,,,,,,,,,,,,,,,,,,,,,,,,,,,,,,,,,,,,,,,,,,,,,,,,,,,,,,,,,,
,,65c12f82f8bf47156aa06152,2024-02-21_21h28.08.193,kallum_motion_pilot,2023.2.2,Win32,7.44047619,65c12f82f8bf47156aa06152,65d6bb0e977760de756971f7,65d6bf2c6871e82dfed53f29,0.1006,0.1008,1,110,272,21,1,threefour,,,,,,,,,,,,,,,,,,,,,,,,,,,,,,,,,,,,,,,,,,,,,,,,,,,,,,,,,,,,,,,,,,,,,,,,,,,,,,,,,,,,,,,,,,,,,,,,,,,,,,,,,,,,,,,,,,,,,,,,,,,,,,,,,,,,,,,,,
,,65c12f82f8bf47156aa06152,2024-02-21_21h28.08.193,kallum_motion_pilot,2023.2.2,Win32,7.44047619,65c12f82f8bf47156aa06152,65d6bb0e977760de756971f7,65d6bf2c6871e82dfed53f29,0.1009,0.101,1,111,273,97,1,fiveseven,,,,,,,,,,,,,,,,,,,,,,,,,,,,,,,,,,,,,,,,,,,,,,,,,,,,,,,,,,,,,,,,,,,,,,,,,,,,,,,,,,,,,,,,,,,,,,,,,,,,,,,,,,,,,,,,,,,,,,,,,,,,,,,,,,,,,,,,,
,,65c12f82f8bf47156aa06152,2024-02-21_21h28.08.193,kallum_motion_pilot,2023.2.2,Win32,7.44047619,65c12f82f8bf47156aa06152,65d6bb0e977760de756971f7,65d6bf2c6871e82dfed53f29,0.1012,0.1013,1,112,274,130,1,sixfive,,,,,,,,,,,,,,,,,,,,,,,,,,,,,,,,,,,,,,,,,,,,,,,,,,,,,,,,,,,,,,,,,,,,,,,,,,,,,,,,,,,,,,,,,,,,,,,,,,,,,,,,,,,,,,,,,,,,,,,,,,,,,,,,,,,,,,,,,
,,65c12f82f8bf47156aa06152,2024-02-21_21h28.08.193,kallum_motion_pilot,2023.2.2,Win32,7.44047619,65c12f82f8bf47156aa06152,65d6bb0e977760de756971f7,65d6bf2c6871e82dfed53f29,0.1015,0.1017,1,113,275,137,1,fiveseven,,,,,,,,,,,,,,,,,,,,,,,,,,,,,,,,,,,,,,,,,,,,,,,,,,,,,,,,,,,,,,,,,,,,,,,,,,,,,,,,,,,,,,,,,,,,,,,,,,,,,,,,,,,,,,,,,,,,,,,,,,,,,,,,,,,,,,,,,
,,65c12f82f8bf47156aa06152,2024-02-21_21h28.08.193,kallum_motion_pilot,2023.2.2,Win32,7.44047619,65c12f82f8bf47156aa06152,65d6bb0e977760de756971f7,65d6bf2c6871e82dfed53f29,0.1019,0.1021,1,114,276,111,1,eightseven,,,,,,,,,,,,,,,,,,,,,,,,,,,,,,,,,,,,,,,,,,,,,,,,,,,,,,,,,,,,,,,,,,,,,,,,,,,,,,,,,,,,,,,,,,,,,,,,,,,,,,,,,,,,,,,,,,,,,,,,,,,,,,,,,,,,,,,,,
,,65c12f82f8bf47156aa06152,2024-02-21_21h28.08.193,kallum_motion_pilot,2023.2.2,Win32,7.44047619,65c12f82f8bf47156aa06152,65d6bb0e977760de756971f7,65d6bf2c6871e82dfed53f29,0.1023,0.1025,1,115,277,60,1,threeone,,,,,,,,,,,,,,,,,,,,,,,,,,,,,,,,,,,,,,,,,,,,,,,,,,,,,,,,,,,,,,,,,,,,,,,,,,,,,,,,,,,,,,,,,,,,,,,,,,,,,,,,,,,,,,,,,,,,,,,,,,,,,,,,,,,,,,,,,
,,65c12f82f8bf47156aa06152,2024-02-21_21h28.08.193,kallum_motion_pilot,2023.2.2,Win32,7.44047619,65c12f82f8bf47156aa06152,65d6bb0e977760de756971f7,65d6bf2c6871e82dfed53f29,0.1026,0.1028,1,116,278,78,1,fourtwo,,,,,,,,,,,,,,,,,,,,,,,,,,,,,,,,,,,,,,,,,,,,,,,,,,,,,,,,,,,,,,,,,,,,,,,,,,,,,,,,,,,,,,,,,,,,,,,,,,,,,,,,,,,,,,,,,,,,,,,,,,,,,,,,,,,,,,,,,
