startup.started,startup.stopped,Prolific ID*,date,expName,psychopyVersion,OS,frameRate,participant,study_id,session,stimpositions.started,stimpositions.stopped,hardcoded_stimulus_positions.thisRepN,hardcoded_stimulus_positions.thisTrialN,hardcoded_stimulus_positions.thisN,hardcoded_stimulus_positions.thisIndex,hardcoded_stimulus_positions.ran,StimulusPos,stimorientation.started,stimorientation.stopped,prac_stimorientation_import_loop.thisRepN,prac_stimorientation_import_loop.thisTrialN,prac_stimorientation_import_loop.thisN,prac_stimorientation_import_loop.thisIndex,prac_stimorientation_import_loop.ran,Stimorientation,welcome_instr.started,welcome_instr.stopped,key_resp.keys,key_resp.rt,key_resp.duration,response_steppedout_1.started,response_steppedout_1.stopped,key_resp_20.keys,key_resp_20.rt,key_resp_20.duration,response_steppedout_2.started,response_steppedout_2.stopped,key_resp_19.keys,key_resp_19.rt,key_resp_19.duration,stim_response_instr.started,stim_response_instr.stopped,key_resp_15.keys,key_resp_15.rt,key_resp_15.duration,direction_instr_2.started,direction_instr_2.stopped,key_resp_9.keys,key_resp_9.rt,key_resp_9.duration,instr_prac.started,instr_prac.stopped,key_resp_10.keys,key_resp_10.rt,key_resp_10.duration,Stim1_display_prac.started,Stim1_display_prac.stopped,Ecc,Circle1_ori,Circle2_ori,response_prac.started,similarity,response_time,response_prac.stopped,mouse_5.x,mouse_5.y,mouse_5.leftButton,mouse_5.midButton,mouse_5.rightButton,mouse_5.clicked_name,responseprac_feedback.started,responseprac_feedback.stopped,summary2_prac.started,summary2_prac.stopped,mouse_6.x,mouse_6.y,mouse_6.leftButton,mouse_6.midButton,mouse_6.rightButton,mouse_6.clicked_name,duringprac.thisRepN,duringprac.thisTrialN,duringprac.thisN,duringprac.thisIndex,duringprac.ran,begin.started,begin.stopped,key_resp_22.keys,key_resp_22.rt,key_resp_22.duration,Stim1_display.started,Stim1_display.stopped,circle1_ori,circle2_ori,circle1_SF,circle2_SF,response.started,response.stopped,mouse.x,mouse.y,mouse.leftButton,mouse.midButton,mouse.rightButton,mouse.clicked_name,trialnumber,double_pass.thisRepN,double_pass.thisTrialN,double_pass.thisN,double_pass.thisIndex,double_pass.ran,double_pass.order,main_trial.thisRepN,main_trial.thisTrialN,main_trial.thisN,main_trial.thisIndex,main_trial.ran,main_trial.order,Trial_Counter,Catch,Frequencies,response_2.started,response_2.stopped,mouse_2.x,mouse_2.y,mouse_2.leftButton,mouse_2.midButton,mouse_2.rightButton,mouse_2.clicked_name,special_trial.started,special_trial.stopped,catch_1.started,catch_1.stopped,mouse_3.x,mouse_3.y,mouse_3.leftButton,mouse_3.midButton,mouse_3.rightButton,catchresponse,catchnumber,response_time_catch,response_sum.started,response_sum.stopped,mouse_11.x,mouse_11.y,mouse_11.leftButton,mouse_11.midButton,mouse_11.rightButton,flip_presentation_sequence_for_double_pass.started,flip_presentation_sequence_for_double_pass.stopped,goodbye.started,goodbye.stopped,key_resp_3.keys,key_resp_3.rt,key_resp_3.duration
0.0009,0.0012,65d0cbfb1566a1ad19af6f37,2024-02-19_03h20.44.953,kallum_motion_pilot,2023.2.2,Win32,19.96007984,65d0cbfb1566a1ad19af6f37,65d2b6c8f2eece985d8e374c,65d2ba53c4c930283d4b778c,,,,,,,,,,,,,,,,,,,,,,,,,,,,,,,,,,,,,,,,,,,,,,,,,,,,,,,,,,,,,,,,,,,,,,,,,,,,,,,,,,,,,,,,,,,,,,,,,,,,,,,,,,,,,,,,,,,,,,,,,,,,,,,,,,,,,,,,,,,,,,,,,
,,65d0cbfb1566a1ad19af6f37,2024-02-19_03h20.44.953,kallum_motion_pilot,2023.2.2,Win32,19.96007984,65d0cbfb1566a1ad19af6f37,65d2b6c8f2eece985d8e374c,65d2ba53c4c930283d4b778c,0.1176,0.1179,0,0,0,93,1,seveneight,,,,,,,,,,,,,,,,,,,,,,,,,,,,,,,,,,,,,,,,,,,,,,,,,,,,,,,,,,,,,,,,,,,,,,,,,,,,,,,,,,,,,,,,,,,,,,,,,,,,,,,,,,,,,,,,,,,,,,,,,,,,,,,,,,,,,,,,,
,,65d0cbfb1566a1ad19af6f37,2024-02-19_03h20.44.953,kallum_motion_pilot,2023.2.2,Win32,19.96007984,65d0cbfb1566a1ad19af6f37,65d2b6c8f2eece985d8e374c,65d2ba53c4c930283d4b778c,0.1186,0.1186,0,1,1,61,1,threefour,,,,,,,,,,,,,,,,,,,,,,,,,,,,,,,,,,,,,,,,,,,,,,,,,,,,,,,,,,,,,,,,,,,,,,,,,,,,,,,,,,,,,,,,,,,,,,,,,,,,,,,,,,,,,,,,,,,,,,,,,,,,,,,,,,,,,,,,,
,,65d0cbfb1566a1ad19af6f37,2024-02-19_03h20.44.953,kallum_motion_pilot,2023.2.2,Win32,19.96007984,65d0cbfb1566a1ad19af6f37,65d2b6c8f2eece985d8e374c,65d2ba53c4c930283d4b778c,0.1189,0.1191,0,2,2,103,1,eightseven,,,,,,,,,,,,,,,,,,,,,,,,,,,,,,,,,,,,,,,,,,,,,,,,,,,,,,,,,,,,,,,,,,,,,,,,,,,,,,,,,,,,,,,,,,,,,,,,,,,,,,,,,,,,,,,,,,,,,,,,,,,,,,,,,,,,,,,,,
,,65d0cbfb1566a1ad19af6f37,2024-02-19_03h20.44.953,kallum_motion_pilot,2023.2.2,Win32,19.96007984,65d0cbfb1566a1ad19af6f37,65d2b6c8f2eece985d8e374c,65d2ba53c4c930283d4b778c,0.1194,0.1194,0,3,3,133,1,seveneight,,,,,,,,,,,,,,,,,,,,,,,,,,,,,,,,,,,,,,,,,,,,,,,,,,,,,,,,,,,,,,,,,,,,,,,,,,,,,,,,,,,,,,,,,,,,,,,,,,,,,,,,,,,,,,,,,,,,,,,,,,,,,,,,,,,,,,,,,
,,65d0cbfb1566a1ad19af6f37,2024-02-19_03h20.44.953,kallum_motion_pilot,2023.2.2,Win32,19.96007984,65d0cbfb1566a1ad19af6f37,65d2b6c8f2eece985d8e374c,65d2ba53c4c930283d4b778c,0.1197,0.1198,0,4,4,119,1,eightseven,,,,,,,,,,,,,,,,,,,,,,,,,,,,,,,,,,,,,,,,,,,,,,,,,,,,,,,,,,,,,,,,,,,,,,,,,,,,,,,,,,,,,,,,,,,,,,,,,,,,,,,,,,,,,,,,,,,,,,,,,,,,,,,,,,,,,,,,,
,,65d0cbfb1566a1ad19af6f37,2024-02-19_03h20.44.953,kallum_motion_pilot,2023.2.2,Win32,19.96007984,65d0cbfb1566a1ad19af6f37,65d2b6c8f2eece985d8e374c,65d2ba53c4c930283d4b778c,0.1202,0.1203,0,5,5,160,1,fivesix,,,,,,,,,,,,,,,,,,,,,,,,,,,,,,,,,,,,,,,,,,,,,,,,,,,,,,,,,,,,,,,,,,,,,,,,,,,,,,,,,,,,,,,,,,,,,,,,,,,,,,,,,,,,,,,,,,,,,,,,,,,,,,,,,,,,,,,,,
,,65d0cbfb1566a1ad19af6f37,2024-02-19_03h20.44.953,kallum_motion_pilot,2023.2.2,Win32,19.96007984,65d0cbfb1566a1ad19af6f37,65d2b6c8f2eece985d8e374c,65d2ba53c4c930283d4b778c,0.1205,0.1206,0,6,6,79,1,eightseven,,,,,,,,,,,,,,,,,,,,,,,,,,,,,,,,,,,,,,,,,,,,,,,,,,,,,,,,,,,,,,,,,,,,,,,,,,,,,,,,,,,,,,,,,,,,,,,,,,,,,,,,,,,,,,,,,,,,,,,,,,,,,,,,,,,,,,,,,
,,65d0cbfb1566a1ad19af6f37,2024-02-19_03h20.44.953,kallum_motion_pilot,2023.2.2,Win32,19.96007984,65d0cbfb1566a1ad19af6f37,65d2b6c8f2eece985d8e374c,65d2ba53c4c930283d4b778c,0.1209,0.1209,0,7,7,34,1,twoone,,,,,,,,,,,,,,,,,,,,,,,,,,,,,,,,,,,,,,,,,,,,,,,,,,,,,,,,,,,,,,,,,,,,,,,,,,,,,,,,,,,,,,,,,,,,,,,,,,,,,,,,,,,,,,,,,,,,,,,,,,,,,,,,,,,,,,,,,
,,65d0cbfb1566a1ad19af6f37,2024-02-19_03h20.44.953,kallum_motion_pilot,2023.2.2,Win32,19.96007984,65d0cbfb1566a1ad19af6f37,65d2b6c8f2eece985d8e374c,65d2ba53c4c930283d4b778c,0.1213,0.1214,0,8,8,97,1,fiveseven,,,,,,,,,,,,,,,,,,,,,,,,,,,,,,,,,,,,,,,,,,,,,,,,,,,,,,,,,,,,,,,,,,,,,,,,,,,,,,,,,,,,,,,,,,,,,,,,,,,,,,,,,,,,,,,,,,,,,,,,,,,,,,,,,,,,,,,,,
,,65d0cbfb1566a1ad19af6f37,2024-02-19_03h20.44.953,kallum_motion_pilot,2023.2.2,Win32,19.96007984,65d0cbfb1566a1ad19af6f37,65d2b6c8f2eece985d8e374c,65d2ba53c4c930283d4b778c,0.1216,0.1217,0,9,9,39,1,fourthree,,,,,,,,,,,,,,,,,,,,,,,,,,,,,,,,,,,,,,,,,,,,,,,,,,,,,,,,,,,,,,,,,,,,,,,,,,,,,,,,,,,,,,,,,,,,,,,,,,,,,,,,,,,,,,,,,,,,,,,,,,,,,,,,,,,,,,,,,
,,65d0cbfb1566a1ad19af6f37,2024-02-19_03h20.44.953,kallum_motion_pilot,2023.2.2,Win32,19.96007984,65d0cbfb1566a1ad19af6f37,65d2b6c8f2eece985d8e374c,65d2ba53c4c930283d4b778c,0.122,0.1221,0,10,10,92,1,sevenfive,,,,,,,,,,,,,,,,,,,,,,,,,,,,,,,,,,,,,,,,,,,,,,,,,,,,,,,,,,,,,,,,,,,,,,,,,,,,,,,,,,,,,,,,,,,,,,,,,,,,,,,,,,,,,,,,,,,,,,,,,,,,,,,,,,,,,,,,,
,,65d0cbfb1566a1ad19af6f37,2024-02-19_03h20.44.953,kallum_motion_pilot,2023.2.2,Win32,19.96007984,65d0cbfb1566a1ad19af6f37,65d2b6c8f2eece985d8e374c,65d2ba53c4c930283d4b778c,0.1223,0.1224,0,11,11,161,1,fiveseven,,,,,,,,,,,,,,,,,,,,,,,,,,,,,,,,,,,,,,,,,,,,,,,,,,,,,,,,,,,,,,,,,,,,,,,,,,,,,,,,,,,,,,,,,,,,,,,,,,,,,,,,,,,,,,,,,,,,,,,,,,,,,,,,,,,,,,,,,
,,65d0cbfb1566a1ad19af6f37,2024-02-19_03h20.44.953,kallum_motion_pilot,2023.2.2,Win32,19.96007984,65d0cbfb1566a1ad19af6f37,65d2b6c8f2eece985d8e374c,65d2ba53c4c930283d4b778c,0.1227,0.1228,0,12,12,4,1,threeone,,,,,,,,,,,,,,,,,,,,,,,,,,,,,,,,,,,,,,,,,,,,,,,,,,,,,,,,,,,,,,,,,,,,,,,,,,,,,,,,,,,,,,,,,,,,,,,,,,,,,,,,,,,,,,,,,,,,,,,,,,,,,,,,,,,,,,,,,
,,65d0cbfb1566a1ad19af6f37,2024-02-19_03h20.44.953,kallum_motion_pilot,2023.2.2,Win32,19.96007984,65d0cbfb1566a1ad19af6f37,65d2b6c8f2eece985d8e374c,65d2ba53c4c930283d4b778c,0.123,0.1231,0,13,13,63,1,fourthree,,,,,,,,,,,,,,,,,,,,,,,,,,,,,,,,,,,,,,,,,,,,,,,,,,,,,,,,,,,,,,,,,,,,,,,,,,,,,,,,,,,,,,,,,,,,,,,,,,,,,,,,,,,,,,,,,,,,,,,,,,,,,,,,,,,,,,,,,
,,65d0cbfb1566a1ad19af6f37,2024-02-19_03h20.44.953,kallum_motion_pilot,2023.2.2,Win32,19.96007984,65d0cbfb1566a1ad19af6f37,65d2b6c8f2eece985d8e374c,65d2ba53c4c930283d4b778c,0.1233,0.1234,0,14,14,109,1,seveneight,,,,,,,,,,,,,,,,,,,,,,,,,,,,,,,,,,,,,,,,,,,,,,,,,,,,,,,,,,,,,,,,,,,,,,,,,,,,,,,,,,,,,,,,,,,,,,,,,,,,,,,,,,,,,,,,,,,,,,,,,,,,,,,,,,,,,,,,,
,,65d0cbfb1566a1ad19af6f37,2024-02-19_03h20.44.953,kallum_motion_pilot,2023.2.2,Win32,19.96007984,65d0cbfb1566a1ad19af6f37,65d2b6c8f2eece985d8e374c,65d2ba53c4c930283d4b778c,0.1237,0.1238,0,15,15,25,1,onethree,,,,,,,,,,,,,,,,,,,,,,,,,,,,,,,,,,,,,,,,,,,,,,,,,,,,,,,,,,,,,,,,,,,,,,,,,,,,,,,,,,,,,,,,,,,,,,,,,,,,,,,,,,,,,,,,,,,,,,,,,,,,,,,,,,,,,,,,,
,,65d0cbfb1566a1ad19af6f37,2024-02-19_03h20.44.953,kallum_motion_pilot,2023.2.2,Win32,19.96007984,65d0cbfb1566a1ad19af6f37,65d2b6c8f2eece985d8e374c,65d2ba53c4c930283d4b778c,0.1241,0.1241,0,16,16,91,1,sixeight,,,,,,,,,,,,,,,,,,,,,,,,,,,,,,,,,,,,,,,,,,,,,,,,,,,,,,,,,,,,,,,,,,,,,,,,,,,,,,,,,,,,,,,,,,,,,,,,,,,,,,,,,,,,,,,,,,,,,,,,,,,,,,,,,,,,,,,,,
,,65d0cbfb1566a1ad19af6f37,2024-02-19_03h20.44.953,kallum_motion_pilot,2023.2.2,Win32,19.96007984,65d0cbfb1566a1ad19af6f37,65d2b6c8f2eece985d8e374c,65d2ba53c4c930283d4b778c,0.1244,0.1245,0,17,17,51,1,twofour,,,,,,,,,,,,,,,,,,,,,,,,,,,,,,,,,,,,,,,,,,,,,,,,,,,,,,,,,,,,,,,,,,,,,,,,,,,,,,,,,,,,,,,,,,,,,,,,,,,,,,,,,,,,,,,,,,,,,,,,,,,,,,,,,,,,,,,,,
,,65d0cbfb1566a1ad19af6f37,2024-02-19_03h20.44.953,kallum_motion_pilot,2023.2.2,Win32,19.96007984,65d0cbfb1566a1ad19af6f37,65d2b6c8f2eece985d8e374c,65d2ba53c4c930283d4b778c,0.1249,0.1249,0,18,18,20,1,threeone,,,,,,,,,,,,,,,,,,,,,,,,,,,,,,,,,,,,,,,,,,,,,,,,,,,,,,,,,,,,,,,,,,,,,,,,,,,,,,,,,,,,,,,,,,,,,,,,,,,,,,,,,,,,,,,,,,,,,,,,,,,,,,,,,,,,,,,,,
,,65d0cbfb1566a1ad19af6f37,2024-02-19_03h20.44.953,kallum_motion_pilot,2023.2.2,Win32,19.96007984,65d0cbfb1566a1ad19af6f37,65d2b6c8f2eece985d8e374c,65d2ba53c4c930283d4b778c,0.1251,0.1253,0,19,19,31,1,fourthree,,,,,,,,,,,,,,,,,,,,,,,,,,,,,,,,,,,,,,,,,,,,,,,,,,,,,,,,,,,,,,,,,,,,,,,,,,,,,,,,,,,,,,,,,,,,,,,,,,,,,,,,,,,,,,,,,,,,,,,,,,,,,,,,,,,,,,,,,
,,65d0cbfb1566a1ad19af6f37,2024-02-19_03h20.44.953,kallum_motion_pilot,2023.2.2,Win32,19.96007984,65d0cbfb1566a1ad19af6f37,65d2b6c8f2eece985d8e374c,65d2ba53c4c930283d4b778c,0.1255,0.1256,0,20,20,102,1,eightsix,,,,,,,,,,,,,,,,,,,,,,,,,,,,,,,,,,,,,,,,,,,,,,,,,,,,,,,,,,,,,,,,,,,,,,,,,,,,,,,,,,,,,,,,,,,,,,,,,,,,,,,,,,,,,,,,,,,,,,,,,,,,,,,,,,,,,,,,,
,,65d0cbfb1566a1ad19af6f37,2024-02-19_03h20.44.953,kallum_motion_pilot,2023.2.2,Win32,19.96007984,65d0cbfb1566a1ad19af6f37,65d2b6c8f2eece985d8e374c,65d2ba53c4c930283d4b778c,0.1259,0.1259,0,21,21,12,1,threeone,,,,,,,,,,,,,,,,,,,,,,,,,,,,,,,,,,,,,,,,,,,,,,,,,,,,,,,,,,,,,,,,,,,,,,,,,,,,,,,,,,,,,,,,,,,,,,,,,,,,,,,,,,,,,,,,,,,,,,,,,,,,,,,,,,,,,,,,,
,,65d0cbfb1566a1ad19af6f37,2024-02-19_03h20.44.953,kallum_motion_pilot,2023.2.2,Win32,19.96007984,65d0cbfb1566a1ad19af6f37,65d2b6c8f2eece985d8e374c,65d2ba53c4c930283d4b778c,0.1262,0.1263,0,22,22,1,1,onethree,,,,,,,,,,,,,,,,,,,,,,,,,,,,,,,,,,,,,,,,,,,,,,,,,,,,,,,,,,,,,,,,,,,,,,,,,,,,,,,,,,,,,,,,,,,,,,,,,,,,,,,,,,,,,,,,,,,,,,,,,,,,,,,,,,,,,,,,,
,,65d0cbfb1566a1ad19af6f37,2024-02-19_03h20.44.953,kallum_motion_pilot,2023.2.2,Win32,19.96007984,65d0cbfb1566a1ad19af6f37,65d2b6c8f2eece985d8e374c,65d2ba53c4c930283d4b778c,0.1265,0.1266,0,23,23,101,1,seveneight,,,,,,,,,,,,,,,,,,,,,,,,,,,,,,,,,,,,,,,,,,,,,,,,,,,,,,,,,,,,,,,,,,,,,,,,,,,,,,,,,,,,,,,,,,,,,,,,,,,,,,,,,,,,,,,,,,,,,,,,,,,,,,,,,,,,,,,,,
,,65d0cbfb1566a1ad19af6f37,2024-02-19_03h20.44.953,kallum_motion_pilot,2023.2.2,Win32,19.96007984,65d0cbfb1566a1ad19af6f37,65d2b6c8f2eece985d8e374c,65d2ba53c4c930283d4b778c,0.1269,0.1269,0,24,24,141,1,seveneight,,,,,,,,,,,,,,,,,,,,,,,,,,,,,,,,,,,,,,,,,,,,,,,,,,,,,,,,,,,,,,,,,,,,,,,,,,,,,,,,,,,,,,,,,,,,,,,,,,,,,,,,,,,,,,,,,,,,,,,,,,,,,,,,,,,,,,,,,
,,65d0cbfb1566a1ad19af6f37,2024-02-19_03h20.44.953,kallum_motion_pilot,2023.2.2,Win32,19.96007984,65d0cbfb1566a1ad19af6f37,65d2b6c8f2eece985d8e374c,65d2ba53c4c930283d4b778c,0.1273,0.1273,0,25,25,124,1,sevenfive,,,,,,,,,,,,,,,,,,,,,,,,,,,,,,,,,,,,,,,,,,,,,,,,,,,,,,,,,,,,,,,,,,,,,,,,,,,,,,,,,,,,,,,,,,,,,,,,,,,,,,,,,,,,,,,,,,,,,,,,,,,,,,,,,,,,,,,,,
,,65d0cbfb1566a1ad19af6f37,2024-02-19_03h20.44.953,kallum_motion_pilot,2023.2.2,Win32,19.96007984,65d0cbfb1566a1ad19af6f37,65d2b6c8f2eece985d8e374c,65d2ba53c4c930283d4b778c,0.1276,0.1277,0,26,26,10,1,twoone,,,,,,,,,,,,,,,,,,,,,,,,,,,,,,,,,,,,,,,,,,,,,,,,,,,,,,,,,,,,,,,,,,,,,,,,,,,,,,,,,,,,,,,,,,,,,,,,,,,,,,,,,,,,,,,,,,,,,,,,,,,,,,,,,,,,,,,,,
,,65d0cbfb1566a1ad19af6f37,2024-02-19_03h20.44.953,kallum_motion_pilot,2023.2.2,Win32,19.96007984,65d0cbfb1566a1ad19af6f37,65d2b6c8f2eece985d8e374c,65d2ba53c4c930283d4b778c,0.128,0.128,0,27,27,143,1,eightseven,,,,,,,,,,,,,,,,,,,,,,,,,,,,,,,,,,,,,,,,,,,,,,,,,,,,,,,,,,,,,,,,,,,,,,,,,,,,,,,,,,,,,,,,,,,,,,,,,,,,,,,,,,,,,,,,,,,,,,,,,,,,,,,,,,,,,,,,,
,,65d0cbfb1566a1ad19af6f37,2024-02-19_03h20.44.953,kallum_motion_pilot,2023.2.2,Win32,19.96007984,65d0cbfb1566a1ad19af6f37,65d2b6c8f2eece985d8e374c,65d2ba53c4c930283d4b778c,0.1283,0.1284,0,28,28,82,1,sixfive,,,,,,,,,,,,,,,,,,,,,,,,,,,,,,,,,,,,,,,,,,,,,,,,,,,,,,,,,,,,,,,,,,,,,,,,,,,,,,,,,,,,,,,,,,,,,,,,,,,,,,,,,,,,,,,,,,,,,,,,,,,,,,,,,,,,,,,,,
,,65d0cbfb1566a1ad19af6f37,2024-02-19_03h20.44.953,kallum_motion_pilot,2023.2.2,Win32,19.96007984,65d0cbfb1566a1ad19af6f37,65d2b6c8f2eece985d8e374c,65d2ba53c4c930283d4b778c,0.1287,0.1288,0,29,29,60,1,threeone,,,,,,,,,,,,,,,,,,,,,,,,,,,,,,,,,,,,,,,,,,,,,,,,,,,,,,,,,,,,,,,,,,,,,,,,,,,,,,,,,,,,,,,,,,,,,,,,,,,,,,,,,,,,,,,,,,,,,,,,,,,,,,,,,,,,,,,,,
,,65d0cbfb1566a1ad19af6f37,2024-02-19_03h20.44.953,kallum_motion_pilot,2023.2.2,Win32,19.96007984,65d0cbfb1566a1ad19af6f37,65d2b6c8f2eece985d8e374c,65d2ba53c4c930283d4b778c,0.1289,0.129,0,30,30,53,1,threefour,,,,,,,,,,,,,,,,,,,,,,,,,,,,,,,,,,,,,,,,,,,,,,,,,,,,,,,,,,,,,,,,,,,,,,,,,,,,,,,,,,,,,,,,,,,,,,,,,,,,,,,,,,,,,,,,,,,,,,,,,,,,,,,,,,,,,,,,,
,,65d0cbfb1566a1ad19af6f37,2024-02-19_03h20.44.953,kallum_motion_pilot,2023.2.2,Win32,19.96007984,65d0cbfb1566a1ad19af6f37,65d2b6c8f2eece985d8e374c,65d2ba53c4c930283d4b778c,0.1293,0.1295,0,31,31,55,1,fourthree,,,,,,,,,,,,,,,,,,,,,,,,,,,,,,,,,,,,,,,,,,,,,,,,,,,,,,,,,,,,,,,,,,,,,,,,,,,,,,,,,,,,,,,,,,,,,,,,,,,,,,,,,,,,,,,,,,,,,,,,,,,,,,,,,,,,,,,,,
,,65d0cbfb1566a1ad19af6f37,2024-02-19_03h20.44.953,kallum_motion_pilot,2023.2.2,Win32,19.96007984,65d0cbfb1566a1ad19af6f37,65d2b6c8f2eece985d8e374c,65d2ba53c4c930283d4b778c,0.1297,0.1298,0,32,32,46,1,fourtwo,,,,,,,,,,,,,,,,,,,,,,,,,,,,,,,,,,,,,,,,,,,,,,,,,,,,,,,,,,,,,,,,,,,,,,,,,,,,,,,,,,,,,,,,,,,,,,,,,,,,,,,,,,,,,,,,,,,,,,,,,,,,,,,,,,,,,,,,,
,,65d0cbfb1566a1ad19af6f37,2024-02-19_03h20.44.953,kallum_motion_pilot,2023.2.2,Win32,19.96007984,65d0cbfb1566a1ad19af6f37,65d2b6c8f2eece985d8e374c,65d2ba53c4c930283d4b778c,0.13,0.13,0,33,33,66,1,twoone,,,,,,,,,,,,,,,,,,,,,,,,,,,,,,,,,,,,,,,,,,,,,,,,,,,,,,,,,,,,,,,,,,,,,,,,,,,,,,,,,,,,,,,,,,,,,,,,,,,,,,,,,,,,,,,,,,,,,,,,,,,,,,,,,,,,,,,,,
,,65d0cbfb1566a1ad19af6f37,2024-02-19_03h20.44.953,kallum_motion_pilot,2023.2.2,Win32,19.96007984,65d0cbfb1566a1ad19af6f37,65d2b6c8f2eece985d8e374c,65d2ba53c4c930283d4b778c,0.1304,0.1304,0,34,34,29,1,threefour,,,,,,,,,,,,,,,,,,,,,,,,,,,,,,,,,,,,,,,,,,,,,,,,,,,,,,,,,,,,,,,,,,,,,,,,,,,,,,,,,,,,,,,,,,,,,,,,,,,,,,,,,,,,,,,,,,,,,,,,,,,,,,,,,,,,,,,,,
,,65d0cbfb1566a1ad19af6f37,2024-02-19_03h20.44.953,kallum_motion_pilot,2023.2.2,Win32,19.96007984,65d0cbfb1566a1ad19af6f37,65d2b6c8f2eece985d8e374c,65d2ba53c4c930283d4b778c,0.1307,0.1308,0,35,35,43,1,twofour,,,,,,,,,,,,,,,,,,,,,,,,,,,,,,,,,,,,,,,,,,,,,,,,,,,,,,,,,,,,,,,,,,,,,,,,,,,,,,,,,,,,,,,,,,,,,,,,,,,,,,,,,,,,,,,,,,,,,,,,,,,,,,,,,,,,,,,,,
,,65d0cbfb1566a1ad19af6f37,2024-02-19_03h20.44.953,kallum_motion_pilot,2023.2.2,Win32,19.96007984,65d0cbfb1566a1ad19af6f37,65d2b6c8f2eece985d8e374c,65d2ba53c4c930283d4b778c,0.131,0.1311,0,36,36,70,1,fourtwo,,,,,,,,,,,,,,,,,,,,,,,,,,,,,,,,,,,,,,,,,,,,,,,,,,,,,,,,,,,,,,,,,,,,,,,,,,,,,,,,,,,,,,,,,,,,,,,,,,,,,,,,,,,,,,,,,,,,,,,,,,,,,,,,,,,,,,,,,
,,65d0cbfb1566a1ad19af6f37,2024-02-19_03h20.44.953,kallum_motion_pilot,2023.2.2,Win32,19.96007984,65d0cbfb1566a1ad19af6f37,65d2b6c8f2eece985d8e374c,65d2ba53c4c930283d4b778c,0.1313,0.1315,0,37,37,112,1,fivesix,,,,,,,,,,,,,,,,,,,,,,,,,,,,,,,,,,,,,,,,,,,,,,,,,,,,,,,,,,,,,,,,,,,,,,,,,,,,,,,,,,,,,,,,,,,,,,,,,,,,,,,,,,,,,,,,,,,,,,,,,,,,,,,,,,,,,,,,,
,,65d0cbfb1566a1ad19af6f37,2024-02-19_03h20.44.953,kallum_motion_pilot,2023.2.2,Win32,19.96007984,65d0cbfb1566a1ad19af6f37,65d2b6c8f2eece985d8e374c,65d2ba53c4c930283d4b778c,0.1317,0.1319,0,38,38,50,1,twoone,,,,,,,,,,,,,,,,,,,,,,,,,,,,,,,,,,,,,,,,,,,,,,,,,,,,,,,,,,,,,,,,,,,,,,,,,,,,,,,,,,,,,,,,,,,,,,,,,,,,,,,,,,,,,,,,,,,,,,,,,,,,,,,,,,,,,,,,,
,,65d0cbfb1566a1ad19af6f37,2024-02-19_03h20.44.953,kallum_motion_pilot,2023.2.2,Win32,19.96007984,65d0cbfb1566a1ad19af6f37,65d2b6c8f2eece985d8e374c,65d2ba53c4c930283d4b778c,0.132,0.1321,0,39,39,69,1,threefour,,,,,,,,,,,,,,,,,,,,,,,,,,,,,,,,,,,,,,,,,,,,,,,,,,,,,,,,,,,,,,,,,,,,,,,,,,,,,,,,,,,,,,,,,,,,,,,,,,,,,,,,,,,,,,,,,,,,,,,,,,,,,,,,,,,,,,,,,
,,65d0cbfb1566a1ad19af6f37,2024-02-19_03h20.44.953,kallum_motion_pilot,2023.2.2,Win32,19.96007984,65d0cbfb1566a1ad19af6f37,65d2b6c8f2eece985d8e374c,65d2ba53c4c930283d4b778c,0.1324,0.1325,0,40,40,74,1,twoone,,,,,,,,,,,,,,,,,,,,,,,,,,,,,,,,,,,,,,,,,,,,,,,,,,,,,,,,,,,,,,,,,,,,,,,,,,,,,,,,,,,,,,,,,,,,,,,,,,,,,,,,,,,,,,,,,,,,,,,,,,,,,,,,,,,,,,,,,
,,65d0cbfb1566a1ad19af6f37,2024-02-19_03h20.44.953,kallum_motion_pilot,2023.2.2,Win32,19.96007984,65d0cbfb1566a1ad19af6f37,65d2b6c8f2eece985d8e374c,65d2ba53c4c930283d4b778c,0.1328,0.1331,0,41,41,132,1,sevenfive,,,,,,,,,,,,,,,,,,,,,,,,,,,,,,,,,,,,,,,,,,,,,,,,,,,,,,,,,,,,,,,,,,,,,,,,,,,,,,,,,,,,,,,,,,,,,,,,,,,,,,,,,,,,,,,,,,,,,,,,,,,,,,,,,,,,,,,,,
,,65d0cbfb1566a1ad19af6f37,2024-02-19_03h20.44.953,kallum_motion_pilot,2023.2.2,Win32,19.96007984,65d0cbfb1566a1ad19af6f37,65d2b6c8f2eece985d8e374c,65d2ba53c4c930283d4b778c,0.1333,0.1334,0,42,42,22,1,fourtwo,,,,,,,,,,,,,,,,,,,,,,,,,,,,,,,,,,,,,,,,,,,,,,,,,,,,,,,,,,,,,,,,,,,,,,,,,,,,,,,,,,,,,,,,,,,,,,,,,,,,,,,,,,,,,,,,,,,,,,,,,,,,,,,,,,,,,,,,,
,,65d0cbfb1566a1ad19af6f37,2024-02-19_03h20.44.953,kallum_motion_pilot,2023.2.2,Win32,19.96007984,65d0cbfb1566a1ad19af6f37,65d2b6c8f2eece985d8e374c,65d2ba53c4c930283d4b778c,0.1336,0.1338,0,43,43,88,1,fivesix,,,,,,,,,,,,,,,,,,,,,,,,,,,,,,,,,,,,,,,,,,,,,,,,,,,,,,,,,,,,,,,,,,,,,,,,,,,,,,,,,,,,,,,,,,,,,,,,,,,,,,,,,,,,,,,,,,,,,,,,,,,,,,,,,,,,,,,,,
,,65d0cbfb1566a1ad19af6f37,2024-02-19_03h20.44.953,kallum_motion_pilot,2023.2.2,Win32,19.96007984,65d0cbfb1566a1ad19af6f37,65d2b6c8f2eece985d8e374c,65d2ba53c4c930283d4b778c,0.134,0.1341,0,44,44,14,1,fourtwo,,,,,,,,,,,,,,,,,,,,,,,,,,,,,,,,,,,,,,,,,,,,,,,,,,,,,,,,,,,,,,,,,,,,,,,,,,,,,,,,,,,,,,,,,,,,,,,,,,,,,,,,,,,,,,,,,,,,,,,,,,,,,,,,,,,,,,,,,
,,65d0cbfb1566a1ad19af6f37,2024-02-19_03h20.44.953,kallum_motion_pilot,2023.2.2,Win32,19.96007984,65d0cbfb1566a1ad19af6f37,65d2b6c8f2eece985d8e374c,65d2ba53c4c930283d4b778c,0.1344,0.1344,0,45,45,41,1,onethree,,,,,,,,,,,,,,,,,,,,,,,,,,,,,,,,,,,,,,,,,,,,,,,,,,,,,,,,,,,,,,,,,,,,,,,,,,,,,,,,,,,,,,,,,,,,,,,,,,,,,,,,,,,,,,,,,,,,,,,,,,,,,,,,,,,,,,,,,
,,65d0cbfb1566a1ad19af6f37,2024-02-19_03h20.44.953,kallum_motion_pilot,2023.2.2,Win32,19.96007984,65d0cbfb1566a1ad19af6f37,65d2b6c8f2eece985d8e374c,65d2ba53c4c930283d4b778c,0.1347,0.1347,0,46,46,154,1,sixfive,,,,,,,,,,,,,,,,,,,,,,,,,,,,,,,,,,,,,,,,,,,,,,,,,,,,,,,,,,,,,,,,,,,,,,,,,,,,,,,,,,,,,,,,,,,,,,,,,,,,,,,,,,,,,,,,,,,,,,,,,,,,,,,,,,,,,,,,,
,,65d0cbfb1566a1ad19af6f37,2024-02-19_03h20.44.953,kallum_motion_pilot,2023.2.2,Win32,19.96007984,65d0cbfb1566a1ad19af6f37,65d2b6c8f2eece985d8e374c,65d2ba53c4c930283d4b778c,0.135,0.1351,0,47,47,16,1,onetwo,,,,,,,,,,,,,,,,,,,,,,,,,,,,,,,,,,,,,,,,,,,,,,,,,,,,,,,,,,,,,,,,,,,,,,,,,,,,,,,,,,,,,,,,,,,,,,,,,,,,,,,,,,,,,,,,,,,,,,,,,,,,,,,,,,,,,,,,,
,,65d0cbfb1566a1ad19af6f37,2024-02-19_03h20.44.953,kallum_motion_pilot,2023.2.2,Win32,19.96007984,65d0cbfb1566a1ad19af6f37,65d2b6c8f2eece985d8e374c,65d2ba53c4c930283d4b778c,0.1354,0.1355,0,48,48,30,1,fourtwo,,,,,,,,,,,,,,,,,,,,,,,,,,,,,,,,,,,,,,,,,,,,,,,,,,,,,,,,,,,,,,,,,,,,,,,,,,,,,,,,,,,,,,,,,,,,,,,,,,,,,,,,,,,,,,,,,,,,,,,,,,,,,,,,,,,,,,,,,
,,65d0cbfb1566a1ad19af6f37,2024-02-19_03h20.44.953,kallum_motion_pilot,2023.2.2,Win32,19.96007984,65d0cbfb1566a1ad19af6f37,65d2b6c8f2eece985d8e374c,65d2ba53c4c930283d4b778c,0.1358,0.1358,0,49,49,28,1,threeone,,,,,,,,,,,,,,,,,,,,,,,,,,,,,,,,,,,,,,,,,,,,,,,,,,,,,,,,,,,,,,,,,,,,,,,,,,,,,,,,,,,,,,,,,,,,,,,,,,,,,,,,,,,,,,,,,,,,,,,,,,,,,,,,,,,,,,,,,
,,65d0cbfb1566a1ad19af6f37,2024-02-19_03h20.44.953,kallum_motion_pilot,2023.2.2,Win32,19.96007984,65d0cbfb1566a1ad19af6f37,65d2b6c8f2eece985d8e374c,65d2ba53c4c930283d4b778c,0.1361,0.1362,0,50,50,104,1,fivesix,,,,,,,,,,,,,,,,,,,,,,,,,,,,,,,,,,,,,,,,,,,,,,,,,,,,,,,,,,,,,,,,,,,,,,,,,,,,,,,,,,,,,,,,,,,,,,,,,,,,,,,,,,,,,,,,,,,,,,,,,,,,,,,,,,,,,,,,,
,,65d0cbfb1566a1ad19af6f37,2024-02-19_03h20.44.953,kallum_motion_pilot,2023.2.2,Win32,19.96007984,65d0cbfb1566a1ad19af6f37,65d2b6c8f2eece985d8e374c,65d2ba53c4c930283d4b778c,0.1365,0.1366,0,51,51,148,1,sevenfive,,,,,,,,,,,,,,,,,,,,,,,,,,,,,,,,,,,,,,,,,,,,,,,,,,,,,,,,,,,,,,,,,,,,,,,,,,,,,,,,,,,,,,,,,,,,,,,,,,,,,,,,,,,,,,,,,,,,,,,,,,,,,,,,,,,,,,,,,
,,65d0cbfb1566a1ad19af6f37,2024-02-19_03h20.44.953,kallum_motion_pilot,2023.2.2,Win32,19.96007984,65d0cbfb1566a1ad19af6f37,65d2b6c8f2eece985d8e374c,65d2ba53c4c930283d4b778c,0.1368,0.1369,0,52,52,48,1,onetwo,,,,,,,,,,,,,,,,,,,,,,,,,,,,,,,,,,,,,,,,,,,,,,,,,,,,,,,,,,,,,,,,,,,,,,,,,,,,,,,,,,,,,,,,,,,,,,,,,,,,,,,,,,,,,,,,,,,,,,,,,,,,,,,,,,,,,,,,,
,,65d0cbfb1566a1ad19af6f37,2024-02-19_03h20.44.953,kallum_motion_pilot,2023.2.2,Win32,19.96007984,65d0cbfb1566a1ad19af6f37,65d2b6c8f2eece985d8e374c,65d2ba53c4c930283d4b778c,0.1371,0.1372,0,53,53,116,1,sevenfive,,,,,,,,,,,,,,,,,,,,,,,,,,,,,,,,,,,,,,,,,,,,,,,,,,,,,,,,,,,,,,,,,,,,,,,,,,,,,,,,,,,,,,,,,,,,,,,,,,,,,,,,,,,,,,,,,,,,,,,,,,,,,,,,,,,,,,,,,
,,65d0cbfb1566a1ad19af6f37,2024-02-19_03h20.44.953,kallum_motion_pilot,2023.2.2,Win32,19.96007984,65d0cbfb1566a1ad19af6f37,65d2b6c8f2eece985d8e374c,65d2ba53c4c930283d4b778c,0.1376,0.1378,0,54,54,121,1,fiveseven,,,,,,,,,,,,,,,,,,,,,,,,,,,,,,,,,,,,,,,,,,,,,,,,,,,,,,,,,,,,,,,,,,,,,,,,,,,,,,,,,,,,,,,,,,,,,,,,,,,,,,,,,,,,,,,,,,,,,,,,,,,,,,,,,,,,,,,,,
,,65d0cbfb1566a1ad19af6f37,2024-02-19_03h20.44.953,kallum_motion_pilot,2023.2.2,Win32,19.96007984,65d0cbfb1566a1ad19af6f37,65d2b6c8f2eece985d8e374c,65d2ba53c4c930283d4b778c,0.138,0.1381,0,55,55,54,1,fourtwo,,,,,,,,,,,,,,,,,,,,,,,,,,,,,,,,,,,,,,,,,,,,,,,,,,,,,,,,,,,,,,,,,,,,,,,,,,,,,,,,,,,,,,,,,,,,,,,,,,,,,,,,,,,,,,,,,,,,,,,,,,,,,,,,,,,,,,,,,
,,65d0cbfb1566a1ad19af6f37,2024-02-19_03h20.44.953,kallum_motion_pilot,2023.2.2,Win32,19.96007984,65d0cbfb1566a1ad19af6f37,65d2b6c8f2eece985d8e374c,65d2ba53c4c930283d4b778c,0.1384,0.1384,0,56,56,157,1,seveneight,,,,,,,,,,,,,,,,,,,,,,,,,,,,,,,,,,,,,,,,,,,,,,,,,,,,,,,,,,,,,,,,,,,,,,,,,,,,,,,,,,,,,,,,,,,,,,,,,,,,,,,,,,,,,,,,,,,,,,,,,,,,,,,,,,,,,,,,,
,,65d0cbfb1566a1ad19af6f37,2024-02-19_03h20.44.953,kallum_motion_pilot,2023.2.2,Win32,19.96007984,65d0cbfb1566a1ad19af6f37,65d2b6c8f2eece985d8e374c,65d2ba53c4c930283d4b778c,0.1387,0.1388,0,57,57,35,1,twofour,,,,,,,,,,,,,,,,,,,,,,,,,,,,,,,,,,,,,,,,,,,,,,,,,,,,,,,,,,,,,,,,,,,,,,,,,,,,,,,,,,,,,,,,,,,,,,,,,,,,,,,,,,,,,,,,,,,,,,,,,,,,,,,,,,,,,,,,,
,,65d0cbfb1566a1ad19af6f37,2024-02-19_03h20.44.953,kallum_motion_pilot,2023.2.2,Win32,19.96007984,65d0cbfb1566a1ad19af6f37,65d2b6c8f2eece985d8e374c,65d2ba53c4c930283d4b778c,0.139,0.1391,0,58,58,64,1,onetwo,,,,,,,,,,,,,,,,,,,,,,,,,,,,,,,,,,,,,,,,,,,,,,,,,,,,,,,,,,,,,,,,,,,,,,,,,,,,,,,,,,,,,,,,,,,,,,,,,,,,,,,,,,,,,,,,,,,,,,,,,,,,,,,,,,,,,,,,,
,,65d0cbfb1566a1ad19af6f37,2024-02-19_03h20.44.953,kallum_motion_pilot,2023.2.2,Win32,19.96007984,65d0cbfb1566a1ad19af6f37,65d2b6c8f2eece985d8e374c,65d2ba53c4c930283d4b778c,0.1394,0.1395,0,59,59,42,1,twoone,,,,,,,,,,,,,,,,,,,,,,,,,,,,,,,,,,,,,,,,,,,,,,,,,,,,,,,,,,,,,,,,,,,,,,,,,,,,,,,,,,,,,,,,,,,,,,,,,,,,,,,,,,,,,,,,,,,,,,,,,,,,,,,,,,,,,,,,,
,,65d0cbfb1566a1ad19af6f37,2024-02-19_03h20.44.953,kallum_motion_pilot,2023.2.2,Win32,19.96007984,65d0cbfb1566a1ad19af6f37,65d2b6c8f2eece985d8e374c,65d2ba53c4c930283d4b778c,0.1397,0.1398,0,60,60,159,1,eightseven,,,,,,,,,,,,,,,,,,,,,,,,,,,,,,,,,,,,,,,,,,,,,,,,,,,,,,,,,,,,,,,,,,,,,,,,,,,,,,,,,,,,,,,,,,,,,,,,,,,,,,,,,,,,,,,,,,,,,,,,,,,,,,,,,,,,,,,,,
,,65d0cbfb1566a1ad19af6f37,2024-02-19_03h20.44.953,kallum_motion_pilot,2023.2.2,Win32,19.96007984,65d0cbfb1566a1ad19af6f37,65d2b6c8f2eece985d8e374c,65d2ba53c4c930283d4b778c,0.142,0.1422,0,61,61,58,1,twoone,,,,,,,,,,,,,,,,,,,,,,,,,,,,,,,,,,,,,,,,,,,,,,,,,,,,,,,,,,,,,,,,,,,,,,,,,,,,,,,,,,,,,,,,,,,,,,,,,,,,,,,,,,,,,,,,,,,,,,,,,,,,,,,,,,,,,,,,,
,,65d0cbfb1566a1ad19af6f37,2024-02-19_03h20.44.953,kallum_motion_pilot,2023.2.2,Win32,19.96007984,65d0cbfb1566a1ad19af6f37,65d2b6c8f2eece985d8e374c,65d2ba53c4c930283d4b778c,0.1425,0.1426,0,62,62,122,1,sixfive,,,,,,,,,,,,,,,,,,,,,,,,,,,,,,,,,,,,,,,,,,,,,,,,,,,,,,,,,,,,,,,,,,,,,,,,,,,,,,,,,,,,,,,,,,,,,,,,,,,,,,,,,,,,,,,,,,,,,,,,,,,,,,,,,,,,,,,,,
,,65d0cbfb1566a1ad19af6f37,2024-02-19_03h20.44.953,kallum_motion_pilot,2023.2.2,Win32,19.96007984,65d0cbfb1566a1ad19af6f37,65d2b6c8f2eece985d8e374c,65d2ba53c4c930283d4b778c,0.143,0.143,0,63,63,129,1,fiveseven,,,,,,,,,,,,,,,,,,,,,,,,,,,,,,,,,,,,,,,,,,,,,,,,,,,,,,,,,,,,,,,,,,,,,,,,,,,,,,,,,,,,,,,,,,,,,,,,,,,,,,,,,,,,,,,,,,,,,,,,,,,,,,,,,,,,,,,,,
,,65d0cbfb1566a1ad19af6f37,2024-02-19_03h20.44.953,kallum_motion_pilot,2023.2.2,Win32,19.96007984,65d0cbfb1566a1ad19af6f37,65d2b6c8f2eece985d8e374c,65d2ba53c4c930283d4b778c,0.1432,0.1434,0,64,64,57,1,onethree,,,,,,,,,,,,,,,,,,,,,,,,,,,,,,,,,,,,,,,,,,,,,,,,,,,,,,,,,,,,,,,,,,,,,,,,,,,,,,,,,,,,,,,,,,,,,,,,,,,,,,,,,,,,,,,,,,,,,,,,,,,,,,,,,,,,,,,,,
,,65d0cbfb1566a1ad19af6f37,2024-02-19_03h20.44.953,kallum_motion_pilot,2023.2.2,Win32,19.96007984,65d0cbfb1566a1ad19af6f37,65d2b6c8f2eece985d8e374c,65d2ba53c4c930283d4b778c,0.1437,0.1437,0,65,65,2,1,twoone,,,,,,,,,,,,,,,,,,,,,,,,,,,,,,,,,,,,,,,,,,,,,,,,,,,,,,,,,,,,,,,,,,,,,,,,,,,,,,,,,,,,,,,,,,,,,,,,,,,,,,,,,,,,,,,,,,,,,,,,,,,,,,,,,,,,,,,,,
,,65d0cbfb1566a1ad19af6f37,2024-02-19_03h20.44.953,kallum_motion_pilot,2023.2.2,Win32,19.96007984,65d0cbfb1566a1ad19af6f37,65d2b6c8f2eece985d8e374c,65d2ba53c4c930283d4b778c,0.144,0.1441,0,66,66,33,1,onethree,,,,,,,,,,,,,,,,,,,,,,,,,,,,,,,,,,,,,,,,,,,,,,,,,,,,,,,,,,,,,,,,,,,,,,,,,,,,,,,,,,,,,,,,,,,,,,,,,,,,,,,,,,,,,,,,,,,,,,,,,,,,,,,,,,,,,,,,,
,,65d0cbfb1566a1ad19af6f37,2024-02-19_03h20.44.953,kallum_motion_pilot,2023.2.2,Win32,19.96007984,65d0cbfb1566a1ad19af6f37,65d2b6c8f2eece985d8e374c,65d2ba53c4c930283d4b778c,0.1444,0.1445,0,67,67,153,1,fiveseven,,,,,,,,,,,,,,,,,,,,,,,,,,,,,,,,,,,,,,,,,,,,,,,,,,,,,,,,,,,,,,,,,,,,,,,,,,,,,,,,,,,,,,,,,,,,,,,,,,,,,,,,,,,,,,,,,,,,,,,,,,,,,,,,,,,,,,,,,
,,65d0cbfb1566a1ad19af6f37,2024-02-19_03h20.44.953,kallum_motion_pilot,2023.2.2,Win32,19.96007984,65d0cbfb1566a1ad19af6f37,65d2b6c8f2eece985d8e374c,65d2ba53c4c930283d4b778c,0.1448,0.1449,0,68,68,49,1,onethree,,,,,,,,,,,,,,,,,,,,,,,,,,,,,,,,,,,,,,,,,,,,,,,,,,,,,,,,,,,,,,,,,,,,,,,,,,,,,,,,,,,,,,,,,,,,,,,,,,,,,,,,,,,,,,,,,,,,,,,,,,,,,,,,,,,,,,,,,
,,65d0cbfb1566a1ad19af6f37,2024-02-19_03h20.44.953,kallum_motion_pilot,2023.2.2,Win32,19.96007984,65d0cbfb1566a1ad19af6f37,65d2b6c8f2eece985d8e374c,65d2ba53c4c930283d4b778c,0.1451,0.1453,0,69,69,110,1,eightsix,,,,,,,,,,,,,,,,,,,,,,,,,,,,,,,,,,,,,,,,,,,,,,,,,,,,,,,,,,,,,,,,,,,,,,,,,,,,,,,,,,,,,,,,,,,,,,,,,,,,,,,,,,,,,,,,,,,,,,,,,,,,,,,,,,,,,,,,,
,,65d0cbfb1566a1ad19af6f37,2024-02-19_03h20.44.953,kallum_motion_pilot,2023.2.2,Win32,19.96007984,65d0cbfb1566a1ad19af6f37,65d2b6c8f2eece985d8e374c,65d2ba53c4c930283d4b778c,0.1456,0.1457,0,70,70,151,1,eightseven,,,,,,,,,,,,,,,,,,,,,,,,,,,,,,,,,,,,,,,,,,,,,,,,,,,,,,,,,,,,,,,,,,,,,,,,,,,,,,,,,,,,,,,,,,,,,,,,,,,,,,,,,,,,,,,,,,,,,,,,,,,,,,,,,,,,,,,,,
,,65d0cbfb1566a1ad19af6f37,2024-02-19_03h20.44.953,kallum_motion_pilot,2023.2.2,Win32,19.96007984,65d0cbfb1566a1ad19af6f37,65d2b6c8f2eece985d8e374c,65d2ba53c4c930283d4b778c,0.1459,0.1461,0,71,71,71,1,fourthree,,,,,,,,,,,,,,,,,,,,,,,,,,,,,,,,,,,,,,,,,,,,,,,,,,,,,,,,,,,,,,,,,,,,,,,,,,,,,,,,,,,,,,,,,,,,,,,,,,,,,,,,,,,,,,,,,,,,,,,,,,,,,,,,,,,,,,,,,
,,65d0cbfb1566a1ad19af6f37,2024-02-19_03h20.44.953,kallum_motion_pilot,2023.2.2,Win32,19.96007984,65d0cbfb1566a1ad19af6f37,65d2b6c8f2eece985d8e374c,65d2ba53c4c930283d4b778c,0.1463,0.1465,0,72,72,65,1,onethree,,,,,,,,,,,,,,,,,,,,,,,,,,,,,,,,,,,,,,,,,,,,,,,,,,,,,,,,,,,,,,,,,,,,,,,,,,,,,,,,,,,,,,,,,,,,,,,,,,,,,,,,,,,,,,,,,,,,,,,,,,,,,,,,,,,,,,,,,
,,65d0cbfb1566a1ad19af6f37,2024-02-19_03h20.44.953,kallum_motion_pilot,2023.2.2,Win32,19.96007984,65d0cbfb1566a1ad19af6f37,65d2b6c8f2eece985d8e374c,65d2ba53c4c930283d4b778c,0.1467,0.1468,0,73,73,113,1,fiveseven,,,,,,,,,,,,,,,,,,,,,,,,,,,,,,,,,,,,,,,,,,,,,,,,,,,,,,,,,,,,,,,,,,,,,,,,,,,,,,,,,,,,,,,,,,,,,,,,,,,,,,,,,,,,,,,,,,,,,,,,,,,,,,,,,,,,,,,,,
,,65d0cbfb1566a1ad19af6f37,2024-02-19_03h20.44.953,kallum_motion_pilot,2023.2.2,Win32,19.96007984,65d0cbfb1566a1ad19af6f37,65d2b6c8f2eece985d8e374c,65d2ba53c4c930283d4b778c,0.1471,0.1472,0,74,74,0,1,onetwo,,,,,,,,,,,,,,,,,,,,,,,,,,,,,,,,,,,,,,,,,,,,,,,,,,,,,,,,,,,,,,,,,,,,,,,,,,,,,,,,,,,,,,,,,,,,,,,,,,,,,,,,,,,,,,,,,,,,,,,,,,,,,,,,,,,,,,,,,
,,65d0cbfb1566a1ad19af6f37,2024-02-19_03h20.44.953,kallum_motion_pilot,2023.2.2,Win32,19.96007984,65d0cbfb1566a1ad19af6f37,65d2b6c8f2eece985d8e374c,65d2ba53c4c930283d4b778c,0.1474,0.1475,0,75,75,89,1,fiveseven,,,,,,,,,,,,,,,,,,,,,,,,,,,,,,,,,,,,,,,,,,,,,,,,,,,,,,,,,,,,,,,,,,,,,,,,,,,,,,,,,,,,,,,,,,,,,,,,,,,,,,,,,,,,,,,,,,,,,,,,,,,,,,,,,,,,,,,,,
,,65d0cbfb1566a1ad19af6f37,2024-02-19_03h20.44.953,kallum_motion_pilot,2023.2.2,Win32,19.96007984,65d0cbfb1566a1ad19af6f37,65d2b6c8f2eece985d8e374c,65d2ba53c4c930283d4b778c,0.1478,0.148,0,76,76,158,1,eightsix,,,,,,,,,,,,,,,,,,,,,,,,,,,,,,,,,,,,,,,,,,,,,,,,,,,,,,,,,,,,,,,,,,,,,,,,,,,,,,,,,,,,,,,,,,,,,,,,,,,,,,,,,,,,,,,,,,,,,,,,,,,,,,,,,,,,,,,,,
,,65d0cbfb1566a1ad19af6f37,2024-02-19_03h20.44.953,kallum_motion_pilot,2023.2.2,Win32,19.96007984,65d0cbfb1566a1ad19af6f37,65d2b6c8f2eece985d8e374c,65d2ba53c4c930283d4b778c,0.1482,0.1483,0,77,77,8,1,onetwo,,,,,,,,,,,,,,,,,,,,,,,,,,,,,,,,,,,,,,,,,,,,,,,,,,,,,,,,,,,,,,,,,,,,,,,,,,,,,,,,,,,,,,,,,,,,,,,,,,,,,,,,,,,,,,,,,,,,,,,,,,,,,,,,,,,,,,,,,
,,65d0cbfb1566a1ad19af6f37,2024-02-19_03h20.44.953,kallum_motion_pilot,2023.2.2,Win32,19.96007984,65d0cbfb1566a1ad19af6f37,65d2b6c8f2eece985d8e374c,65d2ba53c4c930283d4b778c,0.1485,0.1486,0,78,78,140,1,sevenfive,,,,,,,,,,,,,,,,,,,,,,,,,,,,,,,,,,,,,,,,,,,,,,,,,,,,,,,,,,,,,,,,,,,,,,,,,,,,,,,,,,,,,,,,,,,,,,,,,,,,,,,,,,,,,,,,,,,,,,,,,,,,,,,,,,,,,,,,,
,,65d0cbfb1566a1ad19af6f37,2024-02-19_03h20.44.953,kallum_motion_pilot,2023.2.2,Win32,19.96007984,65d0cbfb1566a1ad19af6f37,65d2b6c8f2eece985d8e374c,65d2ba53c4c930283d4b778c,0.1489,0.149,0,79,79,136,1,fivesix,,,,,,,,,,,,,,,,,,,,,,,,,,,,,,,,,,,,,,,,,,,,,,,,,,,,,,,,,,,,,,,,,,,,,,,,,,,,,,,,,,,,,,,,,,,,,,,,,,,,,,,,,,,,,,,,,,,,,,,,,,,,,,,,,,,,,,,,,
,,65d0cbfb1566a1ad19af6f37,2024-02-19_03h20.44.953,kallum_motion_pilot,2023.2.2,Win32,19.96007984,65d0cbfb1566a1ad19af6f37,65d2b6c8f2eece985d8e374c,65d2ba53c4c930283d4b778c,0.1492,0.1494,0,80,80,3,1,twofour,,,,,,,,,,,,,,,,,,,,,,,,,,,,,,,,,,,,,,,,,,,,,,,,,,,,,,,,,,,,,,,,,,,,,,,,,,,,,,,,,,,,,,,,,,,,,,,,,,,,,,,,,,,,,,,,,,,,,,,,,,,,,,,,,,,,,,,,,
,,65d0cbfb1566a1ad19af6f37,2024-02-19_03h20.44.953,kallum_motion_pilot,2023.2.2,Win32,19.96007984,65d0cbfb1566a1ad19af6f37,65d2b6c8f2eece985d8e374c,65d2ba53c4c930283d4b778c,0.1496,0.1498,0,81,81,123,1,sixeight,,,,,,,,,,,,,,,,,,,,,,,,,,,,,,,,,,,,,,,,,,,,,,,,,,,,,,,,,,,,,,,,,,,,,,,,,,,,,,,,,,,,,,,,,,,,,,,,,,,,,,,,,,,,,,,,,,,,,,,,,,,,,,,,,,,,,,,,,
,,65d0cbfb1566a1ad19af6f37,2024-02-19_03h20.44.953,kallum_motion_pilot,2023.2.2,Win32,19.96007984,65d0cbfb1566a1ad19af6f37,65d2b6c8f2eece985d8e374c,65d2ba53c4c930283d4b778c,0.1499,0.1501,0,82,82,86,1,eightsix,,,,,,,,,,,,,,,,,,,,,,,,,,,,,,,,,,,,,,,,,,,,,,,,,,,,,,,,,,,,,,,,,,,,,,,,,,,,,,,,,,,,,,,,,,,,,,,,,,,,,,,,,,,,,,,,,,,,,,,,,,,,,,,,,,,,,,,,,
,,65d0cbfb1566a1ad19af6f37,2024-02-19_03h20.44.953,kallum_motion_pilot,2023.2.2,Win32,19.96007984,65d0cbfb1566a1ad19af6f37,65d2b6c8f2eece985d8e374c,65d2ba53c4c930283d4b778c,0.1503,0.1505,0,83,83,26,1,twoone,,,,,,,,,,,,,,,,,,,,,,,,,,,,,,,,,,,,,,,,,,,,,,,,,,,,,,,,,,,,,,,,,,,,,,,,,,,,,,,,,,,,,,,,,,,,,,,,,,,,,,,,,,,,,,,,,,,,,,,,,,,,,,,,,,,,,,,,,
,,65d0cbfb1566a1ad19af6f37,2024-02-19_03h20.44.953,kallum_motion_pilot,2023.2.2,Win32,19.96007984,65d0cbfb1566a1ad19af6f37,65d2b6c8f2eece985d8e374c,65d2ba53c4c930283d4b778c,0.1507,0.1508,0,84,84,37,1,threefour,,,,,,,,,,,,,,,,,,,,,,,,,,,,,,,,,,,,,,,,,,,,,,,,,,,,,,,,,,,,,,,,,,,,,,,,,,,,,,,,,,,,,,,,,,,,,,,,,,,,,,,,,,,,,,,,,,,,,,,,,,,,,,,,,,,,,,,,,
,,65d0cbfb1566a1ad19af6f37,2024-02-19_03h20.44.953,kallum_motion_pilot,2023.2.2,Win32,19.96007984,65d0cbfb1566a1ad19af6f37,65d2b6c8f2eece985d8e374c,65d2ba53c4c930283d4b778c,0.151,0.1512,0,85,85,23,1,fourthree,,,,,,,,,,,,,,,,,,,,,,,,,,,,,,,,,,,,,,,,,,,,,,,,,,,,,,,,,,,,,,,,,,,,,,,,,,,,,,,,,,,,,,,,,,,,,,,,,,,,,,,,,,,,,,,,,,,,,,,,,,,,,,,,,,,,,,,,,
,,65d0cbfb1566a1ad19af6f37,2024-02-19_03h20.44.953,kallum_motion_pilot,2023.2.2,Win32,19.96007984,65d0cbfb1566a1ad19af6f37,65d2b6c8f2eece985d8e374c,65d2ba53c4c930283d4b778c,0.1515,0.1516,0,86,86,96,1,fivesix,,,,,,,,,,,,,,,,,,,,,,,,,,,,,,,,,,,,,,,,,,,,,,,,,,,,,,,,,,,,,,,,,,,,,,,,,,,,,,,,,,,,,,,,,,,,,,,,,,,,,,,,,,,,,,,,,,,,,,,,,,,,,,,,,,,,,,,,,
,,65d0cbfb1566a1ad19af6f37,2024-02-19_03h20.44.953,kallum_motion_pilot,2023.2.2,Win32,19.96007984,65d0cbfb1566a1ad19af6f37,65d2b6c8f2eece985d8e374c,65d2ba53c4c930283d4b778c,0.1518,0.1519,0,87,87,150,1,eightsix,,,,,,,,,,,,,,,,,,,,,,,,,,,,,,,,,,,,,,,,,,,,,,,,,,,,,,,,,,,,,,,,,,,,,,,,,,,,,,,,,,,,,,,,,,,,,,,,,,,,,,,,,,,,,,,,,,,,,,,,,,,,,,,,,,,,,,,,,
,,65d0cbfb1566a1ad19af6f37,2024-02-19_03h20.44.953,kallum_motion_pilot,2023.2.2,Win32,19.96007984,65d0cbfb1566a1ad19af6f37,65d2b6c8f2eece985d8e374c,65d2ba53c4c930283d4b778c,0.1521,0.1524,0,88,88,95,1,eightseven,,,,,,,,,,,,,,,,,,,,,,,,,,,,,,,,,,,,,,,,,,,,,,,,,,,,,,,,,,,,,,,,,,,,,,,,,,,,,,,,,,,,,,,,,,,,,,,,,,,,,,,,,,,,,,,,,,,,,,,,,,,,,,,,,,,,,,,,,
,,65d0cbfb1566a1ad19af6f37,2024-02-19_03h20.44.953,kallum_motion_pilot,2023.2.2,Win32,19.96007984,65d0cbfb1566a1ad19af6f37,65d2b6c8f2eece985d8e374c,65d2ba53c4c930283d4b778c,0.1527,0.1528,0,89,89,152,1,fivesix,,,,,,,,,,,,,,,,,,,,,,,,,,,,,,,,,,,,,,,,,,,,,,,,,,,,,,,,,,,,,,,,,,,,,,,,,,,,,,,,,,,,,,,,,,,,,,,,,,,,,,,,,,,,,,,,,,,,,,,,,,,,,,,,,,,,,,,,,
,,65d0cbfb1566a1ad19af6f37,2024-02-19_03h20.44.953,kallum_motion_pilot,2023.2.2,Win32,19.96007984,65d0cbfb1566a1ad19af6f37,65d2b6c8f2eece985d8e374c,65d2ba53c4c930283d4b778c,0.153,0.1533,0,90,90,156,1,sevenfive,,,,,,,,,,,,,,,,,,,,,,,,,,,,,,,,,,,,,,,,,,,,,,,,,,,,,,,,,,,,,,,,,,,,,,,,,,,,,,,,,,,,,,,,,,,,,,,,,,,,,,,,,,,,,,,,,,,,,,,,,,,,,,,,,,,,,,,,,
,,65d0cbfb1566a1ad19af6f37,2024-02-19_03h20.44.953,kallum_motion_pilot,2023.2.2,Win32,19.96007984,65d0cbfb1566a1ad19af6f37,65d2b6c8f2eece985d8e374c,65d2ba53c4c930283d4b778c,0.1535,0.1538,0,91,91,67,1,twofour,,,,,,,,,,,,,,,,,,,,,,,,,,,,,,,,,,,,,,,,,,,,,,,,,,,,,,,,,,,,,,,,,,,,,,,,,,,,,,,,,,,,,,,,,,,,,,,,,,,,,,,,,,,,,,,,,,,,,,,,,,,,,,,,,,,,,,,,,
,,65d0cbfb1566a1ad19af6f37,2024-02-19_03h20.44.953,kallum_motion_pilot,2023.2.2,Win32,19.96007984,65d0cbfb1566a1ad19af6f37,65d2b6c8f2eece985d8e374c,65d2ba53c4c930283d4b778c,0.154,0.1541,0,92,92,138,1,sixfive,,,,,,,,,,,,,,,,,,,,,,,,,,,,,,,,,,,,,,,,,,,,,,,,,,,,,,,,,,,,,,,,,,,,,,,,,,,,,,,,,,,,,,,,,,,,,,,,,,,,,,,,,,,,,,,,,,,,,,,,,,,,,,,,,,,,,,,,,
,,65d0cbfb1566a1ad19af6f37,2024-02-19_03h20.44.953,kallum_motion_pilot,2023.2.2,Win32,19.96007984,65d0cbfb1566a1ad19af6f37,65d2b6c8f2eece985d8e374c,65d2ba53c4c930283d4b778c,0.1544,0.1545,0,93,93,80,1,fivesix,,,,,,,,,,,,,,,,,,,,,,,,,,,,,,,,,,,,,,,,,,,,,,,,,,,,,,,,,,,,,,,,,,,,,,,,,,,,,,,,,,,,,,,,,,,,,,,,,,,,,,,,,,,,,,,,,,,,,,,,,,,,,,,,,,,,,,,,,
,,65d0cbfb1566a1ad19af6f37,2024-02-19_03h20.44.953,kallum_motion_pilot,2023.2.2,Win32,19.96007984,65d0cbfb1566a1ad19af6f37,65d2b6c8f2eece985d8e374c,65d2ba53c4c930283d4b778c,0.1548,0.1549,0,94,94,120,1,fivesix,,,,,,,,,,,,,,,,,,,,,,,,,,,,,,,,,,,,,,,,,,,,,,,,,,,,,,,,,,,,,,,,,,,,,,,,,,,,,,,,,,,,,,,,,,,,,,,,,,,,,,,,,,,,,,,,,,,,,,,,,,,,,,,,,,,,,,,,,
,,65d0cbfb1566a1ad19af6f37,2024-02-19_03h20.44.953,kallum_motion_pilot,2023.2.2,Win32,19.96007984,65d0cbfb1566a1ad19af6f37,65d2b6c8f2eece985d8e374c,65d2ba53c4c930283d4b778c,0.1552,0.1552,0,95,95,11,1,twofour,,,,,,,,,,,,,,,,,,,,,,,,,,,,,,,,,,,,,,,,,,,,,,,,,,,,,,,,,,,,,,,,,,,,,,,,,,,,,,,,,,,,,,,,,,,,,,,,,,,,,,,,,,,,,,,,,,,,,,,,,,,,,,,,,,,,,,,,,
,,65d0cbfb1566a1ad19af6f37,2024-02-19_03h20.44.953,kallum_motion_pilot,2023.2.2,Win32,19.96007984,65d0cbfb1566a1ad19af6f37,65d2b6c8f2eece985d8e374c,65d2ba53c4c930283d4b778c,0.1556,0.1556,0,96,96,146,1,sixfive,,,,,,,,,,,,,,,,,,,,,,,,,,,,,,,,,,,,,,,,,,,,,,,,,,,,,,,,,,,,,,,,,,,,,,,,,,,,,,,,,,,,,,,,,,,,,,,,,,,,,,,,,,,,,,,,,,,,,,,,,,,,,,,,,,,,,,,,,
,,65d0cbfb1566a1ad19af6f37,2024-02-19_03h20.44.953,kallum_motion_pilot,2023.2.2,Win32,19.96007984,65d0cbfb1566a1ad19af6f37,65d2b6c8f2eece985d8e374c,65d2ba53c4c930283d4b778c,0.1559,0.156,0,97,97,76,1,threeone,,,,,,,,,,,,,,,,,,,,,,,,,,,,,,,,,,,,,,,,,,,,,,,,,,,,,,,,,,,,,,,,,,,,,,,,,,,,,,,,,,,,,,,,,,,,,,,,,,,,,,,,,,,,,,,,,,,,,,,,,,,,,,,,,,,,,,,,,
,,65d0cbfb1566a1ad19af6f37,2024-02-19_03h20.44.953,kallum_motion_pilot,2023.2.2,Win32,19.96007984,65d0cbfb1566a1ad19af6f37,65d2b6c8f2eece985d8e374c,65d2ba53c4c930283d4b778c,0.1563,0.1564,0,98,98,125,1,seveneight,,,,,,,,,,,,,,,,,,,,,,,,,,,,,,,,,,,,,,,,,,,,,,,,,,,,,,,,,,,,,,,,,,,,,,,,,,,,,,,,,,,,,,,,,,,,,,,,,,,,,,,,,,,,,,,,,,,,,,,,,,,,,,,,,,,,,,,,,
,,65d0cbfb1566a1ad19af6f37,2024-02-19_03h20.44.953,kallum_motion_pilot,2023.2.2,Win32,19.96007984,65d0cbfb1566a1ad19af6f37,65d2b6c8f2eece985d8e374c,65d2ba53c4c930283d4b778c,0.1567,0.1568,0,99,99,27,1,twofour,,,,,,,,,,,,,,,,,,,,,,,,,,,,,,,,,,,,,,,,,,,,,,,,,,,,,,,,,,,,,,,,,,,,,,,,,,,,,,,,,,,,,,,,,,,,,,,,,,,,,,,,,,,,,,,,,,,,,,,,,,,,,,,,,,,,,,,,,
,,65d0cbfb1566a1ad19af6f37,2024-02-19_03h20.44.953,kallum_motion_pilot,2023.2.2,Win32,19.96007984,65d0cbfb1566a1ad19af6f37,65d2b6c8f2eece985d8e374c,65d2ba53c4c930283d4b778c,0.1571,0.1571,0,100,100,17,1,onethree,,,,,,,,,,,,,,,,,,,,,,,,,,,,,,,,,,,,,,,,,,,,,,,,,,,,,,,,,,,,,,,,,,,,,,,,,,,,,,,,,,,,,,,,,,,,,,,,,,,,,,,,,,,,,,,,,,,,,,,,,,,,,,,,,,,,,,,,,
,,65d0cbfb1566a1ad19af6f37,2024-02-19_03h20.44.953,kallum_motion_pilot,2023.2.2,Win32,19.96007984,65d0cbfb1566a1ad19af6f37,65d2b6c8f2eece985d8e374c,65d2ba53c4c930283d4b778c,0.1574,0.1575,0,101,101,118,1,eightsix,,,,,,,,,,,,,,,,,,,,,,,,,,,,,,,,,,,,,,,,,,,,,,,,,,,,,,,,,,,,,,,,,,,,,,,,,,,,,,,,,,,,,,,,,,,,,,,,,,,,,,,,,,,,,,,,,,,,,,,,,,,,,,,,,,,,,,,,,
,,65d0cbfb1566a1ad19af6f37,2024-02-19_03h20.44.953,kallum_motion_pilot,2023.2.2,Win32,19.96007984,65d0cbfb1566a1ad19af6f37,65d2b6c8f2eece985d8e374c,65d2ba53c4c930283d4b778c,0.1577,0.1579,0,102,102,134,1,eightsix,,,,,,,,,,,,,,,,,,,,,,,,,,,,,,,,,,,,,,,,,,,,,,,,,,,,,,,,,,,,,,,,,,,,,,,,,,,,,,,,,,,,,,,,,,,,,,,,,,,,,,,,,,,,,,,,,,,,,,,,,,,,,,,,,,,,,,,,,
,,65d0cbfb1566a1ad19af6f37,2024-02-19_03h20.44.953,kallum_motion_pilot,2023.2.2,Win32,19.96007984,65d0cbfb1566a1ad19af6f37,65d2b6c8f2eece985d8e374c,65d2ba53c4c930283d4b778c,0.1581,0.1582,0,103,103,99,1,sixeight,,,,,,,,,,,,,,,,,,,,,,,,,,,,,,,,,,,,,,,,,,,,,,,,,,,,,,,,,,,,,,,,,,,,,,,,,,,,,,,,,,,,,,,,,,,,,,,,,,,,,,,,,,,,,,,,,,,,,,,,,,,,,,,,,,,,,,,,,
,,65d0cbfb1566a1ad19af6f37,2024-02-19_03h20.44.953,kallum_motion_pilot,2023.2.2,Win32,19.96007984,65d0cbfb1566a1ad19af6f37,65d2b6c8f2eece985d8e374c,65d2ba53c4c930283d4b778c,0.1585,0.1588,0,104,104,47,1,fourthree,,,,,,,,,,,,,,,,,,,,,,,,,,,,,,,,,,,,,,,,,,,,,,,,,,,,,,,,,,,,,,,,,,,,,,,,,,,,,,,,,,,,,,,,,,,,,,,,,,,,,,,,,,,,,,,,,,,,,,,,,,,,,,,,,,,,,,,,,
,,65d0cbfb1566a1ad19af6f37,2024-02-19_03h20.44.953,kallum_motion_pilot,2023.2.2,Win32,19.96007984,65d0cbfb1566a1ad19af6f37,65d2b6c8f2eece985d8e374c,65d2ba53c4c930283d4b778c,0.1591,0.1592,0,105,105,56,1,onetwo,,,,,,,,,,,,,,,,,,,,,,,,,,,,,,,,,,,,,,,,,,,,,,,,,,,,,,,,,,,,,,,,,,,,,,,,,,,,,,,,,,,,,,,,,,,,,,,,,,,,,,,,,,,,,,,,,,,,,,,,,,,,,,,,,,,,,,,,,
,,65d0cbfb1566a1ad19af6f37,2024-02-19_03h20.44.953,kallum_motion_pilot,2023.2.2,Win32,19.96007984,65d0cbfb1566a1ad19af6f37,65d2b6c8f2eece985d8e374c,65d2ba53c4c930283d4b778c,0.1595,0.1595,0,106,106,73,1,onethree,,,,,,,,,,,,,,,,,,,,,,,,,,,,,,,,,,,,,,,,,,,,,,,,,,,,,,,,,,,,,,,,,,,,,,,,,,,,,,,,,,,,,,,,,,,,,,,,,,,,,,,,,,,,,,,,,,,,,,,,,,,,,,,,,,,,,,,,,
,,65d0cbfb1566a1ad19af6f37,2024-02-19_03h20.44.953,kallum_motion_pilot,2023.2.2,Win32,19.96007984,65d0cbfb1566a1ad19af6f37,65d2b6c8f2eece985d8e374c,65d2ba53c4c930283d4b778c,0.1598,0.1599,0,107,107,105,1,fiveseven,,,,,,,,,,,,,,,,,,,,,,,,,,,,,,,,,,,,,,,,,,,,,,,,,,,,,,,,,,,,,,,,,,,,,,,,,,,,,,,,,,,,,,,,,,,,,,,,,,,,,,,,,,,,,,,,,,,,,,,,,,,,,,,,,,,,,,,,,
,,65d0cbfb1566a1ad19af6f37,2024-02-19_03h20.44.953,kallum_motion_pilot,2023.2.2,Win32,19.96007984,65d0cbfb1566a1ad19af6f37,65d2b6c8f2eece985d8e374c,65d2ba53c4c930283d4b778c,0.1601,0.1603,0,108,108,131,1,sixeight,,,,,,,,,,,,,,,,,,,,,,,,,,,,,,,,,,,,,,,,,,,,,,,,,,,,,,,,,,,,,,,,,,,,,,,,,,,,,,,,,,,,,,,,,,,,,,,,,,,,,,,,,,,,,,,,,,,,,,,,,,,,,,,,,,,,,,,,,
,,65d0cbfb1566a1ad19af6f37,2024-02-19_03h20.44.953,kallum_motion_pilot,2023.2.2,Win32,19.96007984,65d0cbfb1566a1ad19af6f37,65d2b6c8f2eece985d8e374c,65d2ba53c4c930283d4b778c,0.1606,0.1606,0,109,109,135,1,eightseven,,,,,,,,,,,,,,,,,,,,,,,,,,,,,,,,,,,,,,,,,,,,,,,,,,,,,,,,,,,,,,,,,,,,,,,,,,,,,,,,,,,,,,,,,,,,,,,,,,,,,,,,,,,,,,,,,,,,,,,,,,,,,,,,,,,,,,,,,
,,65d0cbfb1566a1ad19af6f37,2024-02-19_03h20.44.953,kallum_motion_pilot,2023.2.2,Win32,19.96007984,65d0cbfb1566a1ad19af6f37,65d2b6c8f2eece985d8e374c,65d2ba53c4c930283d4b778c,0.161,0.161,0,110,110,106,1,sixfive,,,,,,,,,,,,,,,,,,,,,,,,,,,,,,,,,,,,,,,,,,,,,,,,,,,,,,,,,,,,,,,,,,,,,,,,,,,,,,,,,,,,,,,,,,,,,,,,,,,,,,,,,,,,,,,,,,,,,,,,,,,,,,,,,,,,,,,,,
,,65d0cbfb1566a1ad19af6f37,2024-02-19_03h20.44.953,kallum_motion_pilot,2023.2.2,Win32,19.96007984,65d0cbfb1566a1ad19af6f37,65d2b6c8f2eece985d8e374c,65d2ba53c4c930283d4b778c,0.1613,0.1615,0,111,111,77,1,threefour,,,,,,,,,,,,,,,,,,,,,,,,,,,,,,,,,,,,,,,,,,,,,,,,,,,,,,,,,,,,,,,,,,,,,,,,,,,,,,,,,,,,,,,,,,,,,,,,,,,,,,,,,,,,,,,,,,,,,,,,,,,,,,,,,,,,,,,,,
,,65d0cbfb1566a1ad19af6f37,2024-02-19_03h20.44.953,kallum_motion_pilot,2023.2.2,Win32,19.96007984,65d0cbfb1566a1ad19af6f37,65d2b6c8f2eece985d8e374c,65d2ba53c4c930283d4b778c,0.1617,0.1618,0,112,112,21,1,threefour,,,,,,,,,,,,,,,,,,,,,,,,,,,,,,,,,,,,,,,,,,,,,,,,,,,,,,,,,,,,,,,,,,,,,,,,,,,,,,,,,,,,,,,,,,,,,,,,,,,,,,,,,,,,,,,,,,,,,,,,,,,,,,,,,,,,,,,,,
,,65d0cbfb1566a1ad19af6f37,2024-02-19_03h20.44.953,kallum_motion_pilot,2023.2.2,Win32,19.96007984,65d0cbfb1566a1ad19af6f37,65d2b6c8f2eece985d8e374c,65d2ba53c4c930283d4b778c,0.162,0.1622,0,113,113,117,1,seveneight,,,,,,,,,,,,,,,,,,,,,,,,,,,,,,,,,,,,,,,,,,,,,,,,,,,,,,,,,,,,,,,,,,,,,,,,,,,,,,,,,,,,,,,,,,,,,,,,,,,,,,,,,,,,,,,,,,,,,,,,,,,,,,,,,,,,,,,,,
,,65d0cbfb1566a1ad19af6f37,2024-02-19_03h20.44.953,kallum_motion_pilot,2023.2.2,Win32,19.96007984,65d0cbfb1566a1ad19af6f37,65d2b6c8f2eece985d8e374c,65d2ba53c4c930283d4b778c,0.1624,0.1625,0,114,114,59,1,twofour,,,,,,,,,,,,,,,,,,,,,,,,,,,,,,,,,,,,,,,,,,,,,,,,,,,,,,,,,,,,,,,,,,,,,,,,,,,,,,,,,,,,,,,,,,,,,,,,,,,,,,,,,,,,,,,,,,,,,,,,,,,,,,,,,,,,,,,,,
,,65d0cbfb1566a1ad19af6f37,2024-02-19_03h20.44.953,kallum_motion_pilot,2023.2.2,Win32,19.96007984,65d0cbfb1566a1ad19af6f37,65d2b6c8f2eece985d8e374c,65d2ba53c4c930283d4b778c,0.1627,0.1629,0,115,115,44,1,threeone,,,,,,,,,,,,,,,,,,,,,,,,,,,,,,,,,,,,,,,,,,,,,,,,,,,,,,,,,,,,,,,,,,,,,,,,,,,,,,,,,,,,,,,,,,,,,,,,,,,,,,,,,,,,,,,,,,,,,,,,,,,,,,,,,,,,,,,,,
,,65d0cbfb1566a1ad19af6f37,2024-02-19_03h20.44.953,kallum_motion_pilot,2023.2.2,Win32,19.96007984,65d0cbfb1566a1ad19af6f37,65d2b6c8f2eece985d8e374c,65d2ba53c4c930283d4b778c,0.1633,0.1634,0,116,116,114,1,sixfive,,,,,,,,,,,,,,,,,,,,,,,,,,,,,,,,,,,,,,,,,,,,,,,,,,,,,,,,,,,,,,,,,,,,,,,,,,,,,,,,,,,,,,,,,,,,,,,,,,,,,,,,,,,,,,,,,,,,,,,,,,,,,,,,,,,,,,,,,
,,65d0cbfb1566a1ad19af6f37,2024-02-19_03h20.44.953,kallum_motion_pilot,2023.2.2,Win32,19.96007984,65d0cbfb1566a1ad19af6f37,65d2b6c8f2eece985d8e374c,65d2ba53c4c930283d4b778c,0.1636,0.1638,0,117,117,144,1,fivesix,,,,,,,,,,,,,,,,,,,,,,,,,,,,,,,,,,,,,,,,,,,,,,,,,,,,,,,,,,,,,,,,,,,,,,,,,,,,,,,,,,,,,,,,,,,,,,,,,,,,,,,,,,,,,,,,,,,,,,,,,,,,,,,,,,,,,,,,,
,,65d0cbfb1566a1ad19af6f37,2024-02-19_03h20.44.953,kallum_motion_pilot,2023.2.2,Win32,19.96007984,65d0cbfb1566a1ad19af6f37,65d2b6c8f2eece985d8e374c,65d2ba53c4c930283d4b778c,0.164,0.1641,0,118,118,84,1,sevenfive,,,,,,,,,,,,,,,,,,,,,,,,,,,,,,,,,,,,,,,,,,,,,,,,,,,,,,,,,,,,,,,,,,,,,,,,,,,,,,,,,,,,,,,,,,,,,,,,,,,,,,,,,,,,,,,,,,,,,,,,,,,,,,,,,,,,,,,,,
,,65d0cbfb1566a1ad19af6f37,2024-02-19_03h20.44.953,kallum_motion_pilot,2023.2.2,Win32,19.96007984,65d0cbfb1566a1ad19af6f37,65d2b6c8f2eece985d8e374c,65d2ba53c4c930283d4b778c,0.1643,0.1645,0,119,119,72,1,onetwo,,,,,,,,,,,,,,,,,,,,,,,,,,,,,,,,,,,,,,,,,,,,,,,,,,,,,,,,,,,,,,,,,,,,,,,,,,,,,,,,,,,,,,,,,,,,,,,,,,,,,,,,,,,,,,,,,,,,,,,,,,,,,,,,,,,,,,,,,
,,65d0cbfb1566a1ad19af6f37,2024-02-19_03h20.44.953,kallum_motion_pilot,2023.2.2,Win32,19.96007984,65d0cbfb1566a1ad19af6f37,65d2b6c8f2eece985d8e374c,65d2ba53c4c930283d4b778c,0.1648,0.1649,0,120,120,149,1,seveneight,,,,,,,,,,,,,,,,,,,,,,,,,,,,,,,,,,,,,,,,,,,,,,,,,,,,,,,,,,,,,,,,,,,,,,,,,,,,,,,,,,,,,,,,,,,,,,,,,,,,,,,,,,,,,,,,,,,,,,,,,,,,,,,,,,,,,,,,,
,,65d0cbfb1566a1ad19af6f37,2024-02-19_03h20.44.953,kallum_motion_pilot,2023.2.2,Win32,19.96007984,65d0cbfb1566a1ad19af6f37,65d2b6c8f2eece985d8e374c,65d2ba53c4c930283d4b778c,0.1651,0.1653,0,121,121,32,1,onetwo,,,,,,,,,,,,,,,,,,,,,,,,,,,,,,,,,,,,,,,,,,,,,,,,,,,,,,,,,,,,,,,,,,,,,,,,,,,,,,,,,,,,,,,,,,,,,,,,,,,,,,,,,,,,,,,,,,,,,,,,,,,,,,,,,,,,,,,,,
,,65d0cbfb1566a1ad19af6f37,2024-02-19_03h20.44.953,kallum_motion_pilot,2023.2.2,Win32,19.96007984,65d0cbfb1566a1ad19af6f37,65d2b6c8f2eece985d8e374c,65d2ba53c4c930283d4b778c,0.1655,0.1656,0,122,122,6,1,fourtwo,,,,,,,,,,,,,,,,,,,,,,,,,,,,,,,,,,,,,,,,,,,,,,,,,,,,,,,,,,,,,,,,,,,,,,,,,,,,,,,,,,,,,,,,,,,,,,,,,,,,,,,,,,,,,,,,,,,,,,,,,,,,,,,,,,,,,,,,,
,,65d0cbfb1566a1ad19af6f37,2024-02-19_03h20.44.953,kallum_motion_pilot,2023.2.2,Win32,19.96007984,65d0cbfb1566a1ad19af6f37,65d2b6c8f2eece985d8e374c,65d2ba53c4c930283d4b778c,0.1659,0.166,0,123,123,90,1,sixfive,,,,,,,,,,,,,,,,,,,,,,,,,,,,,,,,,,,,,,,,,,,,,,,,,,,,,,,,,,,,,,,,,,,,,,,,,,,,,,,,,,,,,,,,,,,,,,,,,,,,,,,,,,,,,,,,,,,,,,,,,,,,,,,,,,,,,,,,,
,,65d0cbfb1566a1ad19af6f37,2024-02-19_03h20.44.953,kallum_motion_pilot,2023.2.2,Win32,19.96007984,65d0cbfb1566a1ad19af6f37,65d2b6c8f2eece985d8e374c,65d2ba53c4c930283d4b778c,0.1663,0.1664,0,124,124,147,1,sixeight,,,,,,,,,,,,,,,,,,,,,,,,,,,,,,,,,,,,,,,,,,,,,,,,,,,,,,,,,,,,,,,,,,,,,,,,,,,,,,,,,,,,,,,,,,,,,,,,,,,,,,,,,,,,,,,,,,,,,,,,,,,,,,,,,,,,,,,,,
,,65d0cbfb1566a1ad19af6f37,2024-02-19_03h20.44.953,kallum_motion_pilot,2023.2.2,Win32,19.96007984,65d0cbfb1566a1ad19af6f37,65d2b6c8f2eece985d8e374c,65d2ba53c4c930283d4b778c,0.1668,0.1669,0,125,125,62,1,fourtwo,,,,,,,,,,,,,,,,,,,,,,,,,,,,,,,,,,,,,,,,,,,,,,,,,,,,,,,,,,,,,,,,,,,,,,,,,,,,,,,,,,,,,,,,,,,,,,,,,,,,,,,,,,,,,,,,,,,,,,,,,,,,,,,,,,,,,,,,,
,,65d0cbfb1566a1ad19af6f37,2024-02-19_03h20.44.953,kallum_motion_pilot,2023.2.2,Win32,19.96007984,65d0cbfb1566a1ad19af6f37,65d2b6c8f2eece985d8e374c,65d2ba53c4c930283d4b778c,0.1673,0.1675,0,126,126,98,1,sixfive,,,,,,,,,,,,,,,,,,,,,,,,,,,,,,,,,,,,,,,,,,,,,,,,,,,,,,,,,,,,,,,,,,,,,,,,,,,,,,,,,,,,,,,,,,,,,,,,,,,,,,,,,,,,,,,,,,,,,,,,,,,,,,,,,,,,,,,,,
,,65d0cbfb1566a1ad19af6f37,2024-02-19_03h20.44.953,kallum_motion_pilot,2023.2.2,Win32,19.96007984,65d0cbfb1566a1ad19af6f37,65d2b6c8f2eece985d8e374c,65d2ba53c4c930283d4b778c,0.1677,0.1678,0,127,127,5,1,threefour,,,,,,,,,,,,,,,,,,,,,,,,,,,,,,,,,,,,,,,,,,,,,,,,,,,,,,,,,,,,,,,,,,,,,,,,,,,,,,,,,,,,,,,,,,,,,,,,,,,,,,,,,,,,,,,,,,,,,,,,,,,,,,,,,,,,,,,,,
,,65d0cbfb1566a1ad19af6f37,2024-02-19_03h20.44.953,kallum_motion_pilot,2023.2.2,Win32,19.96007984,65d0cbfb1566a1ad19af6f37,65d2b6c8f2eece985d8e374c,65d2ba53c4c930283d4b778c,0.1681,0.1682,0,128,128,85,1,seveneight,,,,,,,,,,,,,,,,,,,,,,,,,,,,,,,,,,,,,,,,,,,,,,,,,,,,,,,,,,,,,,,,,,,,,,,,,,,,,,,,,,,,,,,,,,,,,,,,,,,,,,,,,,,,,,,,,,,,,,,,,,,,,,,,,,,,,,,,,
,,65d0cbfb1566a1ad19af6f37,2024-02-19_03h20.44.953,kallum_motion_pilot,2023.2.2,Win32,19.96007984,65d0cbfb1566a1ad19af6f37,65d2b6c8f2eece985d8e374c,65d2ba53c4c930283d4b778c,0.1684,0.1686,0,129,129,38,1,fourtwo,,,,,,,,,,,,,,,,,,,,,,,,,,,,,,,,,,,,,,,,,,,,,,,,,,,,,,,,,,,,,,,,,,,,,,,,,,,,,,,,,,,,,,,,,,,,,,,,,,,,,,,,,,,,,,,,,,,,,,,,,,,,,,,,,,,,,,,,,
,,65d0cbfb1566a1ad19af6f37,2024-02-19_03h20.44.953,kallum_motion_pilot,2023.2.2,Win32,19.96007984,65d0cbfb1566a1ad19af6f37,65d2b6c8f2eece985d8e374c,65d2ba53c4c930283d4b778c,0.1689,0.1689,0,130,130,142,1,eightsix,,,,,,,,,,,,,,,,,,,,,,,,,,,,,,,,,,,,,,,,,,,,,,,,,,,,,,,,,,,,,,,,,,,,,,,,,,,,,,,,,,,,,,,,,,,,,,,,,,,,,,,,,,,,,,,,,,,,,,,,,,,,,,,,,,,,,,,,,
,,65d0cbfb1566a1ad19af6f37,2024-02-19_03h20.44.953,kallum_motion_pilot,2023.2.2,Win32,19.96007984,65d0cbfb1566a1ad19af6f37,65d2b6c8f2eece985d8e374c,65d2ba53c4c930283d4b778c,0.1692,0.1694,0,131,131,87,1,eightseven,,,,,,,,,,,,,,,,,,,,,,,,,,,,,,,,,,,,,,,,,,,,,,,,,,,,,,,,,,,,,,,,,,,,,,,,,,,,,,,,,,,,,,,,,,,,,,,,,,,,,,,,,,,,,,,,,,,,,,,,,,,,,,,,,,,,,,,,,
,,65d0cbfb1566a1ad19af6f37,2024-02-19_03h20.44.953,kallum_motion_pilot,2023.2.2,Win32,19.96007984,65d0cbfb1566a1ad19af6f37,65d2b6c8f2eece985d8e374c,65d2ba53c4c930283d4b778c,0.1695,0.1697,0,132,132,83,1,sixeight,,,,,,,,,,,,,,,,,,,,,,,,,,,,,,,,,,,,,,,,,,,,,,,,,,,,,,,,,,,,,,,,,,,,,,,,,,,,,,,,,,,,,,,,,,,,,,,,,,,,,,,,,,,,,,,,,,,,,,,,,,,,,,,,,,,,,,,,,
,,65d0cbfb1566a1ad19af6f37,2024-02-19_03h20.44.953,kallum_motion_pilot,2023.2.2,Win32,19.96007984,65d0cbfb1566a1ad19af6f37,65d2b6c8f2eece985d8e374c,65d2ba53c4c930283d4b778c,0.1699,0.1701,0,133,133,68,1,threeone,,,,,,,,,,,,,,,,,,,,,,,,,,,,,,,,,,,,,,,,,,,,,,,,,,,,,,,,,,,,,,,,,,,,,,,,,,,,,,,,,,,,,,,,,,,,,,,,,,,,,,,,,,,,,,,,,,,,,,,,,,,,,,,,,,,,,,,,,
,,65d0cbfb1566a1ad19af6f37,2024-02-19_03h20.44.953,kallum_motion_pilot,2023.2.2,Win32,19.96007984,65d0cbfb1566a1ad19af6f37,65d2b6c8f2eece985d8e374c,65d2ba53c4c930283d4b778c,0.1704,0.1704,0,134,134,130,1,sixfive,,,,,,,,,,,,,,,,,,,,,,,,,,,,,,,,,,,,,,,,,,,,,,,,,,,,,,,,,,,,,,,,,,,,,,,,,,,,,,,,,,,,,,,,,,,,,,,,,,,,,,,,,,,,,,,,,,,,,,,,,,,,,,,,,,,,,,,,,
,,65d0cbfb1566a1ad19af6f37,2024-02-19_03h20.44.953,kallum_motion_pilot,2023.2.2,Win32,19.96007984,65d0cbfb1566a1ad19af6f37,65d2b6c8f2eece985d8e374c,65d2ba53c4c930283d4b778c,0.1707,0.1708,0,135,135,9,1,onethree,,,,,,,,,,,,,,,,,,,,,,,,,,,,,,,,,,,,,,,,,,,,,,,,,,,,,,,,,,,,,,,,,,,,,,,,,,,,,,,,,,,,,,,,,,,,,,,,,,,,,,,,,,,,,,,,,,,,,,,,,,,,,,,,,,,,,,,,,
,,65d0cbfb1566a1ad19af6f37,2024-02-19_03h20.44.953,kallum_motion_pilot,2023.2.2,Win32,19.96007984,65d0cbfb1566a1ad19af6f37,65d2b6c8f2eece985d8e374c,65d2ba53c4c930283d4b778c,0.1711,0.1711,0,136,136,127,1,eightseven,,,,,,,,,,,,,,,,,,,,,,,,,,,,,,,,,,,,,,,,,,,,,,,,,,,,,,,,,,,,,,,,,,,,,,,,,,,,,,,,,,,,,,,,,,,,,,,,,,,,,,,,,,,,,,,,,,,,,,,,,,,,,,,,,,,,,,,,,
,,65d0cbfb1566a1ad19af6f37,2024-02-19_03h20.44.953,kallum_motion_pilot,2023.2.2,Win32,19.96007984,65d0cbfb1566a1ad19af6f37,65d2b6c8f2eece985d8e374c,65d2ba53c4c930283d4b778c,0.1715,0.1716,0,137,137,7,1,fourthree,,,,,,,,,,,,,,,,,,,,,,,,,,,,,,,,,,,,,,,,,,,,,,,,,,,,,,,,,,,,,,,,,,,,,,,,,,,,,,,,,,,,,,,,,,,,,,,,,,,,,,,,,,,,,,,,,,,,,,,,,,,,,,,,,,,,,,,,,
,,65d0cbfb1566a1ad19af6f37,2024-02-19_03h20.44.953,kallum_motion_pilot,2023.2.2,Win32,19.96007984,65d0cbfb1566a1ad19af6f37,65d2b6c8f2eece985d8e374c,65d2ba53c4c930283d4b778c,0.1718,0.172,0,138,138,75,1,twofour,,,,,,,,,,,,,,,,,,,,,,,,,,,,,,,,,,,,,,,,,,,,,,,,,,,,,,,,,,,,,,,,,,,,,,,,,,,,,,,,,,,,,,,,,,,,,,,,,,,,,,,,,,,,,,,,,,,,,,,,,,,,,,,,,,,,,,,,,
,,65d0cbfb1566a1ad19af6f37,2024-02-19_03h20.44.953,kallum_motion_pilot,2023.2.2,Win32,19.96007984,65d0cbfb1566a1ad19af6f37,65d2b6c8f2eece985d8e374c,65d2ba53c4c930283d4b778c,0.1723,0.1723,0,139,139,139,1,sixeight,,,,,,,,,,,,,,,,,,,,,,,,,,,,,,,,,,,,,,,,,,,,,,,,,,,,,,,,,,,,,,,,,,,,,,,,,,,,,,,,,,,,,,,,,,,,,,,,,,,,,,,,,,,,,,,,,,,,,,,,,,,,,,,,,,,,,,,,,
,,65d0cbfb1566a1ad19af6f37,2024-02-19_03h20.44.953,kallum_motion_pilot,2023.2.2,Win32,19.96007984,65d0cbfb1566a1ad19af6f37,65d2b6c8f2eece985d8e374c,65d2ba53c4c930283d4b778c,0.1726,0.1727,0,140,140,94,1,eightsix,,,,,,,,,,,,,,,,,,,,,,,,,,,,,,,,,,,,,,,,,,,,,,,,,,,,,,,,,,,,,,,,,,,,,,,,,,,,,,,,,,,,,,,,,,,,,,,,,,,,,,,,,,,,,,,,,,,,,,,,,,,,,,,,,,,,,,,,,
,,65d0cbfb1566a1ad19af6f37,2024-02-19_03h20.44.953,kallum_motion_pilot,2023.2.2,Win32,19.96007984,65d0cbfb1566a1ad19af6f37,65d2b6c8f2eece985d8e374c,65d2ba53c4c930283d4b778c,0.173,0.1731,0,141,141,15,1,fourthree,,,,,,,,,,,,,,,,,,,,,,,,,,,,,,,,,,,,,,,,,,,,,,,,,,,,,,,,,,,,,,,,,,,,,,,,,,,,,,,,,,,,,,,,,,,,,,,,,,,,,,,,,,,,,,,,,,,,,,,,,,,,,,,,,,,,,,,,,
,,65d0cbfb1566a1ad19af6f37,2024-02-19_03h20.44.953,kallum_motion_pilot,2023.2.2,Win32,19.96007984,65d0cbfb1566a1ad19af6f37,65d2b6c8f2eece985d8e374c,65d2ba53c4c930283d4b778c,0.1734,0.1735,0,142,142,45,1,threefour,,,,,,,,,,,,,,,,,,,,,,,,,,,,,,,,,,,,,,,,,,,,,,,,,,,,,,,,,,,,,,,,,,,,,,,,,,,,,,,,,,,,,,,,,,,,,,,,,,,,,,,,,,,,,,,,,,,,,,,,,,,,,,,,,,,,,,,,,
,,65d0cbfb1566a1ad19af6f37,2024-02-19_03h20.44.953,kallum_motion_pilot,2023.2.2,Win32,19.96007984,65d0cbfb1566a1ad19af6f37,65d2b6c8f2eece985d8e374c,65d2ba53c4c930283d4b778c,0.1738,0.1739,0,143,143,18,1,twoone,,,,,,,,,,,,,,,,,,,,,,,,,,,,,,,,,,,,,,,,,,,,,,,,,,,,,,,,,,,,,,,,,,,,,,,,,,,,,,,,,,,,,,,,,,,,,,,,,,,,,,,,,,,,,,,,,,,,,,,,,,,,,,,,,,,,,,,,,
,,65d0cbfb1566a1ad19af6f37,2024-02-19_03h20.44.953,kallum_motion_pilot,2023.2.2,Win32,19.96007984,65d0cbfb1566a1ad19af6f37,65d2b6c8f2eece985d8e374c,65d2ba53c4c930283d4b778c,0.1741,0.1743,0,144,144,78,1,fourtwo,,,,,,,,,,,,,,,,,,,,,,,,,,,,,,,,,,,,,,,,,,,,,,,,,,,,,,,,,,,,,,,,,,,,,,,,,,,,,,,,,,,,,,,,,,,,,,,,,,,,,,,,,,,,,,,,,,,,,,,,,,,,,,,,,,,,,,,,,
,,65d0cbfb1566a1ad19af6f37,2024-02-19_03h20.44.953,kallum_motion_pilot,2023.2.2,Win32,19.96007984,65d0cbfb1566a1ad19af6f37,65d2b6c8f2eece985d8e374c,65d2ba53c4c930283d4b778c,0.1745,0.1748,0,145,145,40,1,onetwo,,,,,,,,,,,,,,,,,,,,,,,,,,,,,,,,,,,,,,,,,,,,,,,,,,,,,,,,,,,,,,,,,,,,,,,,,,,,,,,,,,,,,,,,,,,,,,,,,,,,,,,,,,,,,,,,,,,,,,,,,,,,,,,,,,,,,,,,,
,,65d0cbfb1566a1ad19af6f37,2024-02-19_03h20.44.953,kallum_motion_pilot,2023.2.2,Win32,19.96007984,65d0cbfb1566a1ad19af6f37,65d2b6c8f2eece985d8e374c,65d2ba53c4c930283d4b778c,0.1751,0.1752,0,146,146,145,1,fiveseven,,,,,,,,,,,,,,,,,,,,,,,,,,,,,,,,,,,,,,,,,,,,,,,,,,,,,,,,,,,,,,,,,,,,,,,,,,,,,,,,,,,,,,,,,,,,,,,,,,,,,,,,,,,,,,,,,,,,,,,,,,,,,,,,,,,,,,,,,
,,65d0cbfb1566a1ad19af6f37,2024-02-19_03h20.44.953,kallum_motion_pilot,2023.2.2,Win32,19.96007984,65d0cbfb1566a1ad19af6f37,65d2b6c8f2eece985d8e374c,65d2ba53c4c930283d4b778c,0.1755,0.1757,0,147,147,115,1,sixeight,,,,,,,,,,,,,,,,,,,,,,,,,,,,,,,,,,,,,,,,,,,,,,,,,,,,,,,,,,,,,,,,,,,,,,,,,,,,,,,,,,,,,,,,,,,,,,,,,,,,,,,,,,,,,,,,,,,,,,,,,,,,,,,,,,,,,,,,,
,,65d0cbfb1566a1ad19af6f37,2024-02-19_03h20.44.953,kallum_motion_pilot,2023.2.2,Win32,19.96007984,65d0cbfb1566a1ad19af6f37,65d2b6c8f2eece985d8e374c,65d2ba53c4c930283d4b778c,0.1759,0.176,0,148,148,19,1,twofour,,,,,,,,,,,,,,,,,,,,,,,,,,,,,,,,,,,,,,,,,,,,,,,,,,,,,,,,,,,,,,,,,,,,,,,,,,,,,,,,,,,,,,,,,,,,,,,,,,,,,,,,,,,,,,,,,,,,,,,,,,,,,,,,,,,,,,,,,
,,65d0cbfb1566a1ad19af6f37,2024-02-19_03h20.44.953,kallum_motion_pilot,2023.2.2,Win32,19.96007984,65d0cbfb1566a1ad19af6f37,65d2b6c8f2eece985d8e374c,65d2ba53c4c930283d4b778c,0.1763,0.1764,0,149,149,24,1,onetwo,,,,,,,,,,,,,,,,,,,,,,,,,,,,,,,,,,,,,,,,,,,,,,,,,,,,,,,,,,,,,,,,,,,,,,,,,,,,,,,,,,,,,,,,,,,,,,,,,,,,,,,,,,,,,,,,,,,,,,,,,,,,,,,,,,,,,,,,,
,,65d0cbfb1566a1ad19af6f37,2024-02-19_03h20.44.953,kallum_motion_pilot,2023.2.2,Win32,19.96007984,65d0cbfb1566a1ad19af6f37,65d2b6c8f2eece985d8e374c,65d2ba53c4c930283d4b778c,0.1766,0.1768,0,150,150,137,1,fiveseven,,,,,,,,,,,,,,,,,,,,,,,,,,,,,,,,,,,,,,,,,,,,,,,,,,,,,,,,,,,,,,,,,,,,,,,,,,,,,,,,,,,,,,,,,,,,,,,,,,,,,,,,,,,,,,,,,,,,,,,,,,,,,,,,,,,,,,,,,
,,65d0cbfb1566a1ad19af6f37,2024-02-19_03h20.44.953,kallum_motion_pilot,2023.2.2,Win32,19.96007984,65d0cbfb1566a1ad19af6f37,65d2b6c8f2eece985d8e374c,65d2ba53c4c930283d4b778c,0.1771,0.1772,0,151,151,36,1,threeone,,,,,,,,,,,,,,,,,,,,,,,,,,,,,,,,,,,,,,,,,,,,,,,,,,,,,,,,,,,,,,,,,,,,,,,,,,,,,,,,,,,,,,,,,,,,,,,,,,,,,,,,,,,,,,,,,,,,,,,,,,,,,,,,,,,,,,,,,
,,65d0cbfb1566a1ad19af6f37,2024-02-19_03h20.44.953,kallum_motion_pilot,2023.2.2,Win32,19.96007984,65d0cbfb1566a1ad19af6f37,65d2b6c8f2eece985d8e374c,65d2ba53c4c930283d4b778c,0.1775,0.1776,0,152,152,155,1,sixeight,,,,,,,,,,,,,,,,,,,,,,,,,,,,,,,,,,,,,,,,,,,,,,,,,,,,,,,,,,,,,,,,,,,,,,,,,,,,,,,,,,,,,,,,,,,,,,,,,,,,,,,,,,,,,,,,,,,,,,,,,,,,,,,,,,,,,,,,,
,,65d0cbfb1566a1ad19af6f37,2024-02-19_03h20.44.953,kallum_motion_pilot,2023.2.2,Win32,19.96007984,65d0cbfb1566a1ad19af6f37,65d2b6c8f2eece985d8e374c,65d2ba53c4c930283d4b778c,0.1779,0.178,0,153,153,81,1,fiveseven,,,,,,,,,,,,,,,,,,,,,,,,,,,,,,,,,,,,,,,,,,,,,,,,,,,,,,,,,,,,,,,,,,,,,,,,,,,,,,,,,,,,,,,,,,,,,,,,,,,,,,,,,,,,,,,,,,,,,,,,,,,,,,,,,,,,,,,,,
,,65d0cbfb1566a1ad19af6f37,2024-02-19_03h20.44.953,kallum_motion_pilot,2023.2.2,Win32,19.96007984,65d0cbfb1566a1ad19af6f37,65d2b6c8f2eece985d8e374c,65d2ba53c4c930283d4b778c,0.1783,0.1784,0,154,154,111,1,eightseven,,,,,,,,,,,,,,,,,,,,,,,,,,,,,,,,,,,,,,,,,,,,,,,,,,,,,,,,,,,,,,,,,,,,,,,,,,,,,,,,,,,,,,,,,,,,,,,,,,,,,,,,,,,,,,,,,,,,,,,,,,,,,,,,,,,,,,,,,
,,65d0cbfb1566a1ad19af6f37,2024-02-19_03h20.44.953,kallum_motion_pilot,2023.2.2,Win32,19.96007984,65d0cbfb1566a1ad19af6f37,65d2b6c8f2eece985d8e374c,65d2ba53c4c930283d4b778c,0.1787,0.179,0,155,155,107,1,sixeight,,,,,,,,,,,,,,,,,,,,,,,,,,,,,,,,,,,,,,,,,,,,,,,,,,,,,,,,,,,,,,,,,,,,,,,,,,,,,,,,,,,,,,,,,,,,,,,,,,,,,,,,,,,,,,,,,,,,,,,,,,,,,,,,,,,,,,,,,
,,65d0cbfb1566a1ad19af6f37,2024-02-19_03h20.44.953,kallum_motion_pilot,2023.2.2,Win32,19.96007984,65d0cbfb1566a1ad19af6f37,65d2b6c8f2eece985d8e374c,65d2ba53c4c930283d4b778c,0.1792,0.1793,0,156,156,13,1,threefour,,,,,,,,,,,,,,,,,,,,,,,,,,,,,,,,,,,,,,,,,,,,,,,,,,,,,,,,,,,,,,,,,,,,,,,,,,,,,,,,,,,,,,,,,,,,,,,,,,,,,,,,,,,,,,,,,,,,,,,,,,,,,,,,,,,,,,,,,
,,65d0cbfb1566a1ad19af6f37,2024-02-19_03h20.44.953,kallum_motion_pilot,2023.2.2,Win32,19.96007984,65d0cbfb1566a1ad19af6f37,65d2b6c8f2eece985d8e374c,65d2ba53c4c930283d4b778c,0.1796,0.1797,0,157,157,100,1,sevenfive,,,,,,,,,,,,,,,,,,,,,,,,,,,,,,,,,,,,,,,,,,,,,,,,,,,,,,,,,,,,,,,,,,,,,,,,,,,,,,,,,,,,,,,,,,,,,,,,,,,,,,,,,,,,,,,,,,,,,,,,,,,,,,,,,,,,,,,,,
,,65d0cbfb1566a1ad19af6f37,2024-02-19_03h20.44.953,kallum_motion_pilot,2023.2.2,Win32,19.96007984,65d0cbfb1566a1ad19af6f37,65d2b6c8f2eece985d8e374c,65d2ba53c4c930283d4b778c,0.18,0.18,0,158,158,126,1,eightsix,,,,,,,,,,,,,,,,,,,,,,,,,,,,,,,,,,,,,,,,,,,,,,,,,,,,,,,,,,,,,,,,,,,,,,,,,,,,,,,,,,,,,,,,,,,,,,,,,,,,,,,,,,,,,,,,,,,,,,,,,,,,,,,,,,,,,,,,,
,,65d0cbfb1566a1ad19af6f37,2024-02-19_03h20.44.953,kallum_motion_pilot,2023.2.2,Win32,19.96007984,65d0cbfb1566a1ad19af6f37,65d2b6c8f2eece985d8e374c,65d2ba53c4c930283d4b778c,0.1804,0.1804,0,159,159,108,1,sevenfive,,,,,,,,,,,,,,,,,,,,,,,,,,,,,,,,,,,,,,,,,,,,,,,,,,,,,,,,,,,,,,,,,,,,,,,,,,,,,,,,,,,,,,,,,,,,,,,,,,,,,,,,,,,,,,,,,,,,,,,,,,,,,,,,,,,,,,,,,
,,65d0cbfb1566a1ad19af6f37,2024-02-19_03h20.44.953,kallum_motion_pilot,2023.2.2,Win32,19.96007984,65d0cbfb1566a1ad19af6f37,65d2b6c8f2eece985d8e374c,65d2ba53c4c930283d4b778c,0.1807,0.1809,0,160,160,52,1,threeone,,,,,,,,,,,,,,,,,,,,,,,,,,,,,,,,,,,,,,,,,,,,,,,,,,,,,,,,,,,,,,,,,,,,,,,,,,,,,,,,,,,,,,,,,,,,,,,,,,,,,,,,,,,,,,,,,,,,,,,,,,,,,,,,,,,,,,,,,
,,65d0cbfb1566a1ad19af6f37,2024-02-19_03h20.44.953,kallum_motion_pilot,2023.2.2,Win32,19.96007984,65d0cbfb1566a1ad19af6f37,65d2b6c8f2eece985d8e374c,65d2ba53c4c930283d4b778c,0.1811,0.1813,0,161,161,128,1,fivesix,,,,,,,,,,,,,,,,,,,,,,,,,,,,,,,,,,,,,,,,,,,,,,,,,,,,,,,,,,,,,,,,,,,,,,,,,,,,,,,,,,,,,,,,,,,,,,,,,,,,,,,,,,,,,,,,,,,,,,,,,,,,,,,,,,,,,,,,,
,,65d0cbfb1566a1ad19af6f37,2024-02-19_03h20.44.953,kallum_motion_pilot,2023.2.2,Win32,19.96007984,65d0cbfb1566a1ad19af6f37,65d2b6c8f2eece985d8e374c,65d2ba53c4c930283d4b778c,0.1815,0.1817,1,0,162,92,1,sevenfive,,,,,,,,,,,,,,,,,,,,,,,,,,,,,,,,,,,,,,,,,,,,,,,,,,,,,,,,,,,,,,,,,,,,,,,,,,,,,,,,,,,,,,,,,,,,,,,,,,,,,,,,,,,,,,,,,,,,,,,,,,,,,,,,,,,,,,,,,
,,65d0cbfb1566a1ad19af6f37,2024-02-19_03h20.44.953,kallum_motion_pilot,2023.2.2,Win32,19.96007984,65d0cbfb1566a1ad19af6f37,65d2b6c8f2eece985d8e374c,65d2ba53c4c930283d4b778c,0.1819,0.1821,1,1,163,50,1,twoone,,,,,,,,,,,,,,,,,,,,,,,,,,,,,,,,,,,,,,,,,,,,,,,,,,,,,,,,,,,,,,,,,,,,,,,,,,,,,,,,,,,,,,,,,,,,,,,,,,,,,,,,,,,,,,,,,,,,,,,,,,,,,,,,,,,,,,,,,
,,65d0cbfb1566a1ad19af6f37,2024-02-19_03h20.44.953,kallum_motion_pilot,2023.2.2,Win32,19.96007984,65d0cbfb1566a1ad19af6f37,65d2b6c8f2eece985d8e374c,65d2ba53c4c930283d4b778c,0.1829,0.1831,1,2,164,133,1,seveneight,,,,,,,,,,,,,,,,,,,,,,,,,,,,,,,,,,,,,,,,,,,,,,,,,,,,,,,,,,,,,,,,,,,,,,,,,,,,,,,,,,,,,,,,,,,,,,,,,,,,,,,,,,,,,,,,,,,,,,,,,,,,,,,,,,,,,,,,,
,,65d0cbfb1566a1ad19af6f37,2024-02-19_03h20.44.953,kallum_motion_pilot,2023.2.2,Win32,19.96007984,65d0cbfb1566a1ad19af6f37,65d2b6c8f2eece985d8e374c,65d2ba53c4c930283d4b778c,0.1834,0.1835,1,3,165,54,1,fourtwo,,,,,,,,,,,,,,,,,,,,,,,,,,,,,,,,,,,,,,,,,,,,,,,,,,,,,,,,,,,,,,,,,,,,,,,,,,,,,,,,,,,,,,,,,,,,,,,,,,,,,,,,,,,,,,,,,,,,,,,,,,,,,,,,,,,,,,,,,
,,65d0cbfb1566a1ad19af6f37,2024-02-19_03h20.44.953,kallum_motion_pilot,2023.2.2,Win32,19.96007984,65d0cbfb1566a1ad19af6f37,65d2b6c8f2eece985d8e374c,65d2ba53c4c930283d4b778c,0.1838,0.1839,1,4,166,67,1,twofour,,,,,,,,,,,,,,,,,,,,,,,,,,,,,,,,,,,,,,,,,,,,,,,,,,,,,,,,,,,,,,,,,,,,,,,,,,,,,,,,,,,,,,,,,,,,,,,,,,,,,,,,,,,,,,,,,,,,,,,,,,,,,,,,,,,,,,,,,
,,65d0cbfb1566a1ad19af6f37,2024-02-19_03h20.44.953,kallum_motion_pilot,2023.2.2,Win32,19.96007984,65d0cbfb1566a1ad19af6f37,65d2b6c8f2eece985d8e374c,65d2ba53c4c930283d4b778c,0.1841,0.1843,1,5,167,101,1,seveneight,,,,,,,,,,,,,,,,,,,,,,,,,,,,,,,,,,,,,,,,,,,,,,,,,,,,,,,,,,,,,,,,,,,,,,,,,,,,,,,,,,,,,,,,,,,,,,,,,,,,,,,,,,,,,,,,,,,,,,,,,,,,,,,,,,,,,,,,,
,,65d0cbfb1566a1ad19af6f37,2024-02-19_03h20.44.953,kallum_motion_pilot,2023.2.2,Win32,19.96007984,65d0cbfb1566a1ad19af6f37,65d2b6c8f2eece985d8e374c,65d2ba53c4c930283d4b778c,0.1846,0.1847,1,6,168,113,1,fiveseven,,,,,,,,,,,,,,,,,,,,,,,,,,,,,,,,,,,,,,,,,,,,,,,,,,,,,,,,,,,,,,,,,,,,,,,,,,,,,,,,,,,,,,,,,,,,,,,,,,,,,,,,,,,,,,,,,,,,,,,,,,,,,,,,,,,,,,,,,
,,65d0cbfb1566a1ad19af6f37,2024-02-19_03h20.44.953,kallum_motion_pilot,2023.2.2,Win32,19.96007984,65d0cbfb1566a1ad19af6f37,65d2b6c8f2eece985d8e374c,65d2ba53c4c930283d4b778c,0.1849,0.1851,1,7,169,26,1,twoone,,,,,,,,,,,,,,,,,,,,,,,,,,,,,,,,,,,,,,,,,,,,,,,,,,,,,,,,,,,,,,,,,,,,,,,,,,,,,,,,,,,,,,,,,,,,,,,,,,,,,,,,,,,,,,,,,,,,,,,,,,,,,,,,,,,,,,,,,
,,65d0cbfb1566a1ad19af6f37,2024-02-19_03h20.44.953,kallum_motion_pilot,2023.2.2,Win32,19.96007984,65d0cbfb1566a1ad19af6f37,65d2b6c8f2eece985d8e374c,65d2ba53c4c930283d4b778c,0.1854,0.1855,1,8,170,82,1,sixfive,,,,,,,,,,,,,,,,,,,,,,,,,,,,,,,,,,,,,,,,,,,,,,,,,,,,,,,,,,,,,,,,,,,,,,,,,,,,,,,,,,,,,,,,,,,,,,,,,,,,,,,,,,,,,,,,,,,,,,,,,,,,,,,,,,,,,,,,,
,,65d0cbfb1566a1ad19af6f37,2024-02-19_03h20.44.953,kallum_motion_pilot,2023.2.2,Win32,19.96007984,65d0cbfb1566a1ad19af6f37,65d2b6c8f2eece985d8e374c,65d2ba53c4c930283d4b778c,0.1858,0.1859,1,9,171,62,1,fourtwo,,,,,,,,,,,,,,,,,,,,,,,,,,,,,,,,,,,,,,,,,,,,,,,,,,,,,,,,,,,,,,,,,,,,,,,,,,,,,,,,,,,,,,,,,,,,,,,,,,,,,,,,,,,,,,,,,,,,,,,,,,,,,,,,,,,,,,,,,
,,65d0cbfb1566a1ad19af6f37,2024-02-19_03h20.44.953,kallum_motion_pilot,2023.2.2,Win32,19.96007984,65d0cbfb1566a1ad19af6f37,65d2b6c8f2eece985d8e374c,65d2ba53c4c930283d4b778c,0.1862,0.1864,1,10,172,126,1,eightsix,,,,,,,,,,,,,,,,,,,,,,,,,,,,,,,,,,,,,,,,,,,,,,,,,,,,,,,,,,,,,,,,,,,,,,,,,,,,,,,,,,,,,,,,,,,,,,,,,,,,,,,,,,,,,,,,,,,,,,,,,,,,,,,,,,,,,,,,,
,,65d0cbfb1566a1ad19af6f37,2024-02-19_03h20.44.953,kallum_motion_pilot,2023.2.2,Win32,19.96007984,65d0cbfb1566a1ad19af6f37,65d2b6c8f2eece985d8e374c,65d2ba53c4c930283d4b778c,0.1866,0.1867,1,11,173,59,1,twofour,,,,,,,,,,,,,,,,,,,,,,,,,,,,,,,,,,,,,,,,,,,,,,,,,,,,,,,,,,,,,,,,,,,,,,,,,,,,,,,,,,,,,,,,,,,,,,,,,,,,,,,,,,,,,,,,,,,,,,,,,,,,,,,,,,,,,,,,,
,,65d0cbfb1566a1ad19af6f37,2024-02-19_03h20.44.953,kallum_motion_pilot,2023.2.2,Win32,19.96007984,65d0cbfb1566a1ad19af6f37,65d2b6c8f2eece985d8e374c,65d2ba53c4c930283d4b778c,0.187,0.1871,1,12,174,112,1,fivesix,,,,,,,,,,,,,,,,,,,,,,,,,,,,,,,,,,,,,,,,,,,,,,,,,,,,,,,,,,,,,,,,,,,,,,,,,,,,,,,,,,,,,,,,,,,,,,,,,,,,,,,,,,,,,,,,,,,,,,,,,,,,,,,,,,,,,,,,,
,,65d0cbfb1566a1ad19af6f37,2024-02-19_03h20.44.953,kallum_motion_pilot,2023.2.2,Win32,19.96007984,65d0cbfb1566a1ad19af6f37,65d2b6c8f2eece985d8e374c,65d2ba53c4c930283d4b778c,0.1874,0.1876,1,13,175,63,1,fourthree,,,,,,,,,,,,,,,,,,,,,,,,,,,,,,,,,,,,,,,,,,,,,,,,,,,,,,,,,,,,,,,,,,,,,,,,,,,,,,,,,,,,,,,,,,,,,,,,,,,,,,,,,,,,,,,,,,,,,,,,,,,,,,,,,,,,,,,,,
,,65d0cbfb1566a1ad19af6f37,2024-02-19_03h20.44.953,kallum_motion_pilot,2023.2.2,Win32,19.96007984,65d0cbfb1566a1ad19af6f37,65d2b6c8f2eece985d8e374c,65d2ba53c4c930283d4b778c,0.1878,0.1879,1,14,176,17,1,onethree,,,,,,,,,,,,,,,,,,,,,,,,,,,,,,,,,,,,,,,,,,,,,,,,,,,,,,,,,,,,,,,,,,,,,,,,,,,,,,,,,,,,,,,,,,,,,,,,,,,,,,,,,,,,,,,,,,,,,,,,,,,,,,,,,,,,,,,,,
,,65d0cbfb1566a1ad19af6f37,2024-02-19_03h20.44.953,kallum_motion_pilot,2023.2.2,Win32,19.96007984,65d0cbfb1566a1ad19af6f37,65d2b6c8f2eece985d8e374c,65d2ba53c4c930283d4b778c,0.1881,0.1884,1,15,177,14,1,fourtwo,,,,,,,,,,,,,,,,,,,,,,,,,,,,,,,,,,,,,,,,,,,,,,,,,,,,,,,,,,,,,,,,,,,,,,,,,,,,,,,,,,,,,,,,,,,,,,,,,,,,,,,,,,,,,,,,,,,,,,,,,,,,,,,,,,,,,,,,,
,,65d0cbfb1566a1ad19af6f37,2024-02-19_03h20.44.953,kallum_motion_pilot,2023.2.2,Win32,19.96007984,65d0cbfb1566a1ad19af6f37,65d2b6c8f2eece985d8e374c,65d2ba53c4c930283d4b778c,0.1886,0.1887,1,16,178,148,1,sevenfive,,,,,,,,,,,,,,,,,,,,,,,,,,,,,,,,,,,,,,,,,,,,,,,,,,,,,,,,,,,,,,,,,,,,,,,,,,,,,,,,,,,,,,,,,,,,,,,,,,,,,,,,,,,,,,,,,,,,,,,,,,,,,,,,,,,,,,,,,
,,65d0cbfb1566a1ad19af6f37,2024-02-19_03h20.44.953,kallum_motion_pilot,2023.2.2,Win32,19.96007984,65d0cbfb1566a1ad19af6f37,65d2b6c8f2eece985d8e374c,65d2ba53c4c930283d4b778c,0.189,0.1892,1,17,179,155,1,sixeight,,,,,,,,,,,,,,,,,,,,,,,,,,,,,,,,,,,,,,,,,,,,,,,,,,,,,,,,,,,,,,,,,,,,,,,,,,,,,,,,,,,,,,,,,,,,,,,,,,,,,,,,,,,,,,,,,,,,,,,,,,,,,,,,,,,,,,,,,
,,65d0cbfb1566a1ad19af6f37,2024-02-19_03h20.44.953,kallum_motion_pilot,2023.2.2,Win32,19.96007984,65d0cbfb1566a1ad19af6f37,65d2b6c8f2eece985d8e374c,65d2ba53c4c930283d4b778c,0.1895,0.1896,1,18,180,86,1,eightsix,,,,,,,,,,,,,,,,,,,,,,,,,,,,,,,,,,,,,,,,,,,,,,,,,,,,,,,,,,,,,,,,,,,,,,,,,,,,,,,,,,,,,,,,,,,,,,,,,,,,,,,,,,,,,,,,,,,,,,,,,,,,,,,,,,,,,,,,,
,,65d0cbfb1566a1ad19af6f37,2024-02-19_03h20.44.953,kallum_motion_pilot,2023.2.2,Win32,19.96007984,65d0cbfb1566a1ad19af6f37,65d2b6c8f2eece985d8e374c,65d2ba53c4c930283d4b778c,0.1899,0.1901,1,19,181,149,1,seveneight,,,,,,,,,,,,,,,,,,,,,,,,,,,,,,,,,,,,,,,,,,,,,,,,,,,,,,,,,,,,,,,,,,,,,,,,,,,,,,,,,,,,,,,,,,,,,,,,,,,,,,,,,,,,,,,,,,,,,,,,,,,,,,,,,,,,,,,,,
,,65d0cbfb1566a1ad19af6f37,2024-02-19_03h20.44.953,kallum_motion_pilot,2023.2.2,Win32,19.96007984,65d0cbfb1566a1ad19af6f37,65d2b6c8f2eece985d8e374c,65d2ba53c4c930283d4b778c,0.1903,0.1905,1,20,182,154,1,sixfive,,,,,,,,,,,,,,,,,,,,,,,,,,,,,,,,,,,,,,,,,,,,,,,,,,,,,,,,,,,,,,,,,,,,,,,,,,,,,,,,,,,,,,,,,,,,,,,,,,,,,,,,,,,,,,,,,,,,,,,,,,,,,,,,,,,,,,,,,
,,65d0cbfb1566a1ad19af6f37,2024-02-19_03h20.44.953,kallum_motion_pilot,2023.2.2,Win32,19.96007984,65d0cbfb1566a1ad19af6f37,65d2b6c8f2eece985d8e374c,65d2ba53c4c930283d4b778c,0.1907,0.1909,1,21,183,36,1,threeone,,,,,,,,,,,,,,,,,,,,,,,,,,,,,,,,,,,,,,,,,,,,,,,,,,,,,,,,,,,,,,,,,,,,,,,,,,,,,,,,,,,,,,,,,,,,,,,,,,,,,,,,,,,,,,,,,,,,,,,,,,,,,,,,,,,,,,,,,
,,65d0cbfb1566a1ad19af6f37,2024-02-19_03h20.44.953,kallum_motion_pilot,2023.2.2,Win32,19.96007984,65d0cbfb1566a1ad19af6f37,65d2b6c8f2eece985d8e374c,65d2ba53c4c930283d4b778c,0.1913,0.1914,1,22,184,73,1,onethree,,,,,,,,,,,,,,,,,,,,,,,,,,,,,,,,,,,,,,,,,,,,,,,,,,,,,,,,,,,,,,,,,,,,,,,,,,,,,,,,,,,,,,,,,,,,,,,,,,,,,,,,,,,,,,,,,,,,,,,,,,,,,,,,,,,,,,,,,
,,65d0cbfb1566a1ad19af6f37,2024-02-19_03h20.44.953,kallum_motion_pilot,2023.2.2,Win32,19.96007984,65d0cbfb1566a1ad19af6f37,65d2b6c8f2eece985d8e374c,65d2ba53c4c930283d4b778c,0.1919,0.1921,1,23,185,15,1,fourthree,,,,,,,,,,,,,,,,,,,,,,,,,,,,,,,,,,,,,,,,,,,,,,,,,,,,,,,,,,,,,,,,,,,,,,,,,,,,,,,,,,,,,,,,,,,,,,,,,,,,,,,,,,,,,,,,,,,,,,,,,,,,,,,,,,,,,,,,,
,,65d0cbfb1566a1ad19af6f37,2024-02-19_03h20.44.953,kallum_motion_pilot,2023.2.2,Win32,19.96007984,65d0cbfb1566a1ad19af6f37,65d2b6c8f2eece985d8e374c,65d2ba53c4c930283d4b778c,0.1924,0.1925,1,24,186,157,1,seveneight,,,,,,,,,,,,,,,,,,,,,,,,,,,,,,,,,,,,,,,,,,,,,,,,,,,,,,,,,,,,,,,,,,,,,,,,,,,,,,,,,,,,,,,,,,,,,,,,,,,,,,,,,,,,,,,,,,,,,,,,,,,,,,,,,,,,,,,,,
,,65d0cbfb1566a1ad19af6f37,2024-02-19_03h20.44.953,kallum_motion_pilot,2023.2.2,Win32,19.96007984,65d0cbfb1566a1ad19af6f37,65d2b6c8f2eece985d8e374c,65d2ba53c4c930283d4b778c,0.1928,0.193,1,25,187,81,1,fiveseven,,,,,,,,,,,,,,,,,,,,,,,,,,,,,,,,,,,,,,,,,,,,,,,,,,,,,,,,,,,,,,,,,,,,,,,,,,,,,,,,,,,,,,,,,,,,,,,,,,,,,,,,,,,,,,,,,,,,,,,,,,,,,,,,,,,,,,,,,
,,65d0cbfb1566a1ad19af6f37,2024-02-19_03h20.44.953,kallum_motion_pilot,2023.2.2,Win32,19.96007984,65d0cbfb1566a1ad19af6f37,65d2b6c8f2eece985d8e374c,65d2ba53c4c930283d4b778c,0.1932,0.1933,1,26,188,76,1,threeone,,,,,,,,,,,,,,,,,,,,,,,,,,,,,,,,,,,,,,,,,,,,,,,,,,,,,,,,,,,,,,,,,,,,,,,,,,,,,,,,,,,,,,,,,,,,,,,,,,,,,,,,,,,,,,,,,,,,,,,,,,,,,,,,,,,,,,,,,
,,65d0cbfb1566a1ad19af6f37,2024-02-19_03h20.44.953,kallum_motion_pilot,2023.2.2,Win32,19.96007984,65d0cbfb1566a1ad19af6f37,65d2b6c8f2eece985d8e374c,65d2ba53c4c930283d4b778c,0.1937,0.194,1,27,189,139,1,sixeight,,,,,,,,,,,,,,,,,,,,,,,,,,,,,,,,,,,,,,,,,,,,,,,,,,,,,,,,,,,,,,,,,,,,,,,,,,,,,,,,,,,,,,,,,,,,,,,,,,,,,,,,,,,,,,,,,,,,,,,,,,,,,,,,,,,,,,,,,
,,65d0cbfb1566a1ad19af6f37,2024-02-19_03h20.44.953,kallum_motion_pilot,2023.2.2,Win32,19.96007984,65d0cbfb1566a1ad19af6f37,65d2b6c8f2eece985d8e374c,65d2ba53c4c930283d4b778c,0.1943,0.1945,1,28,190,93,1,seveneight,,,,,,,,,,,,,,,,,,,,,,,,,,,,,,,,,,,,,,,,,,,,,,,,,,,,,,,,,,,,,,,,,,,,,,,,,,,,,,,,,,,,,,,,,,,,,,,,,,,,,,,,,,,,,,,,,,,,,,,,,,,,,,,,,,,,,,,,,
,,65d0cbfb1566a1ad19af6f37,2024-02-19_03h20.44.953,kallum_motion_pilot,2023.2.2,Win32,19.96007984,65d0cbfb1566a1ad19af6f37,65d2b6c8f2eece985d8e374c,65d2ba53c4c930283d4b778c,0.1948,0.1951,1,29,191,129,1,fiveseven,,,,,,,,,,,,,,,,,,,,,,,,,,,,,,,,,,,,,,,,,,,,,,,,,,,,,,,,,,,,,,,,,,,,,,,,,,,,,,,,,,,,,,,,,,,,,,,,,,,,,,,,,,,,,,,,,,,,,,,,,,,,,,,,,,,,,,,,,
,,65d0cbfb1566a1ad19af6f37,2024-02-19_03h20.44.953,kallum_motion_pilot,2023.2.2,Win32,19.96007984,65d0cbfb1566a1ad19af6f37,65d2b6c8f2eece985d8e374c,65d2ba53c4c930283d4b778c,0.1954,0.1956,1,30,192,55,1,fourthree,,,,,,,,,,,,,,,,,,,,,,,,,,,,,,,,,,,,,,,,,,,,,,,,,,,,,,,,,,,,,,,,,,,,,,,,,,,,,,,,,,,,,,,,,,,,,,,,,,,,,,,,,,,,,,,,,,,,,,,,,,,,,,,,,,,,,,,,,
,,65d0cbfb1566a1ad19af6f37,2024-02-19_03h20.44.953,kallum_motion_pilot,2023.2.2,Win32,19.96007984,65d0cbfb1566a1ad19af6f37,65d2b6c8f2eece985d8e374c,65d2ba53c4c930283d4b778c,0.1958,0.1961,1,31,193,102,1,eightsix,,,,,,,,,,,,,,,,,,,,,,,,,,,,,,,,,,,,,,,,,,,,,,,,,,,,,,,,,,,,,,,,,,,,,,,,,,,,,,,,,,,,,,,,,,,,,,,,,,,,,,,,,,,,,,,,,,,,,,,,,,,,,,,,,,,,,,,,,
,,65d0cbfb1566a1ad19af6f37,2024-02-19_03h20.44.953,kallum_motion_pilot,2023.2.2,Win32,19.96007984,65d0cbfb1566a1ad19af6f37,65d2b6c8f2eece985d8e374c,65d2ba53c4c930283d4b778c,0.1964,0.1967,1,32,194,66,1,twoone,,,,,,,,,,,,,,,,,,,,,,,,,,,,,,,,,,,,,,,,,,,,,,,,,,,,,,,,,,,,,,,,,,,,,,,,,,,,,,,,,,,,,,,,,,,,,,,,,,,,,,,,,,,,,,,,,,,,,,,,,,,,,,,,,,,,,,,,,
,,65d0cbfb1566a1ad19af6f37,2024-02-19_03h20.44.953,kallum_motion_pilot,2023.2.2,Win32,19.96007984,65d0cbfb1566a1ad19af6f37,65d2b6c8f2eece985d8e374c,65d2ba53c4c930283d4b778c,0.197,0.1972,1,33,195,88,1,fivesix,,,,,,,,,,,,,,,,,,,,,,,,,,,,,,,,,,,,,,,,,,,,,,,,,,,,,,,,,,,,,,,,,,,,,,,,,,,,,,,,,,,,,,,,,,,,,,,,,,,,,,,,,,,,,,,,,,,,,,,,,,,,,,,,,,,,,,,,,
,,65d0cbfb1566a1ad19af6f37,2024-02-19_03h20.44.953,kallum_motion_pilot,2023.2.2,Win32,19.96007984,65d0cbfb1566a1ad19af6f37,65d2b6c8f2eece985d8e374c,65d2ba53c4c930283d4b778c,0.1976,0.1979,1,34,196,90,1,sixfive,,,,,,,,,,,,,,,,,,,,,,,,,,,,,,,,,,,,,,,,,,,,,,,,,,,,,,,,,,,,,,,,,,,,,,,,,,,,,,,,,,,,,,,,,,,,,,,,,,,,,,,,,,,,,,,,,,,,,,,,,,,,,,,,,,,,,,,,,
,,65d0cbfb1566a1ad19af6f37,2024-02-19_03h20.44.953,kallum_motion_pilot,2023.2.2,Win32,19.96007984,65d0cbfb1566a1ad19af6f37,65d2b6c8f2eece985d8e374c,65d2ba53c4c930283d4b778c,0.1982,0.1984,1,35,197,142,1,eightsix,,,,,,,,,,,,,,,,,,,,,,,,,,,,,,,,,,,,,,,,,,,,,,,,,,,,,,,,,,,,,,,,,,,,,,,,,,,,,,,,,,,,,,,,,,,,,,,,,,,,,,,,,,,,,,,,,,,,,,,,,,,,,,,,,,,,,,,,,
,,65d0cbfb1566a1ad19af6f37,2024-02-19_03h20.44.953,kallum_motion_pilot,2023.2.2,Win32,19.96007984,65d0cbfb1566a1ad19af6f37,65d2b6c8f2eece985d8e374c,65d2ba53c4c930283d4b778c,0.1987,0.1991,1,36,198,40,1,onetwo,,,,,,,,,,,,,,,,,,,,,,,,,,,,,,,,,,,,,,,,,,,,,,,,,,,,,,,,,,,,,,,,,,,,,,,,,,,,,,,,,,,,,,,,,,,,,,,,,,,,,,,,,,,,,,,,,,,,,,,,,,,,,,,,,,,,,,,,,
,,65d0cbfb1566a1ad19af6f37,2024-02-19_03h20.44.953,kallum_motion_pilot,2023.2.2,Win32,19.96007984,65d0cbfb1566a1ad19af6f37,65d2b6c8f2eece985d8e374c,65d2ba53c4c930283d4b778c,0.1995,0.1997,1,37,199,47,1,fourthree,,,,,,,,,,,,,,,,,,,,,,,,,,,,,,,,,,,,,,,,,,,,,,,,,,,,,,,,,,,,,,,,,,,,,,,,,,,,,,,,,,,,,,,,,,,,,,,,,,,,,,,,,,,,,,,,,,,,,,,,,,,,,,,,,,,,,,,,,
,,65d0cbfb1566a1ad19af6f37,2024-02-19_03h20.44.953,kallum_motion_pilot,2023.2.2,Win32,19.96007984,65d0cbfb1566a1ad19af6f37,65d2b6c8f2eece985d8e374c,65d2ba53c4c930283d4b778c,0.2,0.2003,1,38,200,95,1,eightseven,,,,,,,,,,,,,,,,,,,,,,,,,,,,,,,,,,,,,,,,,,,,,,,,,,,,,,,,,,,,,,,,,,,,,,,,,,,,,,,,,,,,,,,,,,,,,,,,,,,,,,,,,,,,,,,,,,,,,,,,,,,,,,,,,,,,,,,,,
,,65d0cbfb1566a1ad19af6f37,2024-02-19_03h20.44.953,kallum_motion_pilot,2023.2.2,Win32,19.96007984,65d0cbfb1566a1ad19af6f37,65d2b6c8f2eece985d8e374c,65d2ba53c4c930283d4b778c,0.2006,0.201,1,39,201,0,1,onetwo,,,,,,,,,,,,,,,,,,,,,,,,,,,,,,,,,,,,,,,,,,,,,,,,,,,,,,,,,,,,,,,,,,,,,,,,,,,,,,,,,,,,,,,,,,,,,,,,,,,,,,,,,,,,,,,,,,,,,,,,,,,,,,,,,,,,,,,,,
,,65d0cbfb1566a1ad19af6f37,2024-02-19_03h20.44.953,kallum_motion_pilot,2023.2.2,Win32,19.96007984,65d0cbfb1566a1ad19af6f37,65d2b6c8f2eece985d8e374c,65d2ba53c4c930283d4b778c,0.2013,0.2016,1,40,202,138,1,sixfive,,,,,,,,,,,,,,,,,,,,,,,,,,,,,,,,,,,,,,,,,,,,,,,,,,,,,,,,,,,,,,,,,,,,,,,,,,,,,,,,,,,,,,,,,,,,,,,,,,,,,,,,,,,,,,,,,,,,,,,,,,,,,,,,,,,,,,,,,
,,65d0cbfb1566a1ad19af6f37,2024-02-19_03h20.44.953,kallum_motion_pilot,2023.2.2,Win32,19.96007984,65d0cbfb1566a1ad19af6f37,65d2b6c8f2eece985d8e374c,65d2ba53c4c930283d4b778c,0.2019,0.2022,1,41,203,103,1,eightseven,,,,,,,,,,,,,,,,,,,,,,,,,,,,,,,,,,,,,,,,,,,,,,,,,,,,,,,,,,,,,,,,,,,,,,,,,,,,,,,,,,,,,,,,,,,,,,,,,,,,,,,,,,,,,,,,,,,,,,,,,,,,,,,,,,,,,,,,,
,,65d0cbfb1566a1ad19af6f37,2024-02-19_03h20.44.953,kallum_motion_pilot,2023.2.2,Win32,19.96007984,65d0cbfb1566a1ad19af6f37,65d2b6c8f2eece985d8e374c,65d2ba53c4c930283d4b778c,0.2025,0.2028,1,42,204,45,1,threefour,,,,,,,,,,,,,,,,,,,,,,,,,,,,,,,,,,,,,,,,,,,,,,,,,,,,,,,,,,,,,,,,,,,,,,,,,,,,,,,,,,,,,,,,,,,,,,,,,,,,,,,,,,,,,,,,,,,,,,,,,,,,,,,,,,,,,,,,,
,,65d0cbfb1566a1ad19af6f37,2024-02-19_03h20.44.953,kallum_motion_pilot,2023.2.2,Win32,19.96007984,65d0cbfb1566a1ad19af6f37,65d2b6c8f2eece985d8e374c,65d2ba53c4c930283d4b778c,0.2031,0.2034,1,43,205,140,1,sevenfive,,,,,,,,,,,,,,,,,,,,,,,,,,,,,,,,,,,,,,,,,,,,,,,,,,,,,,,,,,,,,,,,,,,,,,,,,,,,,,,,,,,,,,,,,,,,,,,,,,,,,,,,,,,,,,,,,,,,,,,,,,,,,,,,,,,,,,,,,
,,65d0cbfb1566a1ad19af6f37,2024-02-19_03h20.44.953,kallum_motion_pilot,2023.2.2,Win32,19.96007984,65d0cbfb1566a1ad19af6f37,65d2b6c8f2eece985d8e374c,65d2ba53c4c930283d4b778c,0.2038,0.204,1,44,206,70,1,fourtwo,,,,,,,,,,,,,,,,,,,,,,,,,,,,,,,,,,,,,,,,,,,,,,,,,,,,,,,,,,,,,,,,,,,,,,,,,,,,,,,,,,,,,,,,,,,,,,,,,,,,,,,,,,,,,,,,,,,,,,,,,,,,,,,,,,,,,,,,,
,,65d0cbfb1566a1ad19af6f37,2024-02-19_03h20.44.953,kallum_motion_pilot,2023.2.2,Win32,19.96007984,65d0cbfb1566a1ad19af6f37,65d2b6c8f2eece985d8e374c,65d2ba53c4c930283d4b778c,0.2044,0.2047,1,45,207,114,1,sixfive,,,,,,,,,,,,,,,,,,,,,,,,,,,,,,,,,,,,,,,,,,,,,,,,,,,,,,,,,,,,,,,,,,,,,,,,,,,,,,,,,,,,,,,,,,,,,,,,,,,,,,,,,,,,,,,,,,,,,,,,,,,,,,,,,,,,,,,,,
,,65d0cbfb1566a1ad19af6f37,2024-02-19_03h20.44.953,kallum_motion_pilot,2023.2.2,Win32,19.96007984,65d0cbfb1566a1ad19af6f37,65d2b6c8f2eece985d8e374c,65d2ba53c4c930283d4b778c,0.205,0.2053,1,46,208,119,1,eightseven,,,,,,,,,,,,,,,,,,,,,,,,,,,,,,,,,,,,,,,,,,,,,,,,,,,,,,,,,,,,,,,,,,,,,,,,,,,,,,,,,,,,,,,,,,,,,,,,,,,,,,,,,,,,,,,,,,,,,,,,,,,,,,,,,,,,,,,,,
,,65d0cbfb1566a1ad19af6f37,2024-02-19_03h20.44.953,kallum_motion_pilot,2023.2.2,Win32,19.96007984,65d0cbfb1566a1ad19af6f37,65d2b6c8f2eece985d8e374c,65d2ba53c4c930283d4b778c,0.2056,0.206,1,47,209,98,1,sixfive,,,,,,,,,,,,,,,,,,,,,,,,,,,,,,,,,,,,,,,,,,,,,,,,,,,,,,,,,,,,,,,,,,,,,,,,,,,,,,,,,,,,,,,,,,,,,,,,,,,,,,,,,,,,,,,,,,,,,,,,,,,,,,,,,,,,,,,,,
,,65d0cbfb1566a1ad19af6f37,2024-02-19_03h20.44.953,kallum_motion_pilot,2023.2.2,Win32,19.96007984,65d0cbfb1566a1ad19af6f37,65d2b6c8f2eece985d8e374c,65d2ba53c4c930283d4b778c,0.2062,0.2065,1,48,210,24,1,onetwo,,,,,,,,,,,,,,,,,,,,,,,,,,,,,,,,,,,,,,,,,,,,,,,,,,,,,,,,,,,,,,,,,,,,,,,,,,,,,,,,,,,,,,,,,,,,,,,,,,,,,,,,,,,,,,,,,,,,,,,,,,,,,,,,,,,,,,,,,
,,65d0cbfb1566a1ad19af6f37,2024-02-19_03h20.44.953,kallum_motion_pilot,2023.2.2,Win32,19.96007984,65d0cbfb1566a1ad19af6f37,65d2b6c8f2eece985d8e374c,65d2ba53c4c930283d4b778c,0.2068,0.207,1,49,211,120,1,fivesix,,,,,,,,,,,,,,,,,,,,,,,,,,,,,,,,,,,,,,,,,,,,,,,,,,,,,,,,,,,,,,,,,,,,,,,,,,,,,,,,,,,,,,,,,,,,,,,,,,,,,,,,,,,,,,,,,,,,,,,,,,,,,,,,,,,,,,,,,
,,65d0cbfb1566a1ad19af6f37,2024-02-19_03h20.44.953,kallum_motion_pilot,2023.2.2,Win32,19.96007984,65d0cbfb1566a1ad19af6f37,65d2b6c8f2eece985d8e374c,65d2ba53c4c930283d4b778c,0.2074,0.2077,1,50,212,27,1,twofour,,,,,,,,,,,,,,,,,,,,,,,,,,,,,,,,,,,,,,,,,,,,,,,,,,,,,,,,,,,,,,,,,,,,,,,,,,,,,,,,,,,,,,,,,,,,,,,,,,,,,,,,,,,,,,,,,,,,,,,,,,,,,,,,,,,,,,,,,
,,65d0cbfb1566a1ad19af6f37,2024-02-19_03h20.44.953,kallum_motion_pilot,2023.2.2,Win32,19.96007984,65d0cbfb1566a1ad19af6f37,65d2b6c8f2eece985d8e374c,65d2ba53c4c930283d4b778c,0.2079,0.2082,1,51,213,58,1,twoone,,,,,,,,,,,,,,,,,,,,,,,,,,,,,,,,,,,,,,,,,,,,,,,,,,,,,,,,,,,,,,,,,,,,,,,,,,,,,,,,,,,,,,,,,,,,,,,,,,,,,,,,,,,,,,,,,,,,,,,,,,,,,,,,,,,,,,,,,
,,65d0cbfb1566a1ad19af6f37,2024-02-19_03h20.44.953,kallum_motion_pilot,2023.2.2,Win32,19.96007984,65d0cbfb1566a1ad19af6f37,65d2b6c8f2eece985d8e374c,65d2ba53c4c930283d4b778c,0.2085,0.2092,1,52,214,109,1,seveneight,,,,,,,,,,,,,,,,,,,,,,,,,,,,,,,,,,,,,,,,,,,,,,,,,,,,,,,,,,,,,,,,,,,,,,,,,,,,,,,,,,,,,,,,,,,,,,,,,,,,,,,,,,,,,,,,,,,,,,,,,,,,,,,,,,,,,,,,,
,,65d0cbfb1566a1ad19af6f37,2024-02-19_03h20.44.953,kallum_motion_pilot,2023.2.2,Win32,19.96007984,65d0cbfb1566a1ad19af6f37,65d2b6c8f2eece985d8e374c,65d2ba53c4c930283d4b778c,0.2095,0.2098,1,53,215,11,1,twofour,,,,,,,,,,,,,,,,,,,,,,,,,,,,,,,,,,,,,,,,,,,,,,,,,,,,,,,,,,,,,,,,,,,,,,,,,,,,,,,,,,,,,,,,,,,,,,,,,,,,,,,,,,,,,,,,,,,,,,,,,,,,,,,,,,,,,,,,,
,,65d0cbfb1566a1ad19af6f37,2024-02-19_03h20.44.953,kallum_motion_pilot,2023.2.2,Win32,19.96007984,65d0cbfb1566a1ad19af6f37,65d2b6c8f2eece985d8e374c,65d2ba53c4c930283d4b778c,0.2101,0.2104,1,54,216,43,1,twofour,,,,,,,,,,,,,,,,,,,,,,,,,,,,,,,,,,,,,,,,,,,,,,,,,,,,,,,,,,,,,,,,,,,,,,,,,,,,,,,,,,,,,,,,,,,,,,,,,,,,,,,,,,,,,,,,,,,,,,,,,,,,,,,,,,,,,,,,,
,,65d0cbfb1566a1ad19af6f37,2024-02-19_03h20.44.953,kallum_motion_pilot,2023.2.2,Win32,19.96007984,65d0cbfb1566a1ad19af6f37,65d2b6c8f2eece985d8e374c,65d2ba53c4c930283d4b778c,0.2107,0.2109,1,55,217,104,1,fivesix,,,,,,,,,,,,,,,,,,,,,,,,,,,,,,,,,,,,,,,,,,,,,,,,,,,,,,,,,,,,,,,,,,,,,,,,,,,,,,,,,,,,,,,,,,,,,,,,,,,,,,,,,,,,,,,,,,,,,,,,,,,,,,,,,,,,,,,,,
,,65d0cbfb1566a1ad19af6f37,2024-02-19_03h20.44.953,kallum_motion_pilot,2023.2.2,Win32,19.96007984,65d0cbfb1566a1ad19af6f37,65d2b6c8f2eece985d8e374c,65d2ba53c4c930283d4b778c,0.2112,0.2115,1,56,218,31,1,fourthree,,,,,,,,,,,,,,,,,,,,,,,,,,,,,,,,,,,,,,,,,,,,,,,,,,,,,,,,,,,,,,,,,,,,,,,,,,,,,,,,,,,,,,,,,,,,,,,,,,,,,,,,,,,,,,,,,,,,,,,,,,,,,,,,,,,,,,,,,
,,65d0cbfb1566a1ad19af6f37,2024-02-19_03h20.44.953,kallum_motion_pilot,2023.2.2,Win32,19.96007984,65d0cbfb1566a1ad19af6f37,65d2b6c8f2eece985d8e374c,65d2ba53c4c930283d4b778c,0.2119,0.2121,1,57,219,33,1,onethree,,,,,,,,,,,,,,,,,,,,,,,,,,,,,,,,,,,,,,,,,,,,,,,,,,,,,,,,,,,,,,,,,,,,,,,,,,,,,,,,,,,,,,,,,,,,,,,,,,,,,,,,,,,,,,,,,,,,,,,,,,,,,,,,,,,,,,,,,
,,65d0cbfb1566a1ad19af6f37,2024-02-19_03h20.44.953,kallum_motion_pilot,2023.2.2,Win32,19.96007984,65d0cbfb1566a1ad19af6f37,65d2b6c8f2eece985d8e374c,65d2ba53c4c930283d4b778c,0.2124,0.2127,1,58,220,41,1,onethree,,,,,,,,,,,,,,,,,,,,,,,,,,,,,,,,,,,,,,,,,,,,,,,,,,,,,,,,,,,,,,,,,,,,,,,,,,,,,,,,,,,,,,,,,,,,,,,,,,,,,,,,,,,,,,,,,,,,,,,,,,,,,,,,,,,,,,,,,
,,65d0cbfb1566a1ad19af6f37,2024-02-19_03h20.44.953,kallum_motion_pilot,2023.2.2,Win32,19.96007984,65d0cbfb1566a1ad19af6f37,65d2b6c8f2eece985d8e374c,65d2ba53c4c930283d4b778c,0.213,0.2132,1,59,221,77,1,threefour,,,,,,,,,,,,,,,,,,,,,,,,,,,,,,,,,,,,,,,,,,,,,,,,,,,,,,,,,,,,,,,,,,,,,,,,,,,,,,,,,,,,,,,,,,,,,,,,,,,,,,,,,,,,,,,,,,,,,,,,,,,,,,,,,,,,,,,,,
,,65d0cbfb1566a1ad19af6f37,2024-02-19_03h20.44.953,kallum_motion_pilot,2023.2.2,Win32,19.96007984,65d0cbfb1566a1ad19af6f37,65d2b6c8f2eece985d8e374c,65d2ba53c4c930283d4b778c,0.2136,0.2139,1,60,222,100,1,sevenfive,,,,,,,,,,,,,,,,,,,,,,,,,,,,,,,,,,,,,,,,,,,,,,,,,,,,,,,,,,,,,,,,,,,,,,,,,,,,,,,,,,,,,,,,,,,,,,,,,,,,,,,,,,,,,,,,,,,,,,,,,,,,,,,,,,,,,,,,,
,,65d0cbfb1566a1ad19af6f37,2024-02-19_03h20.44.953,kallum_motion_pilot,2023.2.2,Win32,19.96007984,65d0cbfb1566a1ad19af6f37,65d2b6c8f2eece985d8e374c,65d2ba53c4c930283d4b778c,0.2142,0.2145,1,61,223,1,1,onethree,,,,,,,,,,,,,,,,,,,,,,,,,,,,,,,,,,,,,,,,,,,,,,,,,,,,,,,,,,,,,,,,,,,,,,,,,,,,,,,,,,,,,,,,,,,,,,,,,,,,,,,,,,,,,,,,,,,,,,,,,,,,,,,,,,,,,,,,,
,,65d0cbfb1566a1ad19af6f37,2024-02-19_03h20.44.953,kallum_motion_pilot,2023.2.2,Win32,19.96007984,65d0cbfb1566a1ad19af6f37,65d2b6c8f2eece985d8e374c,65d2ba53c4c930283d4b778c,0.2149,0.2151,1,62,224,91,1,sixeight,,,,,,,,,,,,,,,,,,,,,,,,,,,,,,,,,,,,,,,,,,,,,,,,,,,,,,,,,,,,,,,,,,,,,,,,,,,,,,,,,,,,,,,,,,,,,,,,,,,,,,,,,,,,,,,,,,,,,,,,,,,,,,,,,,,,,,,,,
,,65d0cbfb1566a1ad19af6f37,2024-02-19_03h20.44.953,kallum_motion_pilot,2023.2.2,Win32,19.96007984,65d0cbfb1566a1ad19af6f37,65d2b6c8f2eece985d8e374c,65d2ba53c4c930283d4b778c,0.2154,0.2157,1,63,225,87,1,eightseven,,,,,,,,,,,,,,,,,,,,,,,,,,,,,,,,,,,,,,,,,,,,,,,,,,,,,,,,,,,,,,,,,,,,,,,,,,,,,,,,,,,,,,,,,,,,,,,,,,,,,,,,,,,,,,,,,,,,,,,,,,,,,,,,,,,,,,,,,
,,65d0cbfb1566a1ad19af6f37,2024-02-19_03h20.44.953,kallum_motion_pilot,2023.2.2,Win32,19.96007984,65d0cbfb1566a1ad19af6f37,65d2b6c8f2eece985d8e374c,65d2ba53c4c930283d4b778c,0.216,0.2163,1,64,226,19,1,twofour,,,,,,,,,,,,,,,,,,,,,,,,,,,,,,,,,,,,,,,,,,,,,,,,,,,,,,,,,,,,,,,,,,,,,,,,,,,,,,,,,,,,,,,,,,,,,,,,,,,,,,,,,,,,,,,,,,,,,,,,,,,,,,,,,,,,,,,,,
,,65d0cbfb1566a1ad19af6f37,2024-02-19_03h20.44.953,kallum_motion_pilot,2023.2.2,Win32,19.96007984,65d0cbfb1566a1ad19af6f37,65d2b6c8f2eece985d8e374c,65d2ba53c4c930283d4b778c,0.2166,0.2169,1,65,227,20,1,threeone,,,,,,,,,,,,,,,,,,,,,,,,,,,,,,,,,,,,,,,,,,,,,,,,,,,,,,,,,,,,,,,,,,,,,,,,,,,,,,,,,,,,,,,,,,,,,,,,,,,,,,,,,,,,,,,,,,,,,,,,,,,,,,,,,,,,,,,,,
,,65d0cbfb1566a1ad19af6f37,2024-02-19_03h20.44.953,kallum_motion_pilot,2023.2.2,Win32,19.96007984,65d0cbfb1566a1ad19af6f37,65d2b6c8f2eece985d8e374c,65d2ba53c4c930283d4b778c,0.2172,0.2175,1,66,228,161,1,fiveseven,,,,,,,,,,,,,,,,,,,,,,,,,,,,,,,,,,,,,,,,,,,,,,,,,,,,,,,,,,,,,,,,,,,,,,,,,,,,,,,,,,,,,,,,,,,,,,,,,,,,,,,,,,,,,,,,,,,,,,,,,,,,,,,,,,,,,,,,,
,,65d0cbfb1566a1ad19af6f37,2024-02-19_03h20.44.953,kallum_motion_pilot,2023.2.2,Win32,19.96007984,65d0cbfb1566a1ad19af6f37,65d2b6c8f2eece985d8e374c,65d2ba53c4c930283d4b778c,0.2179,0.2181,1,67,229,147,1,sixeight,,,,,,,,,,,,,,,,,,,,,,,,,,,,,,,,,,,,,,,,,,,,,,,,,,,,,,,,,,,,,,,,,,,,,,,,,,,,,,,,,,,,,,,,,,,,,,,,,,,,,,,,,,,,,,,,,,,,,,,,,,,,,,,,,,,,,,,,,
,,65d0cbfb1566a1ad19af6f37,2024-02-19_03h20.44.953,kallum_motion_pilot,2023.2.2,Win32,19.96007984,65d0cbfb1566a1ad19af6f37,65d2b6c8f2eece985d8e374c,65d2ba53c4c930283d4b778c,0.2185,0.2187,1,68,230,37,1,threefour,,,,,,,,,,,,,,,,,,,,,,,,,,,,,,,,,,,,,,,,,,,,,,,,,,,,,,,,,,,,,,,,,,,,,,,,,,,,,,,,,,,,,,,,,,,,,,,,,,,,,,,,,,,,,,,,,,,,,,,,,,,,,,,,,,,,,,,,,
,,65d0cbfb1566a1ad19af6f37,2024-02-19_03h20.44.953,kallum_motion_pilot,2023.2.2,Win32,19.96007984,65d0cbfb1566a1ad19af6f37,65d2b6c8f2eece985d8e374c,65d2ba53c4c930283d4b778c,0.219,0.2193,1,69,231,2,1,twoone,,,,,,,,,,,,,,,,,,,,,,,,,,,,,,,,,,,,,,,,,,,,,,,,,,,,,,,,,,,,,,,,,,,,,,,,,,,,,,,,,,,,,,,,,,,,,,,,,,,,,,,,,,,,,,,,,,,,,,,,,,,,,,,,,,,,,,,,,
,,65d0cbfb1566a1ad19af6f37,2024-02-19_03h20.44.953,kallum_motion_pilot,2023.2.2,Win32,19.96007984,65d0cbfb1566a1ad19af6f37,65d2b6c8f2eece985d8e374c,65d2ba53c4c930283d4b778c,0.2196,0.2198,1,70,232,151,1,eightseven,,,,,,,,,,,,,,,,,,,,,,,,,,,,,,,,,,,,,,,,,,,,,,,,,,,,,,,,,,,,,,,,,,,,,,,,,,,,,,,,,,,,,,,,,,,,,,,,,,,,,,,,,,,,,,,,,,,,,,,,,,,,,,,,,,,,,,,,,
,,65d0cbfb1566a1ad19af6f37,2024-02-19_03h20.44.953,kallum_motion_pilot,2023.2.2,Win32,19.96007984,65d0cbfb1566a1ad19af6f37,65d2b6c8f2eece985d8e374c,65d2ba53c4c930283d4b778c,0.2201,0.2204,1,71,233,160,1,fivesix,,,,,,,,,,,,,,,,,,,,,,,,,,,,,,,,,,,,,,,,,,,,,,,,,,,,,,,,,,,,,,,,,,,,,,,,,,,,,,,,,,,,,,,,,,,,,,,,,,,,,,,,,,,,,,,,,,,,,,,,,,,,,,,,,,,,,,,,,
,,65d0cbfb1566a1ad19af6f37,2024-02-19_03h20.44.953,kallum_motion_pilot,2023.2.2,Win32,19.96007984,65d0cbfb1566a1ad19af6f37,65d2b6c8f2eece985d8e374c,65d2ba53c4c930283d4b778c,0.2208,0.2211,1,72,234,110,1,eightsix,,,,,,,,,,,,,,,,,,,,,,,,,,,,,,,,,,,,,,,,,,,,,,,,,,,,,,,,,,,,,,,,,,,,,,,,,,,,,,,,,,,,,,,,,,,,,,,,,,,,,,,,,,,,,,,,,,,,,,,,,,,,,,,,,,,,,,,,,
,,65d0cbfb1566a1ad19af6f37,2024-02-19_03h20.44.953,kallum_motion_pilot,2023.2.2,Win32,19.96007984,65d0cbfb1566a1ad19af6f37,65d2b6c8f2eece985d8e374c,65d2ba53c4c930283d4b778c,0.2213,0.2216,1,73,235,121,1,fiveseven,,,,,,,,,,,,,,,,,,,,,,,,,,,,,,,,,,,,,,,,,,,,,,,,,,,,,,,,,,,,,,,,,,,,,,,,,,,,,,,,,,,,,,,,,,,,,,,,,,,,,,,,,,,,,,,,,,,,,,,,,,,,,,,,,,,,,,,,,
,,65d0cbfb1566a1ad19af6f37,2024-02-19_03h20.44.953,kallum_motion_pilot,2023.2.2,Win32,19.96007984,65d0cbfb1566a1ad19af6f37,65d2b6c8f2eece985d8e374c,65d2ba53c4c930283d4b778c,0.222,0.2223,1,74,236,78,1,fourtwo,,,,,,,,,,,,,,,,,,,,,,,,,,,,,,,,,,,,,,,,,,,,,,,,,,,,,,,,,,,,,,,,,,,,,,,,,,,,,,,,,,,,,,,,,,,,,,,,,,,,,,,,,,,,,,,,,,,,,,,,,,,,,,,,,,,,,,,,,
,,65d0cbfb1566a1ad19af6f37,2024-02-19_03h20.44.953,kallum_motion_pilot,2023.2.2,Win32,19.96007984,65d0cbfb1566a1ad19af6f37,65d2b6c8f2eece985d8e374c,65d2ba53c4c930283d4b778c,0.2225,0.2229,1,75,237,75,1,twofour,,,,,,,,,,,,,,,,,,,,,,,,,,,,,,,,,,,,,,,,,,,,,,,,,,,,,,,,,,,,,,,,,,,,,,,,,,,,,,,,,,,,,,,,,,,,,,,,,,,,,,,,,,,,,,,,,,,,,,,,,,,,,,,,,,,,,,,,,
,,65d0cbfb1566a1ad19af6f37,2024-02-19_03h20.44.953,kallum_motion_pilot,2023.2.2,Win32,19.96007984,65d0cbfb1566a1ad19af6f37,65d2b6c8f2eece985d8e374c,65d2ba53c4c930283d4b778c,0.2232,0.2236,1,76,238,8,1,onetwo,,,,,,,,,,,,,,,,,,,,,,,,,,,,,,,,,,,,,,,,,,,,,,,,,,,,,,,,,,,,,,,,,,,,,,,,,,,,,,,,,,,,,,,,,,,,,,,,,,,,,,,,,,,,,,,,,,,,,,,,,,,,,,,,,,,,,,,,,
,,65d0cbfb1566a1ad19af6f37,2024-02-19_03h20.44.953,kallum_motion_pilot,2023.2.2,Win32,19.96007984,65d0cbfb1566a1ad19af6f37,65d2b6c8f2eece985d8e374c,65d2ba53c4c930283d4b778c,0.2238,0.2242,1,77,239,117,1,seveneight,,,,,,,,,,,,,,,,,,,,,,,,,,,,,,,,,,,,,,,,,,,,,,,,,,,,,,,,,,,,,,,,,,,,,,,,,,,,,,,,,,,,,,,,,,,,,,,,,,,,,,,,,,,,,,,,,,,,,,,,,,,,,,,,,,,,,,,,,
,,65d0cbfb1566a1ad19af6f37,2024-02-19_03h20.44.953,kallum_motion_pilot,2023.2.2,Win32,19.96007984,65d0cbfb1566a1ad19af6f37,65d2b6c8f2eece985d8e374c,65d2ba53c4c930283d4b778c,0.2245,0.2253,1,78,240,34,1,twoone,,,,,,,,,,,,,,,,,,,,,,,,,,,,,,,,,,,,,,,,,,,,,,,,,,,,,,,,,,,,,,,,,,,,,,,,,,,,,,,,,,,,,,,,,,,,,,,,,,,,,,,,,,,,,,,,,,,,,,,,,,,,,,,,,,,,,,,,,
,,65d0cbfb1566a1ad19af6f37,2024-02-19_03h20.44.953,kallum_motion_pilot,2023.2.2,Win32,19.96007984,65d0cbfb1566a1ad19af6f37,65d2b6c8f2eece985d8e374c,65d2ba53c4c930283d4b778c,0.2256,0.2257,1,79,241,32,1,onetwo,,,,,,,,,,,,,,,,,,,,,,,,,,,,,,,,,,,,,,,,,,,,,,,,,,,,,,,,,,,,,,,,,,,,,,,,,,,,,,,,,,,,,,,,,,,,,,,,,,,,,,,,,,,,,,,,,,,,,,,,,,,,,,,,,,,,,,,,,
,,65d0cbfb1566a1ad19af6f37,2024-02-19_03h20.44.953,kallum_motion_pilot,2023.2.2,Win32,19.96007984,65d0cbfb1566a1ad19af6f37,65d2b6c8f2eece985d8e374c,65d2ba53c4c930283d4b778c,0.226,0.2262,1,80,242,115,1,sixeight,,,,,,,,,,,,,,,,,,,,,,,,,,,,,,,,,,,,,,,,,,,,,,,,,,,,,,,,,,,,,,,,,,,,,,,,,,,,,,,,,,,,,,,,,,,,,,,,,,,,,,,,,,,,,,,,,,,,,,,,,,,,,,,,,,,,,,,,,
,,65d0cbfb1566a1ad19af6f37,2024-02-19_03h20.44.953,kallum_motion_pilot,2023.2.2,Win32,19.96007984,65d0cbfb1566a1ad19af6f37,65d2b6c8f2eece985d8e374c,65d2ba53c4c930283d4b778c,0.2264,0.2267,1,81,243,107,1,sixeight,,,,,,,,,,,,,,,,,,,,,,,,,,,,,,,,,,,,,,,,,,,,,,,,,,,,,,,,,,,,,,,,,,,,,,,,,,,,,,,,,,,,,,,,,,,,,,,,,,,,,,,,,,,,,,,,,,,,,,,,,,,,,,,,,,,,,,,,,
,,65d0cbfb1566a1ad19af6f37,2024-02-19_03h20.44.953,kallum_motion_pilot,2023.2.2,Win32,19.96007984,65d0cbfb1566a1ad19af6f37,65d2b6c8f2eece985d8e374c,65d2ba53c4c930283d4b778c,0.2268,0.2271,1,82,244,18,1,twoone,,,,,,,,,,,,,,,,,,,,,,,,,,,,,,,,,,,,,,,,,,,,,,,,,,,,,,,,,,,,,,,,,,,,,,,,,,,,,,,,,,,,,,,,,,,,,,,,,,,,,,,,,,,,,,,,,,,,,,,,,,,,,,,,,,,,,,,,,
,,65d0cbfb1566a1ad19af6f37,2024-02-19_03h20.44.953,kallum_motion_pilot,2023.2.2,Win32,19.96007984,65d0cbfb1566a1ad19af6f37,65d2b6c8f2eece985d8e374c,65d2ba53c4c930283d4b778c,0.2273,0.2294,1,83,245,52,1,threeone,,,,,,,,,,,,,,,,,,,,,,,,,,,,,,,,,,,,,,,,,,,,,,,,,,,,,,,,,,,,,,,,,,,,,,,,,,,,,,,,,,,,,,,,,,,,,,,,,,,,,,,,,,,,,,,,,,,,,,,,,,,,,,,,,,,,,,,,,
,,65d0cbfb1566a1ad19af6f37,2024-02-19_03h20.44.953,kallum_motion_pilot,2023.2.2,Win32,19.96007984,65d0cbfb1566a1ad19af6f37,65d2b6c8f2eece985d8e374c,65d2ba53c4c930283d4b778c,0.2298,0.23,1,84,246,134,1,eightsix,,,,,,,,,,,,,,,,,,,,,,,,,,,,,,,,,,,,,,,,,,,,,,,,,,,,,,,,,,,,,,,,,,,,,,,,,,,,,,,,,,,,,,,,,,,,,,,,,,,,,,,,,,,,,,,,,,,,,,,,,,,,,,,,,,,,,,,,,
,,65d0cbfb1566a1ad19af6f37,2024-02-19_03h20.44.953,kallum_motion_pilot,2023.2.2,Win32,19.96007984,65d0cbfb1566a1ad19af6f37,65d2b6c8f2eece985d8e374c,65d2ba53c4c930283d4b778c,0.2302,0.2304,1,85,247,84,1,sevenfive,,,,,,,,,,,,,,,,,,,,,,,,,,,,,,,,,,,,,,,,,,,,,,,,,,,,,,,,,,,,,,,,,,,,,,,,,,,,,,,,,,,,,,,,,,,,,,,,,,,,,,,,,,,,,,,,,,,,,,,,,,,,,,,,,,,,,,,,,
,,65d0cbfb1566a1ad19af6f37,2024-02-19_03h20.44.953,kallum_motion_pilot,2023.2.2,Win32,19.96007984,65d0cbfb1566a1ad19af6f37,65d2b6c8f2eece985d8e374c,65d2ba53c4c930283d4b778c,0.2307,0.2309,1,86,248,74,1,twoone,,,,,,,,,,,,,,,,,,,,,,,,,,,,,,,,,,,,,,,,,,,,,,,,,,,,,,,,,,,,,,,,,,,,,,,,,,,,,,,,,,,,,,,,,,,,,,,,,,,,,,,,,,,,,,,,,,,,,,,,,,,,,,,,,,,,,,,,,
,,65d0cbfb1566a1ad19af6f37,2024-02-19_03h20.44.953,kallum_motion_pilot,2023.2.2,Win32,19.96007984,65d0cbfb1566a1ad19af6f37,65d2b6c8f2eece985d8e374c,65d2ba53c4c930283d4b778c,0.2311,0.2313,1,87,249,122,1,sixfive,,,,,,,,,,,,,,,,,,,,,,,,,,,,,,,,,,,,,,,,,,,,,,,,,,,,,,,,,,,,,,,,,,,,,,,,,,,,,,,,,,,,,,,,,,,,,,,,,,,,,,,,,,,,,,,,,,,,,,,,,,,,,,,,,,,,,,,,,
,,65d0cbfb1566a1ad19af6f37,2024-02-19_03h20.44.953,kallum_motion_pilot,2023.2.2,Win32,19.96007984,65d0cbfb1566a1ad19af6f37,65d2b6c8f2eece985d8e374c,65d2ba53c4c930283d4b778c,0.2316,0.2318,1,88,250,57,1,onethree,,,,,,,,,,,,,,,,,,,,,,,,,,,,,,,,,,,,,,,,,,,,,,,,,,,,,,,,,,,,,,,,,,,,,,,,,,,,,,,,,,,,,,,,,,,,,,,,,,,,,,,,,,,,,,,,,,,,,,,,,,,,,,,,,,,,,,,,,
,,65d0cbfb1566a1ad19af6f37,2024-02-19_03h20.44.953,kallum_motion_pilot,2023.2.2,Win32,19.96007984,65d0cbfb1566a1ad19af6f37,65d2b6c8f2eece985d8e374c,65d2ba53c4c930283d4b778c,0.232,0.2322,1,89,251,146,1,sixfive,,,,,,,,,,,,,,,,,,,,,,,,,,,,,,,,,,,,,,,,,,,,,,,,,,,,,,,,,,,,,,,,,,,,,,,,,,,,,,,,,,,,,,,,,,,,,,,,,,,,,,,,,,,,,,,,,,,,,,,,,,,,,,,,,,,,,,,,,
,,65d0cbfb1566a1ad19af6f37,2024-02-19_03h20.44.953,kallum_motion_pilot,2023.2.2,Win32,19.96007984,65d0cbfb1566a1ad19af6f37,65d2b6c8f2eece985d8e374c,65d2ba53c4c930283d4b778c,0.2324,0.2326,1,90,252,124,1,sevenfive,,,,,,,,,,,,,,,,,,,,,,,,,,,,,,,,,,,,,,,,,,,,,,,,,,,,,,,,,,,,,,,,,,,,,,,,,,,,,,,,,,,,,,,,,,,,,,,,,,,,,,,,,,,,,,,,,,,,,,,,,,,,,,,,,,,,,,,,,
,,65d0cbfb1566a1ad19af6f37,2024-02-19_03h20.44.953,kallum_motion_pilot,2023.2.2,Win32,19.96007984,65d0cbfb1566a1ad19af6f37,65d2b6c8f2eece985d8e374c,65d2ba53c4c930283d4b778c,0.2328,0.233,1,91,253,12,1,threeone,,,,,,,,,,,,,,,,,,,,,,,,,,,,,,,,,,,,,,,,,,,,,,,,,,,,,,,,,,,,,,,,,,,,,,,,,,,,,,,,,,,,,,,,,,,,,,,,,,,,,,,,,,,,,,,,,,,,,,,,,,,,,,,,,,,,,,,,,
,,65d0cbfb1566a1ad19af6f37,2024-02-19_03h20.44.953,kallum_motion_pilot,2023.2.2,Win32,19.96007984,65d0cbfb1566a1ad19af6f37,65d2b6c8f2eece985d8e374c,65d2ba53c4c930283d4b778c,0.2333,0.2335,1,92,254,125,1,seveneight,,,,,,,,,,,,,,,,,,,,,,,,,,,,,,,,,,,,,,,,,,,,,,,,,,,,,,,,,,,,,,,,,,,,,,,,,,,,,,,,,,,,,,,,,,,,,,,,,,,,,,,,,,,,,,,,,,,,,,,,,,,,,,,,,,,,,,,,,
,,65d0cbfb1566a1ad19af6f37,2024-02-19_03h20.44.953,kallum_motion_pilot,2023.2.2,Win32,19.96007984,65d0cbfb1566a1ad19af6f37,65d2b6c8f2eece985d8e374c,65d2ba53c4c930283d4b778c,0.2339,0.2341,1,93,255,3,1,twofour,,,,,,,,,,,,,,,,,,,,,,,,,,,,,,,,,,,,,,,,,,,,,,,,,,,,,,,,,,,,,,,,,,,,,,,,,,,,,,,,,,,,,,,,,,,,,,,,,,,,,,,,,,,,,,,,,,,,,,,,,,,,,,,,,,,,,,,,,
,,65d0cbfb1566a1ad19af6f37,2024-02-19_03h20.44.953,kallum_motion_pilot,2023.2.2,Win32,19.96007984,65d0cbfb1566a1ad19af6f37,65d2b6c8f2eece985d8e374c,65d2ba53c4c930283d4b778c,0.2344,0.2345,1,94,256,30,1,fourtwo,,,,,,,,,,,,,,,,,,,,,,,,,,,,,,,,,,,,,,,,,,,,,,,,,,,,,,,,,,,,,,,,,,,,,,,,,,,,,,,,,,,,,,,,,,,,,,,,,,,,,,,,,,,,,,,,,,,,,,,,,,,,,,,,,,,,,,,,,
,,65d0cbfb1566a1ad19af6f37,2024-02-19_03h20.44.953,kallum_motion_pilot,2023.2.2,Win32,19.96007984,65d0cbfb1566a1ad19af6f37,65d2b6c8f2eece985d8e374c,65d2ba53c4c930283d4b778c,0.2348,0.235,1,95,257,96,1,fivesix,,,,,,,,,,,,,,,,,,,,,,,,,,,,,,,,,,,,,,,,,,,,,,,,,,,,,,,,,,,,,,,,,,,,,,,,,,,,,,,,,,,,,,,,,,,,,,,,,,,,,,,,,,,,,,,,,,,,,,,,,,,,,,,,,,,,,,,,,
,,65d0cbfb1566a1ad19af6f37,2024-02-19_03h20.44.953,kallum_motion_pilot,2023.2.2,Win32,19.96007984,65d0cbfb1566a1ad19af6f37,65d2b6c8f2eece985d8e374c,65d2ba53c4c930283d4b778c,0.2352,0.2354,1,96,258,71,1,fourthree,,,,,,,,,,,,,,,,,,,,,,,,,,,,,,,,,,,,,,,,,,,,,,,,,,,,,,,,,,,,,,,,,,,,,,,,,,,,,,,,,,,,,,,,,,,,,,,,,,,,,,,,,,,,,,,,,,,,,,,,,,,,,,,,,,,,,,,,,
,,65d0cbfb1566a1ad19af6f37,2024-02-19_03h20.44.953,kallum_motion_pilot,2023.2.2,Win32,19.96007984,65d0cbfb1566a1ad19af6f37,65d2b6c8f2eece985d8e374c,65d2ba53c4c930283d4b778c,0.2357,0.2359,1,97,259,145,1,fiveseven,,,,,,,,,,,,,,,,,,,,,,,,,,,,,,,,,,,,,,,,,,,,,,,,,,,,,,,,,,,,,,,,,,,,,,,,,,,,,,,,,,,,,,,,,,,,,,,,,,,,,,,,,,,,,,,,,,,,,,,,,,,,,,,,,,,,,,,,,
,,65d0cbfb1566a1ad19af6f37,2024-02-19_03h20.44.953,kallum_motion_pilot,2023.2.2,Win32,19.96007984,65d0cbfb1566a1ad19af6f37,65d2b6c8f2eece985d8e374c,65d2ba53c4c930283d4b778c,0.236,0.2363,1,98,260,48,1,onetwo,,,,,,,,,,,,,,,,,,,,,,,,,,,,,,,,,,,,,,,,,,,,,,,,,,,,,,,,,,,,,,,,,,,,,,,,,,,,,,,,,,,,,,,,,,,,,,,,,,,,,,,,,,,,,,,,,,,,,,,,,,,,,,,,,,,,,,,,,
,,65d0cbfb1566a1ad19af6f37,2024-02-19_03h20.44.953,kallum_motion_pilot,2023.2.2,Win32,19.96007984,65d0cbfb1566a1ad19af6f37,65d2b6c8f2eece985d8e374c,65d2ba53c4c930283d4b778c,0.2366,0.2367,1,99,261,46,1,fourtwo,,,,,,,,,,,,,,,,,,,,,,,,,,,,,,,,,,,,,,,,,,,,,,,,,,,,,,,,,,,,,,,,,,,,,,,,,,,,,,,,,,,,,,,,,,,,,,,,,,,,,,,,,,,,,,,,,,,,,,,,,,,,,,,,,,,,,,,,,
,,65d0cbfb1566a1ad19af6f37,2024-02-19_03h20.44.953,kallum_motion_pilot,2023.2.2,Win32,19.96007984,65d0cbfb1566a1ad19af6f37,65d2b6c8f2eece985d8e374c,65d2ba53c4c930283d4b778c,0.237,0.2372,1,100,262,144,1,fivesix,,,,,,,,,,,,,,,,,,,,,,,,,,,,,,,,,,,,,,,,,,,,,,,,,,,,,,,,,,,,,,,,,,,,,,,,,,,,,,,,,,,,,,,,,,,,,,,,,,,,,,,,,,,,,,,,,,,,,,,,,,,,,,,,,,,,,,,,,
,,65d0cbfb1566a1ad19af6f37,2024-02-19_03h20.44.953,kallum_motion_pilot,2023.2.2,Win32,19.96007984,65d0cbfb1566a1ad19af6f37,65d2b6c8f2eece985d8e374c,65d2ba53c4c930283d4b778c,0.2374,0.2376,1,101,263,51,1,twofour,,,,,,,,,,,,,,,,,,,,,,,,,,,,,,,,,,,,,,,,,,,,,,,,,,,,,,,,,,,,,,,,,,,,,,,,,,,,,,,,,,,,,,,,,,,,,,,,,,,,,,,,,,,,,,,,,,,,,,,,,,,,,,,,,,,,,,,,,
,,65d0cbfb1566a1ad19af6f37,2024-02-19_03h20.44.953,kallum_motion_pilot,2023.2.2,Win32,19.96007984,65d0cbfb1566a1ad19af6f37,65d2b6c8f2eece985d8e374c,65d2ba53c4c930283d4b778c,0.238,0.2382,1,102,264,108,1,sevenfive,,,,,,,,,,,,,,,,,,,,,,,,,,,,,,,,,,,,,,,,,,,,,,,,,,,,,,,,,,,,,,,,,,,,,,,,,,,,,,,,,,,,,,,,,,,,,,,,,,,,,,,,,,,,,,,,,,,,,,,,,,,,,,,,,,,,,,,,,
,,65d0cbfb1566a1ad19af6f37,2024-02-19_03h20.44.953,kallum_motion_pilot,2023.2.2,Win32,19.96007984,65d0cbfb1566a1ad19af6f37,65d2b6c8f2eece985d8e374c,65d2ba53c4c930283d4b778c,0.2385,0.2386,1,103,265,141,1,seveneight,,,,,,,,,,,,,,,,,,,,,,,,,,,,,,,,,,,,,,,,,,,,,,,,,,,,,,,,,,,,,,,,,,,,,,,,,,,,,,,,,,,,,,,,,,,,,,,,,,,,,,,,,,,,,,,,,,,,,,,,,,,,,,,,,,,,,,,,,
,,65d0cbfb1566a1ad19af6f37,2024-02-19_03h20.44.953,kallum_motion_pilot,2023.2.2,Win32,19.96007984,65d0cbfb1566a1ad19af6f37,65d2b6c8f2eece985d8e374c,65d2ba53c4c930283d4b778c,0.2389,0.2391,1,104,266,137,1,fiveseven,,,,,,,,,,,,,,,,,,,,,,,,,,,,,,,,,,,,,,,,,,,,,,,,,,,,,,,,,,,,,,,,,,,,,,,,,,,,,,,,,,,,,,,,,,,,,,,,,,,,,,,,,,,,,,,,,,,,,,,,,,,,,,,,,,,,,,,,,
,,65d0cbfb1566a1ad19af6f37,2024-02-19_03h20.44.953,kallum_motion_pilot,2023.2.2,Win32,19.96007984,65d0cbfb1566a1ad19af6f37,65d2b6c8f2eece985d8e374c,65d2ba53c4c930283d4b778c,0.24,0.2403,1,105,267,9,1,onethree,,,,,,,,,,,,,,,,,,,,,,,,,,,,,,,,,,,,,,,,,,,,,,,,,,,,,,,,,,,,,,,,,,,,,,,,,,,,,,,,,,,,,,,,,,,,,,,,,,,,,,,,,,,,,,,,,,,,,,,,,,,,,,,,,,,,,,,,,
,,65d0cbfb1566a1ad19af6f37,2024-02-19_03h20.44.953,kallum_motion_pilot,2023.2.2,Win32,19.96007984,65d0cbfb1566a1ad19af6f37,65d2b6c8f2eece985d8e374c,65d2ba53c4c930283d4b778c,0.2405,0.2406,1,106,268,56,1,onetwo,,,,,,,,,,,,,,,,,,,,,,,,,,,,,,,,,,,,,,,,,,,,,,,,,,,,,,,,,,,,,,,,,,,,,,,,,,,,,,,,,,,,,,,,,,,,,,,,,,,,,,,,,,,,,,,,,,,,,,,,,,,,,,,,,,,,,,,,,
,,65d0cbfb1566a1ad19af6f37,2024-02-19_03h20.44.953,kallum_motion_pilot,2023.2.2,Win32,19.96007984,65d0cbfb1566a1ad19af6f37,65d2b6c8f2eece985d8e374c,65d2ba53c4c930283d4b778c,0.2409,0.2411,1,107,269,7,1,fourthree,,,,,,,,,,,,,,,,,,,,,,,,,,,,,,,,,,,,,,,,,,,,,,,,,,,,,,,,,,,,,,,,,,,,,,,,,,,,,,,,,,,,,,,,,,,,,,,,,,,,,,,,,,,,,,,,,,,,,,,,,,,,,,,,,,,,,,,,,
,,65d0cbfb1566a1ad19af6f37,2024-02-19_03h20.44.953,kallum_motion_pilot,2023.2.2,Win32,19.96007984,65d0cbfb1566a1ad19af6f37,65d2b6c8f2eece985d8e374c,65d2ba53c4c930283d4b778c,0.2421,0.2423,1,108,270,69,1,threefour,,,,,,,,,,,,,,,,,,,,,,,,,,,,,,,,,,,,,,,,,,,,,,,,,,,,,,,,,,,,,,,,,,,,,,,,,,,,,,,,,,,,,,,,,,,,,,,,,,,,,,,,,,,,,,,,,,,,,,,,,,,,,,,,,,,,,,,,,
,,65d0cbfb1566a1ad19af6f37,2024-02-19_03h20.44.953,kallum_motion_pilot,2023.2.2,Win32,19.96007984,65d0cbfb1566a1ad19af6f37,65d2b6c8f2eece985d8e374c,65d2ba53c4c930283d4b778c,0.2426,0.2428,1,109,271,4,1,threeone,,,,,,,,,,,,,,,,,,,,,,,,,,,,,,,,,,,,,,,,,,,,,,,,,,,,,,,,,,,,,,,,,,,,,,,,,,,,,,,,,,,,,,,,,,,,,,,,,,,,,,,,,,,,,,,,,,,,,,,,,,,,,,,,,,,,,,,,,
,,65d0cbfb1566a1ad19af6f37,2024-02-19_03h20.44.953,kallum_motion_pilot,2023.2.2,Win32,19.96007984,65d0cbfb1566a1ad19af6f37,65d2b6c8f2eece985d8e374c,65d2ba53c4c930283d4b778c,0.2429,0.2432,1,110,272,99,1,sixeight,,,,,,,,,,,,,,,,,,,,,,,,,,,,,,,,,,,,,,,,,,,,,,,,,,,,,,,,,,,,,,,,,,,,,,,,,,,,,,,,,,,,,,,,,,,,,,,,,,,,,,,,,,,,,,,,,,,,,,,,,,,,,,,,,,,,,,,,,
,,65d0cbfb1566a1ad19af6f37,2024-02-19_03h20.44.953,kallum_motion_pilot,2023.2.2,Win32,19.96007984,65d0cbfb1566a1ad19af6f37,65d2b6c8f2eece985d8e374c,65d2ba53c4c930283d4b778c,0.2434,0.2437,1,111,273,83,1,sixeight,,,,,,,,,,,,,,,,,,,,,,,,,,,,,,,,,,,,,,,,,,,,,,,,,,,,,,,,,,,,,,,,,,,,,,,,,,,,,,,,,,,,,,,,,,,,,,,,,,,,,,,,,,,,,,,,,,,,,,,,,,,,,,,,,,,,,,,,,
,,65d0cbfb1566a1ad19af6f37,2024-02-19_03h20.44.953,kallum_motion_pilot,2023.2.2,Win32,19.96007984,65d0cbfb1566a1ad19af6f37,65d2b6c8f2eece985d8e374c,65d2ba53c4c930283d4b778c,0.2439,0.2441,1,112,274,80,1,fivesix,,,,,,,,,,,,,,,,,,,,,,,,,,,,,,,,,,,,,,,,,,,,,,,,,,,,,,,,,,,,,,,,,,,,,,,,,,,,,,,,,,,,,,,,,,,,,,,,,,,,,,,,,,,,,,,,,,,,,,,,,,,,,,,,,,,,,,,,,
,,65d0cbfb1566a1ad19af6f37,2024-02-19_03h20.44.953,kallum_motion_pilot,2023.2.2,Win32,19.96007984,65d0cbfb1566a1ad19af6f37,65d2b6c8f2eece985d8e374c,65d2ba53c4c930283d4b778c,0.2474,0.2476,1,113,275,116,1,sevenfive,,,,,,,,,,,,,,,,,,,,,,,,,,,,,,,,,,,,,,,,,,,,,,,,,,,,,,,,,,,,,,,,,,,,,,,,,,,,,,,,,,,,,,,,,,,,,,,,,,,,,,,,,,,,,,,,,,,,,,,,,,,,,,,,,,,,,,,,,
,,65d0cbfb1566a1ad19af6f37,2024-02-19_03h20.44.953,kallum_motion_pilot,2023.2.2,Win32,19.96007984,65d0cbfb1566a1ad19af6f37,65d2b6c8f2eece985d8e374c,65d2ba53c4c930283d4b778c,0.248,0.2482,1,114,276,159,1,eightseven,,,,,,,,,,,,,,,,,,,,,,,,,,,,,,,,,,,,,,,,,,,,,,,,,,,,,,,,,,,,,,,,,,,,,,,,,,,,,,,,,,,,,,,,,,,,,,,,,,,,,,,,,,,,,,,,,,,,,,,,,,,,,,,,,,,,,,,,,
,,65d0cbfb1566a1ad19af6f37,2024-02-19_03h20.44.953,kallum_motion_pilot,2023.2.2,Win32,19.96007984,65d0cbfb1566a1ad19af6f37,65d2b6c8f2eece985d8e374c,65d2ba53c4c930283d4b778c,0.2484,0.2486,1,115,277,111,1,eightseven,,,,,,,,,,,,,,,,,,,,,,,,,,,,,,,,,,,,,,,,,,,,,,,,,,,,,,,,,,,,,,,,,,,,,,,,,,,,,,,,,,,,,,,,,,,,,,,,,,,,,,,,,,,,,,,,,,,,,,,,,,,,,,,,,,,,,,,,,
