Prolific_ID*,date,expName,psychopyVersion,OS,frameRate,PROLIFIC_PID,STUDY_ID,SESSION_ID,hardcoded_stimulus_positions.thisRepN,hardcoded_stimulus_positions.thisTrialN,hardcoded_stimulus_positions.thisN,hardcoded_stimulus_positions.thisIndex,hardcoded_stimulus_positions.ran,StimulusPos,prac_stimorientation_import_loop.thisRepN,prac_stimorientation_import_loop.thisTrialN,prac_stimorientation_import_loop.thisN,prac_stimorientation_import_loop.thisIndex,prac_stimorientation_import_loop.ran,Stimorientation,key_resp.keys,key_resp.rt,key_resp_20.keys,key_resp_20.rt,key_resp_19.keys,key_resp_19.rt,key_resp_15.keys,key_resp_15.rt,key_resp_9.keys,key_resp_9.rt,key_resp_10.keys,key_resp_10.rt,Ecc,Circle1_ori,Circle2_ori,similarity,response_time,mouse_5.x,mouse_5.y,mouse_5.leftButton,mouse_5.midButton,mouse_5.rightButton,mouse_5.clicked_name,mouse_6.x,mouse_6.y,mouse_6.leftButton,mouse_6.midButton,mouse_6.rightButton,mouse_6.clicked_name,duringprac.thisRepN,duringprac.thisTrialN,duringprac.thisN,duringprac.thisIndex,duringprac.ran,key_resp_22.keys,key_resp_22.rt,circle1_ori,circle2_ori,mouse.x,mouse.y,mouse.leftButton,mouse.midButton,mouse.rightButton,mouse.clicked_name,mouse_2.x,mouse_2.y,mouse_2.leftButton,mouse_2.midButton,mouse_2.rightButton,mouse_2.clicked_name,mouse_3.x,mouse_3.y,mouse_3.leftButton,mouse_3.midButton,mouse_3.rightButton,catchresponse,catchnumber,response_time_catch,Catch,mouse_11.x,mouse_11.y,mouse_11.leftButton,mouse_11.midButton,mouse_11.rightButton,main_trial.thisRepN,main_trial.thisTrialN,main_trial.thisN,main_trial.thisIndex,main_trial.ran,Orientationtrialno,xcircle1_ori,xcircle2_ori,double_pass.thisRepN,double_pass.thisTrialN,double_pass.thisN,double_pass.thisIndex,double_pass.ran,key_resp_3.keys,key_resp_3.rt
6111624c12d30533fdfeb26d,2023-11-23_21h35.01.479,kallum_motion_pilot,2023.1.2,Win32,59.28385108,6111624c12d30533fdfeb26d,656018846682f3df8008bb8f,656019c7e22a2c43a630d31a,,,,,,,,,,,,,,,,,,,,,,,,,,,,,,,,,,,,,,,,,,,,,,,,,,,,,,,,,,,,,,,,,,,,,,,,,,,,,,,,,,,,,,,,,,,
6111624c12d30533fdfeb26d,2023-11-23_21h35.01.479,kallum_motion_pilot,2023.1.2,Win32,59.28385108,6111624c12d30533fdfeb26d,656018846682f3df8008bb8f,656019c7e22a2c43a630d31a,0,0,0,79,1,eightseven,,,,,,,,,,,,,,,,,,,,,,,,,,,,,,,,,,,,,,,,,,,,,,,,,,,,,,,,,,,,,,,,,,,,,,,,,,,,,,,,,,,,,
6111624c12d30533fdfeb26d,2023-11-23_21h35.01.479,kallum_motion_pilot,2023.1.2,Win32,59.28385108,6111624c12d30533fdfeb26d,656018846682f3df8008bb8f,656019c7e22a2c43a630d31a,0,1,1,46,1,fourtwo,,,,,,,,,,,,,,,,,,,,,,,,,,,,,,,,,,,,,,,,,,,,,,,,,,,,,,,,,,,,,,,,,,,,,,,,,,,,,,,,,,,,,
6111624c12d30533fdfeb26d,2023-11-23_21h35.01.479,kallum_motion_pilot,2023.1.2,Win32,59.28385108,6111624c12d30533fdfeb26d,656018846682f3df8008bb8f,656019c7e22a2c43a630d31a,0,2,2,94,1,eightsix,,,,,,,,,,,,,,,,,,,,,,,,,,,,,,,,,,,,,,,,,,,,,,,,,,,,,,,,,,,,,,,,,,,,,,,,,,,,,,,,,,,,,
6111624c12d30533fdfeb26d,2023-11-23_21h35.01.479,kallum_motion_pilot,2023.1.2,Win32,59.28385108,6111624c12d30533fdfeb26d,656018846682f3df8008bb8f,656019c7e22a2c43a630d31a,0,3,3,111,1,eightseven,,,,,,,,,,,,,,,,,,,,,,,,,,,,,,,,,,,,,,,,,,,,,,,,,,,,,,,,,,,,,,,,,,,,,,,,,,,,,,,,,,,,,
6111624c12d30533fdfeb26d,2023-11-23_21h35.01.479,kallum_motion_pilot,2023.1.2,Win32,59.28385108,6111624c12d30533fdfeb26d,656018846682f3df8008bb8f,656019c7e22a2c43a630d31a,0,4,4,70,1,fourtwo,,,,,,,,,,,,,,,,,,,,,,,,,,,,,,,,,,,,,,,,,,,,,,,,,,,,,,,,,,,,,,,,,,,,,,,,,,,,,,,,,,,,,
6111624c12d30533fdfeb26d,2023-11-23_21h35.01.479,kallum_motion_pilot,2023.1.2,Win32,59.28385108,6111624c12d30533fdfeb26d,656018846682f3df8008bb8f,656019c7e22a2c43a630d31a,0,5,5,9,1,onethree,,,,,,,,,,,,,,,,,,,,,,,,,,,,,,,,,,,,,,,,,,,,,,,,,,,,,,,,,,,,,,,,,,,,,,,,,,,,,,,,,,,,,
6111624c12d30533fdfeb26d,2023-11-23_21h35.01.479,kallum_motion_pilot,2023.1.2,Win32,59.28385108,6111624c12d30533fdfeb26d,656018846682f3df8008bb8f,656019c7e22a2c43a630d31a,0,6,6,32,1,onetwo,,,,,,,,,,,,,,,,,,,,,,,,,,,,,,,,,,,,,,,,,,,,,,,,,,,,,,,,,,,,,,,,,,,,,,,,,,,,,,,,,,,,,
6111624c12d30533fdfeb26d,2023-11-23_21h35.01.479,kallum_motion_pilot,2023.1.2,Win32,59.28385108,6111624c12d30533fdfeb26d,656018846682f3df8008bb8f,656019c7e22a2c43a630d31a,0,7,7,134,1,eightsix,,,,,,,,,,,,,,,,,,,,,,,,,,,,,,,,,,,,,,,,,,,,,,,,,,,,,,,,,,,,,,,,,,,,,,,,,,,,,,,,,,,,,
6111624c12d30533fdfeb26d,2023-11-23_21h35.01.479,kallum_motion_pilot,2023.1.2,Win32,59.28385108,6111624c12d30533fdfeb26d,656018846682f3df8008bb8f,656019c7e22a2c43a630d31a,0,8,8,5,1,threefour,,,,,,,,,,,,,,,,,,,,,,,,,,,,,,,,,,,,,,,,,,,,,,,,,,,,,,,,,,,,,,,,,,,,,,,,,,,,,,,,,,,,,
6111624c12d30533fdfeb26d,2023-11-23_21h35.01.479,kallum_motion_pilot,2023.1.2,Win32,59.28385108,6111624c12d30533fdfeb26d,656018846682f3df8008bb8f,656019c7e22a2c43a630d31a,0,9,9,139,1,sixeight,,,,,,,,,,,,,,,,,,,,,,,,,,,,,,,,,,,,,,,,,,,,,,,,,,,,,,,,,,,,,,,,,,,,,,,,,,,,,,,,,,,,,
6111624c12d30533fdfeb26d,2023-11-23_21h35.01.479,kallum_motion_pilot,2023.1.2,Win32,59.28385108,6111624c12d30533fdfeb26d,656018846682f3df8008bb8f,656019c7e22a2c43a630d31a,0,10,10,133,1,seveneight,,,,,,,,,,,,,,,,,,,,,,,,,,,,,,,,,,,,,,,,,,,,,,,,,,,,,,,,,,,,,,,,,,,,,,,,,,,,,,,,,,,,,
6111624c12d30533fdfeb26d,2023-11-23_21h35.01.479,kallum_motion_pilot,2023.1.2,Win32,59.28385108,6111624c12d30533fdfeb26d,656018846682f3df8008bb8f,656019c7e22a2c43a630d31a,0,11,11,124,1,sevenfive,,,,,,,,,,,,,,,,,,,,,,,,,,,,,,,,,,,,,,,,,,,,,,,,,,,,,,,,,,,,,,,,,,,,,,,,,,,,,,,,,,,,,
6111624c12d30533fdfeb26d,2023-11-23_21h35.01.479,kallum_motion_pilot,2023.1.2,Win32,59.28385108,6111624c12d30533fdfeb26d,656018846682f3df8008bb8f,656019c7e22a2c43a630d31a,0,12,12,108,1,sevenfive,,,,,,,,,,,,,,,,,,,,,,,,,,,,,,,,,,,,,,,,,,,,,,,,,,,,,,,,,,,,,,,,,,,,,,,,,,,,,,,,,,,,,
6111624c12d30533fdfeb26d,2023-11-23_21h35.01.479,kallum_motion_pilot,2023.1.2,Win32,59.28385108,6111624c12d30533fdfeb26d,656018846682f3df8008bb8f,656019c7e22a2c43a630d31a,0,13,13,6,1,fourtwo,,,,,,,,,,,,,,,,,,,,,,,,,,,,,,,,,,,,,,,,,,,,,,,,,,,,,,,,,,,,,,,,,,,,,,,,,,,,,,,,,,,,,
6111624c12d30533fdfeb26d,2023-11-23_21h35.01.479,kallum_motion_pilot,2023.1.2,Win32,59.28385108,6111624c12d30533fdfeb26d,656018846682f3df8008bb8f,656019c7e22a2c43a630d31a,0,14,14,56,1,onetwo,,,,,,,,,,,,,,,,,,,,,,,,,,,,,,,,,,,,,,,,,,,,,,,,,,,,,,,,,,,,,,,,,,,,,,,,,,,,,,,,,,,,,
6111624c12d30533fdfeb26d,2023-11-23_21h35.01.479,kallum_motion_pilot,2023.1.2,Win32,59.28385108,6111624c12d30533fdfeb26d,656018846682f3df8008bb8f,656019c7e22a2c43a630d31a,0,15,15,78,1,fourtwo,,,,,,,,,,,,,,,,,,,,,,,,,,,,,,,,,,,,,,,,,,,,,,,,,,,,,,,,,,,,,,,,,,,,,,,,,,,,,,,,,,,,,
6111624c12d30533fdfeb26d,2023-11-23_21h35.01.479,kallum_motion_pilot,2023.1.2,Win32,59.28385108,6111624c12d30533fdfeb26d,656018846682f3df8008bb8f,656019c7e22a2c43a630d31a,0,16,16,98,1,sixfive,,,,,,,,,,,,,,,,,,,,,,,,,,,,,,,,,,,,,,,,,,,,,,,,,,,,,,,,,,,,,,,,,,,,,,,,,,,,,,,,,,,,,
6111624c12d30533fdfeb26d,2023-11-23_21h35.01.479,kallum_motion_pilot,2023.1.2,Win32,59.28385108,6111624c12d30533fdfeb26d,656018846682f3df8008bb8f,656019c7e22a2c43a630d31a,0,17,17,87,1,eightseven,,,,,,,,,,,,,,,,,,,,,,,,,,,,,,,,,,,,,,,,,,,,,,,,,,,,,,,,,,,,,,,,,,,,,,,,,,,,,,,,,,,,,
6111624c12d30533fdfeb26d,2023-11-23_21h35.01.479,kallum_motion_pilot,2023.1.2,Win32,59.28385108,6111624c12d30533fdfeb26d,656018846682f3df8008bb8f,656019c7e22a2c43a630d31a,0,18,18,85,1,seveneight,,,,,,,,,,,,,,,,,,,,,,,,,,,,,,,,,,,,,,,,,,,,,,,,,,,,,,,,,,,,,,,,,,,,,,,,,,,,,,,,,,,,,
6111624c12d30533fdfeb26d,2023-11-23_21h35.01.479,kallum_motion_pilot,2023.1.2,Win32,59.28385108,6111624c12d30533fdfeb26d,656018846682f3df8008bb8f,656019c7e22a2c43a630d31a,0,19,19,143,1,eightseven,,,,,,,,,,,,,,,,,,,,,,,,,,,,,,,,,,,,,,,,,,,,,,,,,,,,,,,,,,,,,,,,,,,,,,,,,,,,,,,,,,,,,
6111624c12d30533fdfeb26d,2023-11-23_21h35.01.479,kallum_motion_pilot,2023.1.2,Win32,59.28385108,6111624c12d30533fdfeb26d,656018846682f3df8008bb8f,656019c7e22a2c43a630d31a,0,20,20,23,1,fourthree,,,,,,,,,,,,,,,,,,,,,,,,,,,,,,,,,,,,,,,,,,,,,,,,,,,,,,,,,,,,,,,,,,,,,,,,,,,,,,,,,,,,,
6111624c12d30533fdfeb26d,2023-11-23_21h35.01.479,kallum_motion_pilot,2023.1.2,Win32,59.28385108,6111624c12d30533fdfeb26d,656018846682f3df8008bb8f,656019c7e22a2c43a630d31a,0,21,21,88,1,fivesix,,,,,,,,,,,,,,,,,,,,,,,,,,,,,,,,,,,,,,,,,,,,,,,,,,,,,,,,,,,,,,,,,,,,,,,,,,,,,,,,,,,,,
6111624c12d30533fdfeb26d,2023-11-23_21h35.01.479,kallum_motion_pilot,2023.1.2,Win32,59.28385108,6111624c12d30533fdfeb26d,656018846682f3df8008bb8f,656019c7e22a2c43a630d31a,0,22,22,10,1,twoone,,,,,,,,,,,,,,,,,,,,,,,,,,,,,,,,,,,,,,,,,,,,,,,,,,,,,,,,,,,,,,,,,,,,,,,,,,,,,,,,,,,,,
6111624c12d30533fdfeb26d,2023-11-23_21h35.01.479,kallum_motion_pilot,2023.1.2,Win32,59.28385108,6111624c12d30533fdfeb26d,656018846682f3df8008bb8f,656019c7e22a2c43a630d31a,0,23,23,40,1,onetwo,,,,,,,,,,,,,,,,,,,,,,,,,,,,,,,,,,,,,,,,,,,,,,,,,,,,,,,,,,,,,,,,,,,,,,,,,,,,,,,,,,,,,
6111624c12d30533fdfeb26d,2023-11-23_21h35.01.479,kallum_motion_pilot,2023.1.2,Win32,59.28385108,6111624c12d30533fdfeb26d,656018846682f3df8008bb8f,656019c7e22a2c43a630d31a,0,24,24,146,1,sixfive,,,,,,,,,,,,,,,,,,,,,,,,,,,,,,,,,,,,,,,,,,,,,,,,,,,,,,,,,,,,,,,,,,,,,,,,,,,,,,,,,,,,,
6111624c12d30533fdfeb26d,2023-11-23_21h35.01.479,kallum_motion_pilot,2023.1.2,Win32,59.28385108,6111624c12d30533fdfeb26d,656018846682f3df8008bb8f,656019c7e22a2c43a630d31a,0,25,25,147,1,sixeight,,,,,,,,,,,,,,,,,,,,,,,,,,,,,,,,,,,,,,,,,,,,,,,,,,,,,,,,,,,,,,,,,,,,,,,,,,,,,,,,,,,,,
6111624c12d30533fdfeb26d,2023-11-23_21h35.01.479,kallum_motion_pilot,2023.1.2,Win32,59.28385108,6111624c12d30533fdfeb26d,656018846682f3df8008bb8f,656019c7e22a2c43a630d31a,0,26,26,104,1,fivesix,,,,,,,,,,,,,,,,,,,,,,,,,,,,,,,,,,,,,,,,,,,,,,,,,,,,,,,,,,,,,,,,,,,,,,,,,,,,,,,,,,,,,
6111624c12d30533fdfeb26d,2023-11-23_21h35.01.479,kallum_motion_pilot,2023.1.2,Win32,59.28385108,6111624c12d30533fdfeb26d,656018846682f3df8008bb8f,656019c7e22a2c43a630d31a,0,27,27,95,1,eightseven,,,,,,,,,,,,,,,,,,,,,,,,,,,,,,,,,,,,,,,,,,,,,,,,,,,,,,,,,,,,,,,,,,,,,,,,,,,,,,,,,,,,,
6111624c12d30533fdfeb26d,2023-11-23_21h35.01.479,kallum_motion_pilot,2023.1.2,Win32,59.28385108,6111624c12d30533fdfeb26d,656018846682f3df8008bb8f,656019c7e22a2c43a630d31a,0,28,28,152,1,fivesix,,,,,,,,,,,,,,,,,,,,,,,,,,,,,,,,,,,,,,,,,,,,,,,,,,,,,,,,,,,,,,,,,,,,,,,,,,,,,,,,,,,,,
6111624c12d30533fdfeb26d,2023-11-23_21h35.01.479,kallum_motion_pilot,2023.1.2,Win32,59.28385108,6111624c12d30533fdfeb26d,656018846682f3df8008bb8f,656019c7e22a2c43a630d31a,0,29,29,110,1,eightsix,,,,,,,,,,,,,,,,,,,,,,,,,,,,,,,,,,,,,,,,,,,,,,,,,,,,,,,,,,,,,,,,,,,,,,,,,,,,,,,,,,,,,
6111624c12d30533fdfeb26d,2023-11-23_21h35.01.479,kallum_motion_pilot,2023.1.2,Win32,59.28385108,6111624c12d30533fdfeb26d,656018846682f3df8008bb8f,656019c7e22a2c43a630d31a,0,30,30,100,1,sevenfive,,,,,,,,,,,,,,,,,,,,,,,,,,,,,,,,,,,,,,,,,,,,,,,,,,,,,,,,,,,,,,,,,,,,,,,,,,,,,,,,,,,,,
6111624c12d30533fdfeb26d,2023-11-23_21h35.01.479,kallum_motion_pilot,2023.1.2,Win32,59.28385108,6111624c12d30533fdfeb26d,656018846682f3df8008bb8f,656019c7e22a2c43a630d31a,0,31,31,52,1,threeone,,,,,,,,,,,,,,,,,,,,,,,,,,,,,,,,,,,,,,,,,,,,,,,,,,,,,,,,,,,,,,,,,,,,,,,,,,,,,,,,,,,,,
6111624c12d30533fdfeb26d,2023-11-23_21h35.01.479,kallum_motion_pilot,2023.1.2,Win32,59.28385108,6111624c12d30533fdfeb26d,656018846682f3df8008bb8f,656019c7e22a2c43a630d31a,0,32,32,105,1,fiveseven,,,,,,,,,,,,,,,,,,,,,,,,,,,,,,,,,,,,,,,,,,,,,,,,,,,,,,,,,,,,,,,,,,,,,,,,,,,,,,,,,,,,,
6111624c12d30533fdfeb26d,2023-11-23_21h35.01.479,kallum_motion_pilot,2023.1.2,Win32,59.28385108,6111624c12d30533fdfeb26d,656018846682f3df8008bb8f,656019c7e22a2c43a630d31a,0,33,33,63,1,fourthree,,,,,,,,,,,,,,,,,,,,,,,,,,,,,,,,,,,,,,,,,,,,,,,,,,,,,,,,,,,,,,,,,,,,,,,,,,,,,,,,,,,,,
6111624c12d30533fdfeb26d,2023-11-23_21h35.01.479,kallum_motion_pilot,2023.1.2,Win32,59.28385108,6111624c12d30533fdfeb26d,656018846682f3df8008bb8f,656019c7e22a2c43a630d31a,0,34,34,58,1,twoone,,,,,,,,,,,,,,,,,,,,,,,,,,,,,,,,,,,,,,,,,,,,,,,,,,,,,,,,,,,,,,,,,,,,,,,,,,,,,,,,,,,,,
6111624c12d30533fdfeb26d,2023-11-23_21h35.01.479,kallum_motion_pilot,2023.1.2,Win32,59.28385108,6111624c12d30533fdfeb26d,656018846682f3df8008bb8f,656019c7e22a2c43a630d31a,0,35,35,112,1,fivesix,,,,,,,,,,,,,,,,,,,,,,,,,,,,,,,,,,,,,,,,,,,,,,,,,,,,,,,,,,,,,,,,,,,,,,,,,,,,,,,,,,,,,
6111624c12d30533fdfeb26d,2023-11-23_21h35.01.479,kallum_motion_pilot,2023.1.2,Win32,59.28385108,6111624c12d30533fdfeb26d,656018846682f3df8008bb8f,656019c7e22a2c43a630d31a,0,36,36,55,1,fourthree,,,,,,,,,,,,,,,,,,,,,,,,,,,,,,,,,,,,,,,,,,,,,,,,,,,,,,,,,,,,,,,,,,,,,,,,,,,,,,,,,,,,,
6111624c12d30533fdfeb26d,2023-11-23_21h35.01.479,kallum_motion_pilot,2023.1.2,Win32,59.28385108,6111624c12d30533fdfeb26d,656018846682f3df8008bb8f,656019c7e22a2c43a630d31a,0,37,37,42,1,twoone,,,,,,,,,,,,,,,,,,,,,,,,,,,,,,,,,,,,,,,,,,,,,,,,,,,,,,,,,,,,,,,,,,,,,,,,,,,,,,,,,,,,,
6111624c12d30533fdfeb26d,2023-11-23_21h35.01.479,kallum_motion_pilot,2023.1.2,Win32,59.28385108,6111624c12d30533fdfeb26d,656018846682f3df8008bb8f,656019c7e22a2c43a630d31a,0,38,38,157,1,seveneight,,,,,,,,,,,,,,,,,,,,,,,,,,,,,,,,,,,,,,,,,,,,,,,,,,,,,,,,,,,,,,,,,,,,,,,,,,,,,,,,,,,,,
6111624c12d30533fdfeb26d,2023-11-23_21h35.01.479,kallum_motion_pilot,2023.1.2,Win32,59.28385108,6111624c12d30533fdfeb26d,656018846682f3df8008bb8f,656019c7e22a2c43a630d31a,0,39,39,107,1,sixeight,,,,,,,,,,,,,,,,,,,,,,,,,,,,,,,,,,,,,,,,,,,,,,,,,,,,,,,,,,,,,,,,,,,,,,,,,,,,,,,,,,,,,
6111624c12d30533fdfeb26d,2023-11-23_21h35.01.479,kallum_motion_pilot,2023.1.2,Win32,59.28385108,6111624c12d30533fdfeb26d,656018846682f3df8008bb8f,656019c7e22a2c43a630d31a,0,40,40,145,1,fiveseven,,,,,,,,,,,,,,,,,,,,,,,,,,,,,,,,,,,,,,,,,,,,,,,,,,,,,,,,,,,,,,,,,,,,,,,,,,,,,,,,,,,,,
6111624c12d30533fdfeb26d,2023-11-23_21h35.01.479,kallum_motion_pilot,2023.1.2,Win32,59.28385108,6111624c12d30533fdfeb26d,656018846682f3df8008bb8f,656019c7e22a2c43a630d31a,0,41,41,91,1,sixeight,,,,,,,,,,,,,,,,,,,,,,,,,,,,,,,,,,,,,,,,,,,,,,,,,,,,,,,,,,,,,,,,,,,,,,,,,,,,,,,,,,,,,
6111624c12d30533fdfeb26d,2023-11-23_21h35.01.479,kallum_motion_pilot,2023.1.2,Win32,59.28385108,6111624c12d30533fdfeb26d,656018846682f3df8008bb8f,656019c7e22a2c43a630d31a,0,42,42,36,1,threeone,,,,,,,,,,,,,,,,,,,,,,,,,,,,,,,,,,,,,,,,,,,,,,,,,,,,,,,,,,,,,,,,,,,,,,,,,,,,,,,,,,,,,
6111624c12d30533fdfeb26d,2023-11-23_21h35.01.479,kallum_motion_pilot,2023.1.2,Win32,59.28385108,6111624c12d30533fdfeb26d,656018846682f3df8008bb8f,656019c7e22a2c43a630d31a,0,43,43,118,1,eightsix,,,,,,,,,,,,,,,,,,,,,,,,,,,,,,,,,,,,,,,,,,,,,,,,,,,,,,,,,,,,,,,,,,,,,,,,,,,,,,,,,,,,,
6111624c12d30533fdfeb26d,2023-11-23_21h35.01.479,kallum_motion_pilot,2023.1.2,Win32,59.28385108,6111624c12d30533fdfeb26d,656018846682f3df8008bb8f,656019c7e22a2c43a630d31a,0,44,44,65,1,onethree,,,,,,,,,,,,,,,,,,,,,,,,,,,,,,,,,,,,,,,,,,,,,,,,,,,,,,,,,,,,,,,,,,,,,,,,,,,,,,,,,,,,,
6111624c12d30533fdfeb26d,2023-11-23_21h35.01.479,kallum_motion_pilot,2023.1.2,Win32,59.28385108,6111624c12d30533fdfeb26d,656018846682f3df8008bb8f,656019c7e22a2c43a630d31a,0,45,45,17,1,onethree,,,,,,,,,,,,,,,,,,,,,,,,,,,,,,,,,,,,,,,,,,,,,,,,,,,,,,,,,,,,,,,,,,,,,,,,,,,,,,,,,,,,,
6111624c12d30533fdfeb26d,2023-11-23_21h35.01.479,kallum_motion_pilot,2023.1.2,Win32,59.28385108,6111624c12d30533fdfeb26d,656018846682f3df8008bb8f,656019c7e22a2c43a630d31a,0,46,46,44,1,threeone,,,,,,,,,,,,,,,,,,,,,,,,,,,,,,,,,,,,,,,,,,,,,,,,,,,,,,,,,,,,,,,,,,,,,,,,,,,,,,,,,,,,,
6111624c12d30533fdfeb26d,2023-11-23_21h35.01.479,kallum_motion_pilot,2023.1.2,Win32,59.28385108,6111624c12d30533fdfeb26d,656018846682f3df8008bb8f,656019c7e22a2c43a630d31a,0,47,47,0,1,onetwo,,,,,,,,,,,,,,,,,,,,,,,,,,,,,,,,,,,,,,,,,,,,,,,,,,,,,,,,,,,,,,,,,,,,,,,,,,,,,,,,,,,,,
6111624c12d30533fdfeb26d,2023-11-23_21h35.01.479,kallum_motion_pilot,2023.1.2,Win32,59.28385108,6111624c12d30533fdfeb26d,656018846682f3df8008bb8f,656019c7e22a2c43a630d31a,0,48,48,25,1,onethree,,,,,,,,,,,,,,,,,,,,,,,,,,,,,,,,,,,,,,,,,,,,,,,,,,,,,,,,,,,,,,,,,,,,,,,,,,,,,,,,,,,,,
6111624c12d30533fdfeb26d,2023-11-23_21h35.01.479,kallum_motion_pilot,2023.1.2,Win32,59.28385108,6111624c12d30533fdfeb26d,656018846682f3df8008bb8f,656019c7e22a2c43a630d31a,0,49,49,35,1,twofour,,,,,,,,,,,,,,,,,,,,,,,,,,,,,,,,,,,,,,,,,,,,,,,,,,,,,,,,,,,,,,,,,,,,,,,,,,,,,,,,,,,,,
6111624c12d30533fdfeb26d,2023-11-23_21h35.01.479,kallum_motion_pilot,2023.1.2,Win32,59.28385108,6111624c12d30533fdfeb26d,656018846682f3df8008bb8f,656019c7e22a2c43a630d31a,0,50,50,86,1,eightsix,,,,,,,,,,,,,,,,,,,,,,,,,,,,,,,,,,,,,,,,,,,,,,,,,,,,,,,,,,,,,,,,,,,,,,,,,,,,,,,,,,,,,
6111624c12d30533fdfeb26d,2023-11-23_21h35.01.479,kallum_motion_pilot,2023.1.2,Win32,59.28385108,6111624c12d30533fdfeb26d,656018846682f3df8008bb8f,656019c7e22a2c43a630d31a,0,51,51,7,1,fourthree,,,,,,,,,,,,,,,,,,,,,,,,,,,,,,,,,,,,,,,,,,,,,,,,,,,,,,,,,,,,,,,,,,,,,,,,,,,,,,,,,,,,,
6111624c12d30533fdfeb26d,2023-11-23_21h35.01.479,kallum_motion_pilot,2023.1.2,Win32,59.28385108,6111624c12d30533fdfeb26d,656018846682f3df8008bb8f,656019c7e22a2c43a630d31a,0,52,52,77,1,threefour,,,,,,,,,,,,,,,,,,,,,,,,,,,,,,,,,,,,,,,,,,,,,,,,,,,,,,,,,,,,,,,,,,,,,,,,,,,,,,,,,,,,,
6111624c12d30533fdfeb26d,2023-11-23_21h35.01.479,kallum_motion_pilot,2023.1.2,Win32,59.28385108,6111624c12d30533fdfeb26d,656018846682f3df8008bb8f,656019c7e22a2c43a630d31a,0,53,53,90,1,sixfive,,,,,,,,,,,,,,,,,,,,,,,,,,,,,,,,,,,,,,,,,,,,,,,,,,,,,,,,,,,,,,,,,,,,,,,,,,,,,,,,,,,,,
6111624c12d30533fdfeb26d,2023-11-23_21h35.01.479,kallum_motion_pilot,2023.1.2,Win32,59.28385108,6111624c12d30533fdfeb26d,656018846682f3df8008bb8f,656019c7e22a2c43a630d31a,0,54,54,72,1,onetwo,,,,,,,,,,,,,,,,,,,,,,,,,,,,,,,,,,,,,,,,,,,,,,,,,,,,,,,,,,,,,,,,,,,,,,,,,,,,,,,,,,,,,
6111624c12d30533fdfeb26d,2023-11-23_21h35.01.479,kallum_motion_pilot,2023.1.2,Win32,59.28385108,6111624c12d30533fdfeb26d,656018846682f3df8008bb8f,656019c7e22a2c43a630d31a,0,55,55,153,1,fiveseven,,,,,,,,,,,,,,,,,,,,,,,,,,,,,,,,,,,,,,,,,,,,,,,,,,,,,,,,,,,,,,,,,,,,,,,,,,,,,,,,,,,,,
6111624c12d30533fdfeb26d,2023-11-23_21h35.01.479,kallum_motion_pilot,2023.1.2,Win32,59.28385108,6111624c12d30533fdfeb26d,656018846682f3df8008bb8f,656019c7e22a2c43a630d31a,0,56,56,29,1,threefour,,,,,,,,,,,,,,,,,,,,,,,,,,,,,,,,,,,,,,,,,,,,,,,,,,,,,,,,,,,,,,,,,,,,,,,,,,,,,,,,,,,,,
6111624c12d30533fdfeb26d,2023-11-23_21h35.01.479,kallum_motion_pilot,2023.1.2,Win32,59.28385108,6111624c12d30533fdfeb26d,656018846682f3df8008bb8f,656019c7e22a2c43a630d31a,0,57,57,92,1,sevenfive,,,,,,,,,,,,,,,,,,,,,,,,,,,,,,,,,,,,,,,,,,,,,,,,,,,,,,,,,,,,,,,,,,,,,,,,,,,,,,,,,,,,,
6111624c12d30533fdfeb26d,2023-11-23_21h35.01.479,kallum_motion_pilot,2023.1.2,Win32,59.28385108,6111624c12d30533fdfeb26d,656018846682f3df8008bb8f,656019c7e22a2c43a630d31a,0,58,58,76,1,threeone,,,,,,,,,,,,,,,,,,,,,,,,,,,,,,,,,,,,,,,,,,,,,,,,,,,,,,,,,,,,,,,,,,,,,,,,,,,,,,,,,,,,,
6111624c12d30533fdfeb26d,2023-11-23_21h35.01.479,kallum_motion_pilot,2023.1.2,Win32,59.28385108,6111624c12d30533fdfeb26d,656018846682f3df8008bb8f,656019c7e22a2c43a630d31a,0,59,59,43,1,twofour,,,,,,,,,,,,,,,,,,,,,,,,,,,,,,,,,,,,,,,,,,,,,,,,,,,,,,,,,,,,,,,,,,,,,,,,,,,,,,,,,,,,,
6111624c12d30533fdfeb26d,2023-11-23_21h35.01.479,kallum_motion_pilot,2023.1.2,Win32,59.28385108,6111624c12d30533fdfeb26d,656018846682f3df8008bb8f,656019c7e22a2c43a630d31a,0,60,60,57,1,onethree,,,,,,,,,,,,,,,,,,,,,,,,,,,,,,,,,,,,,,,,,,,,,,,,,,,,,,,,,,,,,,,,,,,,,,,,,,,,,,,,,,,,,
6111624c12d30533fdfeb26d,2023-11-23_21h35.01.479,kallum_motion_pilot,2023.1.2,Win32,59.28385108,6111624c12d30533fdfeb26d,656018846682f3df8008bb8f,656019c7e22a2c43a630d31a,0,61,61,33,1,onethree,,,,,,,,,,,,,,,,,,,,,,,,,,,,,,,,,,,,,,,,,,,,,,,,,,,,,,,,,,,,,,,,,,,,,,,,,,,,,,,,,,,,,
6111624c12d30533fdfeb26d,2023-11-23_21h35.01.479,kallum_motion_pilot,2023.1.2,Win32,59.28385108,6111624c12d30533fdfeb26d,656018846682f3df8008bb8f,656019c7e22a2c43a630d31a,0,62,62,117,1,seveneight,,,,,,,,,,,,,,,,,,,,,,,,,,,,,,,,,,,,,,,,,,,,,,,,,,,,,,,,,,,,,,,,,,,,,,,,,,,,,,,,,,,,,
6111624c12d30533fdfeb26d,2023-11-23_21h35.01.479,kallum_motion_pilot,2023.1.2,Win32,59.28385108,6111624c12d30533fdfeb26d,656018846682f3df8008bb8f,656019c7e22a2c43a630d31a,0,63,63,54,1,fourtwo,,,,,,,,,,,,,,,,,,,,,,,,,,,,,,,,,,,,,,,,,,,,,,,,,,,,,,,,,,,,,,,,,,,,,,,,,,,,,,,,,,,,,
6111624c12d30533fdfeb26d,2023-11-23_21h35.01.479,kallum_motion_pilot,2023.1.2,Win32,59.28385108,6111624c12d30533fdfeb26d,656018846682f3df8008bb8f,656019c7e22a2c43a630d31a,0,64,64,150,1,eightsix,,,,,,,,,,,,,,,,,,,,,,,,,,,,,,,,,,,,,,,,,,,,,,,,,,,,,,,,,,,,,,,,,,,,,,,,,,,,,,,,,,,,,
6111624c12d30533fdfeb26d,2023-11-23_21h35.01.479,kallum_motion_pilot,2023.1.2,Win32,59.28385108,6111624c12d30533fdfeb26d,656018846682f3df8008bb8f,656019c7e22a2c43a630d31a,0,65,65,96,1,fivesix,,,,,,,,,,,,,,,,,,,,,,,,,,,,,,,,,,,,,,,,,,,,,,,,,,,,,,,,,,,,,,,,,,,,,,,,,,,,,,,,,,,,,
6111624c12d30533fdfeb26d,2023-11-23_21h35.01.479,kallum_motion_pilot,2023.1.2,Win32,59.28385108,6111624c12d30533fdfeb26d,656018846682f3df8008bb8f,656019c7e22a2c43a630d31a,0,66,66,131,1,sixeight,,,,,,,,,,,,,,,,,,,,,,,,,,,,,,,,,,,,,,,,,,,,,,,,,,,,,,,,,,,,,,,,,,,,,,,,,,,,,,,,,,,,,
6111624c12d30533fdfeb26d,2023-11-23_21h35.01.479,kallum_motion_pilot,2023.1.2,Win32,59.28385108,6111624c12d30533fdfeb26d,656018846682f3df8008bb8f,656019c7e22a2c43a630d31a,0,67,67,125,1,seveneight,,,,,,,,,,,,,,,,,,,,,,,,,,,,,,,,,,,,,,,,,,,,,,,,,,,,,,,,,,,,,,,,,,,,,,,,,,,,,,,,,,,,,
6111624c12d30533fdfeb26d,2023-11-23_21h35.01.479,kallum_motion_pilot,2023.1.2,Win32,59.28385108,6111624c12d30533fdfeb26d,656018846682f3df8008bb8f,656019c7e22a2c43a630d31a,0,68,68,135,1,eightseven,,,,,,,,,,,,,,,,,,,,,,,,,,,,,,,,,,,,,,,,,,,,,,,,,,,,,,,,,,,,,,,,,,,,,,,,,,,,,,,,,,,,,
6111624c12d30533fdfeb26d,2023-11-23_21h35.01.479,kallum_motion_pilot,2023.1.2,Win32,59.28385108,6111624c12d30533fdfeb26d,656018846682f3df8008bb8f,656019c7e22a2c43a630d31a,0,69,69,53,1,threefour,,,,,,,,,,,,,,,,,,,,,,,,,,,,,,,,,,,,,,,,,,,,,,,,,,,,,,,,,,,,,,,,,,,,,,,,,,,,,,,,,,,,,
6111624c12d30533fdfeb26d,2023-11-23_21h35.01.479,kallum_motion_pilot,2023.1.2,Win32,59.28385108,6111624c12d30533fdfeb26d,656018846682f3df8008bb8f,656019c7e22a2c43a630d31a,0,70,70,45,1,threefour,,,,,,,,,,,,,,,,,,,,,,,,,,,,,,,,,,,,,,,,,,,,,,,,,,,,,,,,,,,,,,,,,,,,,,,,,,,,,,,,,,,,,
6111624c12d30533fdfeb26d,2023-11-23_21h35.01.479,kallum_motion_pilot,2023.1.2,Win32,59.28385108,6111624c12d30533fdfeb26d,656018846682f3df8008bb8f,656019c7e22a2c43a630d31a,0,71,71,71,1,fourthree,,,,,,,,,,,,,,,,,,,,,,,,,,,,,,,,,,,,,,,,,,,,,,,,,,,,,,,,,,,,,,,,,,,,,,,,,,,,,,,,,,,,,
6111624c12d30533fdfeb26d,2023-11-23_21h35.01.479,kallum_motion_pilot,2023.1.2,Win32,59.28385108,6111624c12d30533fdfeb26d,656018846682f3df8008bb8f,656019c7e22a2c43a630d31a,0,72,72,84,1,sevenfive,,,,,,,,,,,,,,,,,,,,,,,,,,,,,,,,,,,,,,,,,,,,,,,,,,,,,,,,,,,,,,,,,,,,,,,,,,,,,,,,,,,,,
6111624c12d30533fdfeb26d,2023-11-23_21h35.01.479,kallum_motion_pilot,2023.1.2,Win32,59.28385108,6111624c12d30533fdfeb26d,656018846682f3df8008bb8f,656019c7e22a2c43a630d31a,0,73,73,4,1,threeone,,,,,,,,,,,,,,,,,,,,,,,,,,,,,,,,,,,,,,,,,,,,,,,,,,,,,,,,,,,,,,,,,,,,,,,,,,,,,,,,,,,,,
6111624c12d30533fdfeb26d,2023-11-23_21h35.01.479,kallum_motion_pilot,2023.1.2,Win32,59.28385108,6111624c12d30533fdfeb26d,656018846682f3df8008bb8f,656019c7e22a2c43a630d31a,0,74,74,48,1,onetwo,,,,,,,,,,,,,,,,,,,,,,,,,,,,,,,,,,,,,,,,,,,,,,,,,,,,,,,,,,,,,,,,,,,,,,,,,,,,,,,,,,,,,
6111624c12d30533fdfeb26d,2023-11-23_21h35.01.479,kallum_motion_pilot,2023.1.2,Win32,59.28385108,6111624c12d30533fdfeb26d,656018846682f3df8008bb8f,656019c7e22a2c43a630d31a,0,75,75,27,1,twofour,,,,,,,,,,,,,,,,,,,,,,,,,,,,,,,,,,,,,,,,,,,,,,,,,,,,,,,,,,,,,,,,,,,,,,,,,,,,,,,,,,,,,
6111624c12d30533fdfeb26d,2023-11-23_21h35.01.479,kallum_motion_pilot,2023.1.2,Win32,59.28385108,6111624c12d30533fdfeb26d,656018846682f3df8008bb8f,656019c7e22a2c43a630d31a,0,76,76,47,1,fourthree,,,,,,,,,,,,,,,,,,,,,,,,,,,,,,,,,,,,,,,,,,,,,,,,,,,,,,,,,,,,,,,,,,,,,,,,,,,,,,,,,,,,,
6111624c12d30533fdfeb26d,2023-11-23_21h35.01.479,kallum_motion_pilot,2023.1.2,Win32,59.28385108,6111624c12d30533fdfeb26d,656018846682f3df8008bb8f,656019c7e22a2c43a630d31a,0,77,77,75,1,twofour,,,,,,,,,,,,,,,,,,,,,,,,,,,,,,,,,,,,,,,,,,,,,,,,,,,,,,,,,,,,,,,,,,,,,,,,,,,,,,,,,,,,,
6111624c12d30533fdfeb26d,2023-11-23_21h35.01.479,kallum_motion_pilot,2023.1.2,Win32,59.28385108,6111624c12d30533fdfeb26d,656018846682f3df8008bb8f,656019c7e22a2c43a630d31a,0,78,78,93,1,seveneight,,,,,,,,,,,,,,,,,,,,,,,,,,,,,,,,,,,,,,,,,,,,,,,,,,,,,,,,,,,,,,,,,,,,,,,,,,,,,,,,,,,,,
6111624c12d30533fdfeb26d,2023-11-23_21h35.01.479,kallum_motion_pilot,2023.1.2,Win32,59.28385108,6111624c12d30533fdfeb26d,656018846682f3df8008bb8f,656019c7e22a2c43a630d31a,0,79,79,142,1,eightsix,,,,,,,,,,,,,,,,,,,,,,,,,,,,,,,,,,,,,,,,,,,,,,,,,,,,,,,,,,,,,,,,,,,,,,,,,,,,,,,,,,,,,
6111624c12d30533fdfeb26d,2023-11-23_21h35.01.479,kallum_motion_pilot,2023.1.2,Win32,59.28385108,6111624c12d30533fdfeb26d,656018846682f3df8008bb8f,656019c7e22a2c43a630d31a,0,80,80,155,1,sixeight,,,,,,,,,,,,,,,,,,,,,,,,,,,,,,,,,,,,,,,,,,,,,,,,,,,,,,,,,,,,,,,,,,,,,,,,,,,,,,,,,,,,,
6111624c12d30533fdfeb26d,2023-11-23_21h35.01.479,kallum_motion_pilot,2023.1.2,Win32,59.28385108,6111624c12d30533fdfeb26d,656018846682f3df8008bb8f,656019c7e22a2c43a630d31a,0,81,81,113,1,fiveseven,,,,,,,,,,,,,,,,,,,,,,,,,,,,,,,,,,,,,,,,,,,,,,,,,,,,,,,,,,,,,,,,,,,,,,,,,,,,,,,,,,,,,
6111624c12d30533fdfeb26d,2023-11-23_21h35.01.479,kallum_motion_pilot,2023.1.2,Win32,59.28385108,6111624c12d30533fdfeb26d,656018846682f3df8008bb8f,656019c7e22a2c43a630d31a,0,82,82,144,1,fivesix,,,,,,,,,,,,,,,,,,,,,,,,,,,,,,,,,,,,,,,,,,,,,,,,,,,,,,,,,,,,,,,,,,,,,,,,,,,,,,,,,,,,,
6111624c12d30533fdfeb26d,2023-11-23_21h35.01.479,kallum_motion_pilot,2023.1.2,Win32,59.28385108,6111624c12d30533fdfeb26d,656018846682f3df8008bb8f,656019c7e22a2c43a630d31a,0,83,83,103,1,eightseven,,,,,,,,,,,,,,,,,,,,,,,,,,,,,,,,,,,,,,,,,,,,,,,,,,,,,,,,,,,,,,,,,,,,,,,,,,,,,,,,,,,,,
6111624c12d30533fdfeb26d,2023-11-23_21h35.01.479,kallum_motion_pilot,2023.1.2,Win32,59.28385108,6111624c12d30533fdfeb26d,656018846682f3df8008bb8f,656019c7e22a2c43a630d31a,0,84,84,51,1,twofour,,,,,,,,,,,,,,,,,,,,,,,,,,,,,,,,,,,,,,,,,,,,,,,,,,,,,,,,,,,,,,,,,,,,,,,,,,,,,,,,,,,,,
6111624c12d30533fdfeb26d,2023-11-23_21h35.01.479,kallum_motion_pilot,2023.1.2,Win32,59.28385108,6111624c12d30533fdfeb26d,656018846682f3df8008bb8f,656019c7e22a2c43a630d31a,0,85,85,18,1,twoone,,,,,,,,,,,,,,,,,,,,,,,,,,,,,,,,,,,,,,,,,,,,,,,,,,,,,,,,,,,,,,,,,,,,,,,,,,,,,,,,,,,,,
6111624c12d30533fdfeb26d,2023-11-23_21h35.01.479,kallum_motion_pilot,2023.1.2,Win32,59.28385108,6111624c12d30533fdfeb26d,656018846682f3df8008bb8f,656019c7e22a2c43a630d31a,0,86,86,127,1,eightseven,,,,,,,,,,,,,,,,,,,,,,,,,,,,,,,,,,,,,,,,,,,,,,,,,,,,,,,,,,,,,,,,,,,,,,,,,,,,,,,,,,,,,
6111624c12d30533fdfeb26d,2023-11-23_21h35.01.479,kallum_motion_pilot,2023.1.2,Win32,59.28385108,6111624c12d30533fdfeb26d,656018846682f3df8008bb8f,656019c7e22a2c43a630d31a,0,87,87,156,1,sevenfive,,,,,,,,,,,,,,,,,,,,,,,,,,,,,,,,,,,,,,,,,,,,,,,,,,,,,,,,,,,,,,,,,,,,,,,,,,,,,,,,,,,,,
6111624c12d30533fdfeb26d,2023-11-23_21h35.01.479,kallum_motion_pilot,2023.1.2,Win32,59.28385108,6111624c12d30533fdfeb26d,656018846682f3df8008bb8f,656019c7e22a2c43a630d31a,0,88,88,161,1,fiveseven,,,,,,,,,,,,,,,,,,,,,,,,,,,,,,,,,,,,,,,,,,,,,,,,,,,,,,,,,,,,,,,,,,,,,,,,,,,,,,,,,,,,,
6111624c12d30533fdfeb26d,2023-11-23_21h35.01.479,kallum_motion_pilot,2023.1.2,Win32,59.28385108,6111624c12d30533fdfeb26d,656018846682f3df8008bb8f,656019c7e22a2c43a630d31a,0,89,89,37,1,threefour,,,,,,,,,,,,,,,,,,,,,,,,,,,,,,,,,,,,,,,,,,,,,,,,,,,,,,,,,,,,,,,,,,,,,,,,,,,,,,,,,,,,,
6111624c12d30533fdfeb26d,2023-11-23_21h35.01.479,kallum_motion_pilot,2023.1.2,Win32,59.28385108,6111624c12d30533fdfeb26d,656018846682f3df8008bb8f,656019c7e22a2c43a630d31a,0,90,90,64,1,onetwo,,,,,,,,,,,,,,,,,,,,,,,,,,,,,,,,,,,,,,,,,,,,,,,,,,,,,,,,,,,,,,,,,,,,,,,,,,,,,,,,,,,,,
6111624c12d30533fdfeb26d,2023-11-23_21h35.01.479,kallum_motion_pilot,2023.1.2,Win32,59.28385108,6111624c12d30533fdfeb26d,656018846682f3df8008bb8f,656019c7e22a2c43a630d31a,0,91,91,141,1,seveneight,,,,,,,,,,,,,,,,,,,,,,,,,,,,,,,,,,,,,,,,,,,,,,,,,,,,,,,,,,,,,,,,,,,,,,,,,,,,,,,,,,,,,
6111624c12d30533fdfeb26d,2023-11-23_21h35.01.479,kallum_motion_pilot,2023.1.2,Win32,59.28385108,6111624c12d30533fdfeb26d,656018846682f3df8008bb8f,656019c7e22a2c43a630d31a,0,92,92,148,1,sevenfive,,,,,,,,,,,,,,,,,,,,,,,,,,,,,,,,,,,,,,,,,,,,,,,,,,,,,,,,,,,,,,,,,,,,,,,,,,,,,,,,,,,,,
6111624c12d30533fdfeb26d,2023-11-23_21h35.01.479,kallum_motion_pilot,2023.1.2,Win32,59.28385108,6111624c12d30533fdfeb26d,656018846682f3df8008bb8f,656019c7e22a2c43a630d31a,0,93,93,30,1,fourtwo,,,,,,,,,,,,,,,,,,,,,,,,,,,,,,,,,,,,,,,,,,,,,,,,,,,,,,,,,,,,,,,,,,,,,,,,,,,,,,,,,,,,,
6111624c12d30533fdfeb26d,2023-11-23_21h35.01.479,kallum_motion_pilot,2023.1.2,Win32,59.28385108,6111624c12d30533fdfeb26d,656018846682f3df8008bb8f,656019c7e22a2c43a630d31a,0,94,94,19,1,twofour,,,,,,,,,,,,,,,,,,,,,,,,,,,,,,,,,,,,,,,,,,,,,,,,,,,,,,,,,,,,,,,,,,,,,,,,,,,,,,,,,,,,,
6111624c12d30533fdfeb26d,2023-11-23_21h35.01.479,kallum_motion_pilot,2023.1.2,Win32,59.28385108,6111624c12d30533fdfeb26d,656018846682f3df8008bb8f,656019c7e22a2c43a630d31a,0,95,95,130,1,sixfive,,,,,,,,,,,,,,,,,,,,,,,,,,,,,,,,,,,,,,,,,,,,,,,,,,,,,,,,,,,,,,,,,,,,,,,,,,,,,,,,,,,,,
6111624c12d30533fdfeb26d,2023-11-23_21h35.01.479,kallum_motion_pilot,2023.1.2,Win32,59.28385108,6111624c12d30533fdfeb26d,656018846682f3df8008bb8f,656019c7e22a2c43a630d31a,0,96,96,22,1,fourtwo,,,,,,,,,,,,,,,,,,,,,,,,,,,,,,,,,,,,,,,,,,,,,,,,,,,,,,,,,,,,,,,,,,,,,,,,,,,,,,,,,,,,,
6111624c12d30533fdfeb26d,2023-11-23_21h35.01.479,kallum_motion_pilot,2023.1.2,Win32,59.28385108,6111624c12d30533fdfeb26d,656018846682f3df8008bb8f,656019c7e22a2c43a630d31a,0,97,97,80,1,fivesix,,,,,,,,,,,,,,,,,,,,,,,,,,,,,,,,,,,,,,,,,,,,,,,,,,,,,,,,,,,,,,,,,,,,,,,,,,,,,,,,,,,,,
6111624c12d30533fdfeb26d,2023-11-23_21h35.01.479,kallum_motion_pilot,2023.1.2,Win32,59.28385108,6111624c12d30533fdfeb26d,656018846682f3df8008bb8f,656019c7e22a2c43a630d31a,0,98,98,106,1,sixfive,,,,,,,,,,,,,,,,,,,,,,,,,,,,,,,,,,,,,,,,,,,,,,,,,,,,,,,,,,,,,,,,,,,,,,,,,,,,,,,,,,,,,
6111624c12d30533fdfeb26d,2023-11-23_21h35.01.479,kallum_motion_pilot,2023.1.2,Win32,59.28385108,6111624c12d30533fdfeb26d,656018846682f3df8008bb8f,656019c7e22a2c43a630d31a,0,99,99,68,1,threeone,,,,,,,,,,,,,,,,,,,,,,,,,,,,,,,,,,,,,,,,,,,,,,,,,,,,,,,,,,,,,,,,,,,,,,,,,,,,,,,,,,,,,
6111624c12d30533fdfeb26d,2023-11-23_21h35.01.479,kallum_motion_pilot,2023.1.2,Win32,59.28385108,6111624c12d30533fdfeb26d,656018846682f3df8008bb8f,656019c7e22a2c43a630d31a,0,100,100,16,1,onetwo,,,,,,,,,,,,,,,,,,,,,,,,,,,,,,,,,,,,,,,,,,,,,,,,,,,,,,,,,,,,,,,,,,,,,,,,,,,,,,,,,,,,,
6111624c12d30533fdfeb26d,2023-11-23_21h35.01.479,kallum_motion_pilot,2023.1.2,Win32,59.28385108,6111624c12d30533fdfeb26d,656018846682f3df8008bb8f,656019c7e22a2c43a630d31a,0,101,101,66,1,twoone,,,,,,,,,,,,,,,,,,,,,,,,,,,,,,,,,,,,,,,,,,,,,,,,,,,,,,,,,,,,,,,,,,,,,,,,,,,,,,,,,,,,,
6111624c12d30533fdfeb26d,2023-11-23_21h35.01.479,kallum_motion_pilot,2023.1.2,Win32,59.28385108,6111624c12d30533fdfeb26d,656018846682f3df8008bb8f,656019c7e22a2c43a630d31a,0,102,102,73,1,onethree,,,,,,,,,,,,,,,,,,,,,,,,,,,,,,,,,,,,,,,,,,,,,,,,,,,,,,,,,,,,,,,,,,,,,,,,,,,,,,,,,,,,,
6111624c12d30533fdfeb26d,2023-11-23_21h35.01.479,kallum_motion_pilot,2023.1.2,Win32,59.28385108,6111624c12d30533fdfeb26d,656018846682f3df8008bb8f,656019c7e22a2c43a630d31a,0,103,103,126,1,eightsix,,,,,,,,,,,,,,,,,,,,,,,,,,,,,,,,,,,,,,,,,,,,,,,,,,,,,,,,,,,,,,,,,,,,,,,,,,,,,,,,,,,,,
6111624c12d30533fdfeb26d,2023-11-23_21h35.01.479,kallum_motion_pilot,2023.1.2,Win32,59.28385108,6111624c12d30533fdfeb26d,656018846682f3df8008bb8f,656019c7e22a2c43a630d31a,0,104,104,132,1,sevenfive,,,,,,,,,,,,,,,,,,,,,,,,,,,,,,,,,,,,,,,,,,,,,,,,,,,,,,,,,,,,,,,,,,,,,,,,,,,,,,,,,,,,,
6111624c12d30533fdfeb26d,2023-11-23_21h35.01.479,kallum_motion_pilot,2023.1.2,Win32,59.28385108,6111624c12d30533fdfeb26d,656018846682f3df8008bb8f,656019c7e22a2c43a630d31a,0,105,105,20,1,threeone,,,,,,,,,,,,,,,,,,,,,,,,,,,,,,,,,,,,,,,,,,,,,,,,,,,,,,,,,,,,,,,,,,,,,,,,,,,,,,,,,,,,,
6111624c12d30533fdfeb26d,2023-11-23_21h35.01.479,kallum_motion_pilot,2023.1.2,Win32,59.28385108,6111624c12d30533fdfeb26d,656018846682f3df8008bb8f,656019c7e22a2c43a630d31a,0,106,106,102,1,eightsix,,,,,,,,,,,,,,,,,,,,,,,,,,,,,,,,,,,,,,,,,,,,,,,,,,,,,,,,,,,,,,,,,,,,,,,,,,,,,,,,,,,,,
6111624c12d30533fdfeb26d,2023-11-23_21h35.01.479,kallum_motion_pilot,2023.1.2,Win32,59.28385108,6111624c12d30533fdfeb26d,656018846682f3df8008bb8f,656019c7e22a2c43a630d31a,0,107,107,11,1,twofour,,,,,,,,,,,,,,,,,,,,,,,,,,,,,,,,,,,,,,,,,,,,,,,,,,,,,,,,,,,,,,,,,,,,,,,,,,,,,,,,,,,,,
6111624c12d30533fdfeb26d,2023-11-23_21h35.01.479,kallum_motion_pilot,2023.1.2,Win32,59.28385108,6111624c12d30533fdfeb26d,656018846682f3df8008bb8f,656019c7e22a2c43a630d31a,0,108,108,136,1,fivesix,,,,,,,,,,,,,,,,,,,,,,,,,,,,,,,,,,,,,,,,,,,,,,,,,,,,,,,,,,,,,,,,,,,,,,,,,,,,,,,,,,,,,
6111624c12d30533fdfeb26d,2023-11-23_21h35.01.479,kallum_motion_pilot,2023.1.2,Win32,59.28385108,6111624c12d30533fdfeb26d,656018846682f3df8008bb8f,656019c7e22a2c43a630d31a,0,109,109,129,1,fiveseven,,,,,,,,,,,,,,,,,,,,,,,,,,,,,,,,,,,,,,,,,,,,,,,,,,,,,,,,,,,,,,,,,,,,,,,,,,,,,,,,,,,,,
6111624c12d30533fdfeb26d,2023-11-23_21h35.01.479,kallum_motion_pilot,2023.1.2,Win32,59.28385108,6111624c12d30533fdfeb26d,656018846682f3df8008bb8f,656019c7e22a2c43a630d31a,0,110,110,128,1,fivesix,,,,,,,,,,,,,,,,,,,,,,,,,,,,,,,,,,,,,,,,,,,,,,,,,,,,,,,,,,,,,,,,,,,,,,,,,,,,,,,,,,,,,
6111624c12d30533fdfeb26d,2023-11-23_21h35.01.479,kallum_motion_pilot,2023.1.2,Win32,59.28385108,6111624c12d30533fdfeb26d,656018846682f3df8008bb8f,656019c7e22a2c43a630d31a,0,111,111,159,1,eightseven,,,,,,,,,,,,,,,,,,,,,,,,,,,,,,,,,,,,,,,,,,,,,,,,,,,,,,,,,,,,,,,,,,,,,,,,,,,,,,,,,,,,,
6111624c12d30533fdfeb26d,2023-11-23_21h35.01.479,kallum_motion_pilot,2023.1.2,Win32,59.28385108,6111624c12d30533fdfeb26d,656018846682f3df8008bb8f,656019c7e22a2c43a630d31a,0,112,112,1,1,onethree,,,,,,,,,,,,,,,,,,,,,,,,,,,,,,,,,,,,,,,,,,,,,,,,,,,,,,,,,,,,,,,,,,,,,,,,,,,,,,,,,,,,,
6111624c12d30533fdfeb26d,2023-11-23_21h35.01.479,kallum_motion_pilot,2023.1.2,Win32,59.28385108,6111624c12d30533fdfeb26d,656018846682f3df8008bb8f,656019c7e22a2c43a630d31a,0,113,113,114,1,sixfive,,,,,,,,,,,,,,,,,,,,,,,,,,,,,,,,,,,,,,,,,,,,,,,,,,,,,,,,,,,,,,,,,,,,,,,,,,,,,,,,,,,,,
6111624c12d30533fdfeb26d,2023-11-23_21h35.01.479,kallum_motion_pilot,2023.1.2,Win32,59.28385108,6111624c12d30533fdfeb26d,656018846682f3df8008bb8f,656019c7e22a2c43a630d31a,0,114,114,83,1,sixeight,,,,,,,,,,,,,,,,,,,,,,,,,,,,,,,,,,,,,,,,,,,,,,,,,,,,,,,,,,,,,,,,,,,,,,,,,,,,,,,,,,,,,
6111624c12d30533fdfeb26d,2023-11-23_21h35.01.479,kallum_motion_pilot,2023.1.2,Win32,59.28385108,6111624c12d30533fdfeb26d,656018846682f3df8008bb8f,656019c7e22a2c43a630d31a,0,115,115,138,1,sixfive,,,,,,,,,,,,,,,,,,,,,,,,,,,,,,,,,,,,,,,,,,,,,,,,,,,,,,,,,,,,,,,,,,,,,,,,,,,,,,,,,,,,,
6111624c12d30533fdfeb26d,2023-11-23_21h35.01.479,kallum_motion_pilot,2023.1.2,Win32,59.28385108,6111624c12d30533fdfeb26d,656018846682f3df8008bb8f,656019c7e22a2c43a630d31a,0,116,116,119,1,eightseven,,,,,,,,,,,,,,,,,,,,,,,,,,,,,,,,,,,,,,,,,,,,,,,,,,,,,,,,,,,,,,,,,,,,,,,,,,,,,,,,,,,,,
6111624c12d30533fdfeb26d,2023-11-23_21h35.01.479,kallum_motion_pilot,2023.1.2,Win32,59.28385108,6111624c12d30533fdfeb26d,656018846682f3df8008bb8f,656019c7e22a2c43a630d31a,0,117,117,74,1,twoone,,,,,,,,,,,,,,,,,,,,,,,,,,,,,,,,,,,,,,,,,,,,,,,,,,,,,,,,,,,,,,,,,,,,,,,,,,,,,,,,,,,,,
6111624c12d30533fdfeb26d,2023-11-23_21h35.01.479,kallum_motion_pilot,2023.1.2,Win32,59.28385108,6111624c12d30533fdfeb26d,656018846682f3df8008bb8f,656019c7e22a2c43a630d31a,0,118,118,149,1,seveneight,,,,,,,,,,,,,,,,,,,,,,,,,,,,,,,,,,,,,,,,,,,,,,,,,,,,,,,,,,,,,,,,,,,,,,,,,,,,,,,,,,,,,
6111624c12d30533fdfeb26d,2023-11-23_21h35.01.479,kallum_motion_pilot,2023.1.2,Win32,59.28385108,6111624c12d30533fdfeb26d,656018846682f3df8008bb8f,656019c7e22a2c43a630d31a,0,119,119,67,1,twofour,,,,,,,,,,,,,,,,,,,,,,,,,,,,,,,,,,,,,,,,,,,,,,,,,,,,,,,,,,,,,,,,,,,,,,,,,,,,,,,,,,,,,
6111624c12d30533fdfeb26d,2023-11-23_21h35.01.479,kallum_motion_pilot,2023.1.2,Win32,59.28385108,6111624c12d30533fdfeb26d,656018846682f3df8008bb8f,656019c7e22a2c43a630d31a,0,120,120,50,1,twoone,,,,,,,,,,,,,,,,,,,,,,,,,,,,,,,,,,,,,,,,,,,,,,,,,,,,,,,,,,,,,,,,,,,,,,,,,,,,,,,,,,,,,
6111624c12d30533fdfeb26d,2023-11-23_21h35.01.479,kallum_motion_pilot,2023.1.2,Win32,59.28385108,6111624c12d30533fdfeb26d,656018846682f3df8008bb8f,656019c7e22a2c43a630d31a,0,121,121,34,1,twoone,,,,,,,,,,,,,,,,,,,,,,,,,,,,,,,,,,,,,,,,,,,,,,,,,,,,,,,,,,,,,,,,,,,,,,,,,,,,,,,,,,,,,
6111624c12d30533fdfeb26d,2023-11-23_21h35.01.479,kallum_motion_pilot,2023.1.2,Win32,59.28385108,6111624c12d30533fdfeb26d,656018846682f3df8008bb8f,656019c7e22a2c43a630d31a,0,122,122,123,1,sixeight,,,,,,,,,,,,,,,,,,,,,,,,,,,,,,,,,,,,,,,,,,,,,,,,,,,,,,,,,,,,,,,,,,,,,,,,,,,,,,,,,,,,,
6111624c12d30533fdfeb26d,2023-11-23_21h35.01.479,kallum_motion_pilot,2023.1.2,Win32,59.28385108,6111624c12d30533fdfeb26d,656018846682f3df8008bb8f,656019c7e22a2c43a630d31a,0,123,123,13,1,threefour,,,,,,,,,,,,,,,,,,,,,,,,,,,,,,,,,,,,,,,,,,,,,,,,,,,,,,,,,,,,,,,,,,,,,,,,,,,,,,,,,,,,,
6111624c12d30533fdfeb26d,2023-11-23_21h35.01.479,kallum_motion_pilot,2023.1.2,Win32,59.28385108,6111624c12d30533fdfeb26d,656018846682f3df8008bb8f,656019c7e22a2c43a630d31a,0,124,124,26,1,twoone,,,,,,,,,,,,,,,,,,,,,,,,,,,,,,,,,,,,,,,,,,,,,,,,,,,,,,,,,,,,,,,,,,,,,,,,,,,,,,,,,,,,,
6111624c12d30533fdfeb26d,2023-11-23_21h35.01.479,kallum_motion_pilot,2023.1.2,Win32,59.28385108,6111624c12d30533fdfeb26d,656018846682f3df8008bb8f,656019c7e22a2c43a630d31a,0,125,125,97,1,fiveseven,,,,,,,,,,,,,,,,,,,,,,,,,,,,,,,,,,,,,,,,,,,,,,,,,,,,,,,,,,,,,,,,,,,,,,,,,,,,,,,,,,,,,
6111624c12d30533fdfeb26d,2023-11-23_21h35.01.479,kallum_motion_pilot,2023.1.2,Win32,59.28385108,6111624c12d30533fdfeb26d,656018846682f3df8008bb8f,656019c7e22a2c43a630d31a,0,126,126,140,1,sevenfive,,,,,,,,,,,,,,,,,,,,,,,,,,,,,,,,,,,,,,,,,,,,,,,,,,,,,,,,,,,,,,,,,,,,,,,,,,,,,,,,,,,,,
6111624c12d30533fdfeb26d,2023-11-23_21h35.01.479,kallum_motion_pilot,2023.1.2,Win32,59.28385108,6111624c12d30533fdfeb26d,656018846682f3df8008bb8f,656019c7e22a2c43a630d31a,0,127,127,158,1,eightsix,,,,,,,,,,,,,,,,,,,,,,,,,,,,,,,,,,,,,,,,,,,,,,,,,,,,,,,,,,,,,,,,,,,,,,,,,,,,,,,,,,,,,
6111624c12d30533fdfeb26d,2023-11-23_21h35.01.479,kallum_motion_pilot,2023.1.2,Win32,59.28385108,6111624c12d30533fdfeb26d,656018846682f3df8008bb8f,656019c7e22a2c43a630d31a,0,128,128,12,1,threeone,,,,,,,,,,,,,,,,,,,,,,,,,,,,,,,,,,,,,,,,,,,,,,,,,,,,,,,,,,,,,,,,,,,,,,,,,,,,,,,,,,,,,
6111624c12d30533fdfeb26d,2023-11-23_21h35.01.479,kallum_motion_pilot,2023.1.2,Win32,59.28385108,6111624c12d30533fdfeb26d,656018846682f3df8008bb8f,656019c7e22a2c43a630d31a,0,129,129,121,1,fiveseven,,,,,,,,,,,,,,,,,,,,,,,,,,,,,,,,,,,,,,,,,,,,,,,,,,,,,,,,,,,,,,,,,,,,,,,,,,,,,,,,,,,,,
6111624c12d30533fdfeb26d,2023-11-23_21h35.01.479,kallum_motion_pilot,2023.1.2,Win32,59.28385108,6111624c12d30533fdfeb26d,656018846682f3df8008bb8f,656019c7e22a2c43a630d31a,0,130,130,31,1,fourthree,,,,,,,,,,,,,,,,,,,,,,,,,,,,,,,,,,,,,,,,,,,,,,,,,,,,,,,,,,,,,,,,,,,,,,,,,,,,,,,,,,,,,
6111624c12d30533fdfeb26d,2023-11-23_21h35.01.479,kallum_motion_pilot,2023.1.2,Win32,59.28385108,6111624c12d30533fdfeb26d,656018846682f3df8008bb8f,656019c7e22a2c43a630d31a,0,131,131,99,1,sixeight,,,,,,,,,,,,,,,,,,,,,,,,,,,,,,,,,,,,,,,,,,,,,,,,,,,,,,,,,,,,,,,,,,,,,,,,,,,,,,,,,,,,,
6111624c12d30533fdfeb26d,2023-11-23_21h35.01.479,kallum_motion_pilot,2023.1.2,Win32,59.28385108,6111624c12d30533fdfeb26d,656018846682f3df8008bb8f,656019c7e22a2c43a630d31a,0,132,132,115,1,sixeight,,,,,,,,,,,,,,,,,,,,,,,,,,,,,,,,,,,,,,,,,,,,,,,,,,,,,,,,,,,,,,,,,,,,,,,,,,,,,,,,,,,,,
6111624c12d30533fdfeb26d,2023-11-23_21h35.01.479,kallum_motion_pilot,2023.1.2,Win32,59.28385108,6111624c12d30533fdfeb26d,656018846682f3df8008bb8f,656019c7e22a2c43a630d31a,0,133,133,21,1,threefour,,,,,,,,,,,,,,,,,,,,,,,,,,,,,,,,,,,,,,,,,,,,,,,,,,,,,,,,,,,,,,,,,,,,,,,,,,,,,,,,,,,,,
6111624c12d30533fdfeb26d,2023-11-23_21h35.01.479,kallum_motion_pilot,2023.1.2,Win32,59.28385108,6111624c12d30533fdfeb26d,656018846682f3df8008bb8f,656019c7e22a2c43a630d31a,0,134,134,89,1,fiveseven,,,,,,,,,,,,,,,,,,,,,,,,,,,,,,,,,,,,,,,,,,,,,,,,,,,,,,,,,,,,,,,,,,,,,,,,,,,,,,,,,,,,,
6111624c12d30533fdfeb26d,2023-11-23_21h35.01.479,kallum_motion_pilot,2023.1.2,Win32,59.28385108,6111624c12d30533fdfeb26d,656018846682f3df8008bb8f,656019c7e22a2c43a630d31a,0,135,135,2,1,twoone,,,,,,,,,,,,,,,,,,,,,,,,,,,,,,,,,,,,,,,,,,,,,,,,,,,,,,,,,,,,,,,,,,,,,,,,,,,,,,,,,,,,,
6111624c12d30533fdfeb26d,2023-11-23_21h35.01.479,kallum_motion_pilot,2023.1.2,Win32,59.28385108,6111624c12d30533fdfeb26d,656018846682f3df8008bb8f,656019c7e22a2c43a630d31a,0,136,136,24,1,onetwo,,,,,,,,,,,,,,,,,,,,,,,,,,,,,,,,,,,,,,,,,,,,,,,,,,,,,,,,,,,,,,,,,,,,,,,,,,,,,,,,,,,,,
6111624c12d30533fdfeb26d,2023-11-23_21h35.01.479,kallum_motion_pilot,2023.1.2,Win32,59.28385108,6111624c12d30533fdfeb26d,656018846682f3df8008bb8f,656019c7e22a2c43a630d31a,0,137,137,109,1,seveneight,,,,,,,,,,,,,,,,,,,,,,,,,,,,,,,,,,,,,,,,,,,,,,,,,,,,,,,,,,,,,,,,,,,,,,,,,,,,,,,,,,,,,
6111624c12d30533fdfeb26d,2023-11-23_21h35.01.479,kallum_motion_pilot,2023.1.2,Win32,59.28385108,6111624c12d30533fdfeb26d,656018846682f3df8008bb8f,656019c7e22a2c43a630d31a,0,138,138,49,1,onethree,,,,,,,,,,,,,,,,,,,,,,,,,,,,,,,,,,,,,,,,,,,,,,,,,,,,,,,,,,,,,,,,,,,,,,,,,,,,,,,,,,,,,
6111624c12d30533fdfeb26d,2023-11-23_21h35.01.479,kallum_motion_pilot,2023.1.2,Win32,59.28385108,6111624c12d30533fdfeb26d,656018846682f3df8008bb8f,656019c7e22a2c43a630d31a,0,139,139,120,1,fivesix,,,,,,,,,,,,,,,,,,,,,,,,,,,,,,,,,,,,,,,,,,,,,,,,,,,,,,,,,,,,,,,,,,,,,,,,,,,,,,,,,,,,,
6111624c12d30533fdfeb26d,2023-11-23_21h35.01.479,kallum_motion_pilot,2023.1.2,Win32,59.28385108,6111624c12d30533fdfeb26d,656018846682f3df8008bb8f,656019c7e22a2c43a630d31a,0,140,140,8,1,onetwo,,,,,,,,,,,,,,,,,,,,,,,,,,,,,,,,,,,,,,,,,,,,,,,,,,,,,,,,,,,,,,,,,,,,,,,,,,,,,,,,,,,,,
6111624c12d30533fdfeb26d,2023-11-23_21h35.01.479,kallum_motion_pilot,2023.1.2,Win32,59.28385108,6111624c12d30533fdfeb26d,656018846682f3df8008bb8f,656019c7e22a2c43a630d31a,0,141,141,122,1,sixfive,,,,,,,,,,,,,,,,,,,,,,,,,,,,,,,,,,,,,,,,,,,,,,,,,,,,,,,,,,,,,,,,,,,,,,,,,,,,,,,,,,,,,
6111624c12d30533fdfeb26d,2023-11-23_21h35.01.479,kallum_motion_pilot,2023.1.2,Win32,59.28385108,6111624c12d30533fdfeb26d,656018846682f3df8008bb8f,656019c7e22a2c43a630d31a,0,142,142,154,1,sixfive,,,,,,,,,,,,,,,,,,,,,,,,,,,,,,,,,,,,,,,,,,,,,,,,,,,,,,,,,,,,,,,,,,,,,,,,,,,,,,,,,,,,,
6111624c12d30533fdfeb26d,2023-11-23_21h35.01.479,kallum_motion_pilot,2023.1.2,Win32,59.28385108,6111624c12d30533fdfeb26d,656018846682f3df8008bb8f,656019c7e22a2c43a630d31a,0,143,143,59,1,twofour,,,,,,,,,,,,,,,,,,,,,,,,,,,,,,,,,,,,,,,,,,,,,,,,,,,,,,,,,,,,,,,,,,,,,,,,,,,,,,,,,,,,,
6111624c12d30533fdfeb26d,2023-11-23_21h35.01.479,kallum_motion_pilot,2023.1.2,Win32,59.28385108,6111624c12d30533fdfeb26d,656018846682f3df8008bb8f,656019c7e22a2c43a630d31a,0,144,144,137,1,fiveseven,,,,,,,,,,,,,,,,,,,,,,,,,,,,,,,,,,,,,,,,,,,,,,,,,,,,,,,,,,,,,,,,,,,,,,,,,,,,,,,,,,,,,
6111624c12d30533fdfeb26d,2023-11-23_21h35.01.479,kallum_motion_pilot,2023.1.2,Win32,59.28385108,6111624c12d30533fdfeb26d,656018846682f3df8008bb8f,656019c7e22a2c43a630d31a,0,145,145,61,1,threefour,,,,,,,,,,,,,,,,,,,,,,,,,,,,,,,,,,,,,,,,,,,,,,,,,,,,,,,,,,,,,,,,,,,,,,,,,,,,,,,,,,,,,
6111624c12d30533fdfeb26d,2023-11-23_21h35.01.479,kallum_motion_pilot,2023.1.2,Win32,59.28385108,6111624c12d30533fdfeb26d,656018846682f3df8008bb8f,656019c7e22a2c43a630d31a,0,146,146,116,1,sevenfive,,,,,,,,,,,,,,,,,,,,,,,,,,,,,,,,,,,,,,,,,,,,,,,,,,,,,,,,,,,,,,,,,,,,,,,,,,,,,,,,,,,,,
6111624c12d30533fdfeb26d,2023-11-23_21h35.01.479,kallum_motion_pilot,2023.1.2,Win32,59.28385108,6111624c12d30533fdfeb26d,656018846682f3df8008bb8f,656019c7e22a2c43a630d31a,0,147,147,41,1,onethree,,,,,,,,,,,,,,,,,,,,,,,,,,,,,,,,,,,,,,,,,,,,,,,,,,,,,,,,,,,,,,,,,,,,,,,,,,,,,,,,,,,,,
6111624c12d30533fdfeb26d,2023-11-23_21h35.01.479,kallum_motion_pilot,2023.1.2,Win32,59.28385108,6111624c12d30533fdfeb26d,656018846682f3df8008bb8f,656019c7e22a2c43a630d31a,0,148,148,15,1,fourthree,,,,,,,,,,,,,,,,,,,,,,,,,,,,,,,,,,,,,,,,,,,,,,,,,,,,,,,,,,,,,,,,,,,,,,,,,,,,,,,,,,,,,
6111624c12d30533fdfeb26d,2023-11-23_21h35.01.479,kallum_motion_pilot,2023.1.2,Win32,59.28385108,6111624c12d30533fdfeb26d,656018846682f3df8008bb8f,656019c7e22a2c43a630d31a,0,149,149,14,1,fourtwo,,,,,,,,,,,,,,,,,,,,,,,,,,,,,,,,,,,,,,,,,,,,,,,,,,,,,,,,,,,,,,,,,,,,,,,,,,,,,,,,,,,,,
6111624c12d30533fdfeb26d,2023-11-23_21h35.01.479,kallum_motion_pilot,2023.1.2,Win32,59.28385108,6111624c12d30533fdfeb26d,656018846682f3df8008bb8f,656019c7e22a2c43a630d31a,0,150,150,101,1,seveneight,,,,,,,,,,,,,,,,,,,,,,,,,,,,,,,,,,,,,,,,,,,,,,,,,,,,,,,,,,,,,,,,,,,,,,,,,,,,,,,,,,,,,
6111624c12d30533fdfeb26d,2023-11-23_21h35.01.479,kallum_motion_pilot,2023.1.2,Win32,59.28385108,6111624c12d30533fdfeb26d,656018846682f3df8008bb8f,656019c7e22a2c43a630d31a,0,151,151,3,1,twofour,,,,,,,,,,,,,,,,,,,,,,,,,,,,,,,,,,,,,,,,,,,,,,,,,,,,,,,,,,,,,,,,,,,,,,,,,,,,,,,,,,,,,
6111624c12d30533fdfeb26d,2023-11-23_21h35.01.479,kallum_motion_pilot,2023.1.2,Win32,59.28385108,6111624c12d30533fdfeb26d,656018846682f3df8008bb8f,656019c7e22a2c43a630d31a,0,152,152,39,1,fourthree,,,,,,,,,,,,,,,,,,,,,,,,,,,,,,,,,,,,,,,,,,,,,,,,,,,,,,,,,,,,,,,,,,,,,,,,,,,,,,,,,,,,,
6111624c12d30533fdfeb26d,2023-11-23_21h35.01.479,kallum_motion_pilot,2023.1.2,Win32,59.28385108,6111624c12d30533fdfeb26d,656018846682f3df8008bb8f,656019c7e22a2c43a630d31a,0,153,153,151,1,eightseven,,,,,,,,,,,,,,,,,,,,,,,,,,,,,,,,,,,,,,,,,,,,,,,,,,,,,,,,,,,,,,,,,,,,,,,,,,,,,,,,,,,,,
6111624c12d30533fdfeb26d,2023-11-23_21h35.01.479,kallum_motion_pilot,2023.1.2,Win32,59.28385108,6111624c12d30533fdfeb26d,656018846682f3df8008bb8f,656019c7e22a2c43a630d31a,0,154,154,82,1,sixfive,,,,,,,,,,,,,,,,,,,,,,,,,,,,,,,,,,,,,,,,,,,,,,,,,,,,,,,,,,,,,,,,,,,,,,,,,,,,,,,,,,,,,
6111624c12d30533fdfeb26d,2023-11-23_21h35.01.479,kallum_motion_pilot,2023.1.2,Win32,59.28385108,6111624c12d30533fdfeb26d,656018846682f3df8008bb8f,656019c7e22a2c43a630d31a,0,155,155,60,1,threeone,,,,,,,,,,,,,,,,,,,,,,,,,,,,,,,,,,,,,,,,,,,,,,,,,,,,,,,,,,,,,,,,,,,,,,,,,,,,,,,,,,,,,
6111624c12d30533fdfeb26d,2023-11-23_21h35.01.479,kallum_motion_pilot,2023.1.2,Win32,59.28385108,6111624c12d30533fdfeb26d,656018846682f3df8008bb8f,656019c7e22a2c43a630d31a,0,156,156,69,1,threefour,,,,,,,,,,,,,,,,,,,,,,,,,,,,,,,,,,,,,,,,,,,,,,,,,,,,,,,,,,,,,,,,,,,,,,,,,,,,,,,,,,,,,
6111624c12d30533fdfeb26d,2023-11-23_21h35.01.479,kallum_motion_pilot,2023.1.2,Win32,59.28385108,6111624c12d30533fdfeb26d,656018846682f3df8008bb8f,656019c7e22a2c43a630d31a,0,157,157,28,1,threeone,,,,,,,,,,,,,,,,,,,,,,,,,,,,,,,,,,,,,,,,,,,,,,,,,,,,,,,,,,,,,,,,,,,,,,,,,,,,,,,,,,,,,
6111624c12d30533fdfeb26d,2023-11-23_21h35.01.479,kallum_motion_pilot,2023.1.2,Win32,59.28385108,6111624c12d30533fdfeb26d,656018846682f3df8008bb8f,656019c7e22a2c43a630d31a,0,158,158,81,1,fiveseven,,,,,,,,,,,,,,,,,,,,,,,,,,,,,,,,,,,,,,,,,,,,,,,,,,,,,,,,,,,,,,,,,,,,,,,,,,,,,,,,,,,,,
6111624c12d30533fdfeb26d,2023-11-23_21h35.01.479,kallum_motion_pilot,2023.1.2,Win32,59.28385108,6111624c12d30533fdfeb26d,656018846682f3df8008bb8f,656019c7e22a2c43a630d31a,0,159,159,62,1,fourtwo,,,,,,,,,,,,,,,,,,,,,,,,,,,,,,,,,,,,,,,,,,,,,,,,,,,,,,,,,,,,,,,,,,,,,,,,,,,,,,,,,,,,,
6111624c12d30533fdfeb26d,2023-11-23_21h35.01.479,kallum_motion_pilot,2023.1.2,Win32,59.28385108,6111624c12d30533fdfeb26d,656018846682f3df8008bb8f,656019c7e22a2c43a630d31a,0,160,160,38,1,fourtwo,,,,,,,,,,,,,,,,,,,,,,,,,,,,,,,,,,,,,,,,,,,,,,,,,,,,,,,,,,,,,,,,,,,,,,,,,,,,,,,,,,,,,
6111624c12d30533fdfeb26d,2023-11-23_21h35.01.479,kallum_motion_pilot,2023.1.2,Win32,59.28385108,6111624c12d30533fdfeb26d,656018846682f3df8008bb8f,656019c7e22a2c43a630d31a,0,161,161,160,1,fivesix,,,,,,,,,,,,,,,,,,,,,,,,,,,,,,,,,,,,,,,,,,,,,,,,,,,,,,,,,,,,,,,,,,,,,,,,,,,,,,,,,,,,,
6111624c12d30533fdfeb26d,2023-11-23_21h35.01.479,kallum_motion_pilot,2023.1.2,Win32,59.28385108,6111624c12d30533fdfeb26d,656018846682f3df8008bb8f,656019c7e22a2c43a630d31a,1,0,162,143,1,eightseven,,,,,,,,,,,,,,,,,,,,,,,,,,,,,,,,,,,,,,,,,,,,,,,,,,,,,,,,,,,,,,,,,,,,,,,,,,,,,,,,,,,,,
6111624c12d30533fdfeb26d,2023-11-23_21h35.01.479,kallum_motion_pilot,2023.1.2,Win32,59.28385108,6111624c12d30533fdfeb26d,656018846682f3df8008bb8f,656019c7e22a2c43a630d31a,1,1,163,158,1,eightsix,,,,,,,,,,,,,,,,,,,,,,,,,,,,,,,,,,,,,,,,,,,,,,,,,,,,,,,,,,,,,,,,,,,,,,,,,,,,,,,,,,,,,
6111624c12d30533fdfeb26d,2023-11-23_21h35.01.479,kallum_motion_pilot,2023.1.2,Win32,59.28385108,6111624c12d30533fdfeb26d,656018846682f3df8008bb8f,656019c7e22a2c43a630d31a,1,2,164,46,1,fourtwo,,,,,,,,,,,,,,,,,,,,,,,,,,,,,,,,,,,,,,,,,,,,,,,,,,,,,,,,,,,,,,,,,,,,,,,,,,,,,,,,,,,,,
6111624c12d30533fdfeb26d,2023-11-23_21h35.01.479,kallum_motion_pilot,2023.1.2,Win32,59.28385108,6111624c12d30533fdfeb26d,656018846682f3df8008bb8f,656019c7e22a2c43a630d31a,1,3,165,129,1,fiveseven,,,,,,,,,,,,,,,,,,,,,,,,,,,,,,,,,,,,,,,,,,,,,,,,,,,,,,,,,,,,,,,,,,,,,,,,,,,,,,,,,,,,,
6111624c12d30533fdfeb26d,2023-11-23_21h35.01.479,kallum_motion_pilot,2023.1.2,Win32,59.28385108,6111624c12d30533fdfeb26d,656018846682f3df8008bb8f,656019c7e22a2c43a630d31a,1,4,166,13,1,threefour,,,,,,,,,,,,,,,,,,,,,,,,,,,,,,,,,,,,,,,,,,,,,,,,,,,,,,,,,,,,,,,,,,,,,,,,,,,,,,,,,,,,,
6111624c12d30533fdfeb26d,2023-11-23_21h35.01.479,kallum_motion_pilot,2023.1.2,Win32,59.28385108,6111624c12d30533fdfeb26d,656018846682f3df8008bb8f,656019c7e22a2c43a630d31a,1,5,167,148,1,sevenfive,,,,,,,,,,,,,,,,,,,,,,,,,,,,,,,,,,,,,,,,,,,,,,,,,,,,,,,,,,,,,,,,,,,,,,,,,,,,,,,,,,,,,
6111624c12d30533fdfeb26d,2023-11-23_21h35.01.479,kallum_motion_pilot,2023.1.2,Win32,59.28385108,6111624c12d30533fdfeb26d,656018846682f3df8008bb8f,656019c7e22a2c43a630d31a,1,6,168,32,1,onetwo,,,,,,,,,,,,,,,,,,,,,,,,,,,,,,,,,,,,,,,,,,,,,,,,,,,,,,,,,,,,,,,,,,,,,,,,,,,,,,,,,,,,,
6111624c12d30533fdfeb26d,2023-11-23_21h35.01.479,kallum_motion_pilot,2023.1.2,Win32,59.28385108,6111624c12d30533fdfeb26d,656018846682f3df8008bb8f,656019c7e22a2c43a630d31a,1,7,169,71,1,fourthree,,,,,,,,,,,,,,,,,,,,,,,,,,,,,,,,,,,,,,,,,,,,,,,,,,,,,,,,,,,,,,,,,,,,,,,,,,,,,,,,,,,,,
6111624c12d30533fdfeb26d,2023-11-23_21h35.01.479,kallum_motion_pilot,2023.1.2,Win32,59.28385108,6111624c12d30533fdfeb26d,656018846682f3df8008bb8f,656019c7e22a2c43a630d31a,1,8,170,149,1,seveneight,,,,,,,,,,,,,,,,,,,,,,,,,,,,,,,,,,,,,,,,,,,,,,,,,,,,,,,,,,,,,,,,,,,,,,,,,,,,,,,,,,,,,
6111624c12d30533fdfeb26d,2023-11-23_21h35.01.479,kallum_motion_pilot,2023.1.2,Win32,59.28385108,6111624c12d30533fdfeb26d,656018846682f3df8008bb8f,656019c7e22a2c43a630d31a,1,9,171,44,1,threeone,,,,,,,,,,,,,,,,,,,,,,,,,,,,,,,,,,,,,,,,,,,,,,,,,,,,,,,,,,,,,,,,,,,,,,,,,,,,,,,,,,,,,
6111624c12d30533fdfeb26d,2023-11-23_21h35.01.479,kallum_motion_pilot,2023.1.2,Win32,59.28385108,6111624c12d30533fdfeb26d,656018846682f3df8008bb8f,656019c7e22a2c43a630d31a,1,10,172,3,1,twofour,,,,,,,,,,,,,,,,,,,,,,,,,,,,,,,,,,,,,,,,,,,,,,,,,,,,,,,,,,,,,,,,,,,,,,,,,,,,,,,,,,,,,
6111624c12d30533fdfeb26d,2023-11-23_21h35.01.479,kallum_motion_pilot,2023.1.2,Win32,59.28385108,6111624c12d30533fdfeb26d,656018846682f3df8008bb8f,656019c7e22a2c43a630d31a,1,11,173,33,1,onethree,,,,,,,,,,,,,,,,,,,,,,,,,,,,,,,,,,,,,,,,,,,,,,,,,,,,,,,,,,,,,,,,,,,,,,,,,,,,,,,,,,,,,
6111624c12d30533fdfeb26d,2023-11-23_21h35.01.479,kallum_motion_pilot,2023.1.2,Win32,59.28385108,6111624c12d30533fdfeb26d,656018846682f3df8008bb8f,656019c7e22a2c43a630d31a,1,12,174,28,1,threeone,,,,,,,,,,,,,,,,,,,,,,,,,,,,,,,,,,,,,,,,,,,,,,,,,,,,,,,,,,,,,,,,,,,,,,,,,,,,,,,,,,,,,
6111624c12d30533fdfeb26d,2023-11-23_21h35.01.479,kallum_motion_pilot,2023.1.2,Win32,59.28385108,6111624c12d30533fdfeb26d,656018846682f3df8008bb8f,656019c7e22a2c43a630d31a,1,13,175,10,1,twoone,,,,,,,,,,,,,,,,,,,,,,,,,,,,,,,,,,,,,,,,,,,,,,,,,,,,,,,,,,,,,,,,,,,,,,,,,,,,,,,,,,,,,
6111624c12d30533fdfeb26d,2023-11-23_21h35.01.479,kallum_motion_pilot,2023.1.2,Win32,59.28385108,6111624c12d30533fdfeb26d,656018846682f3df8008bb8f,656019c7e22a2c43a630d31a,1,14,176,23,1,fourthree,,,,,,,,,,,,,,,,,,,,,,,,,,,,,,,,,,,,,,,,,,,,,,,,,,,,,,,,,,,,,,,,,,,,,,,,,,,,,,,,,,,,,
6111624c12d30533fdfeb26d,2023-11-23_21h35.01.479,kallum_motion_pilot,2023.1.2,Win32,59.28385108,6111624c12d30533fdfeb26d,656018846682f3df8008bb8f,656019c7e22a2c43a630d31a,1,15,177,84,1,sevenfive,,,,,,,,,,,,,,,,,,,,,,,,,,,,,,,,,,,,,,,,,,,,,,,,,,,,,,,,,,,,,,,,,,,,,,,,,,,,,,,,,,,,,
6111624c12d30533fdfeb26d,2023-11-23_21h35.01.479,kallum_motion_pilot,2023.1.2,Win32,59.28385108,6111624c12d30533fdfeb26d,656018846682f3df8008bb8f,656019c7e22a2c43a630d31a,1,16,178,16,1,onetwo,,,,,,,,,,,,,,,,,,,,,,,,,,,,,,,,,,,,,,,,,,,,,,,,,,,,,,,,,,,,,,,,,,,,,,,,,,,,,,,,,,,,,
6111624c12d30533fdfeb26d,2023-11-23_21h35.01.479,kallum_motion_pilot,2023.1.2,Win32,59.28385108,6111624c12d30533fdfeb26d,656018846682f3df8008bb8f,656019c7e22a2c43a630d31a,1,17,179,69,1,threefour,,,,,,,,,,,,,,,,,,,,,,,,,,,,,,,,,,,,,,,,,,,,,,,,,,,,,,,,,,,,,,,,,,,,,,,,,,,,,,,,,,,,,
6111624c12d30533fdfeb26d,2023-11-23_21h35.01.479,kallum_motion_pilot,2023.1.2,Win32,59.28385108,6111624c12d30533fdfeb26d,656018846682f3df8008bb8f,656019c7e22a2c43a630d31a,1,18,180,156,1,sevenfive,,,,,,,,,,,,,,,,,,,,,,,,,,,,,,,,,,,,,,,,,,,,,,,,,,,,,,,,,,,,,,,,,,,,,,,,,,,,,,,,,,,,,
6111624c12d30533fdfeb26d,2023-11-23_21h35.01.479,kallum_motion_pilot,2023.1.2,Win32,59.28385108,6111624c12d30533fdfeb26d,656018846682f3df8008bb8f,656019c7e22a2c43a630d31a,1,19,181,77,1,threefour,,,,,,,,,,,,,,,,,,,,,,,,,,,,,,,,,,,,,,,,,,,,,,,,,,,,,,,,,,,,,,,,,,,,,,,,,,,,,,,,,,,,,
6111624c12d30533fdfeb26d,2023-11-23_21h35.01.479,kallum_motion_pilot,2023.1.2,Win32,59.28385108,6111624c12d30533fdfeb26d,656018846682f3df8008bb8f,656019c7e22a2c43a630d31a,1,20,182,35,1,twofour,,,,,,,,,,,,,,,,,,,,,,,,,,,,,,,,,,,,,,,,,,,,,,,,,,,,,,,,,,,,,,,,,,,,,,,,,,,,,,,,,,,,,
6111624c12d30533fdfeb26d,2023-11-23_21h35.01.479,kallum_motion_pilot,2023.1.2,Win32,59.28385108,6111624c12d30533fdfeb26d,656018846682f3df8008bb8f,656019c7e22a2c43a630d31a,1,21,183,160,1,fivesix,,,,,,,,,,,,,,,,,,,,,,,,,,,,,,,,,,,,,,,,,,,,,,,,,,,,,,,,,,,,,,,,,,,,,,,,,,,,,,,,,,,,,
6111624c12d30533fdfeb26d,2023-11-23_21h35.01.479,kallum_motion_pilot,2023.1.2,Win32,59.28385108,6111624c12d30533fdfeb26d,656018846682f3df8008bb8f,656019c7e22a2c43a630d31a,1,22,184,49,1,onethree,,,,,,,,,,,,,,,,,,,,,,,,,,,,,,,,,,,,,,,,,,,,,,,,,,,,,,,,,,,,,,,,,,,,,,,,,,,,,,,,,,,,,
6111624c12d30533fdfeb26d,2023-11-23_21h35.01.479,kallum_motion_pilot,2023.1.2,Win32,59.28385108,6111624c12d30533fdfeb26d,656018846682f3df8008bb8f,656019c7e22a2c43a630d31a,1,23,185,140,1,sevenfive,,,,,,,,,,,,,,,,,,,,,,,,,,,,,,,,,,,,,,,,,,,,,,,,,,,,,,,,,,,,,,,,,,,,,,,,,,,,,,,,,,,,,
6111624c12d30533fdfeb26d,2023-11-23_21h35.01.479,kallum_motion_pilot,2023.1.2,Win32,59.28385108,6111624c12d30533fdfeb26d,656018846682f3df8008bb8f,656019c7e22a2c43a630d31a,1,24,186,128,1,fivesix,,,,,,,,,,,,,,,,,,,,,,,,,,,,,,,,,,,,,,,,,,,,,,,,,,,,,,,,,,,,,,,,,,,,,,,,,,,,,,,,,,,,,
6111624c12d30533fdfeb26d,2023-11-23_21h35.01.479,kallum_motion_pilot,2023.1.2,Win32,59.28385108,6111624c12d30533fdfeb26d,656018846682f3df8008bb8f,656019c7e22a2c43a630d31a,1,25,187,21,1,threefour,,,,,,,,,,,,,,,,,,,,,,,,,,,,,,,,,,,,,,,,,,,,,,,,,,,,,,,,,,,,,,,,,,,,,,,,,,,,,,,,,,,,,
6111624c12d30533fdfeb26d,2023-11-23_21h35.01.479,kallum_motion_pilot,2023.1.2,Win32,59.28385108,6111624c12d30533fdfeb26d,656018846682f3df8008bb8f,656019c7e22a2c43a630d31a,1,26,188,9,1,onethree,,,,,,,,,,,,,,,,,,,,,,,,,,,,,,,,,,,,,,,,,,,,,,,,,,,,,,,,,,,,,,,,,,,,,,,,,,,,,,,,,,,,,
6111624c12d30533fdfeb26d,2023-11-23_21h35.01.479,kallum_motion_pilot,2023.1.2,Win32,59.28385108,6111624c12d30533fdfeb26d,656018846682f3df8008bb8f,656019c7e22a2c43a630d31a,1,27,189,106,1,sixfive,,,,,,,,,,,,,,,,,,,,,,,,,,,,,,,,,,,,,,,,,,,,,,,,,,,,,,,,,,,,,,,,,,,,,,,,,,,,,,,,,,,,,
6111624c12d30533fdfeb26d,2023-11-23_21h35.01.479,kallum_motion_pilot,2023.1.2,Win32,59.28385108,6111624c12d30533fdfeb26d,656018846682f3df8008bb8f,656019c7e22a2c43a630d31a,1,28,190,31,1,fourthree,,,,,,,,,,,,,,,,,,,,,,,,,,,,,,,,,,,,,,,,,,,,,,,,,,,,,,,,,,,,,,,,,,,,,,,,,,,,,,,,,,,,,
6111624c12d30533fdfeb26d,2023-11-23_21h35.01.479,kallum_motion_pilot,2023.1.2,Win32,59.28385108,6111624c12d30533fdfeb26d,656018846682f3df8008bb8f,656019c7e22a2c43a630d31a,1,29,191,38,1,fourtwo,,,,,,,,,,,,,,,,,,,,,,,,,,,,,,,,,,,,,,,,,,,,,,,,,,,,,,,,,,,,,,,,,,,,,,,,,,,,,,,,,,,,,
6111624c12d30533fdfeb26d,2023-11-23_21h35.01.479,kallum_motion_pilot,2023.1.2,Win32,59.28385108,6111624c12d30533fdfeb26d,656018846682f3df8008bb8f,656019c7e22a2c43a630d31a,1,30,192,72,1,onetwo,,,,,,,,,,,,,,,,,,,,,,,,,,,,,,,,,,,,,,,,,,,,,,,,,,,,,,,,,,,,,,,,,,,,,,,,,,,,,,,,,,,,,
6111624c12d30533fdfeb26d,2023-11-23_21h35.01.479,kallum_motion_pilot,2023.1.2,Win32,59.28385108,6111624c12d30533fdfeb26d,656018846682f3df8008bb8f,656019c7e22a2c43a630d31a,1,31,193,37,1,threefour,,,,,,,,,,,,,,,,,,,,,,,,,,,,,,,,,,,,,,,,,,,,,,,,,,,,,,,,,,,,,,,,,,,,,,,,,,,,,,,,,,,,,
6111624c12d30533fdfeb26d,2023-11-23_21h35.01.479,kallum_motion_pilot,2023.1.2,Win32,59.28385108,6111624c12d30533fdfeb26d,656018846682f3df8008bb8f,656019c7e22a2c43a630d31a,1,32,194,145,1,fiveseven,,,,,,,,,,,,,,,,,,,,,,,,,,,,,,,,,,,,,,,,,,,,,,,,,,,,,,,,,,,,,,,,,,,,,,,,,,,,,,,,,,,,,
6111624c12d30533fdfeb26d,2023-11-23_21h35.01.479,kallum_motion_pilot,2023.1.2,Win32,59.28385108,6111624c12d30533fdfeb26d,656018846682f3df8008bb8f,656019c7e22a2c43a630d31a,1,33,195,22,1,fourtwo,,,,,,,,,,,,,,,,,,,,,,,,,,,,,,,,,,,,,,,,,,,,,,,,,,,,,,,,,,,,,,,,,,,,,,,,,,,,,,,,,,,,,
6111624c12d30533fdfeb26d,2023-11-23_21h35.01.479,kallum_motion_pilot,2023.1.2,Win32,59.28385108,6111624c12d30533fdfeb26d,656018846682f3df8008bb8f,656019c7e22a2c43a630d31a,1,34,196,34,1,twoone,,,,,,,,,,,,,,,,,,,,,,,,,,,,,,,,,,,,,,,,,,,,,,,,,,,,,,,,,,,,,,,,,,,,,,,,,,,,,,,,,,,,,
6111624c12d30533fdfeb26d,2023-11-23_21h35.01.479,kallum_motion_pilot,2023.1.2,Win32,59.28385108,6111624c12d30533fdfeb26d,656018846682f3df8008bb8f,656019c7e22a2c43a630d31a,1,35,197,51,1,twofour,,,,,,,,,,,,,,,,,,,,,,,,,,,,,,,,,,,,,,,,,,,,,,,,,,,,,,,,,,,,,,,,,,,,,,,,,,,,,,,,,,,,,
6111624c12d30533fdfeb26d,2023-11-23_21h35.01.479,kallum_motion_pilot,2023.1.2,Win32,59.28385108,6111624c12d30533fdfeb26d,656018846682f3df8008bb8f,656019c7e22a2c43a630d31a,1,36,198,65,1,onethree,,,,,,,,,,,,,,,,,,,,,,,,,,,,,,,,,,,,,,,,,,,,,,,,,,,,,,,,,,,,,,,,,,,,,,,,,,,,,,,,,,,,,
6111624c12d30533fdfeb26d,2023-11-23_21h35.01.479,kallum_motion_pilot,2023.1.2,Win32,59.28385108,6111624c12d30533fdfeb26d,656018846682f3df8008bb8f,656019c7e22a2c43a630d31a,1,37,199,40,1,onetwo,,,,,,,,,,,,,,,,,,,,,,,,,,,,,,,,,,,,,,,,,,,,,,,,,,,,,,,,,,,,,,,,,,,,,,,,,,,,,,,,,,,,,
6111624c12d30533fdfeb26d,2023-11-23_21h35.01.479,kallum_motion_pilot,2023.1.2,Win32,59.28385108,6111624c12d30533fdfeb26d,656018846682f3df8008bb8f,656019c7e22a2c43a630d31a,1,38,200,157,1,seveneight,,,,,,,,,,,,,,,,,,,,,,,,,,,,,,,,,,,,,,,,,,,,,,,,,,,,,,,,,,,,,,,,,,,,,,,,,,,,,,,,,,,,,
6111624c12d30533fdfeb26d,2023-11-23_21h35.01.479,kallum_motion_pilot,2023.1.2,Win32,59.28385108,6111624c12d30533fdfeb26d,656018846682f3df8008bb8f,656019c7e22a2c43a630d31a,1,39,201,86,1,eightsix,,,,,,,,,,,,,,,,,,,,,,,,,,,,,,,,,,,,,,,,,,,,,,,,,,,,,,,,,,,,,,,,,,,,,,,,,,,,,,,,,,,,,
6111624c12d30533fdfeb26d,2023-11-23_21h35.01.479,kallum_motion_pilot,2023.1.2,Win32,59.28385108,6111624c12d30533fdfeb26d,656018846682f3df8008bb8f,656019c7e22a2c43a630d31a,1,40,202,144,1,fivesix,,,,,,,,,,,,,,,,,,,,,,,,,,,,,,,,,,,,,,,,,,,,,,,,,,,,,,,,,,,,,,,,,,,,,,,,,,,,,,,,,,,,,
6111624c12d30533fdfeb26d,2023-11-23_21h35.01.479,kallum_motion_pilot,2023.1.2,Win32,59.28385108,6111624c12d30533fdfeb26d,656018846682f3df8008bb8f,656019c7e22a2c43a630d31a,1,41,203,142,1,eightsix,,,,,,,,,,,,,,,,,,,,,,,,,,,,,,,,,,,,,,,,,,,,,,,,,,,,,,,,,,,,,,,,,,,,,,,,,,,,,,,,,,,,,
6111624c12d30533fdfeb26d,2023-11-23_21h35.01.479,kallum_motion_pilot,2023.1.2,Win32,59.28385108,6111624c12d30533fdfeb26d,656018846682f3df8008bb8f,656019c7e22a2c43a630d31a,1,42,204,153,1,fiveseven,,,,,,,,,,,,,,,,,,,,,,,,,,,,,,,,,,,,,,,,,,,,,,,,,,,,,,,,,,,,,,,,,,,,,,,,,,,,,,,,,,,,,
6111624c12d30533fdfeb26d,2023-11-23_21h35.01.479,kallum_motion_pilot,2023.1.2,Win32,59.28385108,6111624c12d30533fdfeb26d,656018846682f3df8008bb8f,656019c7e22a2c43a630d31a,1,43,205,95,1,eightseven,,,,,,,,,,,,,,,,,,,,,,,,,,,,,,,,,,,,,,,,,,,,,,,,,,,,,,,,,,,,,,,,,,,,,,,,,,,,,,,,,,,,,
6111624c12d30533fdfeb26d,2023-11-23_21h35.01.479,kallum_motion_pilot,2023.1.2,Win32,59.28385108,6111624c12d30533fdfeb26d,656018846682f3df8008bb8f,656019c7e22a2c43a630d31a,1,44,206,101,1,seveneight,,,,,,,,,,,,,,,,,,,,,,,,,,,,,,,,,,,,,,,,,,,,,,,,,,,,,,,,,,,,,,,,,,,,,,,,,,,,,,,,,,,,,
6111624c12d30533fdfeb26d,2023-11-23_21h35.01.479,kallum_motion_pilot,2023.1.2,Win32,59.28385108,6111624c12d30533fdfeb26d,656018846682f3df8008bb8f,656019c7e22a2c43a630d31a,1,45,207,58,1,twoone,,,,,,,,,,,,,,,,,,,,,,,,,,,,,,,,,,,,,,,,,,,,,,,,,,,,,,,,,,,,,,,,,,,,,,,,,,,,,,,,,,,,,
6111624c12d30533fdfeb26d,2023-11-23_21h35.01.479,kallum_motion_pilot,2023.1.2,Win32,59.28385108,6111624c12d30533fdfeb26d,656018846682f3df8008bb8f,656019c7e22a2c43a630d31a,1,46,208,78,1,fourtwo,,,,,,,,,,,,,,,,,,,,,,,,,,,,,,,,,,,,,,,,,,,,,,,,,,,,,,,,,,,,,,,,,,,,,,,,,,,,,,,,,,,,,
6111624c12d30533fdfeb26d,2023-11-23_21h35.01.479,kallum_motion_pilot,2023.1.2,Win32,59.28385108,6111624c12d30533fdfeb26d,656018846682f3df8008bb8f,656019c7e22a2c43a630d31a,1,47,209,4,1,threeone,,,,,,,,,,,,,,,,,,,,,,,,,,,,,,,,,,,,,,,,,,,,,,,,,,,,,,,,,,,,,,,,,,,,,,,,,,,,,,,,,,,,,
6111624c12d30533fdfeb26d,2023-11-23_21h35.01.479,kallum_motion_pilot,2023.1.2,Win32,59.28385108,6111624c12d30533fdfeb26d,656018846682f3df8008bb8f,656019c7e22a2c43a630d31a,1,48,210,52,1,threeone,,,,,,,,,,,,,,,,,,,,,,,,,,,,,,,,,,,,,,,,,,,,,,,,,,,,,,,,,,,,,,,,,,,,,,,,,,,,,,,,,,,,,
6111624c12d30533fdfeb26d,2023-11-23_21h35.01.479,kallum_motion_pilot,2023.1.2,Win32,59.28385108,6111624c12d30533fdfeb26d,656018846682f3df8008bb8f,656019c7e22a2c43a630d31a,1,49,211,53,1,threefour,,,,,,,,,,,,,,,,,,,,,,,,,,,,,,,,,,,,,,,,,,,,,,,,,,,,,,,,,,,,,,,,,,,,,,,,,,,,,,,,,,,,,
6111624c12d30533fdfeb26d,2023-11-23_21h35.01.479,kallum_motion_pilot,2023.1.2,Win32,59.28385108,6111624c12d30533fdfeb26d,656018846682f3df8008bb8f,656019c7e22a2c43a630d31a,1,50,212,126,1,eightsix,,,,,,,,,,,,,,,,,,,,,,,,,,,,,,,,,,,,,,,,,,,,,,,,,,,,,,,,,,,,,,,,,,,,,,,,,,,,,,,,,,,,,
6111624c12d30533fdfeb26d,2023-11-23_21h35.01.479,kallum_motion_pilot,2023.1.2,Win32,59.28385108,6111624c12d30533fdfeb26d,656018846682f3df8008bb8f,656019c7e22a2c43a630d31a,1,51,213,76,1,threeone,,,,,,,,,,,,,,,,,,,,,,,,,,,,,,,,,,,,,,,,,,,,,,,,,,,,,,,,,,,,,,,,,,,,,,,,,,,,,,,,,,,,,
6111624c12d30533fdfeb26d,2023-11-23_21h35.01.479,kallum_motion_pilot,2023.1.2,Win32,59.28385108,6111624c12d30533fdfeb26d,656018846682f3df8008bb8f,656019c7e22a2c43a630d31a,1,52,214,8,1,onetwo,,,,,,,,,,,,,,,,,,,,,,,,,,,,,,,,,,,,,,,,,,,,,,,,,,,,,,,,,,,,,,,,,,,,,,,,,,,,,,,,,,,,,
6111624c12d30533fdfeb26d,2023-11-23_21h35.01.479,kallum_motion_pilot,2023.1.2,Win32,59.28385108,6111624c12d30533fdfeb26d,656018846682f3df8008bb8f,656019c7e22a2c43a630d31a,1,53,215,105,1,fiveseven,,,,,,,,,,,,,,,,,,,,,,,,,,,,,,,,,,,,,,,,,,,,,,,,,,,,,,,,,,,,,,,,,,,,,,,,,,,,,,,,,,,,,
6111624c12d30533fdfeb26d,2023-11-23_21h35.01.479,kallum_motion_pilot,2023.1.2,Win32,59.28385108,6111624c12d30533fdfeb26d,656018846682f3df8008bb8f,656019c7e22a2c43a630d31a,1,54,216,30,1,fourtwo,,,,,,,,,,,,,,,,,,,,,,,,,,,,,,,,,,,,,,,,,,,,,,,,,,,,,,,,,,,,,,,,,,,,,,,,,,,,,,,,,,,,,
6111624c12d30533fdfeb26d,2023-11-23_21h35.01.479,kallum_motion_pilot,2023.1.2,Win32,59.28385108,6111624c12d30533fdfeb26d,656018846682f3df8008bb8f,656019c7e22a2c43a630d31a,1,55,217,15,1,fourthree,,,,,,,,,,,,,,,,,,,,,,,,,,,,,,,,,,,,,,,,,,,,,,,,,,,,,,,,,,,,,,,,,,,,,,,,,,,,,,,,,,,,,
6111624c12d30533fdfeb26d,2023-11-23_21h35.01.479,kallum_motion_pilot,2023.1.2,Win32,59.28385108,6111624c12d30533fdfeb26d,656018846682f3df8008bb8f,656019c7e22a2c43a630d31a,1,56,218,124,1,sevenfive,,,,,,,,,,,,,,,,,,,,,,,,,,,,,,,,,,,,,,,,,,,,,,,,,,,,,,,,,,,,,,,,,,,,,,,,,,,,,,,,,,,,,
6111624c12d30533fdfeb26d,2023-11-23_21h35.01.479,kallum_motion_pilot,2023.1.2,Win32,59.28385108,6111624c12d30533fdfeb26d,656018846682f3df8008bb8f,656019c7e22a2c43a630d31a,1,57,219,73,1,onethree,,,,,,,,,,,,,,,,,,,,,,,,,,,,,,,,,,,,,,,,,,,,,,,,,,,,,,,,,,,,,,,,,,,,,,,,,,,,,,,,,,,,,
6111624c12d30533fdfeb26d,2023-11-23_21h35.01.479,kallum_motion_pilot,2023.1.2,Win32,59.28385108,6111624c12d30533fdfeb26d,656018846682f3df8008bb8f,656019c7e22a2c43a630d31a,1,58,220,87,1,eightseven,,,,,,,,,,,,,,,,,,,,,,,,,,,,,,,,,,,,,,,,,,,,,,,,,,,,,,,,,,,,,,,,,,,,,,,,,,,,,,,,,,,,,
6111624c12d30533fdfeb26d,2023-11-23_21h35.01.479,kallum_motion_pilot,2023.1.2,Win32,59.28385108,6111624c12d30533fdfeb26d,656018846682f3df8008bb8f,656019c7e22a2c43a630d31a,1,59,221,115,1,sixeight,,,,,,,,,,,,,,,,,,,,,,,,,,,,,,,,,,,,,,,,,,,,,,,,,,,,,,,,,,,,,,,,,,,,,,,,,,,,,,,,,,,,,
6111624c12d30533fdfeb26d,2023-11-23_21h35.01.479,kallum_motion_pilot,2023.1.2,Win32,59.28385108,6111624c12d30533fdfeb26d,656018846682f3df8008bb8f,656019c7e22a2c43a630d31a,1,60,222,151,1,eightseven,,,,,,,,,,,,,,,,,,,,,,,,,,,,,,,,,,,,,,,,,,,,,,,,,,,,,,,,,,,,,,,,,,,,,,,,,,,,,,,,,,,,,
6111624c12d30533fdfeb26d,2023-11-23_21h35.01.479,kallum_motion_pilot,2023.1.2,Win32,59.28385108,6111624c12d30533fdfeb26d,656018846682f3df8008bb8f,656019c7e22a2c43a630d31a,1,61,223,109,1,seveneight,,,,,,,,,,,,,,,,,,,,,,,,,,,,,,,,,,,,,,,,,,,,,,,,,,,,,,,,,,,,,,,,,,,,,,,,,,,,,,,,,,,,,
6111624c12d30533fdfeb26d,2023-11-23_21h35.01.479,kallum_motion_pilot,2023.1.2,Win32,59.28385108,6111624c12d30533fdfeb26d,656018846682f3df8008bb8f,656019c7e22a2c43a630d31a,1,62,224,80,1,fivesix,,,,,,,,,,,,,,,,,,,,,,,,,,,,,,,,,,,,,,,,,,,,,,,,,,,,,,,,,,,,,,,,,,,,,,,,,,,,,,,,,,,,,
6111624c12d30533fdfeb26d,2023-11-23_21h35.01.479,kallum_motion_pilot,2023.1.2,Win32,59.28385108,6111624c12d30533fdfeb26d,656018846682f3df8008bb8f,656019c7e22a2c43a630d31a,1,63,225,79,1,eightseven,,,,,,,,,,,,,,,,,,,,,,,,,,,,,,,,,,,,,,,,,,,,,,,,,,,,,,,,,,,,,,,,,,,,,,,,,,,,,,,,,,,,,
6111624c12d30533fdfeb26d,2023-11-23_21h35.01.479,kallum_motion_pilot,2023.1.2,Win32,59.28385108,6111624c12d30533fdfeb26d,656018846682f3df8008bb8f,656019c7e22a2c43a630d31a,1,64,226,118,1,eightsix,,,,,,,,,,,,,,,,,,,,,,,,,,,,,,,,,,,,,,,,,,,,,,,,,,,,,,,,,,,,,,,,,,,,,,,,,,,,,,,,,,,,,
6111624c12d30533fdfeb26d,2023-11-23_21h35.01.479,kallum_motion_pilot,2023.1.2,Win32,59.28385108,6111624c12d30533fdfeb26d,656018846682f3df8008bb8f,656019c7e22a2c43a630d31a,1,65,227,55,1,fourthree,,,,,,,,,,,,,,,,,,,,,,,,,,,,,,,,,,,,,,,,,,,,,,,,,,,,,,,,,,,,,,,,,,,,,,,,,,,,,,,,,,,,,
6111624c12d30533fdfeb26d,2023-11-23_21h35.01.479,kallum_motion_pilot,2023.1.2,Win32,59.28385108,6111624c12d30533fdfeb26d,656018846682f3df8008bb8f,656019c7e22a2c43a630d31a,1,66,228,154,1,sixfive,,,,,,,,,,,,,,,,,,,,,,,,,,,,,,,,,,,,,,,,,,,,,,,,,,,,,,,,,,,,,,,,,,,,,,,,,,,,,,,,,,,,,
6111624c12d30533fdfeb26d,2023-11-23_21h35.01.479,kallum_motion_pilot,2023.1.2,Win32,59.28385108,6111624c12d30533fdfeb26d,656018846682f3df8008bb8f,656019c7e22a2c43a630d31a,1,67,229,150,1,eightsix,,,,,,,,,,,,,,,,,,,,,,,,,,,,,,,,,,,,,,,,,,,,,,,,,,,,,,,,,,,,,,,,,,,,,,,,,,,,,,,,,,,,,
6111624c12d30533fdfeb26d,2023-11-23_21h35.01.479,kallum_motion_pilot,2023.1.2,Win32,59.28385108,6111624c12d30533fdfeb26d,656018846682f3df8008bb8f,656019c7e22a2c43a630d31a,1,68,230,138,1,sixfive,,,,,,,,,,,,,,,,,,,,,,,,,,,,,,,,,,,,,,,,,,,,,,,,,,,,,,,,,,,,,,,,,,,,,,,,,,,,,,,,,,,,,
6111624c12d30533fdfeb26d,2023-11-23_21h35.01.479,kallum_motion_pilot,2023.1.2,Win32,59.28385108,6111624c12d30533fdfeb26d,656018846682f3df8008bb8f,656019c7e22a2c43a630d31a,1,69,231,43,1,twofour,,,,,,,,,,,,,,,,,,,,,,,,,,,,,,,,,,,,,,,,,,,,,,,,,,,,,,,,,,,,,,,,,,,,,,,,,,,,,,,,,,,,,
6111624c12d30533fdfeb26d,2023-11-23_21h35.01.479,kallum_motion_pilot,2023.1.2,Win32,59.28385108,6111624c12d30533fdfeb26d,656018846682f3df8008bb8f,656019c7e22a2c43a630d31a,1,70,232,122,1,sixfive,,,,,,,,,,,,,,,,,,,,,,,,,,,,,,,,,,,,,,,,,,,,,,,,,,,,,,,,,,,,,,,,,,,,,,,,,,,,,,,,,,,,,
6111624c12d30533fdfeb26d,2023-11-23_21h35.01.479,kallum_motion_pilot,2023.1.2,Win32,59.28385108,6111624c12d30533fdfeb26d,656018846682f3df8008bb8f,656019c7e22a2c43a630d31a,1,71,233,29,1,threefour,,,,,,,,,,,,,,,,,,,,,,,,,,,,,,,,,,,,,,,,,,,,,,,,,,,,,,,,,,,,,,,,,,,,,,,,,,,,,,,,,,,,,
6111624c12d30533fdfeb26d,2023-11-23_21h35.01.479,kallum_motion_pilot,2023.1.2,Win32,59.28385108,6111624c12d30533fdfeb26d,656018846682f3df8008bb8f,656019c7e22a2c43a630d31a,1,72,234,127,1,eightseven,,,,,,,,,,,,,,,,,,,,,,,,,,,,,,,,,,,,,,,,,,,,,,,,,,,,,,,,,,,,,,,,,,,,,,,,,,,,,,,,,,,,,
6111624c12d30533fdfeb26d,2023-11-23_21h35.01.479,kallum_motion_pilot,2023.1.2,Win32,59.28385108,6111624c12d30533fdfeb26d,656018846682f3df8008bb8f,656019c7e22a2c43a630d31a,1,73,235,110,1,eightsix,,,,,,,,,,,,,,,,,,,,,,,,,,,,,,,,,,,,,,,,,,,,,,,,,,,,,,,,,,,,,,,,,,,,,,,,,,,,,,,,,,,,,
6111624c12d30533fdfeb26d,2023-11-23_21h35.01.479,kallum_motion_pilot,2023.1.2,Win32,59.28385108,6111624c12d30533fdfeb26d,656018846682f3df8008bb8f,656019c7e22a2c43a630d31a,1,74,236,125,1,seveneight,,,,,,,,,,,,,,,,,,,,,,,,,,,,,,,,,,,,,,,,,,,,,,,,,,,,,,,,,,,,,,,,,,,,,,,,,,,,,,,,,,,,,
6111624c12d30533fdfeb26d,2023-11-23_21h35.01.479,kallum_motion_pilot,2023.1.2,Win32,59.28385108,6111624c12d30533fdfeb26d,656018846682f3df8008bb8f,656019c7e22a2c43a630d31a,1,75,237,91,1,sixeight,,,,,,,,,,,,,,,,,,,,,,,,,,,,,,,,,,,,,,,,,,,,,,,,,,,,,,,,,,,,,,,,,,,,,,,,,,,,,,,,,,,,,
6111624c12d30533fdfeb26d,2023-11-23_21h35.01.479,kallum_motion_pilot,2023.1.2,Win32,59.28385108,6111624c12d30533fdfeb26d,656018846682f3df8008bb8f,656019c7e22a2c43a630d31a,1,76,238,63,1,fourthree,,,,,,,,,,,,,,,,,,,,,,,,,,,,,,,,,,,,,,,,,,,,,,,,,,,,,,,,,,,,,,,,,,,,,,,,,,,,,,,,,,,,,
6111624c12d30533fdfeb26d,2023-11-23_21h35.01.479,kallum_motion_pilot,2023.1.2,Win32,59.28385108,6111624c12d30533fdfeb26d,656018846682f3df8008bb8f,656019c7e22a2c43a630d31a,1,77,239,139,1,sixeight,,,,,,,,,,,,,,,,,,,,,,,,,,,,,,,,,,,,,,,,,,,,,,,,,,,,,,,,,,,,,,,,,,,,,,,,,,,,,,,,,,,,,
6111624c12d30533fdfeb26d,2023-11-23_21h35.01.479,kallum_motion_pilot,2023.1.2,Win32,59.28385108,6111624c12d30533fdfeb26d,656018846682f3df8008bb8f,656019c7e22a2c43a630d31a,1,78,240,20,1,threeone,,,,,,,,,,,,,,,,,,,,,,,,,,,,,,,,,,,,,,,,,,,,,,,,,,,,,,,,,,,,,,,,,,,,,,,,,,,,,,,,,,,,,
6111624c12d30533fdfeb26d,2023-11-23_21h35.01.479,kallum_motion_pilot,2023.1.2,Win32,59.28385108,6111624c12d30533fdfeb26d,656018846682f3df8008bb8f,656019c7e22a2c43a630d31a,1,79,241,17,1,onethree,,,,,,,,,,,,,,,,,,,,,,,,,,,,,,,,,,,,,,,,,,,,,,,,,,,,,,,,,,,,,,,,,,,,,,,,,,,,,,,,,,,,,
6111624c12d30533fdfeb26d,2023-11-23_21h35.01.479,kallum_motion_pilot,2023.1.2,Win32,59.28385108,6111624c12d30533fdfeb26d,656018846682f3df8008bb8f,656019c7e22a2c43a630d31a,1,80,242,146,1,sixfive,,,,,,,,,,,,,,,,,,,,,,,,,,,,,,,,,,,,,,,,,,,,,,,,,,,,,,,,,,,,,,,,,,,,,,,,,,,,,,,,,,,,,
6111624c12d30533fdfeb26d,2023-11-23_21h35.01.479,kallum_motion_pilot,2023.1.2,Win32,59.28385108,6111624c12d30533fdfeb26d,656018846682f3df8008bb8f,656019c7e22a2c43a630d31a,1,81,243,88,1,fivesix,,,,,,,,,,,,,,,,,,,,,,,,,,,,,,,,,,,,,,,,,,,,,,,,,,,,,,,,,,,,,,,,,,,,,,,,,,,,,,,,,,,,,
6111624c12d30533fdfeb26d,2023-11-23_21h35.01.479,kallum_motion_pilot,2023.1.2,Win32,59.28385108,6111624c12d30533fdfeb26d,656018846682f3df8008bb8f,656019c7e22a2c43a630d31a,1,82,244,104,1,fivesix,,,,,,,,,,,,,,,,,,,,,,,,,,,,,,,,,,,,,,,,,,,,,,,,,,,,,,,,,,,,,,,,,,,,,,,,,,,,,,,,,,,,,
6111624c12d30533fdfeb26d,2023-11-23_21h35.01.479,kallum_motion_pilot,2023.1.2,Win32,59.28385108,6111624c12d30533fdfeb26d,656018846682f3df8008bb8f,656019c7e22a2c43a630d31a,1,83,245,107,1,sixeight,,,,,,,,,,,,,,,,,,,,,,,,,,,,,,,,,,,,,,,,,,,,,,,,,,,,,,,,,,,,,,,,,,,,,,,,,,,,,,,,,,,,,
6111624c12d30533fdfeb26d,2023-11-23_21h35.01.479,kallum_motion_pilot,2023.1.2,Win32,59.28385108,6111624c12d30533fdfeb26d,656018846682f3df8008bb8f,656019c7e22a2c43a630d31a,1,84,246,100,1,sevenfive,,,,,,,,,,,,,,,,,,,,,,,,,,,,,,,,,,,,,,,,,,,,,,,,,,,,,,,,,,,,,,,,,,,,,,,,,,,,,,,,,,,,,
6111624c12d30533fdfeb26d,2023-11-23_21h35.01.479,kallum_motion_pilot,2023.1.2,Win32,59.28385108,6111624c12d30533fdfeb26d,656018846682f3df8008bb8f,656019c7e22a2c43a630d31a,1,85,247,1,1,onethree,,,,,,,,,,,,,,,,,,,,,,,,,,,,,,,,,,,,,,,,,,,,,,,,,,,,,,,,,,,,,,,,,,,,,,,,,,,,,,,,,,,,,
6111624c12d30533fdfeb26d,2023-11-23_21h35.01.479,kallum_motion_pilot,2023.1.2,Win32,59.28385108,6111624c12d30533fdfeb26d,656018846682f3df8008bb8f,656019c7e22a2c43a630d31a,1,86,248,75,1,twofour,,,,,,,,,,,,,,,,,,,,,,,,,,,,,,,,,,,,,,,,,,,,,,,,,,,,,,,,,,,,,,,,,,,,,,,,,,,,,,,,,,,,,
6111624c12d30533fdfeb26d,2023-11-23_21h35.01.479,kallum_motion_pilot,2023.1.2,Win32,59.28385108,6111624c12d30533fdfeb26d,656018846682f3df8008bb8f,656019c7e22a2c43a630d31a,1,87,249,113,1,fiveseven,,,,,,,,,,,,,,,,,,,,,,,,,,,,,,,,,,,,,,,,,,,,,,,,,,,,,,,,,,,,,,,,,,,,,,,,,,,,,,,,,,,,,
6111624c12d30533fdfeb26d,2023-11-23_21h35.01.479,kallum_motion_pilot,2023.1.2,Win32,59.28385108,6111624c12d30533fdfeb26d,656018846682f3df8008bb8f,656019c7e22a2c43a630d31a,1,88,250,132,1,sevenfive,,,,,,,,,,,,,,,,,,,,,,,,,,,,,,,,,,,,,,,,,,,,,,,,,,,,,,,,,,,,,,,,,,,,,,,,,,,,,,,,,,,,,
6111624c12d30533fdfeb26d,2023-11-23_21h35.01.479,kallum_motion_pilot,2023.1.2,Win32,59.28385108,6111624c12d30533fdfeb26d,656018846682f3df8008bb8f,656019c7e22a2c43a630d31a,1,89,251,135,1,eightseven,,,,,,,,,,,,,,,,,,,,,,,,,,,,,,,,,,,,,,,,,,,,,,,,,,,,,,,,,,,,,,,,,,,,,,,,,,,,,,,,,,,,,
6111624c12d30533fdfeb26d,2023-11-23_21h35.01.479,kallum_motion_pilot,2023.1.2,Win32,59.28385108,6111624c12d30533fdfeb26d,656018846682f3df8008bb8f,656019c7e22a2c43a630d31a,1,90,252,111,1,eightseven,,,,,,,,,,,,,,,,,,,,,,,,,,,,,,,,,,,,,,,,,,,,,,,,,,,,,,,,,,,,,,,,,,,,,,,,,,,,,,,,,,,,,
6111624c12d30533fdfeb26d,2023-11-23_21h35.01.479,kallum_motion_pilot,2023.1.2,Win32,59.28385108,6111624c12d30533fdfeb26d,656018846682f3df8008bb8f,656019c7e22a2c43a630d31a,1,91,253,6,1,fourtwo,,,,,,,,,,,,,,,,,,,,,,,,,,,,,,,,,,,,,,,,,,,,,,,,,,,,,,,,,,,,,,,,,,,,,,,,,,,,,,,,,,,,,
6111624c12d30533fdfeb26d,2023-11-23_21h35.01.479,kallum_motion_pilot,2023.1.2,Win32,59.28385108,6111624c12d30533fdfeb26d,656018846682f3df8008bb8f,656019c7e22a2c43a630d31a,1,92,254,2,1,twoone,,,,,,,,,,,,,,,,,,,,,,,,,,,,,,,,,,,,,,,,,,,,,,,,,,,,,,,,,,,,,,,,,,,,,,,,,,,,,,,,,,,,,
6111624c12d30533fdfeb26d,2023-11-23_21h35.01.479,kallum_motion_pilot,2023.1.2,Win32,59.28385108,6111624c12d30533fdfeb26d,656018846682f3df8008bb8f,656019c7e22a2c43a630d31a,1,93,255,119,1,eightseven,,,,,,,,,,,,,,,,,,,,,,,,,,,,,,,,,,,,,,,,,,,,,,,,,,,,,,,,,,,,,,,,,,,,,,,,,,,,,,,,,,,,,
6111624c12d30533fdfeb26d,2023-11-23_21h35.01.479,kallum_motion_pilot,2023.1.2,Win32,59.28385108,6111624c12d30533fdfeb26d,656018846682f3df8008bb8f,656019c7e22a2c43a630d31a,1,94,256,0,1,onetwo,,,,,,,,,,,,,,,,,,,,,,,,,,,,,,,,,,,,,,,,,,,,,,,,,,,,,,,,,,,,,,,,,,,,,,,,,,,,,,,,,,,,,
6111624c12d30533fdfeb26d,2023-11-23_21h35.01.479,kallum_motion_pilot,2023.1.2,Win32,59.28385108,6111624c12d30533fdfeb26d,656018846682f3df8008bb8f,656019c7e22a2c43a630d31a,1,95,257,61,1,threefour,,,,,,,,,,,,,,,,,,,,,,,,,,,,,,,,,,,,,,,,,,,,,,,,,,,,,,,,,,,,,,,,,,,,,,,,,,,,,,,,,,,,,
6111624c12d30533fdfeb26d,2023-11-23_21h35.01.479,kallum_motion_pilot,2023.1.2,Win32,59.28385108,6111624c12d30533fdfeb26d,656018846682f3df8008bb8f,656019c7e22a2c43a630d31a,1,96,258,161,1,fiveseven,,,,,,,,,,,,,,,,,,,,,,,,,,,,,,,,,,,,,,,,,,,,,,,,,,,,,,,,,,,,,,,,,,,,,,,,,,,,,,,,,,,,,
6111624c12d30533fdfeb26d,2023-11-23_21h35.01.479,kallum_motion_pilot,2023.1.2,Win32,59.28385108,6111624c12d30533fdfeb26d,656018846682f3df8008bb8f,656019c7e22a2c43a630d31a,1,97,259,82,1,sixfive,,,,,,,,,,,,,,,,,,,,,,,,,,,,,,,,,,,,,,,,,,,,,,,,,,,,,,,,,,,,,,,,,,,,,,,,,,,,,,,,,,,,,
6111624c12d30533fdfeb26d,2023-11-23_21h35.01.479,kallum_motion_pilot,2023.1.2,Win32,59.28385108,6111624c12d30533fdfeb26d,656018846682f3df8008bb8f,656019c7e22a2c43a630d31a,1,98,260,103,1,eightseven,,,,,,,,,,,,,,,,,,,,,,,,,,,,,,,,,,,,,,,,,,,,,,,,,,,,,,,,,,,,,,,,,,,,,,,,,,,,,,,,,,,,,
6111624c12d30533fdfeb26d,2023-11-23_21h35.01.479,kallum_motion_pilot,2023.1.2,Win32,59.28385108,6111624c12d30533fdfeb26d,656018846682f3df8008bb8f,656019c7e22a2c43a630d31a,1,99,261,102,1,eightsix,,,,,,,,,,,,,,,,,,,,,,,,,,,,,,,,,,,,,,,,,,,,,,,,,,,,,,,,,,,,,,,,,,,,,,,,,,,,,,,,,,,,,
6111624c12d30533fdfeb26d,2023-11-23_21h35.01.479,kallum_motion_pilot,2023.1.2,Win32,59.28385108,6111624c12d30533fdfeb26d,656018846682f3df8008bb8f,656019c7e22a2c43a630d31a,1,100,262,99,1,sixeight,,,,,,,,,,,,,,,,,,,,,,,,,,,,,,,,,,,,,,,,,,,,,,,,,,,,,,,,,,,,,,,,,,,,,,,,,,,,,,,,,,,,,
6111624c12d30533fdfeb26d,2023-11-23_21h35.01.479,kallum_motion_pilot,2023.1.2,Win32,59.28385108,6111624c12d30533fdfeb26d,656018846682f3df8008bb8f,656019c7e22a2c43a630d31a,1,101,263,92,1,sevenfive,,,,,,,,,,,,,,,,,,,,,,,,,,,,,,,,,,,,,,,,,,,,,,,,,,,,,,,,,,,,,,,,,,,,,,,,,,,,,,,,,,,,,
6111624c12d30533fdfeb26d,2023-11-23_21h35.01.479,kallum_motion_pilot,2023.1.2,Win32,59.28385108,6111624c12d30533fdfeb26d,656018846682f3df8008bb8f,656019c7e22a2c43a630d31a,1,102,264,24,1,onetwo,,,,,,,,,,,,,,,,,,,,,,,,,,,,,,,,,,,,,,,,,,,,,,,,,,,,,,,,,,,,,,,,,,,,,,,,,,,,,,,,,,,,,
6111624c12d30533fdfeb26d,2023-11-23_21h35.01.479,kallum_motion_pilot,2023.1.2,Win32,59.28385108,6111624c12d30533fdfeb26d,656018846682f3df8008bb8f,656019c7e22a2c43a630d31a,1,103,265,25,1,onethree,,,,,,,,,,,,,,,,,,,,,,,,,,,,,,,,,,,,,,,,,,,,,,,,,,,,,,,,,,,,,,,,,,,,,,,,,,,,,,,,,,,,,
6111624c12d30533fdfeb26d,2023-11-23_21h35.01.479,kallum_motion_pilot,2023.1.2,Win32,59.28385108,6111624c12d30533fdfeb26d,656018846682f3df8008bb8f,656019c7e22a2c43a630d31a,1,104,266,89,1,fiveseven,,,,,,,,,,,,,,,,,,,,,,,,,,,,,,,,,,,,,,,,,,,,,,,,,,,,,,,,,,,,,,,,,,,,,,,,,,,,,,,,,,,,,
6111624c12d30533fdfeb26d,2023-11-23_21h35.01.479,kallum_motion_pilot,2023.1.2,Win32,59.28385108,6111624c12d30533fdfeb26d,656018846682f3df8008bb8f,656019c7e22a2c43a630d31a,1,105,267,159,1,eightseven,,,,,,,,,,,,,,,,,,,,,,,,,,,,,,,,,,,,,,,,,,,,,,,,,,,,,,,,,,,,,,,,,,,,,,,,,,,,,,,,,,,,,
6111624c12d30533fdfeb26d,2023-11-23_21h35.01.479,kallum_motion_pilot,2023.1.2,Win32,59.28385108,6111624c12d30533fdfeb26d,656018846682f3df8008bb8f,656019c7e22a2c43a630d31a,1,106,268,155,1,sixeight,,,,,,,,,,,,,,,,,,,,,,,,,,,,,,,,,,,,,,,,,,,,,,,,,,,,,,,,,,,,,,,,,,,,,,,,,,,,,,,,,,,,,
6111624c12d30533fdfeb26d,2023-11-23_21h35.01.479,kallum_motion_pilot,2023.1.2,Win32,59.28385108,6111624c12d30533fdfeb26d,656018846682f3df8008bb8f,656019c7e22a2c43a630d31a,1,107,269,60,1,threeone,,,,,,,,,,,,,,,,,,,,,,,,,,,,,,,,,,,,,,,,,,,,,,,,,,,,,,,,,,,,,,,,,,,,,,,,,,,,,,,,,,,,,
6111624c12d30533fdfeb26d,2023-11-23_21h35.01.479,kallum_motion_pilot,2023.1.2,Win32,59.28385108,6111624c12d30533fdfeb26d,656018846682f3df8008bb8f,656019c7e22a2c43a630d31a,1,108,270,48,1,onetwo,,,,,,,,,,,,,,,,,,,,,,,,,,,,,,,,,,,,,,,,,,,,,,,,,,,,,,,,,,,,,,,,,,,,,,,,,,,,,,,,,,,,,
6111624c12d30533fdfeb26d,2023-11-23_21h35.01.479,kallum_motion_pilot,2023.1.2,Win32,59.28385108,6111624c12d30533fdfeb26d,656018846682f3df8008bb8f,656019c7e22a2c43a630d31a,1,109,271,93,1,seveneight,,,,,,,,,,,,,,,,,,,,,,,,,,,,,,,,,,,,,,,,,,,,,,,,,,,,,,,,,,,,,,,,,,,,,,,,,,,,,,,,,,,,,
6111624c12d30533fdfeb26d,2023-11-23_21h35.01.479,kallum_motion_pilot,2023.1.2,Win32,59.28385108,6111624c12d30533fdfeb26d,656018846682f3df8008bb8f,656019c7e22a2c43a630d31a,1,110,272,137,1,fiveseven,,,,,,,,,,,,,,,,,,,,,,,,,,,,,,,,,,,,,,,,,,,,,,,,,,,,,,,,,,,,,,,,,,,,,,,,,,,,,,,,,,,,,
6111624c12d30533fdfeb26d,2023-11-23_21h35.01.479,kallum_motion_pilot,2023.1.2,Win32,59.28385108,6111624c12d30533fdfeb26d,656018846682f3df8008bb8f,656019c7e22a2c43a630d31a,1,111,273,66,1,twoone,,,,,,,,,,,,,,,,,,,,,,,,,,,,,,,,,,,,,,,,,,,,,,,,,,,,,,,,,,,,,,,,,,,,,,,,,,,,,,,,,,,,,
6111624c12d30533fdfeb26d,2023-11-23_21h35.01.479,kallum_motion_pilot,2023.1.2,Win32,59.28385108,6111624c12d30533fdfeb26d,656018846682f3df8008bb8f,656019c7e22a2c43a630d31a,1,112,274,90,1,sixfive,,,,,,,,,,,,,,,,,,,,,,,,,,,,,,,,,,,,,,,,,,,,,,,,,,,,,,,,,,,,,,,,,,,,,,,,,,,,,,,,,,,,,
6111624c12d30533fdfeb26d,2023-11-23_21h35.01.479,kallum_motion_pilot,2023.1.2,Win32,59.28385108,6111624c12d30533fdfeb26d,656018846682f3df8008bb8f,656019c7e22a2c43a630d31a,1,113,275,130,1,sixfive,,,,,,,,,,,,,,,,,,,,,,,,,,,,,,,,,,,,,,,,,,,,,,,,,,,,,,,,,,,,,,,,,,,,,,,,,,,,,,,,,,,,,
6111624c12d30533fdfeb26d,2023-11-23_21h35.01.479,kallum_motion_pilot,2023.1.2,Win32,59.28385108,6111624c12d30533fdfeb26d,656018846682f3df8008bb8f,656019c7e22a2c43a630d31a,1,114,276,56,1,onetwo,,,,,,,,,,,,,,,,,,,,,,,,,,,,,,,,,,,,,,,,,,,,,,,,,,,,,,,,,,,,,,,,,,,,,,,,,,,,,,,,,,,,,
6111624c12d30533fdfeb26d,2023-11-23_21h35.01.479,kallum_motion_pilot,2023.1.2,Win32,59.28385108,6111624c12d30533fdfeb26d,656018846682f3df8008bb8f,656019c7e22a2c43a630d31a,1,115,277,11,1,twofour,,,,,,,,,,,,,,,,,,,,,,,,,,,,,,,,,,,,,,,,,,,,,,,,,,,,,,,,,,,,,,,,,,,,,,,,,,,,,,,,,,,,,
6111624c12d30533fdfeb26d,2023-11-23_21h35.01.479,kallum_motion_pilot,2023.1.2,Win32,59.28385108,6111624c12d30533fdfeb26d,656018846682f3df8008bb8f,656019c7e22a2c43a630d31a,1,116,278,94,1,eightsix,,,,,,,,,,,,,,,,,,,,,,,,,,,,,,,,,,,,,,,,,,,,,,,,,,,,,,,,,,,,,,,,,,,,,,,,,,,,,,,,,,,,,
6111624c12d30533fdfeb26d,2023-11-23_21h35.01.479,kallum_motion_pilot,2023.1.2,Win32,59.28385108,6111624c12d30533fdfeb26d,656018846682f3df8008bb8f,656019c7e22a2c43a630d31a,1,117,279,7,1,fourthree,,,,,,,,,,,,,,,,,,,,,,,,,,,,,,,,,,,,,,,,,,,,,,,,,,,,,,,,,,,,,,,,,,,,,,,,,,,,,,,,,,,,,
6111624c12d30533fdfeb26d,2023-11-23_21h35.01.479,kallum_motion_pilot,2023.1.2,Win32,59.28385108,6111624c12d30533fdfeb26d,656018846682f3df8008bb8f,656019c7e22a2c43a630d31a,1,118,280,123,1,sixeight,,,,,,,,,,,,,,,,,,,,,,,,,,,,,,,,,,,,,,,,,,,,,,,,,,,,,,,,,,,,,,,,,,,,,,,,,,,,,,,,,,,,,
6111624c12d30533fdfeb26d,2023-11-23_21h35.01.479,kallum_motion_pilot,2023.1.2,Win32,59.28385108,6111624c12d30533fdfeb26d,656018846682f3df8008bb8f,656019c7e22a2c43a630d31a,1,119,281,134,1,eightsix,,,,,,,,,,,,,,,,,,,,,,,,,,,,,,,,,,,,,,,,,,,,,,,,,,,,,,,,,,,,,,,,,,,,,,,,,,,,,,,,,,,,,
6111624c12d30533fdfeb26d,2023-11-23_21h35.01.479,kallum_motion_pilot,2023.1.2,Win32,59.28385108,6111624c12d30533fdfeb26d,656018846682f3df8008bb8f,656019c7e22a2c43a630d31a,1,120,282,114,1,sixfive,,,,,,,,,,,,,,,,,,,,,,,,,,,,,,,,,,,,,,,,,,,,,,,,,,,,,,,,,,,,,,,,,,,,,,,,,,,,,,,,,,,,,
6111624c12d30533fdfeb26d,2023-11-23_21h35.01.479,kallum_motion_pilot,2023.1.2,Win32,59.28385108,6111624c12d30533fdfeb26d,656018846682f3df8008bb8f,656019c7e22a2c43a630d31a,1,121,283,36,1,threeone,,,,,,,,,,,,,,,,,,,,,,,,,,,,,,,,,,,,,,,,,,,,,,,,,,,,,,,,,,,,,,,,,,,,,,,,,,,,,,,,,,,,,
6111624c12d30533fdfeb26d,2023-11-23_21h35.01.479,kallum_motion_pilot,2023.1.2,Win32,59.28385108,6111624c12d30533fdfeb26d,656018846682f3df8008bb8f,656019c7e22a2c43a630d31a,1,122,284,14,1,fourtwo,,,,,,,,,,,,,,,,,,,,,,,,,,,,,,,,,,,,,,,,,,,,,,,,,,,,,,,,,,,,,,,,,,,,,,,,,,,,,,,,,,,,,
6111624c12d30533fdfeb26d,2023-11-23_21h35.01.479,kallum_motion_pilot,2023.1.2,Win32,59.28385108,6111624c12d30533fdfeb26d,656018846682f3df8008bb8f,656019c7e22a2c43a630d31a,1,123,285,26,1,twoone,,,,,,,,,,,,,,,,,,,,,,,,,,,,,,,,,,,,,,,,,,,,,,,,,,,,,,,,,,,,,,,,,,,,,,,,,,,,,,,,,,,,,
6111624c12d30533fdfeb26d,2023-11-23_21h35.01.479,kallum_motion_pilot,2023.1.2,Win32,59.28385108,6111624c12d30533fdfeb26d,656018846682f3df8008bb8f,656019c7e22a2c43a630d31a,1,124,286,131,1,sixeight,,,,,,,,,,,,,,,,,,,,,,,,,,,,,,,,,,,,,,,,,,,,,,,,,,,,,,,,,,,,,,,,,,,,,,,,,,,,,,,,,,,,,
6111624c12d30533fdfeb26d,2023-11-23_21h35.01.479,kallum_motion_pilot,2023.1.2,Win32,59.28385108,6111624c12d30533fdfeb26d,656018846682f3df8008bb8f,656019c7e22a2c43a630d31a,1,125,287,59,1,twofour,,,,,,,,,,,,,,,,,,,,,,,,,,,,,,,,,,,,,,,,,,,,,,,,,,,,,,,,,,,,,,,,,,,,,,,,,,,,,,,,,,,,,
6111624c12d30533fdfeb26d,2023-11-23_21h35.01.479,kallum_motion_pilot,2023.1.2,Win32,59.28385108,6111624c12d30533fdfeb26d,656018846682f3df8008bb8f,656019c7e22a2c43a630d31a,1,126,288,12,1,threeone,,,,,,,,,,,,,,,,,,,,,,,,,,,,,,,,,,,,,,,,,,,,,,,,,,,,,,,,,,,,,,,,,,,,,,,,,,,,,,,,,,,,,
6111624c12d30533fdfeb26d,2023-11-23_21h35.01.479,kallum_motion_pilot,2023.1.2,Win32,59.28385108,6111624c12d30533fdfeb26d,656018846682f3df8008bb8f,656019c7e22a2c43a630d31a,1,127,289,50,1,twoone,,,,,,,,,,,,,,,,,,,,,,,,,,,,,,,,,,,,,,,,,,,,,,,,,,,,,,,,,,,,,,,,,,,,,,,,,,,,,,,,,,,,,
6111624c12d30533fdfeb26d,2023-11-23_21h35.01.479,kallum_motion_pilot,2023.1.2,Win32,59.28385108,6111624c12d30533fdfeb26d,656018846682f3df8008bb8f,656019c7e22a2c43a630d31a,1,128,290,81,1,fiveseven,,,,,,,,,,,,,,,,,,,,,,,,,,,,,,,,,,,,,,,,,,,,,,,,,,,,,,,,,,,,,,,,,,,,,,,,,,,,,,,,,,,,,
6111624c12d30533fdfeb26d,2023-11-23_21h35.01.479,kallum_motion_pilot,2023.1.2,Win32,59.28385108,6111624c12d30533fdfeb26d,656018846682f3df8008bb8f,656019c7e22a2c43a630d31a,1,129,291,42,1,twoone,,,,,,,,,,,,,,,,,,,,,,,,,,,,,,,,,,,,,,,,,,,,,,,,,,,,,,,,,,,,,,,,,,,,,,,,,,,,,,,,,,,,,
6111624c12d30533fdfeb26d,2023-11-23_21h35.01.479,kallum_motion_pilot,2023.1.2,Win32,59.28385108,6111624c12d30533fdfeb26d,656018846682f3df8008bb8f,656019c7e22a2c43a630d31a,1,130,292,54,1,fourtwo,,,,,,,,,,,,,,,,,,,,,,,,,,,,,,,,,,,,,,,,,,,,,,,,,,,,,,,,,,,,,,,,,,,,,,,,,,,,,,,,,,,,,
6111624c12d30533fdfeb26d,2023-11-23_21h35.01.479,kallum_motion_pilot,2023.1.2,Win32,59.28385108,6111624c12d30533fdfeb26d,656018846682f3df8008bb8f,656019c7e22a2c43a630d31a,1,131,293,5,1,threefour,,,,,,,,,,,,,,,,,,,,,,,,,,,,,,,,,,,,,,,,,,,,,,,,,,,,,,,,,,,,,,,,,,,,,,,,,,,,,,,,,,,,,
6111624c12d30533fdfeb26d,2023-11-23_21h35.01.479,kallum_motion_pilot,2023.1.2,Win32,59.28385108,6111624c12d30533fdfeb26d,656018846682f3df8008bb8f,656019c7e22a2c43a630d31a,1,132,294,45,1,threefour,,,,,,,,,,,,,,,,,,,,,,,,,,,,,,,,,,,,,,,,,,,,,,,,,,,,,,,,,,,,,,,,,,,,,,,,,,,,,,,,,,,,,
6111624c12d30533fdfeb26d,2023-11-23_21h35.01.479,kallum_motion_pilot,2023.1.2,Win32,59.28385108,6111624c12d30533fdfeb26d,656018846682f3df8008bb8f,656019c7e22a2c43a630d31a,1,133,295,19,1,twofour,,,,,,,,,,,,,,,,,,,,,,,,,,,,,,,,,,,,,,,,,,,,,,,,,,,,,,,,,,,,,,,,,,,,,,,,,,,,,,,,,,,,,
6111624c12d30533fdfeb26d,2023-11-23_21h35.01.479,kallum_motion_pilot,2023.1.2,Win32,59.28385108,6111624c12d30533fdfeb26d,656018846682f3df8008bb8f,656019c7e22a2c43a630d31a,1,134,296,96,1,fivesix,,,,,,,,,,,,,,,,,,,,,,,,,,,,,,,,,,,,,,,,,,,,,,,,,,,,,,,,,,,,,,,,,,,,,,,,,,,,,,,,,,,,,
6111624c12d30533fdfeb26d,2023-11-23_21h35.01.479,kallum_motion_pilot,2023.1.2,Win32,59.28385108,6111624c12d30533fdfeb26d,656018846682f3df8008bb8f,656019c7e22a2c43a630d31a,1,135,297,70,1,fourtwo,,,,,,,,,,,,,,,,,,,,,,,,,,,,,,,,,,,,,,,,,,,,,,,,,,,,,,,,,,,,,,,,,,,,,,,,,,,,,,,,,,,,,
6111624c12d30533fdfeb26d,2023-11-23_21h35.01.479,kallum_motion_pilot,2023.1.2,Win32,59.28385108,6111624c12d30533fdfeb26d,656018846682f3df8008bb8f,656019c7e22a2c43a630d31a,1,136,298,85,1,seveneight,,,,,,,,,,,,,,,,,,,,,,,,,,,,,,,,,,,,,,,,,,,,,,,,,,,,,,,,,,,,,,,,,,,,,,,,,,,,,,,,,,,,,
6111624c12d30533fdfeb26d,2023-11-23_21h35.01.479,kallum_motion_pilot,2023.1.2,Win32,59.28385108,6111624c12d30533fdfeb26d,656018846682f3df8008bb8f,656019c7e22a2c43a630d31a,1,137,299,47,1,fourthree,,,,,,,,,,,,,,,,,,,,,,,,,,,,,,,,,,,,,,,,,,,,,,,,,,,,,,,,,,,,,,,,,,,,,,,,,,,,,,,,,,,,,
6111624c12d30533fdfeb26d,2023-11-23_21h35.01.479,kallum_motion_pilot,2023.1.2,Win32,59.28385108,6111624c12d30533fdfeb26d,656018846682f3df8008bb8f,656019c7e22a2c43a630d31a,1,138,300,112,1,fivesix,,,,,,,,,,,,,,,,,,,,,,,,,,,,,,,,,,,,,,,,,,,,,,,,,,,,,,,,,,,,,,,,,,,,,,,,,,,,,,,,,,,,,
6111624c12d30533fdfeb26d,2023-11-23_21h35.01.479,kallum_motion_pilot,2023.1.2,Win32,59.28385108,6111624c12d30533fdfeb26d,656018846682f3df8008bb8f,656019c7e22a2c43a630d31a,1,139,301,152,1,fivesix,,,,,,,,,,,,,,,,,,,,,,,,,,,,,,,,,,,,,,,,,,,,,,,,,,,,,,,,,,,,,,,,,,,,,,,,,,,,,,,,,,,,,
6111624c12d30533fdfeb26d,2023-11-23_21h35.01.479,kallum_motion_pilot,2023.1.2,Win32,59.28385108,6111624c12d30533fdfeb26d,656018846682f3df8008bb8f,656019c7e22a2c43a630d31a,1,140,302,67,1,twofour,,,,,,,,,,,,,,,,,,,,,,,,,,,,,,,,,,,,,,,,,,,,,,,,,,,,,,,,,,,,,,,,,,,,,,,,,,,,,,,,,,,,,
6111624c12d30533fdfeb26d,2023-11-23_21h35.01.479,kallum_motion_pilot,2023.1.2,Win32,59.28385108,6111624c12d30533fdfeb26d,656018846682f3df8008bb8f,656019c7e22a2c43a630d31a,1,141,303,68,1,threeone,,,,,,,,,,,,,,,,,,,,,,,,,,,,,,,,,,,,,,,,,,,,,,,,,,,,,,,,,,,,,,,,,,,,,,,,,,,,,,,,,,,,,
6111624c12d30533fdfeb26d,2023-11-23_21h35.01.479,kallum_motion_pilot,2023.1.2,Win32,59.28385108,6111624c12d30533fdfeb26d,656018846682f3df8008bb8f,656019c7e22a2c43a630d31a,1,142,304,39,1,fourthree,,,,,,,,,,,,,,,,,,,,,,,,,,,,,,,,,,,,,,,,,,,,,,,,,,,,,,,,,,,,,,,,,,,,,,,,,,,,,,,,,,,,,
6111624c12d30533fdfeb26d,2023-11-23_21h35.01.479,kallum_motion_pilot,2023.1.2,Win32,59.28385108,6111624c12d30533fdfeb26d,656018846682f3df8008bb8f,656019c7e22a2c43a630d31a,1,143,305,74,1,twoone,,,,,,,,,,,,,,,,,,,,,,,,,,,,,,,,,,,,,,,,,,,,,,,,,,,,,,,,,,,,,,,,,,,,,,,,,,,,,,,,,,,,,
6111624c12d30533fdfeb26d,2023-11-23_21h35.01.479,kallum_motion_pilot,2023.1.2,Win32,59.28385108,6111624c12d30533fdfeb26d,656018846682f3df8008bb8f,656019c7e22a2c43a630d31a,1,144,306,141,1,seveneight,,,,,,,,,,,,,,,,,,,,,,,,,,,,,,,,,,,,,,,,,,,,,,,,,,,,,,,,,,,,,,,,,,,,,,,,,,,,,,,,,,,,,
6111624c12d30533fdfeb26d,2023-11-23_21h35.01.479,kallum_motion_pilot,2023.1.2,Win32,59.28385108,6111624c12d30533fdfeb26d,656018846682f3df8008bb8f,656019c7e22a2c43a630d31a,1,145,307,120,1,fivesix,,,,,,,,,,,,,,,,,,,,,,,,,,,,,,,,,,,,,,,,,,,,,,,,,,,,,,,,,,,,,,,,,,,,,,,,,,,,,,,,,,,,,
6111624c12d30533fdfeb26d,2023-11-23_21h35.01.479,kallum_motion_pilot,2023.1.2,Win32,59.28385108,6111624c12d30533fdfeb26d,656018846682f3df8008bb8f,656019c7e22a2c43a630d31a,1,146,308,136,1,fivesix,,,,,,,,,,,,,,,,,,,,,,,,,,,,,,,,,,,,,,,,,,,,,,,,,,,,,,,,,,,,,,,,,,,,,,,,,,,,,,,,,,,,,
6111624c12d30533fdfeb26d,2023-11-23_21h35.01.479,kallum_motion_pilot,2023.1.2,Win32,59.28385108,6111624c12d30533fdfeb26d,656018846682f3df8008bb8f,656019c7e22a2c43a630d31a,1,147,309,83,1,sixeight,,,,,,,,,,,,,,,,,,,,,,,,,,,,,,,,,,,,,,,,,,,,,,,,,,,,,,,,,,,,,,,,,,,,,,,,,,,,,,,,,,,,,
6111624c12d30533fdfeb26d,2023-11-23_21h35.01.479,kallum_motion_pilot,2023.1.2,Win32,59.28385108,6111624c12d30533fdfeb26d,656018846682f3df8008bb8f,656019c7e22a2c43a630d31a,1,148,310,62,1,fourtwo,,,,,,,,,,,,,,,,,,,,,,,,,,,,,,,,,,,,,,,,,,,,,,,,,,,,,,,,,,,,,,,,,,,,,,,,,,,,,,,,,,,,,
6111624c12d30533fdfeb26d,2023-11-23_21h35.01.479,kallum_motion_pilot,2023.1.2,Win32,59.28385108,6111624c12d30533fdfeb26d,656018846682f3df8008bb8f,656019c7e22a2c43a630d31a,1,149,311,41,1,onethree,,,,,,,,,,,,,,,,,,,,,,,,,,,,,,,,,,,,,,,,,,,,,,,,,,,,,,,,,,,,,,,,,,,,,,,,,,,,,,,,,,,,,
6111624c12d30533fdfeb26d,2023-11-23_21h35.01.479,kallum_motion_pilot,2023.1.2,Win32,59.28385108,6111624c12d30533fdfeb26d,656018846682f3df8008bb8f,656019c7e22a2c43a630d31a,1,150,312,64,1,onetwo,,,,,,,,,,,,,,,,,,,,,,,,,,,,,,,,,,,,,,,,,,,,,,,,,,,,,,,,,,,,,,,,,,,,,,,,,,,,,,,,,,,,,
6111624c12d30533fdfeb26d,2023-11-23_21h35.01.479,kallum_motion_pilot,2023.1.2,Win32,59.28385108,6111624c12d30533fdfeb26d,656018846682f3df8008bb8f,656019c7e22a2c43a630d31a,1,151,313,133,1,seveneight,,,,,,,,,,,,,,,,,,,,,,,,,,,,,,,,,,,,,,,,,,,,,,,,,,,,,,,,,,,,,,,,,,,,,,,,,,,,,,,,,,,,,
6111624c12d30533fdfeb26d,2023-11-23_21h35.01.479,kallum_motion_pilot,2023.1.2,Win32,59.28385108,6111624c12d30533fdfeb26d,656018846682f3df8008bb8f,656019c7e22a2c43a630d31a,1,152,314,117,1,seveneight,,,,,,,,,,,,,,,,,,,,,,,,,,,,,,,,,,,,,,,,,,,,,,,,,,,,,,,,,,,,,,,,,,,,,,,,,,,,,,,,,,,,,
6111624c12d30533fdfeb26d,2023-11-23_21h35.01.479,kallum_motion_pilot,2023.1.2,Win32,59.28385108,6111624c12d30533fdfeb26d,656018846682f3df8008bb8f,656019c7e22a2c43a630d31a,1,153,315,98,1,sixfive,,,,,,,,,,,,,,,,,,,,,,,,,,,,,,,,,,,,,,,,,,,,,,,,,,,,,,,,,,,,,,,,,,,,,,,,,,,,,,,,,,,,,
6111624c12d30533fdfeb26d,2023-11-23_21h35.01.479,kallum_motion_pilot,2023.1.2,Win32,59.28385108,6111624c12d30533fdfeb26d,656018846682f3df8008bb8f,656019c7e22a2c43a630d31a,1,154,316,57,1,onethree,,,,,,,,,,,,,,,,,,,,,,,,,,,,,,,,,,,,,,,,,,,,,,,,,,,,,,,,,,,,,,,,,,,,,,,,,,,,,,,,,,,,,
6111624c12d30533fdfeb26d,2023-11-23_21h35.01.479,kallum_motion_pilot,2023.1.2,Win32,59.28385108,6111624c12d30533fdfeb26d,656018846682f3df8008bb8f,656019c7e22a2c43a630d31a,1,155,317,121,1,fiveseven,,,,,,,,,,,,,,,,,,,,,,,,,,,,,,,,,,,,,,,,,,,,,,,,,,,,,,,,,,,,,,,,,,,,,,,,,,,,,,,,,,,,,
6111624c12d30533fdfeb26d,2023-11-23_21h35.01.479,kallum_motion_pilot,2023.1.2,Win32,59.28385108,6111624c12d30533fdfeb26d,656018846682f3df8008bb8f,656019c7e22a2c43a630d31a,1,156,318,27,1,twofour,,,,,,,,,,,,,,,,,,,,,,,,,,,,,,,,,,,,,,,,,,,,,,,,,,,,,,,,,,,,,,,,,,,,,,,,,,,,,,,,,,,,,
6111624c12d30533fdfeb26d,2023-11-23_21h35.01.479,kallum_motion_pilot,2023.1.2,Win32,59.28385108,6111624c12d30533fdfeb26d,656018846682f3df8008bb8f,656019c7e22a2c43a630d31a,1,157,319,116,1,sevenfive,,,,,,,,,,,,,,,,,,,,,,,,,,,,,,,,,,,,,,,,,,,,,,,,,,,,,,,,,,,,,,,,,,,,,,,,,,,,,,,,,,,,,
6111624c12d30533fdfeb26d,2023-11-23_21h35.01.479,kallum_motion_pilot,2023.1.2,Win32,59.28385108,6111624c12d30533fdfeb26d,656018846682f3df8008bb8f,656019c7e22a2c43a630d31a,1,158,320,97,1,fiveseven,,,,,,,,,,,,,,,,,,,,,,,,,,,,,,,,,,,,,,,,,,,,,,,,,,,,,,,,,,,,,,,,,,,,,,,,,,,,,,,,,,,,,
6111624c12d30533fdfeb26d,2023-11-23_21h35.01.479,kallum_motion_pilot,2023.1.2,Win32,59.28385108,6111624c12d30533fdfeb26d,656018846682f3df8008bb8f,656019c7e22a2c43a630d31a,1,159,321,18,1,twoone,,,,,,,,,,,,,,,,,,,,,,,,,,,,,,,,,,,,,,,,,,,,,,,,,,,,,,,,,,,,,,,,,,,,,,,,,,,,,,,,,,,,,
6111624c12d30533fdfeb26d,2023-11-23_21h35.01.479,kallum_motion_pilot,2023.1.2,Win32,59.28385108,6111624c12d30533fdfeb26d,656018846682f3df8008bb8f,656019c7e22a2c43a630d31a,1,160,322,147,1,sixeight,,,,,,,,,,,,,,,,,,,,,,,,,,,,,,,,,,,,,,,,,,,,,,,,,,,,,,,,,,,,,,,,,,,,,,,,,,,,,,,,,,,,,
6111624c12d30533fdfeb26d,2023-11-23_21h35.01.479,kallum_motion_pilot,2023.1.2,Win32,59.28385108,6111624c12d30533fdfeb26d,656018846682f3df8008bb8f,656019c7e22a2c43a630d31a,1,161,323,108,1,sevenfive,,,,,,,,,,,,,,,,,,,,,,,,,,,,,,,,,,,,,,,,,,,,,,,,,,,,,,,,,,,,,,,,,,,,,,,,,,,,,,,,,,,,,
6111624c12d30533fdfeb26d,2023-11-23_21h35.01.479,kallum_motion_pilot,2023.1.2,Win32,59.28385108,6111624c12d30533fdfeb26d,656018846682f3df8008bb8f,656019c7e22a2c43a630d31a,2,0,324,113,1,fiveseven,,,,,,,,,,,,,,,,,,,,,,,,,,,,,,,,,,,,,,,,,,,,,,,,,,,,,,,,,,,,,,,,,,,,,,,,,,,,,,,,,,,,,
6111624c12d30533fdfeb26d,2023-11-23_21h35.01.479,kallum_motion_pilot,2023.1.2,Win32,59.28385108,6111624c12d30533fdfeb26d,656018846682f3df8008bb8f,656019c7e22a2c43a630d31a,2,1,325,5,1,threefour,,,,,,,,,,,,,,,,,,,,,,,,,,,,,,,,,,,,,,,,,,,,,,,,,,,,,,,,,,,,,,,,,,,,,,,,,,,,,,,,,,,,,
6111624c12d30533fdfeb26d,2023-11-23_21h35.01.479,kallum_motion_pilot,2023.1.2,Win32,59.28385108,6111624c12d30533fdfeb26d,656018846682f3df8008bb8f,656019c7e22a2c43a630d31a,2,2,326,87,1,eightseven,,,,,,,,,,,,,,,,,,,,,,,,,,,,,,,,,,,,,,,,,,,,,,,,,,,,,,,,,,,,,,,,,,,,,,,,,,,,,,,,,,,,,
6111624c12d30533fdfeb26d,2023-11-23_21h35.01.479,kallum_motion_pilot,2023.1.2,Win32,59.28385108,6111624c12d30533fdfeb26d,656018846682f3df8008bb8f,656019c7e22a2c43a630d31a,2,3,327,142,1,eightsix,,,,,,,,,,,,,,,,,,,,,,,,,,,,,,,,,,,,,,,,,,,,,,,,,,,,,,,,,,,,,,,,,,,,,,,,,,,,,,,,,,,,,
6111624c12d30533fdfeb26d,2023-11-23_21h35.01.479,kallum_motion_pilot,2023.1.2,Win32,59.28385108,6111624c12d30533fdfeb26d,656018846682f3df8008bb8f,656019c7e22a2c43a630d31a,2,4,328,147,1,sixeight,,,,,,,,,,,,,,,,,,,,,,,,,,,,,,,,,,,,,,,,,,,,,,,,,,,,,,,,,,,,,,,,,,,,,,,,,,,,,,,,,,,,,
6111624c12d30533fdfeb26d,2023-11-23_21h35.01.479,kallum_motion_pilot,2023.1.2,Win32,59.28385108,6111624c12d30533fdfeb26d,656018846682f3df8008bb8f,656019c7e22a2c43a630d31a,2,5,329,106,1,sixfive,,,,,,,,,,,,,,,,,,,,,,,,,,,,,,,,,,,,,,,,,,,,,,,,,,,,,,,,,,,,,,,,,,,,,,,,,,,,,,,,,,,,,
6111624c12d30533fdfeb26d,2023-11-23_21h35.01.479,kallum_motion_pilot,2023.1.2,Win32,59.28385108,6111624c12d30533fdfeb26d,656018846682f3df8008bb8f,656019c7e22a2c43a630d31a,2,6,330,13,1,threefour,,,,,,,,,,,,,,,,,,,,,,,,,,,,,,,,,,,,,,,,,,,,,,,,,,,,,,,,,,,,,,,,,,,,,,,,,,,,,,,,,,,,,
6111624c12d30533fdfeb26d,2023-11-23_21h35.01.479,kallum_motion_pilot,2023.1.2,Win32,59.28385108,6111624c12d30533fdfeb26d,656018846682f3df8008bb8f,656019c7e22a2c43a630d31a,2,7,331,23,1,fourthree,,,,,,,,,,,,,,,,,,,,,,,,,,,,,,,,,,,,,,,,,,,,,,,,,,,,,,,,,,,,,,,,,,,,,,,,,,,,,,,,,,,,,
6111624c12d30533fdfeb26d,2023-11-23_21h35.01.479,kallum_motion_pilot,2023.1.2,Win32,59.28385108,6111624c12d30533fdfeb26d,656018846682f3df8008bb8f,656019c7e22a2c43a630d31a,2,8,332,158,1,eightsix,,,,,,,,,,,,,,,,,,,,,,,,,,,,,,,,,,,,,,,,,,,,,,,,,,,,,,,,,,,,,,,,,,,,,,,,,,,,,,,,,,,,,
6111624c12d30533fdfeb26d,2023-11-23_21h35.01.479,kallum_motion_pilot,2023.1.2,Win32,59.28385108,6111624c12d30533fdfeb26d,656018846682f3df8008bb8f,656019c7e22a2c43a630d31a,2,9,333,119,1,eightseven,,,,,,,,,,,,,,,,,,,,,,,,,,,,,,,,,,,,,,,,,,,,,,,,,,,,,,,,,,,,,,,,,,,,,,,,,,,,,,,,,,,,,
6111624c12d30533fdfeb26d,2023-11-23_21h35.01.479,kallum_motion_pilot,2023.1.2,Win32,59.28385108,6111624c12d30533fdfeb26d,656018846682f3df8008bb8f,656019c7e22a2c43a630d31a,2,10,334,52,1,threeone,,,,,,,,,,,,,,,,,,,,,,,,,,,,,,,,,,,,,,,,,,,,,,,,,,,,,,,,,,,,,,,,,,,,,,,,,,,,,,,,,,,,,
6111624c12d30533fdfeb26d,2023-11-23_21h35.01.479,kallum_motion_pilot,2023.1.2,Win32,59.28385108,6111624c12d30533fdfeb26d,656018846682f3df8008bb8f,656019c7e22a2c43a630d31a,2,11,335,67,1,twofour,,,,,,,,,,,,,,,,,,,,,,,,,,,,,,,,,,,,,,,,,,,,,,,,,,,,,,,,,,,,,,,,,,,,,,,,,,,,,,,,,,,,,
6111624c12d30533fdfeb26d,2023-11-23_21h35.01.479,kallum_motion_pilot,2023.1.2,Win32,59.28385108,6111624c12d30533fdfeb26d,656018846682f3df8008bb8f,656019c7e22a2c43a630d31a,2,12,336,74,1,twoone,,,,,,,,,,,,,,,,,,,,,,,,,,,,,,,,,,,,,,,,,,,,,,,,,,,,,,,,,,,,,,,,,,,,,,,,,,,,,,,,,,,,,
6111624c12d30533fdfeb26d,2023-11-23_21h35.01.479,kallum_motion_pilot,2023.1.2,Win32,59.28385108,6111624c12d30533fdfeb26d,656018846682f3df8008bb8f,656019c7e22a2c43a630d31a,2,13,337,49,1,onethree,,,,,,,,,,,,,,,,,,,,,,,,,,,,,,,,,,,,,,,,,,,,,,,,,,,,,,,,,,,,,,,,,,,,,,,,,,,,,,,,,,,,,
6111624c12d30533fdfeb26d,2023-11-23_21h35.01.479,kallum_motion_pilot,2023.1.2,Win32,59.28385108,6111624c12d30533fdfeb26d,656018846682f3df8008bb8f,656019c7e22a2c43a630d31a,2,14,338,146,1,sixfive,,,,,,,,,,,,,,,,,,,,,,,,,,,,,,,,,,,,,,,,,,,,,,,,,,,,,,,,,,,,,,,,,,,,,,,,,,,,,,,,,,,,,
6111624c12d30533fdfeb26d,2023-11-23_21h35.01.479,kallum_motion_pilot,2023.1.2,Win32,59.28385108,6111624c12d30533fdfeb26d,656018846682f3df8008bb8f,656019c7e22a2c43a630d31a,2,15,339,79,1,eightseven,,,,,,,,,,,,,,,,,,,,,,,,,,,,,,,,,,,,,,,,,,,,,,,,,,,,,,,,,,,,,,,,,,,,,,,,,,,,,,,,,,,,,
6111624c12d30533fdfeb26d,2023-11-23_21h35.01.479,kallum_motion_pilot,2023.1.2,Win32,59.28385108,6111624c12d30533fdfeb26d,656018846682f3df8008bb8f,656019c7e22a2c43a630d31a,2,16,340,35,1,twofour,,,,,,,,,,,,,,,,,,,,,,,,,,,,,,,,,,,,,,,,,,,,,,,,,,,,,,,,,,,,,,,,,,,,,,,,,,,,,,,,,,,,,
6111624c12d30533fdfeb26d,2023-11-23_21h35.01.479,kallum_motion_pilot,2023.1.2,Win32,59.28385108,6111624c12d30533fdfeb26d,656018846682f3df8008bb8f,656019c7e22a2c43a630d31a,2,17,341,42,1,twoone,,,,,,,,,,,,,,,,,,,,,,,,,,,,,,,,,,,,,,,,,,,,,,,,,,,,,,,,,,,,,,,,,,,,,,,,,,,,,,,,,,,,,
6111624c12d30533fdfeb26d,2023-11-23_21h35.01.479,kallum_motion_pilot,2023.1.2,Win32,59.28385108,6111624c12d30533fdfeb26d,656018846682f3df8008bb8f,656019c7e22a2c43a630d31a,2,18,342,123,1,sixeight,,,,,,,,,,,,,,,,,,,,,,,,,,,,,,,,,,,,,,,,,,,,,,,,,,,,,,,,,,,,,,,,,,,,,,,,,,,,,,,,,,,,,
6111624c12d30533fdfeb26d,2023-11-23_21h35.01.479,kallum_motion_pilot,2023.1.2,Win32,59.28385108,6111624c12d30533fdfeb26d,656018846682f3df8008bb8f,656019c7e22a2c43a630d31a,2,19,343,8,1,onetwo,,,,,,,,,,,,,,,,,,,,,,,,,,,,,,,,,,,,,,,,,,,,,,,,,,,,,,,,,,,,,,,,,,,,,,,,,,,,,,,,,,,,,
6111624c12d30533fdfeb26d,2023-11-23_21h35.01.479,kallum_motion_pilot,2023.1.2,Win32,59.28385108,6111624c12d30533fdfeb26d,656018846682f3df8008bb8f,656019c7e22a2c43a630d31a,2,20,344,11,1,twofour,,,,,,,,,,,,,,,,,,,,,,,,,,,,,,,,,,,,,,,,,,,,,,,,,,,,,,,,,,,,,,,,,,,,,,,,,,,,,,,,,,,,,
6111624c12d30533fdfeb26d,2023-11-23_21h35.01.479,kallum_motion_pilot,2023.1.2,Win32,59.28385108,6111624c12d30533fdfeb26d,656018846682f3df8008bb8f,656019c7e22a2c43a630d31a,2,21,345,55,1,fourthree,,,,,,,,,,,,,,,,,,,,,,,,,,,,,,,,,,,,,,,,,,,,,,,,,,,,,,,,,,,,,,,,,,,,,,,,,,,,,,,,,,,,,
6111624c12d30533fdfeb26d,2023-11-23_21h35.01.479,kallum_motion_pilot,2023.1.2,Win32,59.28385108,6111624c12d30533fdfeb26d,656018846682f3df8008bb8f,656019c7e22a2c43a630d31a,2,22,346,44,1,threeone,,,,,,,,,,,,,,,,,,,,,,,,,,,,,,,,,,,,,,,,,,,,,,,,,,,,,,,,,,,,,,,,,,,,,,,,,,,,,,,,,,,,,
6111624c12d30533fdfeb26d,2023-11-23_21h35.01.479,kallum_motion_pilot,2023.1.2,Win32,59.28385108,6111624c12d30533fdfeb26d,656018846682f3df8008bb8f,656019c7e22a2c43a630d31a,2,23,347,89,1,fiveseven,,,,,,,,,,,,,,,,,,,,,,,,,,,,,,,,,,,,,,,,,,,,,,,,,,,,,,,,,,,,,,,,,,,,,,,,,,,,,,,,,,,,,
6111624c12d30533fdfeb26d,2023-11-23_21h35.01.479,kallum_motion_pilot,2023.1.2,Win32,59.28385108,6111624c12d30533fdfeb26d,656018846682f3df8008bb8f,656019c7e22a2c43a630d31a,2,24,348,139,1,sixeight,,,,,,,,,,,,,,,,,,,,,,,,,,,,,,,,,,,,,,,,,,,,,,,,,,,,,,,,,,,,,,,,,,,,,,,,,,,,,,,,,,,,,
6111624c12d30533fdfeb26d,2023-11-23_21h35.01.479,kallum_motion_pilot,2023.1.2,Win32,59.28385108,6111624c12d30533fdfeb26d,656018846682f3df8008bb8f,656019c7e22a2c43a630d31a,2,25,349,117,1,seveneight,,,,,,,,,,,,,,,,,,,,,,,,,,,,,,,,,,,,,,,,,,,,,,,,,,,,,,,,,,,,,,,,,,,,,,,,,,,,,,,,,,,,,
