Prolific_ID*,date,expName,psychopyVersion,OS,frameRate,PROLIFIC_PID,STUDY_ID,SESSION_ID,hardcoded_stimulus_positions.thisRepN,hardcoded_stimulus_positions.thisTrialN,hardcoded_stimulus_positions.thisN,hardcoded_stimulus_positions.thisIndex,hardcoded_stimulus_positions.ran,StimulusPos,prac_stimorientation_import_loop.thisRepN,prac_stimorientation_import_loop.thisTrialN,prac_stimorientation_import_loop.thisN,prac_stimorientation_import_loop.thisIndex,prac_stimorientation_import_loop.ran,Stimorientation,key_resp.keys,key_resp.rt,key_resp_20.keys,key_resp_20.rt,key_resp_19.keys,key_resp_19.rt,key_resp_15.keys,key_resp_15.rt,key_resp_9.keys,key_resp_9.rt,key_resp_10.keys,key_resp_10.rt,Ecc,Circle1_ori,Circle2_ori,similarity,response_time,mouse_5.x,mouse_5.y,mouse_5.leftButton,mouse_5.midButton,mouse_5.rightButton,mouse_5.clicked_name,mouse_6.x,mouse_6.y,mouse_6.leftButton,mouse_6.midButton,mouse_6.rightButton,mouse_6.clicked_name,duringprac.thisRepN,duringprac.thisTrialN,duringprac.thisN,duringprac.thisIndex,duringprac.ran,key_resp_22.keys,key_resp_22.rt,circle1_ori,circle2_ori,mouse.x,mouse.y,mouse.leftButton,mouse.midButton,mouse.rightButton,mouse.clicked_name,mouse_2.x,mouse_2.y,mouse_2.leftButton,mouse_2.midButton,mouse_2.rightButton,mouse_2.clicked_name,mouse_3.x,mouse_3.y,mouse_3.leftButton,mouse_3.midButton,mouse_3.rightButton,catchresponse,catchnumber,response_time_catch,Catch,mouse_11.x,mouse_11.y,mouse_11.leftButton,mouse_11.midButton,mouse_11.rightButton,main_trial.thisRepN,main_trial.thisTrialN,main_trial.thisN,main_trial.thisIndex,main_trial.ran,Orientationtrialno,xcircle1_ori,xcircle2_ori,double_pass.thisRepN,double_pass.thisTrialN,double_pass.thisN,double_pass.thisIndex,double_pass.ran,key_resp_3.keys,key_resp_3.rt
6465b69943b54eae57efcb10,2023-11-24_14h35.36.539,kallum_motion_pilot,2023.1.2,Win32,60.06727535,6465b69943b54eae57efcb10,656018846682f3df8008bb8f,656019cbddf0c9decedc71c2,,,,,,,,,,,,,,,,,,,,,,,,,,,,,,,,,,,,,,,,,,,,,,,,,,,,,,,,,,,,,,,,,,,,,,,,,,,,,,,,,,,,,,,,,,,
6465b69943b54eae57efcb10,2023-11-24_14h35.36.539,kallum_motion_pilot,2023.1.2,Win32,60.06727535,6465b69943b54eae57efcb10,656018846682f3df8008bb8f,656019cbddf0c9decedc71c2,0,0,0,52,1,threeone,,,,,,,,,,,,,,,,,,,,,,,,,,,,,,,,,,,,,,,,,,,,,,,,,,,,,,,,,,,,,,,,,,,,,,,,,,,,,,,,,,,,,
6465b69943b54eae57efcb10,2023-11-24_14h35.36.539,kallum_motion_pilot,2023.1.2,Win32,60.06727535,6465b69943b54eae57efcb10,656018846682f3df8008bb8f,656019cbddf0c9decedc71c2,0,1,1,37,1,threefour,,,,,,,,,,,,,,,,,,,,,,,,,,,,,,,,,,,,,,,,,,,,,,,,,,,,,,,,,,,,,,,,,,,,,,,,,,,,,,,,,,,,,
6465b69943b54eae57efcb10,2023-11-24_14h35.36.539,kallum_motion_pilot,2023.1.2,Win32,60.06727535,6465b69943b54eae57efcb10,656018846682f3df8008bb8f,656019cbddf0c9decedc71c2,0,2,2,131,1,sixeight,,,,,,,,,,,,,,,,,,,,,,,,,,,,,,,,,,,,,,,,,,,,,,,,,,,,,,,,,,,,,,,,,,,,,,,,,,,,,,,,,,,,,
6465b69943b54eae57efcb10,2023-11-24_14h35.36.539,kallum_motion_pilot,2023.1.2,Win32,60.06727535,6465b69943b54eae57efcb10,656018846682f3df8008bb8f,656019cbddf0c9decedc71c2,0,3,3,0,1,onetwo,,,,,,,,,,,,,,,,,,,,,,,,,,,,,,,,,,,,,,,,,,,,,,,,,,,,,,,,,,,,,,,,,,,,,,,,,,,,,,,,,,,,,
6465b69943b54eae57efcb10,2023-11-24_14h35.36.539,kallum_motion_pilot,2023.1.2,Win32,60.06727535,6465b69943b54eae57efcb10,656018846682f3df8008bb8f,656019cbddf0c9decedc71c2,0,4,4,108,1,sevenfive,,,,,,,,,,,,,,,,,,,,,,,,,,,,,,,,,,,,,,,,,,,,,,,,,,,,,,,,,,,,,,,,,,,,,,,,,,,,,,,,,,,,,
6465b69943b54eae57efcb10,2023-11-24_14h35.36.539,kallum_motion_pilot,2023.1.2,Win32,60.06727535,6465b69943b54eae57efcb10,656018846682f3df8008bb8f,656019cbddf0c9decedc71c2,0,5,5,155,1,sixeight,,,,,,,,,,,,,,,,,,,,,,,,,,,,,,,,,,,,,,,,,,,,,,,,,,,,,,,,,,,,,,,,,,,,,,,,,,,,,,,,,,,,,
6465b69943b54eae57efcb10,2023-11-24_14h35.36.539,kallum_motion_pilot,2023.1.2,Win32,60.06727535,6465b69943b54eae57efcb10,656018846682f3df8008bb8f,656019cbddf0c9decedc71c2,0,6,6,75,1,twofour,,,,,,,,,,,,,,,,,,,,,,,,,,,,,,,,,,,,,,,,,,,,,,,,,,,,,,,,,,,,,,,,,,,,,,,,,,,,,,,,,,,,,
6465b69943b54eae57efcb10,2023-11-24_14h35.36.539,kallum_motion_pilot,2023.1.2,Win32,60.06727535,6465b69943b54eae57efcb10,656018846682f3df8008bb8f,656019cbddf0c9decedc71c2,0,7,7,17,1,onethree,,,,,,,,,,,,,,,,,,,,,,,,,,,,,,,,,,,,,,,,,,,,,,,,,,,,,,,,,,,,,,,,,,,,,,,,,,,,,,,,,,,,,
6465b69943b54eae57efcb10,2023-11-24_14h35.36.539,kallum_motion_pilot,2023.1.2,Win32,60.06727535,6465b69943b54eae57efcb10,656018846682f3df8008bb8f,656019cbddf0c9decedc71c2,0,8,8,70,1,fourtwo,,,,,,,,,,,,,,,,,,,,,,,,,,,,,,,,,,,,,,,,,,,,,,,,,,,,,,,,,,,,,,,,,,,,,,,,,,,,,,,,,,,,,
6465b69943b54eae57efcb10,2023-11-24_14h35.36.539,kallum_motion_pilot,2023.1.2,Win32,60.06727535,6465b69943b54eae57efcb10,656018846682f3df8008bb8f,656019cbddf0c9decedc71c2,0,9,9,128,1,fivesix,,,,,,,,,,,,,,,,,,,,,,,,,,,,,,,,,,,,,,,,,,,,,,,,,,,,,,,,,,,,,,,,,,,,,,,,,,,,,,,,,,,,,
6465b69943b54eae57efcb10,2023-11-24_14h35.36.539,kallum_motion_pilot,2023.1.2,Win32,60.06727535,6465b69943b54eae57efcb10,656018846682f3df8008bb8f,656019cbddf0c9decedc71c2,0,10,10,16,1,onetwo,,,,,,,,,,,,,,,,,,,,,,,,,,,,,,,,,,,,,,,,,,,,,,,,,,,,,,,,,,,,,,,,,,,,,,,,,,,,,,,,,,,,,
6465b69943b54eae57efcb10,2023-11-24_14h35.36.539,kallum_motion_pilot,2023.1.2,Win32,60.06727535,6465b69943b54eae57efcb10,656018846682f3df8008bb8f,656019cbddf0c9decedc71c2,0,11,11,115,1,sixeight,,,,,,,,,,,,,,,,,,,,,,,,,,,,,,,,,,,,,,,,,,,,,,,,,,,,,,,,,,,,,,,,,,,,,,,,,,,,,,,,,,,,,
6465b69943b54eae57efcb10,2023-11-24_14h35.36.539,kallum_motion_pilot,2023.1.2,Win32,60.06727535,6465b69943b54eae57efcb10,656018846682f3df8008bb8f,656019cbddf0c9decedc71c2,0,12,12,118,1,eightsix,,,,,,,,,,,,,,,,,,,,,,,,,,,,,,,,,,,,,,,,,,,,,,,,,,,,,,,,,,,,,,,,,,,,,,,,,,,,,,,,,,,,,
6465b69943b54eae57efcb10,2023-11-24_14h35.36.539,kallum_motion_pilot,2023.1.2,Win32,60.06727535,6465b69943b54eae57efcb10,656018846682f3df8008bb8f,656019cbddf0c9decedc71c2,0,13,13,4,1,threeone,,,,,,,,,,,,,,,,,,,,,,,,,,,,,,,,,,,,,,,,,,,,,,,,,,,,,,,,,,,,,,,,,,,,,,,,,,,,,,,,,,,,,
6465b69943b54eae57efcb10,2023-11-24_14h35.36.539,kallum_motion_pilot,2023.1.2,Win32,60.06727535,6465b69943b54eae57efcb10,656018846682f3df8008bb8f,656019cbddf0c9decedc71c2,0,14,14,50,1,twoone,,,,,,,,,,,,,,,,,,,,,,,,,,,,,,,,,,,,,,,,,,,,,,,,,,,,,,,,,,,,,,,,,,,,,,,,,,,,,,,,,,,,,
6465b69943b54eae57efcb10,2023-11-24_14h35.36.539,kallum_motion_pilot,2023.1.2,Win32,60.06727535,6465b69943b54eae57efcb10,656018846682f3df8008bb8f,656019cbddf0c9decedc71c2,0,15,15,120,1,fivesix,,,,,,,,,,,,,,,,,,,,,,,,,,,,,,,,,,,,,,,,,,,,,,,,,,,,,,,,,,,,,,,,,,,,,,,,,,,,,,,,,,,,,
6465b69943b54eae57efcb10,2023-11-24_14h35.36.539,kallum_motion_pilot,2023.1.2,Win32,60.06727535,6465b69943b54eae57efcb10,656018846682f3df8008bb8f,656019cbddf0c9decedc71c2,0,16,16,33,1,onethree,,,,,,,,,,,,,,,,,,,,,,,,,,,,,,,,,,,,,,,,,,,,,,,,,,,,,,,,,,,,,,,,,,,,,,,,,,,,,,,,,,,,,
6465b69943b54eae57efcb10,2023-11-24_14h35.36.539,kallum_motion_pilot,2023.1.2,Win32,60.06727535,6465b69943b54eae57efcb10,656018846682f3df8008bb8f,656019cbddf0c9decedc71c2,0,17,17,81,1,fiveseven,,,,,,,,,,,,,,,,,,,,,,,,,,,,,,,,,,,,,,,,,,,,,,,,,,,,,,,,,,,,,,,,,,,,,,,,,,,,,,,,,,,,,
6465b69943b54eae57efcb10,2023-11-24_14h35.36.539,kallum_motion_pilot,2023.1.2,Win32,60.06727535,6465b69943b54eae57efcb10,656018846682f3df8008bb8f,656019cbddf0c9decedc71c2,0,18,18,64,1,onetwo,,,,,,,,,,,,,,,,,,,,,,,,,,,,,,,,,,,,,,,,,,,,,,,,,,,,,,,,,,,,,,,,,,,,,,,,,,,,,,,,,,,,,
6465b69943b54eae57efcb10,2023-11-24_14h35.36.539,kallum_motion_pilot,2023.1.2,Win32,60.06727535,6465b69943b54eae57efcb10,656018846682f3df8008bb8f,656019cbddf0c9decedc71c2,0,19,19,137,1,fiveseven,,,,,,,,,,,,,,,,,,,,,,,,,,,,,,,,,,,,,,,,,,,,,,,,,,,,,,,,,,,,,,,,,,,,,,,,,,,,,,,,,,,,,
6465b69943b54eae57efcb10,2023-11-24_14h35.36.539,kallum_motion_pilot,2023.1.2,Win32,60.06727535,6465b69943b54eae57efcb10,656018846682f3df8008bb8f,656019cbddf0c9decedc71c2,0,20,20,3,1,twofour,,,,,,,,,,,,,,,,,,,,,,,,,,,,,,,,,,,,,,,,,,,,,,,,,,,,,,,,,,,,,,,,,,,,,,,,,,,,,,,,,,,,,
6465b69943b54eae57efcb10,2023-11-24_14h35.36.539,kallum_motion_pilot,2023.1.2,Win32,60.06727535,6465b69943b54eae57efcb10,656018846682f3df8008bb8f,656019cbddf0c9decedc71c2,0,21,21,73,1,onethree,,,,,,,,,,,,,,,,,,,,,,,,,,,,,,,,,,,,,,,,,,,,,,,,,,,,,,,,,,,,,,,,,,,,,,,,,,,,,,,,,,,,,
6465b69943b54eae57efcb10,2023-11-24_14h35.36.539,kallum_motion_pilot,2023.1.2,Win32,60.06727535,6465b69943b54eae57efcb10,656018846682f3df8008bb8f,656019cbddf0c9decedc71c2,0,22,22,72,1,onetwo,,,,,,,,,,,,,,,,,,,,,,,,,,,,,,,,,,,,,,,,,,,,,,,,,,,,,,,,,,,,,,,,,,,,,,,,,,,,,,,,,,,,,
6465b69943b54eae57efcb10,2023-11-24_14h35.36.539,kallum_motion_pilot,2023.1.2,Win32,60.06727535,6465b69943b54eae57efcb10,656018846682f3df8008bb8f,656019cbddf0c9decedc71c2,0,23,23,13,1,threefour,,,,,,,,,,,,,,,,,,,,,,,,,,,,,,,,,,,,,,,,,,,,,,,,,,,,,,,,,,,,,,,,,,,,,,,,,,,,,,,,,,,,,
6465b69943b54eae57efcb10,2023-11-24_14h35.36.539,kallum_motion_pilot,2023.1.2,Win32,60.06727535,6465b69943b54eae57efcb10,656018846682f3df8008bb8f,656019cbddf0c9decedc71c2,0,24,24,96,1,fivesix,,,,,,,,,,,,,,,,,,,,,,,,,,,,,,,,,,,,,,,,,,,,,,,,,,,,,,,,,,,,,,,,,,,,,,,,,,,,,,,,,,,,,
6465b69943b54eae57efcb10,2023-11-24_14h35.36.539,kallum_motion_pilot,2023.1.2,Win32,60.06727535,6465b69943b54eae57efcb10,656018846682f3df8008bb8f,656019cbddf0c9decedc71c2,0,25,25,19,1,twofour,,,,,,,,,,,,,,,,,,,,,,,,,,,,,,,,,,,,,,,,,,,,,,,,,,,,,,,,,,,,,,,,,,,,,,,,,,,,,,,,,,,,,
6465b69943b54eae57efcb10,2023-11-24_14h35.36.539,kallum_motion_pilot,2023.1.2,Win32,60.06727535,6465b69943b54eae57efcb10,656018846682f3df8008bb8f,656019cbddf0c9decedc71c2,0,26,26,129,1,fiveseven,,,,,,,,,,,,,,,,,,,,,,,,,,,,,,,,,,,,,,,,,,,,,,,,,,,,,,,,,,,,,,,,,,,,,,,,,,,,,,,,,,,,,
6465b69943b54eae57efcb10,2023-11-24_14h35.36.539,kallum_motion_pilot,2023.1.2,Win32,60.06727535,6465b69943b54eae57efcb10,656018846682f3df8008bb8f,656019cbddf0c9decedc71c2,0,27,27,27,1,twofour,,,,,,,,,,,,,,,,,,,,,,,,,,,,,,,,,,,,,,,,,,,,,,,,,,,,,,,,,,,,,,,,,,,,,,,,,,,,,,,,,,,,,
6465b69943b54eae57efcb10,2023-11-24_14h35.36.539,kallum_motion_pilot,2023.1.2,Win32,60.06727535,6465b69943b54eae57efcb10,656018846682f3df8008bb8f,656019cbddf0c9decedc71c2,0,28,28,114,1,sixfive,,,,,,,,,,,,,,,,,,,,,,,,,,,,,,,,,,,,,,,,,,,,,,,,,,,,,,,,,,,,,,,,,,,,,,,,,,,,,,,,,,,,,
6465b69943b54eae57efcb10,2023-11-24_14h35.36.539,kallum_motion_pilot,2023.1.2,Win32,60.06727535,6465b69943b54eae57efcb10,656018846682f3df8008bb8f,656019cbddf0c9decedc71c2,0,29,29,36,1,threeone,,,,,,,,,,,,,,,,,,,,,,,,,,,,,,,,,,,,,,,,,,,,,,,,,,,,,,,,,,,,,,,,,,,,,,,,,,,,,,,,,,,,,
6465b69943b54eae57efcb10,2023-11-24_14h35.36.539,kallum_motion_pilot,2023.1.2,Win32,60.06727535,6465b69943b54eae57efcb10,656018846682f3df8008bb8f,656019cbddf0c9decedc71c2,0,30,30,47,1,fourthree,,,,,,,,,,,,,,,,,,,,,,,,,,,,,,,,,,,,,,,,,,,,,,,,,,,,,,,,,,,,,,,,,,,,,,,,,,,,,,,,,,,,,
6465b69943b54eae57efcb10,2023-11-24_14h35.36.539,kallum_motion_pilot,2023.1.2,Win32,60.06727535,6465b69943b54eae57efcb10,656018846682f3df8008bb8f,656019cbddf0c9decedc71c2,0,31,31,23,1,fourthree,,,,,,,,,,,,,,,,,,,,,,,,,,,,,,,,,,,,,,,,,,,,,,,,,,,,,,,,,,,,,,,,,,,,,,,,,,,,,,,,,,,,,
6465b69943b54eae57efcb10,2023-11-24_14h35.36.539,kallum_motion_pilot,2023.1.2,Win32,60.06727535,6465b69943b54eae57efcb10,656018846682f3df8008bb8f,656019cbddf0c9decedc71c2,0,32,32,85,1,seveneight,,,,,,,,,,,,,,,,,,,,,,,,,,,,,,,,,,,,,,,,,,,,,,,,,,,,,,,,,,,,,,,,,,,,,,,,,,,,,,,,,,,,,
6465b69943b54eae57efcb10,2023-11-24_14h35.36.539,kallum_motion_pilot,2023.1.2,Win32,60.06727535,6465b69943b54eae57efcb10,656018846682f3df8008bb8f,656019cbddf0c9decedc71c2,0,33,33,39,1,fourthree,,,,,,,,,,,,,,,,,,,,,,,,,,,,,,,,,,,,,,,,,,,,,,,,,,,,,,,,,,,,,,,,,,,,,,,,,,,,,,,,,,,,,
6465b69943b54eae57efcb10,2023-11-24_14h35.36.539,kallum_motion_pilot,2023.1.2,Win32,60.06727535,6465b69943b54eae57efcb10,656018846682f3df8008bb8f,656019cbddf0c9decedc71c2,0,34,34,151,1,eightseven,,,,,,,,,,,,,,,,,,,,,,,,,,,,,,,,,,,,,,,,,,,,,,,,,,,,,,,,,,,,,,,,,,,,,,,,,,,,,,,,,,,,,
6465b69943b54eae57efcb10,2023-11-24_14h35.36.539,kallum_motion_pilot,2023.1.2,Win32,60.06727535,6465b69943b54eae57efcb10,656018846682f3df8008bb8f,656019cbddf0c9decedc71c2,0,35,35,28,1,threeone,,,,,,,,,,,,,,,,,,,,,,,,,,,,,,,,,,,,,,,,,,,,,,,,,,,,,,,,,,,,,,,,,,,,,,,,,,,,,,,,,,,,,
6465b69943b54eae57efcb10,2023-11-24_14h35.36.539,kallum_motion_pilot,2023.1.2,Win32,60.06727535,6465b69943b54eae57efcb10,656018846682f3df8008bb8f,656019cbddf0c9decedc71c2,0,36,36,15,1,fourthree,,,,,,,,,,,,,,,,,,,,,,,,,,,,,,,,,,,,,,,,,,,,,,,,,,,,,,,,,,,,,,,,,,,,,,,,,,,,,,,,,,,,,
6465b69943b54eae57efcb10,2023-11-24_14h35.36.539,kallum_motion_pilot,2023.1.2,Win32,60.06727535,6465b69943b54eae57efcb10,656018846682f3df8008bb8f,656019cbddf0c9decedc71c2,0,37,37,60,1,threeone,,,,,,,,,,,,,,,,,,,,,,,,,,,,,,,,,,,,,,,,,,,,,,,,,,,,,,,,,,,,,,,,,,,,,,,,,,,,,,,,,,,,,
6465b69943b54eae57efcb10,2023-11-24_14h35.36.539,kallum_motion_pilot,2023.1.2,Win32,60.06727535,6465b69943b54eae57efcb10,656018846682f3df8008bb8f,656019cbddf0c9decedc71c2,0,38,38,34,1,twoone,,,,,,,,,,,,,,,,,,,,,,,,,,,,,,,,,,,,,,,,,,,,,,,,,,,,,,,,,,,,,,,,,,,,,,,,,,,,,,,,,,,,,
6465b69943b54eae57efcb10,2023-11-24_14h35.36.539,kallum_motion_pilot,2023.1.2,Win32,60.06727535,6465b69943b54eae57efcb10,656018846682f3df8008bb8f,656019cbddf0c9decedc71c2,0,39,39,100,1,sevenfive,,,,,,,,,,,,,,,,,,,,,,,,,,,,,,,,,,,,,,,,,,,,,,,,,,,,,,,,,,,,,,,,,,,,,,,,,,,,,,,,,,,,,
6465b69943b54eae57efcb10,2023-11-24_14h35.36.539,kallum_motion_pilot,2023.1.2,Win32,60.06727535,6465b69943b54eae57efcb10,656018846682f3df8008bb8f,656019cbddf0c9decedc71c2,0,40,40,109,1,seveneight,,,,,,,,,,,,,,,,,,,,,,,,,,,,,,,,,,,,,,,,,,,,,,,,,,,,,,,,,,,,,,,,,,,,,,,,,,,,,,,,,,,,,
6465b69943b54eae57efcb10,2023-11-24_14h35.36.539,kallum_motion_pilot,2023.1.2,Win32,60.06727535,6465b69943b54eae57efcb10,656018846682f3df8008bb8f,656019cbddf0c9decedc71c2,0,41,41,5,1,threefour,,,,,,,,,,,,,,,,,,,,,,,,,,,,,,,,,,,,,,,,,,,,,,,,,,,,,,,,,,,,,,,,,,,,,,,,,,,,,,,,,,,,,
6465b69943b54eae57efcb10,2023-11-24_14h35.36.539,kallum_motion_pilot,2023.1.2,Win32,60.06727535,6465b69943b54eae57efcb10,656018846682f3df8008bb8f,656019cbddf0c9decedc71c2,0,42,42,65,1,onethree,,,,,,,,,,,,,,,,,,,,,,,,,,,,,,,,,,,,,,,,,,,,,,,,,,,,,,,,,,,,,,,,,,,,,,,,,,,,,,,,,,,,,
6465b69943b54eae57efcb10,2023-11-24_14h35.36.539,kallum_motion_pilot,2023.1.2,Win32,60.06727535,6465b69943b54eae57efcb10,656018846682f3df8008bb8f,656019cbddf0c9decedc71c2,0,43,43,8,1,onetwo,,,,,,,,,,,,,,,,,,,,,,,,,,,,,,,,,,,,,,,,,,,,,,,,,,,,,,,,,,,,,,,,,,,,,,,,,,,,,,,,,,,,,
6465b69943b54eae57efcb10,2023-11-24_14h35.36.539,kallum_motion_pilot,2023.1.2,Win32,60.06727535,6465b69943b54eae57efcb10,656018846682f3df8008bb8f,656019cbddf0c9decedc71c2,0,44,44,76,1,threeone,,,,,,,,,,,,,,,,,,,,,,,,,,,,,,,,,,,,,,,,,,,,,,,,,,,,,,,,,,,,,,,,,,,,,,,,,,,,,,,,,,,,,
6465b69943b54eae57efcb10,2023-11-24_14h35.36.539,kallum_motion_pilot,2023.1.2,Win32,60.06727535,6465b69943b54eae57efcb10,656018846682f3df8008bb8f,656019cbddf0c9decedc71c2,0,45,45,42,1,twoone,,,,,,,,,,,,,,,,,,,,,,,,,,,,,,,,,,,,,,,,,,,,,,,,,,,,,,,,,,,,,,,,,,,,,,,,,,,,,,,,,,,,,
6465b69943b54eae57efcb10,2023-11-24_14h35.36.539,kallum_motion_pilot,2023.1.2,Win32,60.06727535,6465b69943b54eae57efcb10,656018846682f3df8008bb8f,656019cbddf0c9decedc71c2,0,46,46,57,1,onethree,,,,,,,,,,,,,,,,,,,,,,,,,,,,,,,,,,,,,,,,,,,,,,,,,,,,,,,,,,,,,,,,,,,,,,,,,,,,,,,,,,,,,
6465b69943b54eae57efcb10,2023-11-24_14h35.36.539,kallum_motion_pilot,2023.1.2,Win32,60.06727535,6465b69943b54eae57efcb10,656018846682f3df8008bb8f,656019cbddf0c9decedc71c2,0,47,47,45,1,threefour,,,,,,,,,,,,,,,,,,,,,,,,,,,,,,,,,,,,,,,,,,,,,,,,,,,,,,,,,,,,,,,,,,,,,,,,,,,,,,,,,,,,,
6465b69943b54eae57efcb10,2023-11-24_14h35.36.539,kallum_motion_pilot,2023.1.2,Win32,60.06727535,6465b69943b54eae57efcb10,656018846682f3df8008bb8f,656019cbddf0c9decedc71c2,0,48,48,159,1,eightseven,,,,,,,,,,,,,,,,,,,,,,,,,,,,,,,,,,,,,,,,,,,,,,,,,,,,,,,,,,,,,,,,,,,,,,,,,,,,,,,,,,,,,
6465b69943b54eae57efcb10,2023-11-24_14h35.36.539,kallum_motion_pilot,2023.1.2,Win32,60.06727535,6465b69943b54eae57efcb10,656018846682f3df8008bb8f,656019cbddf0c9decedc71c2,0,49,49,161,1,fiveseven,,,,,,,,,,,,,,,,,,,,,,,,,,,,,,,,,,,,,,,,,,,,,,,,,,,,,,,,,,,,,,,,,,,,,,,,,,,,,,,,,,,,,
6465b69943b54eae57efcb10,2023-11-24_14h35.36.539,kallum_motion_pilot,2023.1.2,Win32,60.06727535,6465b69943b54eae57efcb10,656018846682f3df8008bb8f,656019cbddf0c9decedc71c2,0,50,50,86,1,eightsix,,,,,,,,,,,,,,,,,,,,,,,,,,,,,,,,,,,,,,,,,,,,,,,,,,,,,,,,,,,,,,,,,,,,,,,,,,,,,,,,,,,,,
6465b69943b54eae57efcb10,2023-11-24_14h35.36.539,kallum_motion_pilot,2023.1.2,Win32,60.06727535,6465b69943b54eae57efcb10,656018846682f3df8008bb8f,656019cbddf0c9decedc71c2,0,51,51,160,1,fivesix,,,,,,,,,,,,,,,,,,,,,,,,,,,,,,,,,,,,,,,,,,,,,,,,,,,,,,,,,,,,,,,,,,,,,,,,,,,,,,,,,,,,,
6465b69943b54eae57efcb10,2023-11-24_14h35.36.539,kallum_motion_pilot,2023.1.2,Win32,60.06727535,6465b69943b54eae57efcb10,656018846682f3df8008bb8f,656019cbddf0c9decedc71c2,0,52,52,132,1,sevenfive,,,,,,,,,,,,,,,,,,,,,,,,,,,,,,,,,,,,,,,,,,,,,,,,,,,,,,,,,,,,,,,,,,,,,,,,,,,,,,,,,,,,,
6465b69943b54eae57efcb10,2023-11-24_14h35.36.539,kallum_motion_pilot,2023.1.2,Win32,60.06727535,6465b69943b54eae57efcb10,656018846682f3df8008bb8f,656019cbddf0c9decedc71c2,0,53,53,88,1,fivesix,,,,,,,,,,,,,,,,,,,,,,,,,,,,,,,,,,,,,,,,,,,,,,,,,,,,,,,,,,,,,,,,,,,,,,,,,,,,,,,,,,,,,
6465b69943b54eae57efcb10,2023-11-24_14h35.36.539,kallum_motion_pilot,2023.1.2,Win32,60.06727535,6465b69943b54eae57efcb10,656018846682f3df8008bb8f,656019cbddf0c9decedc71c2,0,54,54,22,1,fourtwo,,,,,,,,,,,,,,,,,,,,,,,,,,,,,,,,,,,,,,,,,,,,,,,,,,,,,,,,,,,,,,,,,,,,,,,,,,,,,,,,,,,,,
6465b69943b54eae57efcb10,2023-11-24_14h35.36.539,kallum_motion_pilot,2023.1.2,Win32,60.06727535,6465b69943b54eae57efcb10,656018846682f3df8008bb8f,656019cbddf0c9decedc71c2,0,55,55,74,1,twoone,,,,,,,,,,,,,,,,,,,,,,,,,,,,,,,,,,,,,,,,,,,,,,,,,,,,,,,,,,,,,,,,,,,,,,,,,,,,,,,,,,,,,
6465b69943b54eae57efcb10,2023-11-24_14h35.36.539,kallum_motion_pilot,2023.1.2,Win32,60.06727535,6465b69943b54eae57efcb10,656018846682f3df8008bb8f,656019cbddf0c9decedc71c2,0,56,56,7,1,fourthree,,,,,,,,,,,,,,,,,,,,,,,,,,,,,,,,,,,,,,,,,,,,,,,,,,,,,,,,,,,,,,,,,,,,,,,,,,,,,,,,,,,,,
6465b69943b54eae57efcb10,2023-11-24_14h35.36.539,kallum_motion_pilot,2023.1.2,Win32,60.06727535,6465b69943b54eae57efcb10,656018846682f3df8008bb8f,656019cbddf0c9decedc71c2,0,57,57,152,1,fivesix,,,,,,,,,,,,,,,,,,,,,,,,,,,,,,,,,,,,,,,,,,,,,,,,,,,,,,,,,,,,,,,,,,,,,,,,,,,,,,,,,,,,,
6465b69943b54eae57efcb10,2023-11-24_14h35.36.539,kallum_motion_pilot,2023.1.2,Win32,60.06727535,6465b69943b54eae57efcb10,656018846682f3df8008bb8f,656019cbddf0c9decedc71c2,0,58,58,24,1,onetwo,,,,,,,,,,,,,,,,,,,,,,,,,,,,,,,,,,,,,,,,,,,,,,,,,,,,,,,,,,,,,,,,,,,,,,,,,,,,,,,,,,,,,
6465b69943b54eae57efcb10,2023-11-24_14h35.36.539,kallum_motion_pilot,2023.1.2,Win32,60.06727535,6465b69943b54eae57efcb10,656018846682f3df8008bb8f,656019cbddf0c9decedc71c2,0,59,59,62,1,fourtwo,,,,,,,,,,,,,,,,,,,,,,,,,,,,,,,,,,,,,,,,,,,,,,,,,,,,,,,,,,,,,,,,,,,,,,,,,,,,,,,,,,,,,
6465b69943b54eae57efcb10,2023-11-24_14h35.36.539,kallum_motion_pilot,2023.1.2,Win32,60.06727535,6465b69943b54eae57efcb10,656018846682f3df8008bb8f,656019cbddf0c9decedc71c2,0,60,60,58,1,twoone,,,,,,,,,,,,,,,,,,,,,,,,,,,,,,,,,,,,,,,,,,,,,,,,,,,,,,,,,,,,,,,,,,,,,,,,,,,,,,,,,,,,,
6465b69943b54eae57efcb10,2023-11-24_14h35.36.539,kallum_motion_pilot,2023.1.2,Win32,60.06727535,6465b69943b54eae57efcb10,656018846682f3df8008bb8f,656019cbddf0c9decedc71c2,0,61,61,103,1,eightseven,,,,,,,,,,,,,,,,,,,,,,,,,,,,,,,,,,,,,,,,,,,,,,,,,,,,,,,,,,,,,,,,,,,,,,,,,,,,,,,,,,,,,
6465b69943b54eae57efcb10,2023-11-24_14h35.36.539,kallum_motion_pilot,2023.1.2,Win32,60.06727535,6465b69943b54eae57efcb10,656018846682f3df8008bb8f,656019cbddf0c9decedc71c2,0,62,62,29,1,threefour,,,,,,,,,,,,,,,,,,,,,,,,,,,,,,,,,,,,,,,,,,,,,,,,,,,,,,,,,,,,,,,,,,,,,,,,,,,,,,,,,,,,,
6465b69943b54eae57efcb10,2023-11-24_14h35.36.539,kallum_motion_pilot,2023.1.2,Win32,60.06727535,6465b69943b54eae57efcb10,656018846682f3df8008bb8f,656019cbddf0c9decedc71c2,0,63,63,130,1,sixfive,,,,,,,,,,,,,,,,,,,,,,,,,,,,,,,,,,,,,,,,,,,,,,,,,,,,,,,,,,,,,,,,,,,,,,,,,,,,,,,,,,,,,
6465b69943b54eae57efcb10,2023-11-24_14h35.36.539,kallum_motion_pilot,2023.1.2,Win32,60.06727535,6465b69943b54eae57efcb10,656018846682f3df8008bb8f,656019cbddf0c9decedc71c2,0,64,64,133,1,seveneight,,,,,,,,,,,,,,,,,,,,,,,,,,,,,,,,,,,,,,,,,,,,,,,,,,,,,,,,,,,,,,,,,,,,,,,,,,,,,,,,,,,,,
6465b69943b54eae57efcb10,2023-11-24_14h35.36.539,kallum_motion_pilot,2023.1.2,Win32,60.06727535,6465b69943b54eae57efcb10,656018846682f3df8008bb8f,656019cbddf0c9decedc71c2,0,65,65,142,1,eightsix,,,,,,,,,,,,,,,,,,,,,,,,,,,,,,,,,,,,,,,,,,,,,,,,,,,,,,,,,,,,,,,,,,,,,,,,,,,,,,,,,,,,,
6465b69943b54eae57efcb10,2023-11-24_14h35.36.539,kallum_motion_pilot,2023.1.2,Win32,60.06727535,6465b69943b54eae57efcb10,656018846682f3df8008bb8f,656019cbddf0c9decedc71c2,0,66,66,124,1,sevenfive,,,,,,,,,,,,,,,,,,,,,,,,,,,,,,,,,,,,,,,,,,,,,,,,,,,,,,,,,,,,,,,,,,,,,,,,,,,,,,,,,,,,,
6465b69943b54eae57efcb10,2023-11-24_14h35.36.539,kallum_motion_pilot,2023.1.2,Win32,60.06727535,6465b69943b54eae57efcb10,656018846682f3df8008bb8f,656019cbddf0c9decedc71c2,0,67,67,91,1,sixeight,,,,,,,,,,,,,,,,,,,,,,,,,,,,,,,,,,,,,,,,,,,,,,,,,,,,,,,,,,,,,,,,,,,,,,,,,,,,,,,,,,,,,
6465b69943b54eae57efcb10,2023-11-24_14h35.36.539,kallum_motion_pilot,2023.1.2,Win32,60.06727535,6465b69943b54eae57efcb10,656018846682f3df8008bb8f,656019cbddf0c9decedc71c2,0,68,68,71,1,fourthree,,,,,,,,,,,,,,,,,,,,,,,,,,,,,,,,,,,,,,,,,,,,,,,,,,,,,,,,,,,,,,,,,,,,,,,,,,,,,,,,,,,,,
6465b69943b54eae57efcb10,2023-11-24_14h35.36.539,kallum_motion_pilot,2023.1.2,Win32,60.06727535,6465b69943b54eae57efcb10,656018846682f3df8008bb8f,656019cbddf0c9decedc71c2,0,69,69,121,1,fiveseven,,,,,,,,,,,,,,,,,,,,,,,,,,,,,,,,,,,,,,,,,,,,,,,,,,,,,,,,,,,,,,,,,,,,,,,,,,,,,,,,,,,,,
6465b69943b54eae57efcb10,2023-11-24_14h35.36.539,kallum_motion_pilot,2023.1.2,Win32,60.06727535,6465b69943b54eae57efcb10,656018846682f3df8008bb8f,656019cbddf0c9decedc71c2,0,70,70,150,1,eightsix,,,,,,,,,,,,,,,,,,,,,,,,,,,,,,,,,,,,,,,,,,,,,,,,,,,,,,,,,,,,,,,,,,,,,,,,,,,,,,,,,,,,,
6465b69943b54eae57efcb10,2023-11-24_14h35.36.539,kallum_motion_pilot,2023.1.2,Win32,60.06727535,6465b69943b54eae57efcb10,656018846682f3df8008bb8f,656019cbddf0c9decedc71c2,0,71,71,79,1,eightseven,,,,,,,,,,,,,,,,,,,,,,,,,,,,,,,,,,,,,,,,,,,,,,,,,,,,,,,,,,,,,,,,,,,,,,,,,,,,,,,,,,,,,
6465b69943b54eae57efcb10,2023-11-24_14h35.36.539,kallum_motion_pilot,2023.1.2,Win32,60.06727535,6465b69943b54eae57efcb10,656018846682f3df8008bb8f,656019cbddf0c9decedc71c2,0,72,72,53,1,threefour,,,,,,,,,,,,,,,,,,,,,,,,,,,,,,,,,,,,,,,,,,,,,,,,,,,,,,,,,,,,,,,,,,,,,,,,,,,,,,,,,,,,,
6465b69943b54eae57efcb10,2023-11-24_14h35.36.539,kallum_motion_pilot,2023.1.2,Win32,60.06727535,6465b69943b54eae57efcb10,656018846682f3df8008bb8f,656019cbddf0c9decedc71c2,0,73,73,83,1,sixeight,,,,,,,,,,,,,,,,,,,,,,,,,,,,,,,,,,,,,,,,,,,,,,,,,,,,,,,,,,,,,,,,,,,,,,,,,,,,,,,,,,,,,
6465b69943b54eae57efcb10,2023-11-24_14h35.36.539,kallum_motion_pilot,2023.1.2,Win32,60.06727535,6465b69943b54eae57efcb10,656018846682f3df8008bb8f,656019cbddf0c9decedc71c2,0,74,74,1,1,onethree,,,,,,,,,,,,,,,,,,,,,,,,,,,,,,,,,,,,,,,,,,,,,,,,,,,,,,,,,,,,,,,,,,,,,,,,,,,,,,,,,,,,,
6465b69943b54eae57efcb10,2023-11-24_14h35.36.539,kallum_motion_pilot,2023.1.2,Win32,60.06727535,6465b69943b54eae57efcb10,656018846682f3df8008bb8f,656019cbddf0c9decedc71c2,0,75,75,126,1,eightsix,,,,,,,,,,,,,,,,,,,,,,,,,,,,,,,,,,,,,,,,,,,,,,,,,,,,,,,,,,,,,,,,,,,,,,,,,,,,,,,,,,,,,
6465b69943b54eae57efcb10,2023-11-24_14h35.36.539,kallum_motion_pilot,2023.1.2,Win32,60.06727535,6465b69943b54eae57efcb10,656018846682f3df8008bb8f,656019cbddf0c9decedc71c2,0,76,76,98,1,sixfive,,,,,,,,,,,,,,,,,,,,,,,,,,,,,,,,,,,,,,,,,,,,,,,,,,,,,,,,,,,,,,,,,,,,,,,,,,,,,,,,,,,,,
6465b69943b54eae57efcb10,2023-11-24_14h35.36.539,kallum_motion_pilot,2023.1.2,Win32,60.06727535,6465b69943b54eae57efcb10,656018846682f3df8008bb8f,656019cbddf0c9decedc71c2,0,77,77,18,1,twoone,,,,,,,,,,,,,,,,,,,,,,,,,,,,,,,,,,,,,,,,,,,,,,,,,,,,,,,,,,,,,,,,,,,,,,,,,,,,,,,,,,,,,
6465b69943b54eae57efcb10,2023-11-24_14h35.36.539,kallum_motion_pilot,2023.1.2,Win32,60.06727535,6465b69943b54eae57efcb10,656018846682f3df8008bb8f,656019cbddf0c9decedc71c2,0,78,78,112,1,fivesix,,,,,,,,,,,,,,,,,,,,,,,,,,,,,,,,,,,,,,,,,,,,,,,,,,,,,,,,,,,,,,,,,,,,,,,,,,,,,,,,,,,,,
6465b69943b54eae57efcb10,2023-11-24_14h35.36.539,kallum_motion_pilot,2023.1.2,Win32,60.06727535,6465b69943b54eae57efcb10,656018846682f3df8008bb8f,656019cbddf0c9decedc71c2,0,79,79,80,1,fivesix,,,,,,,,,,,,,,,,,,,,,,,,,,,,,,,,,,,,,,,,,,,,,,,,,,,,,,,,,,,,,,,,,,,,,,,,,,,,,,,,,,,,,
6465b69943b54eae57efcb10,2023-11-24_14h35.36.539,kallum_motion_pilot,2023.1.2,Win32,60.06727535,6465b69943b54eae57efcb10,656018846682f3df8008bb8f,656019cbddf0c9decedc71c2,0,80,80,63,1,fourthree,,,,,,,,,,,,,,,,,,,,,,,,,,,,,,,,,,,,,,,,,,,,,,,,,,,,,,,,,,,,,,,,,,,,,,,,,,,,,,,,,,,,,
6465b69943b54eae57efcb10,2023-11-24_14h35.36.539,kallum_motion_pilot,2023.1.2,Win32,60.06727535,6465b69943b54eae57efcb10,656018846682f3df8008bb8f,656019cbddf0c9decedc71c2,0,81,81,21,1,threefour,,,,,,,,,,,,,,,,,,,,,,,,,,,,,,,,,,,,,,,,,,,,,,,,,,,,,,,,,,,,,,,,,,,,,,,,,,,,,,,,,,,,,
6465b69943b54eae57efcb10,2023-11-24_14h35.36.539,kallum_motion_pilot,2023.1.2,Win32,60.06727535,6465b69943b54eae57efcb10,656018846682f3df8008bb8f,656019cbddf0c9decedc71c2,0,82,82,158,1,eightsix,,,,,,,,,,,,,,,,,,,,,,,,,,,,,,,,,,,,,,,,,,,,,,,,,,,,,,,,,,,,,,,,,,,,,,,,,,,,,,,,,,,,,
6465b69943b54eae57efcb10,2023-11-24_14h35.36.539,kallum_motion_pilot,2023.1.2,Win32,60.06727535,6465b69943b54eae57efcb10,656018846682f3df8008bb8f,656019cbddf0c9decedc71c2,0,83,83,99,1,sixeight,,,,,,,,,,,,,,,,,,,,,,,,,,,,,,,,,,,,,,,,,,,,,,,,,,,,,,,,,,,,,,,,,,,,,,,,,,,,,,,,,,,,,
6465b69943b54eae57efcb10,2023-11-24_14h35.36.539,kallum_motion_pilot,2023.1.2,Win32,60.06727535,6465b69943b54eae57efcb10,656018846682f3df8008bb8f,656019cbddf0c9decedc71c2,0,84,84,136,1,fivesix,,,,,,,,,,,,,,,,,,,,,,,,,,,,,,,,,,,,,,,,,,,,,,,,,,,,,,,,,,,,,,,,,,,,,,,,,,,,,,,,,,,,,
6465b69943b54eae57efcb10,2023-11-24_14h35.36.539,kallum_motion_pilot,2023.1.2,Win32,60.06727535,6465b69943b54eae57efcb10,656018846682f3df8008bb8f,656019cbddf0c9decedc71c2,0,85,85,110,1,eightsix,,,,,,,,,,,,,,,,,,,,,,,,,,,,,,,,,,,,,,,,,,,,,,,,,,,,,,,,,,,,,,,,,,,,,,,,,,,,,,,,,,,,,
6465b69943b54eae57efcb10,2023-11-24_14h35.36.539,kallum_motion_pilot,2023.1.2,Win32,60.06727535,6465b69943b54eae57efcb10,656018846682f3df8008bb8f,656019cbddf0c9decedc71c2,0,86,86,20,1,threeone,,,,,,,,,,,,,,,,,,,,,,,,,,,,,,,,,,,,,,,,,,,,,,,,,,,,,,,,,,,,,,,,,,,,,,,,,,,,,,,,,,,,,
6465b69943b54eae57efcb10,2023-11-24_14h35.36.539,kallum_motion_pilot,2023.1.2,Win32,60.06727535,6465b69943b54eae57efcb10,656018846682f3df8008bb8f,656019cbddf0c9decedc71c2,0,87,87,149,1,seveneight,,,,,,,,,,,,,,,,,,,,,,,,,,,,,,,,,,,,,,,,,,,,,,,,,,,,,,,,,,,,,,,,,,,,,,,,,,,,,,,,,,,,,
6465b69943b54eae57efcb10,2023-11-24_14h35.36.539,kallum_motion_pilot,2023.1.2,Win32,60.06727535,6465b69943b54eae57efcb10,656018846682f3df8008bb8f,656019cbddf0c9decedc71c2,0,88,88,107,1,sixeight,,,,,,,,,,,,,,,,,,,,,,,,,,,,,,,,,,,,,,,,,,,,,,,,,,,,,,,,,,,,,,,,,,,,,,,,,,,,,,,,,,,,,
6465b69943b54eae57efcb10,2023-11-24_14h35.36.539,kallum_motion_pilot,2023.1.2,Win32,60.06727535,6465b69943b54eae57efcb10,656018846682f3df8008bb8f,656019cbddf0c9decedc71c2,0,89,89,123,1,sixeight,,,,,,,,,,,,,,,,,,,,,,,,,,,,,,,,,,,,,,,,,,,,,,,,,,,,,,,,,,,,,,,,,,,,,,,,,,,,,,,,,,,,,
6465b69943b54eae57efcb10,2023-11-24_14h35.36.539,kallum_motion_pilot,2023.1.2,Win32,60.06727535,6465b69943b54eae57efcb10,656018846682f3df8008bb8f,656019cbddf0c9decedc71c2,0,90,90,25,1,onethree,,,,,,,,,,,,,,,,,,,,,,,,,,,,,,,,,,,,,,,,,,,,,,,,,,,,,,,,,,,,,,,,,,,,,,,,,,,,,,,,,,,,,
6465b69943b54eae57efcb10,2023-11-24_14h35.36.539,kallum_motion_pilot,2023.1.2,Win32,60.06727535,6465b69943b54eae57efcb10,656018846682f3df8008bb8f,656019cbddf0c9decedc71c2,0,91,91,116,1,sevenfive,,,,,,,,,,,,,,,,,,,,,,,,,,,,,,,,,,,,,,,,,,,,,,,,,,,,,,,,,,,,,,,,,,,,,,,,,,,,,,,,,,,,,
6465b69943b54eae57efcb10,2023-11-24_14h35.36.539,kallum_motion_pilot,2023.1.2,Win32,60.06727535,6465b69943b54eae57efcb10,656018846682f3df8008bb8f,656019cbddf0c9decedc71c2,0,92,92,78,1,fourtwo,,,,,,,,,,,,,,,,,,,,,,,,,,,,,,,,,,,,,,,,,,,,,,,,,,,,,,,,,,,,,,,,,,,,,,,,,,,,,,,,,,,,,
6465b69943b54eae57efcb10,2023-11-24_14h35.36.539,kallum_motion_pilot,2023.1.2,Win32,60.06727535,6465b69943b54eae57efcb10,656018846682f3df8008bb8f,656019cbddf0c9decedc71c2,0,93,93,6,1,fourtwo,,,,,,,,,,,,,,,,,,,,,,,,,,,,,,,,,,,,,,,,,,,,,,,,,,,,,,,,,,,,,,,,,,,,,,,,,,,,,,,,,,,,,
6465b69943b54eae57efcb10,2023-11-24_14h35.36.539,kallum_motion_pilot,2023.1.2,Win32,60.06727535,6465b69943b54eae57efcb10,656018846682f3df8008bb8f,656019cbddf0c9decedc71c2,0,94,94,145,1,fiveseven,,,,,,,,,,,,,,,,,,,,,,,,,,,,,,,,,,,,,,,,,,,,,,,,,,,,,,,,,,,,,,,,,,,,,,,,,,,,,,,,,,,,,
6465b69943b54eae57efcb10,2023-11-24_14h35.36.539,kallum_motion_pilot,2023.1.2,Win32,60.06727535,6465b69943b54eae57efcb10,656018846682f3df8008bb8f,656019cbddf0c9decedc71c2,0,95,95,30,1,fourtwo,,,,,,,,,,,,,,,,,,,,,,,,,,,,,,,,,,,,,,,,,,,,,,,,,,,,,,,,,,,,,,,,,,,,,,,,,,,,,,,,,,,,,
6465b69943b54eae57efcb10,2023-11-24_14h35.36.539,kallum_motion_pilot,2023.1.2,Win32,60.06727535,6465b69943b54eae57efcb10,656018846682f3df8008bb8f,656019cbddf0c9decedc71c2,0,96,96,95,1,eightseven,,,,,,,,,,,,,,,,,,,,,,,,,,,,,,,,,,,,,,,,,,,,,,,,,,,,,,,,,,,,,,,,,,,,,,,,,,,,,,,,,,,,,
6465b69943b54eae57efcb10,2023-11-24_14h35.36.539,kallum_motion_pilot,2023.1.2,Win32,60.06727535,6465b69943b54eae57efcb10,656018846682f3df8008bb8f,656019cbddf0c9decedc71c2,0,97,97,89,1,fiveseven,,,,,,,,,,,,,,,,,,,,,,,,,,,,,,,,,,,,,,,,,,,,,,,,,,,,,,,,,,,,,,,,,,,,,,,,,,,,,,,,,,,,,
6465b69943b54eae57efcb10,2023-11-24_14h35.36.539,kallum_motion_pilot,2023.1.2,Win32,60.06727535,6465b69943b54eae57efcb10,656018846682f3df8008bb8f,656019cbddf0c9decedc71c2,0,98,98,51,1,twofour,,,,,,,,,,,,,,,,,,,,,,,,,,,,,,,,,,,,,,,,,,,,,,,,,,,,,,,,,,,,,,,,,,,,,,,,,,,,,,,,,,,,,
6465b69943b54eae57efcb10,2023-11-24_14h35.36.539,kallum_motion_pilot,2023.1.2,Win32,60.06727535,6465b69943b54eae57efcb10,656018846682f3df8008bb8f,656019cbddf0c9decedc71c2,0,99,99,105,1,fiveseven,,,,,,,,,,,,,,,,,,,,,,,,,,,,,,,,,,,,,,,,,,,,,,,,,,,,,,,,,,,,,,,,,,,,,,,,,,,,,,,,,,,,,
6465b69943b54eae57efcb10,2023-11-24_14h35.36.539,kallum_motion_pilot,2023.1.2,Win32,60.06727535,6465b69943b54eae57efcb10,656018846682f3df8008bb8f,656019cbddf0c9decedc71c2,0,100,100,32,1,onetwo,,,,,,,,,,,,,,,,,,,,,,,,,,,,,,,,,,,,,,,,,,,,,,,,,,,,,,,,,,,,,,,,,,,,,,,,,,,,,,,,,,,,,
6465b69943b54eae57efcb10,2023-11-24_14h35.36.539,kallum_motion_pilot,2023.1.2,Win32,60.06727535,6465b69943b54eae57efcb10,656018846682f3df8008bb8f,656019cbddf0c9decedc71c2,0,101,101,157,1,seveneight,,,,,,,,,,,,,,,,,,,,,,,,,,,,,,,,,,,,,,,,,,,,,,,,,,,,,,,,,,,,,,,,,,,,,,,,,,,,,,,,,,,,,
6465b69943b54eae57efcb10,2023-11-24_14h35.36.539,kallum_motion_pilot,2023.1.2,Win32,60.06727535,6465b69943b54eae57efcb10,656018846682f3df8008bb8f,656019cbddf0c9decedc71c2,0,102,102,113,1,fiveseven,,,,,,,,,,,,,,,,,,,,,,,,,,,,,,,,,,,,,,,,,,,,,,,,,,,,,,,,,,,,,,,,,,,,,,,,,,,,,,,,,,,,,
6465b69943b54eae57efcb10,2023-11-24_14h35.36.539,kallum_motion_pilot,2023.1.2,Win32,60.06727535,6465b69943b54eae57efcb10,656018846682f3df8008bb8f,656019cbddf0c9decedc71c2,0,103,103,125,1,seveneight,,,,,,,,,,,,,,,,,,,,,,,,,,,,,,,,,,,,,,,,,,,,,,,,,,,,,,,,,,,,,,,,,,,,,,,,,,,,,,,,,,,,,
6465b69943b54eae57efcb10,2023-11-24_14h35.36.539,kallum_motion_pilot,2023.1.2,Win32,60.06727535,6465b69943b54eae57efcb10,656018846682f3df8008bb8f,656019cbddf0c9decedc71c2,0,104,104,82,1,sixfive,,,,,,,,,,,,,,,,,,,,,,,,,,,,,,,,,,,,,,,,,,,,,,,,,,,,,,,,,,,,,,,,,,,,,,,,,,,,,,,,,,,,,
6465b69943b54eae57efcb10,2023-11-24_14h35.36.539,kallum_motion_pilot,2023.1.2,Win32,60.06727535,6465b69943b54eae57efcb10,656018846682f3df8008bb8f,656019cbddf0c9decedc71c2,0,105,105,144,1,fivesix,,,,,,,,,,,,,,,,,,,,,,,,,,,,,,,,,,,,,,,,,,,,,,,,,,,,,,,,,,,,,,,,,,,,,,,,,,,,,,,,,,,,,
6465b69943b54eae57efcb10,2023-11-24_14h35.36.539,kallum_motion_pilot,2023.1.2,Win32,60.06727535,6465b69943b54eae57efcb10,656018846682f3df8008bb8f,656019cbddf0c9decedc71c2,0,106,106,2,1,twoone,,,,,,,,,,,,,,,,,,,,,,,,,,,,,,,,,,,,,,,,,,,,,,,,,,,,,,,,,,,,,,,,,,,,,,,,,,,,,,,,,,,,,
6465b69943b54eae57efcb10,2023-11-24_14h35.36.539,kallum_motion_pilot,2023.1.2,Win32,60.06727535,6465b69943b54eae57efcb10,656018846682f3df8008bb8f,656019cbddf0c9decedc71c2,0,107,107,46,1,fourtwo,,,,,,,,,,,,,,,,,,,,,,,,,,,,,,,,,,,,,,,,,,,,,,,,,,,,,,,,,,,,,,,,,,,,,,,,,,,,,,,,,,,,,
6465b69943b54eae57efcb10,2023-11-24_14h35.36.539,kallum_motion_pilot,2023.1.2,Win32,60.06727535,6465b69943b54eae57efcb10,656018846682f3df8008bb8f,656019cbddf0c9decedc71c2,0,108,108,139,1,sixeight,,,,,,,,,,,,,,,,,,,,,,,,,,,,,,,,,,,,,,,,,,,,,,,,,,,,,,,,,,,,,,,,,,,,,,,,,,,,,,,,,,,,,
6465b69943b54eae57efcb10,2023-11-24_14h35.36.539,kallum_motion_pilot,2023.1.2,Win32,60.06727535,6465b69943b54eae57efcb10,656018846682f3df8008bb8f,656019cbddf0c9decedc71c2,0,109,109,146,1,sixfive,,,,,,,,,,,,,,,,,,,,,,,,,,,,,,,,,,,,,,,,,,,,,,,,,,,,,,,,,,,,,,,,,,,,,,,,,,,,,,,,,,,,,
6465b69943b54eae57efcb10,2023-11-24_14h35.36.539,kallum_motion_pilot,2023.1.2,Win32,60.06727535,6465b69943b54eae57efcb10,656018846682f3df8008bb8f,656019cbddf0c9decedc71c2,0,110,110,10,1,twoone,,,,,,,,,,,,,,,,,,,,,,,,,,,,,,,,,,,,,,,,,,,,,,,,,,,,,,,,,,,,,,,,,,,,,,,,,,,,,,,,,,,,,
6465b69943b54eae57efcb10,2023-11-24_14h35.36.539,kallum_motion_pilot,2023.1.2,Win32,60.06727535,6465b69943b54eae57efcb10,656018846682f3df8008bb8f,656019cbddf0c9decedc71c2,0,111,111,48,1,onetwo,,,,,,,,,,,,,,,,,,,,,,,,,,,,,,,,,,,,,,,,,,,,,,,,,,,,,,,,,,,,,,,,,,,,,,,,,,,,,,,,,,,,,
6465b69943b54eae57efcb10,2023-11-24_14h35.36.539,kallum_motion_pilot,2023.1.2,Win32,60.06727535,6465b69943b54eae57efcb10,656018846682f3df8008bb8f,656019cbddf0c9decedc71c2,0,112,112,97,1,fiveseven,,,,,,,,,,,,,,,,,,,,,,,,,,,,,,,,,,,,,,,,,,,,,,,,,,,,,,,,,,,,,,,,,,,,,,,,,,,,,,,,,,,,,
6465b69943b54eae57efcb10,2023-11-24_14h35.36.539,kallum_motion_pilot,2023.1.2,Win32,60.06727535,6465b69943b54eae57efcb10,656018846682f3df8008bb8f,656019cbddf0c9decedc71c2,0,113,113,26,1,twoone,,,,,,,,,,,,,,,,,,,,,,,,,,,,,,,,,,,,,,,,,,,,,,,,,,,,,,,,,,,,,,,,,,,,,,,,,,,,,,,,,,,,,
6465b69943b54eae57efcb10,2023-11-24_14h35.36.539,kallum_motion_pilot,2023.1.2,Win32,60.06727535,6465b69943b54eae57efcb10,656018846682f3df8008bb8f,656019cbddf0c9decedc71c2,0,114,114,101,1,seveneight,,,,,,,,,,,,,,,,,,,,,,,,,,,,,,,,,,,,,,,,,,,,,,,,,,,,,,,,,,,,,,,,,,,,,,,,,,,,,,,,,,,,,
6465b69943b54eae57efcb10,2023-11-24_14h35.36.539,kallum_motion_pilot,2023.1.2,Win32,60.06727535,6465b69943b54eae57efcb10,656018846682f3df8008bb8f,656019cbddf0c9decedc71c2,0,115,115,122,1,sixfive,,,,,,,,,,,,,,,,,,,,,,,,,,,,,,,,,,,,,,,,,,,,,,,,,,,,,,,,,,,,,,,,,,,,,,,,,,,,,,,,,,,,,
6465b69943b54eae57efcb10,2023-11-24_14h35.36.539,kallum_motion_pilot,2023.1.2,Win32,60.06727535,6465b69943b54eae57efcb10,656018846682f3df8008bb8f,656019cbddf0c9decedc71c2,0,116,116,119,1,eightseven,,,,,,,,,,,,,,,,,,,,,,,,,,,,,,,,,,,,,,,,,,,,,,,,,,,,,,,,,,,,,,,,,,,,,,,,,,,,,,,,,,,,,
6465b69943b54eae57efcb10,2023-11-24_14h35.36.539,kallum_motion_pilot,2023.1.2,Win32,60.06727535,6465b69943b54eae57efcb10,656018846682f3df8008bb8f,656019cbddf0c9decedc71c2,0,117,117,56,1,onetwo,,,,,,,,,,,,,,,,,,,,,,,,,,,,,,,,,,,,,,,,,,,,,,,,,,,,,,,,,,,,,,,,,,,,,,,,,,,,,,,,,,,,,
6465b69943b54eae57efcb10,2023-11-24_14h35.36.539,kallum_motion_pilot,2023.1.2,Win32,60.06727535,6465b69943b54eae57efcb10,656018846682f3df8008bb8f,656019cbddf0c9decedc71c2,0,118,118,104,1,fivesix,,,,,,,,,,,,,,,,,,,,,,,,,,,,,,,,,,,,,,,,,,,,,,,,,,,,,,,,,,,,,,,,,,,,,,,,,,,,,,,,,,,,,
6465b69943b54eae57efcb10,2023-11-24_14h35.36.539,kallum_motion_pilot,2023.1.2,Win32,60.06727535,6465b69943b54eae57efcb10,656018846682f3df8008bb8f,656019cbddf0c9decedc71c2,0,119,119,69,1,threefour,,,,,,,,,,,,,,,,,,,,,,,,,,,,,,,,,,,,,,,,,,,,,,,,,,,,,,,,,,,,,,,,,,,,,,,,,,,,,,,,,,,,,
6465b69943b54eae57efcb10,2023-11-24_14h35.36.539,kallum_motion_pilot,2023.1.2,Win32,60.06727535,6465b69943b54eae57efcb10,656018846682f3df8008bb8f,656019cbddf0c9decedc71c2,0,120,120,41,1,onethree,,,,,,,,,,,,,,,,,,,,,,,,,,,,,,,,,,,,,,,,,,,,,,,,,,,,,,,,,,,,,,,,,,,,,,,,,,,,,,,,,,,,,
6465b69943b54eae57efcb10,2023-11-24_14h35.36.539,kallum_motion_pilot,2023.1.2,Win32,60.06727535,6465b69943b54eae57efcb10,656018846682f3df8008bb8f,656019cbddf0c9decedc71c2,0,121,121,93,1,seveneight,,,,,,,,,,,,,,,,,,,,,,,,,,,,,,,,,,,,,,,,,,,,,,,,,,,,,,,,,,,,,,,,,,,,,,,,,,,,,,,,,,,,,
6465b69943b54eae57efcb10,2023-11-24_14h35.36.539,kallum_motion_pilot,2023.1.2,Win32,60.06727535,6465b69943b54eae57efcb10,656018846682f3df8008bb8f,656019cbddf0c9decedc71c2,0,122,122,44,1,threeone,,,,,,,,,,,,,,,,,,,,,,,,,,,,,,,,,,,,,,,,,,,,,,,,,,,,,,,,,,,,,,,,,,,,,,,,,,,,,,,,,,,,,
6465b69943b54eae57efcb10,2023-11-24_14h35.36.539,kallum_motion_pilot,2023.1.2,Win32,60.06727535,6465b69943b54eae57efcb10,656018846682f3df8008bb8f,656019cbddf0c9decedc71c2,0,123,123,94,1,eightsix,,,,,,,,,,,,,,,,,,,,,,,,,,,,,,,,,,,,,,,,,,,,,,,,,,,,,,,,,,,,,,,,,,,,,,,,,,,,,,,,,,,,,
6465b69943b54eae57efcb10,2023-11-24_14h35.36.539,kallum_motion_pilot,2023.1.2,Win32,60.06727535,6465b69943b54eae57efcb10,656018846682f3df8008bb8f,656019cbddf0c9decedc71c2,0,124,124,147,1,sixeight,,,,,,,,,,,,,,,,,,,,,,,,,,,,,,,,,,,,,,,,,,,,,,,,,,,,,,,,,,,,,,,,,,,,,,,,,,,,,,,,,,,,,
6465b69943b54eae57efcb10,2023-11-24_14h35.36.539,kallum_motion_pilot,2023.1.2,Win32,60.06727535,6465b69943b54eae57efcb10,656018846682f3df8008bb8f,656019cbddf0c9decedc71c2,0,125,125,153,1,fiveseven,,,,,,,,,,,,,,,,,,,,,,,,,,,,,,,,,,,,,,,,,,,,,,,,,,,,,,,,,,,,,,,,,,,,,,,,,,,,,,,,,,,,,
6465b69943b54eae57efcb10,2023-11-24_14h35.36.539,kallum_motion_pilot,2023.1.2,Win32,60.06727535,6465b69943b54eae57efcb10,656018846682f3df8008bb8f,656019cbddf0c9decedc71c2,0,126,126,111,1,eightseven,,,,,,,,,,,,,,,,,,,,,,,,,,,,,,,,,,,,,,,,,,,,,,,,,,,,,,,,,,,,,,,,,,,,,,,,,,,,,,,,,,,,,
6465b69943b54eae57efcb10,2023-11-24_14h35.36.539,kallum_motion_pilot,2023.1.2,Win32,60.06727535,6465b69943b54eae57efcb10,656018846682f3df8008bb8f,656019cbddf0c9decedc71c2,0,127,127,135,1,eightseven,,,,,,,,,,,,,,,,,,,,,,,,,,,,,,,,,,,,,,,,,,,,,,,,,,,,,,,,,,,,,,,,,,,,,,,,,,,,,,,,,,,,,
6465b69943b54eae57efcb10,2023-11-24_14h35.36.539,kallum_motion_pilot,2023.1.2,Win32,60.06727535,6465b69943b54eae57efcb10,656018846682f3df8008bb8f,656019cbddf0c9decedc71c2,0,128,128,38,1,fourtwo,,,,,,,,,,,,,,,,,,,,,,,,,,,,,,,,,,,,,,,,,,,,,,,,,,,,,,,,,,,,,,,,,,,,,,,,,,,,,,,,,,,,,
6465b69943b54eae57efcb10,2023-11-24_14h35.36.539,kallum_motion_pilot,2023.1.2,Win32,60.06727535,6465b69943b54eae57efcb10,656018846682f3df8008bb8f,656019cbddf0c9decedc71c2,0,129,129,40,1,onetwo,,,,,,,,,,,,,,,,,,,,,,,,,,,,,,,,,,,,,,,,,,,,,,,,,,,,,,,,,,,,,,,,,,,,,,,,,,,,,,,,,,,,,
6465b69943b54eae57efcb10,2023-11-24_14h35.36.539,kallum_motion_pilot,2023.1.2,Win32,60.06727535,6465b69943b54eae57efcb10,656018846682f3df8008bb8f,656019cbddf0c9decedc71c2,0,130,130,66,1,twoone,,,,,,,,,,,,,,,,,,,,,,,,,,,,,,,,,,,,,,,,,,,,,,,,,,,,,,,,,,,,,,,,,,,,,,,,,,,,,,,,,,,,,
6465b69943b54eae57efcb10,2023-11-24_14h35.36.539,kallum_motion_pilot,2023.1.2,Win32,60.06727535,6465b69943b54eae57efcb10,656018846682f3df8008bb8f,656019cbddf0c9decedc71c2,0,131,131,12,1,threeone,,,,,,,,,,,,,,,,,,,,,,,,,,,,,,,,,,,,,,,,,,,,,,,,,,,,,,,,,,,,,,,,,,,,,,,,,,,,,,,,,,,,,
6465b69943b54eae57efcb10,2023-11-24_14h35.36.539,kallum_motion_pilot,2023.1.2,Win32,60.06727535,6465b69943b54eae57efcb10,656018846682f3df8008bb8f,656019cbddf0c9decedc71c2,0,132,132,117,1,seveneight,,,,,,,,,,,,,,,,,,,,,,,,,,,,,,,,,,,,,,,,,,,,,,,,,,,,,,,,,,,,,,,,,,,,,,,,,,,,,,,,,,,,,
6465b69943b54eae57efcb10,2023-11-24_14h35.36.539,kallum_motion_pilot,2023.1.2,Win32,60.06727535,6465b69943b54eae57efcb10,656018846682f3df8008bb8f,656019cbddf0c9decedc71c2,0,133,133,59,1,twofour,,,,,,,,,,,,,,,,,,,,,,,,,,,,,,,,,,,,,,,,,,,,,,,,,,,,,,,,,,,,,,,,,,,,,,,,,,,,,,,,,,,,,
6465b69943b54eae57efcb10,2023-11-24_14h35.36.539,kallum_motion_pilot,2023.1.2,Win32,60.06727535,6465b69943b54eae57efcb10,656018846682f3df8008bb8f,656019cbddf0c9decedc71c2,0,134,134,67,1,twofour,,,,,,,,,,,,,,,,,,,,,,,,,,,,,,,,,,,,,,,,,,,,,,,,,,,,,,,,,,,,,,,,,,,,,,,,,,,,,,,,,,,,,
6465b69943b54eae57efcb10,2023-11-24_14h35.36.539,kallum_motion_pilot,2023.1.2,Win32,60.06727535,6465b69943b54eae57efcb10,656018846682f3df8008bb8f,656019cbddf0c9decedc71c2,0,135,135,87,1,eightseven,,,,,,,,,,,,,,,,,,,,,,,,,,,,,,,,,,,,,,,,,,,,,,,,,,,,,,,,,,,,,,,,,,,,,,,,,,,,,,,,,,,,,
6465b69943b54eae57efcb10,2023-11-24_14h35.36.539,kallum_motion_pilot,2023.1.2,Win32,60.06727535,6465b69943b54eae57efcb10,656018846682f3df8008bb8f,656019cbddf0c9decedc71c2,0,136,136,61,1,threefour,,,,,,,,,,,,,,,,,,,,,,,,,,,,,,,,,,,,,,,,,,,,,,,,,,,,,,,,,,,,,,,,,,,,,,,,,,,,,,,,,,,,,
6465b69943b54eae57efcb10,2023-11-24_14h35.36.539,kallum_motion_pilot,2023.1.2,Win32,60.06727535,6465b69943b54eae57efcb10,656018846682f3df8008bb8f,656019cbddf0c9decedc71c2,0,137,137,9,1,onethree,,,,,,,,,,,,,,,,,,,,,,,,,,,,,,,,,,,,,,,,,,,,,,,,,,,,,,,,,,,,,,,,,,,,,,,,,,,,,,,,,,,,,
6465b69943b54eae57efcb10,2023-11-24_14h35.36.539,kallum_motion_pilot,2023.1.2,Win32,60.06727535,6465b69943b54eae57efcb10,656018846682f3df8008bb8f,656019cbddf0c9decedc71c2,0,138,138,84,1,sevenfive,,,,,,,,,,,,,,,,,,,,,,,,,,,,,,,,,,,,,,,,,,,,,,,,,,,,,,,,,,,,,,,,,,,,,,,,,,,,,,,,,,,,,
6465b69943b54eae57efcb10,2023-11-24_14h35.36.539,kallum_motion_pilot,2023.1.2,Win32,60.06727535,6465b69943b54eae57efcb10,656018846682f3df8008bb8f,656019cbddf0c9decedc71c2,0,139,139,156,1,sevenfive,,,,,,,,,,,,,,,,,,,,,,,,,,,,,,,,,,,,,,,,,,,,,,,,,,,,,,,,,,,,,,,,,,,,,,,,,,,,,,,,,,,,,
6465b69943b54eae57efcb10,2023-11-24_14h35.36.539,kallum_motion_pilot,2023.1.2,Win32,60.06727535,6465b69943b54eae57efcb10,656018846682f3df8008bb8f,656019cbddf0c9decedc71c2,0,140,140,35,1,twofour,,,,,,,,,,,,,,,,,,,,,,,,,,,,,,,,,,,,,,,,,,,,,,,,,,,,,,,,,,,,,,,,,,,,,,,,,,,,,,,,,,,,,
6465b69943b54eae57efcb10,2023-11-24_14h35.36.539,kallum_motion_pilot,2023.1.2,Win32,60.06727535,6465b69943b54eae57efcb10,656018846682f3df8008bb8f,656019cbddf0c9decedc71c2,0,141,141,11,1,twofour,,,,,,,,,,,,,,,,,,,,,,,,,,,,,,,,,,,,,,,,,,,,,,,,,,,,,,,,,,,,,,,,,,,,,,,,,,,,,,,,,,,,,
6465b69943b54eae57efcb10,2023-11-24_14h35.36.539,kallum_motion_pilot,2023.1.2,Win32,60.06727535,6465b69943b54eae57efcb10,656018846682f3df8008bb8f,656019cbddf0c9decedc71c2,0,142,142,127,1,eightseven,,,,,,,,,,,,,,,,,,,,,,,,,,,,,,,,,,,,,,,,,,,,,,,,,,,,,,,,,,,,,,,,,,,,,,,,,,,,,,,,,,,,,
6465b69943b54eae57efcb10,2023-11-24_14h35.36.539,kallum_motion_pilot,2023.1.2,Win32,60.06727535,6465b69943b54eae57efcb10,656018846682f3df8008bb8f,656019cbddf0c9decedc71c2,0,143,143,143,1,eightseven,,,,,,,,,,,,,,,,,,,,,,,,,,,,,,,,,,,,,,,,,,,,,,,,,,,,,,,,,,,,,,,,,,,,,,,,,,,,,,,,,,,,,
6465b69943b54eae57efcb10,2023-11-24_14h35.36.539,kallum_motion_pilot,2023.1.2,Win32,60.06727535,6465b69943b54eae57efcb10,656018846682f3df8008bb8f,656019cbddf0c9decedc71c2,0,144,144,49,1,onethree,,,,,,,,,,,,,,,,,,,,,,,,,,,,,,,,,,,,,,,,,,,,,,,,,,,,,,,,,,,,,,,,,,,,,,,,,,,,,,,,,,,,,
6465b69943b54eae57efcb10,2023-11-24_14h35.36.539,kallum_motion_pilot,2023.1.2,Win32,60.06727535,6465b69943b54eae57efcb10,656018846682f3df8008bb8f,656019cbddf0c9decedc71c2,0,145,145,92,1,sevenfive,,,,,,,,,,,,,,,,,,,,,,,,,,,,,,,,,,,,,,,,,,,,,,,,,,,,,,,,,,,,,,,,,,,,,,,,,,,,,,,,,,,,,
6465b69943b54eae57efcb10,2023-11-24_14h35.36.539,kallum_motion_pilot,2023.1.2,Win32,60.06727535,6465b69943b54eae57efcb10,656018846682f3df8008bb8f,656019cbddf0c9decedc71c2,0,146,146,54,1,fourtwo,,,,,,,,,,,,,,,,,,,,,,,,,,,,,,,,,,,,,,,,,,,,,,,,,,,,,,,,,,,,,,,,,,,,,,,,,,,,,,,,,,,,,
6465b69943b54eae57efcb10,2023-11-24_14h35.36.539,kallum_motion_pilot,2023.1.2,Win32,60.06727535,6465b69943b54eae57efcb10,656018846682f3df8008bb8f,656019cbddf0c9decedc71c2,0,147,147,154,1,sixfive,,,,,,,,,,,,,,,,,,,,,,,,,,,,,,,,,,,,,,,,,,,,,,,,,,,,,,,,,,,,,,,,,,,,,,,,,,,,,,,,,,,,,
6465b69943b54eae57efcb10,2023-11-24_14h35.36.539,kallum_motion_pilot,2023.1.2,Win32,60.06727535,6465b69943b54eae57efcb10,656018846682f3df8008bb8f,656019cbddf0c9decedc71c2,0,148,148,77,1,threefour,,,,,,,,,,,,,,,,,,,,,,,,,,,,,,,,,,,,,,,,,,,,,,,,,,,,,,,,,,,,,,,,,,,,,,,,,,,,,,,,,,,,,
6465b69943b54eae57efcb10,2023-11-24_14h35.36.539,kallum_motion_pilot,2023.1.2,Win32,60.06727535,6465b69943b54eae57efcb10,656018846682f3df8008bb8f,656019cbddf0c9decedc71c2,0,149,149,43,1,twofour,,,,,,,,,,,,,,,,,,,,,,,,,,,,,,,,,,,,,,,,,,,,,,,,,,,,,,,,,,,,,,,,,,,,,,,,,,,,,,,,,,,,,
6465b69943b54eae57efcb10,2023-11-24_14h35.36.539,kallum_motion_pilot,2023.1.2,Win32,60.06727535,6465b69943b54eae57efcb10,656018846682f3df8008bb8f,656019cbddf0c9decedc71c2,0,150,150,141,1,seveneight,,,,,,,,,,,,,,,,,,,,,,,,,,,,,,,,,,,,,,,,,,,,,,,,,,,,,,,,,,,,,,,,,,,,,,,,,,,,,,,,,,,,,
6465b69943b54eae57efcb10,2023-11-24_14h35.36.539,kallum_motion_pilot,2023.1.2,Win32,60.06727535,6465b69943b54eae57efcb10,656018846682f3df8008bb8f,656019cbddf0c9decedc71c2,0,151,151,106,1,sixfive,,,,,,,,,,,,,,,,,,,,,,,,,,,,,,,,,,,,,,,,,,,,,,,,,,,,,,,,,,,,,,,,,,,,,,,,,,,,,,,,,,,,,
6465b69943b54eae57efcb10,2023-11-24_14h35.36.539,kallum_motion_pilot,2023.1.2,Win32,60.06727535,6465b69943b54eae57efcb10,656018846682f3df8008bb8f,656019cbddf0c9decedc71c2,0,152,152,55,1,fourthree,,,,,,,,,,,,,,,,,,,,,,,,,,,,,,,,,,,,,,,,,,,,,,,,,,,,,,,,,,,,,,,,,,,,,,,,,,,,,,,,,,,,,
6465b69943b54eae57efcb10,2023-11-24_14h35.36.539,kallum_motion_pilot,2023.1.2,Win32,60.06727535,6465b69943b54eae57efcb10,656018846682f3df8008bb8f,656019cbddf0c9decedc71c2,0,153,153,140,1,sevenfive,,,,,,,,,,,,,,,,,,,,,,,,,,,,,,,,,,,,,,,,,,,,,,,,,,,,,,,,,,,,,,,,,,,,,,,,,,,,,,,,,,,,,
6465b69943b54eae57efcb10,2023-11-24_14h35.36.539,kallum_motion_pilot,2023.1.2,Win32,60.06727535,6465b69943b54eae57efcb10,656018846682f3df8008bb8f,656019cbddf0c9decedc71c2,0,154,154,148,1,sevenfive,,,,,,,,,,,,,,,,,,,,,,,,,,,,,,,,,,,,,,,,,,,,,,,,,,,,,,,,,,,,,,,,,,,,,,,,,,,,,,,,,,,,,
6465b69943b54eae57efcb10,2023-11-24_14h35.36.539,kallum_motion_pilot,2023.1.2,Win32,60.06727535,6465b69943b54eae57efcb10,656018846682f3df8008bb8f,656019cbddf0c9decedc71c2,0,155,155,68,1,threeone,,,,,,,,,,,,,,,,,,,,,,,,,,,,,,,,,,,,,,,,,,,,,,,,,,,,,,,,,,,,,,,,,,,,,,,,,,,,,,,,,,,,,
6465b69943b54eae57efcb10,2023-11-24_14h35.36.539,kallum_motion_pilot,2023.1.2,Win32,60.06727535,6465b69943b54eae57efcb10,656018846682f3df8008bb8f,656019cbddf0c9decedc71c2,0,156,156,90,1,sixfive,,,,,,,,,,,,,,,,,,,,,,,,,,,,,,,,,,,,,,,,,,,,,,,,,,,,,,,,,,,,,,,,,,,,,,,,,,,,,,,,,,,,,
6465b69943b54eae57efcb10,2023-11-24_14h35.36.539,kallum_motion_pilot,2023.1.2,Win32,60.06727535,6465b69943b54eae57efcb10,656018846682f3df8008bb8f,656019cbddf0c9decedc71c2,0,157,157,102,1,eightsix,,,,,,,,,,,,,,,,,,,,,,,,,,,,,,,,,,,,,,,,,,,,,,,,,,,,,,,,,,,,,,,,,,,,,,,,,,,,,,,,,,,,,
6465b69943b54eae57efcb10,2023-11-24_14h35.36.539,kallum_motion_pilot,2023.1.2,Win32,60.06727535,6465b69943b54eae57efcb10,656018846682f3df8008bb8f,656019cbddf0c9decedc71c2,0,158,158,134,1,eightsix,,,,,,,,,,,,,,,,,,,,,,,,,,,,,,,,,,,,,,,,,,,,,,,,,,,,,,,,,,,,,,,,,,,,,,,,,,,,,,,,,,,,,
6465b69943b54eae57efcb10,2023-11-24_14h35.36.539,kallum_motion_pilot,2023.1.2,Win32,60.06727535,6465b69943b54eae57efcb10,656018846682f3df8008bb8f,656019cbddf0c9decedc71c2,0,159,159,138,1,sixfive,,,,,,,,,,,,,,,,,,,,,,,,,,,,,,,,,,,,,,,,,,,,,,,,,,,,,,,,,,,,,,,,,,,,,,,,,,,,,,,,,,,,,
6465b69943b54eae57efcb10,2023-11-24_14h35.36.539,kallum_motion_pilot,2023.1.2,Win32,60.06727535,6465b69943b54eae57efcb10,656018846682f3df8008bb8f,656019cbddf0c9decedc71c2,0,160,160,14,1,fourtwo,,,,,,,,,,,,,,,,,,,,,,,,,,,,,,,,,,,,,,,,,,,,,,,,,,,,,,,,,,,,,,,,,,,,,,,,,,,,,,,,,,,,,
6465b69943b54eae57efcb10,2023-11-24_14h35.36.539,kallum_motion_pilot,2023.1.2,Win32,60.06727535,6465b69943b54eae57efcb10,656018846682f3df8008bb8f,656019cbddf0c9decedc71c2,0,161,161,31,1,fourthree,,,,,,,,,,,,,,,,,,,,,,,,,,,,,,,,,,,,,,,,,,,,,,,,,,,,,,,,,,,,,,,,,,,,,,,,,,,,,,,,,,,,,
6465b69943b54eae57efcb10,2023-11-24_14h35.36.539,kallum_motion_pilot,2023.1.2,Win32,60.06727535,6465b69943b54eae57efcb10,656018846682f3df8008bb8f,656019cbddf0c9decedc71c2,1,0,162,63,1,fourthree,,,,,,,,,,,,,,,,,,,,,,,,,,,,,,,,,,,,,,,,,,,,,,,,,,,,,,,,,,,,,,,,,,,,,,,,,,,,,,,,,,,,,
6465b69943b54eae57efcb10,2023-11-24_14h35.36.539,kallum_motion_pilot,2023.1.2,Win32,60.06727535,6465b69943b54eae57efcb10,656018846682f3df8008bb8f,656019cbddf0c9decedc71c2,1,1,163,91,1,sixeight,,,,,,,,,,,,,,,,,,,,,,,,,,,,,,,,,,,,,,,,,,,,,,,,,,,,,,,,,,,,,,,,,,,,,,,,,,,,,,,,,,,,,
6465b69943b54eae57efcb10,2023-11-24_14h35.36.539,kallum_motion_pilot,2023.1.2,Win32,60.06727535,6465b69943b54eae57efcb10,656018846682f3df8008bb8f,656019cbddf0c9decedc71c2,1,2,164,101,1,seveneight,,,,,,,,,,,,,,,,,,,,,,,,,,,,,,,,,,,,,,,,,,,,,,,,,,,,,,,,,,,,,,,,,,,,,,,,,,,,,,,,,,,,,
6465b69943b54eae57efcb10,2023-11-24_14h35.36.539,kallum_motion_pilot,2023.1.2,Win32,60.06727535,6465b69943b54eae57efcb10,656018846682f3df8008bb8f,656019cbddf0c9decedc71c2,1,3,165,138,1,sixfive,,,,,,,,,,,,,,,,,,,,,,,,,,,,,,,,,,,,,,,,,,,,,,,,,,,,,,,,,,,,,,,,,,,,,,,,,,,,,,,,,,,,,
6465b69943b54eae57efcb10,2023-11-24_14h35.36.539,kallum_motion_pilot,2023.1.2,Win32,60.06727535,6465b69943b54eae57efcb10,656018846682f3df8008bb8f,656019cbddf0c9decedc71c2,1,4,166,88,1,fivesix,,,,,,,,,,,,,,,,,,,,,,,,,,,,,,,,,,,,,,,,,,,,,,,,,,,,,,,,,,,,,,,,,,,,,,,,,,,,,,,,,,,,,
6465b69943b54eae57efcb10,2023-11-24_14h35.36.539,kallum_motion_pilot,2023.1.2,Win32,60.06727535,6465b69943b54eae57efcb10,656018846682f3df8008bb8f,656019cbddf0c9decedc71c2,1,5,167,50,1,twoone,,,,,,,,,,,,,,,,,,,,,,,,,,,,,,,,,,,,,,,,,,,,,,,,,,,,,,,,,,,,,,,,,,,,,,,,,,,,,,,,,,,,,
6465b69943b54eae57efcb10,2023-11-24_14h35.36.539,kallum_motion_pilot,2023.1.2,Win32,60.06727535,6465b69943b54eae57efcb10,656018846682f3df8008bb8f,656019cbddf0c9decedc71c2,1,6,168,90,1,sixfive,,,,,,,,,,,,,,,,,,,,,,,,,,,,,,,,,,,,,,,,,,,,,,,,,,,,,,,,,,,,,,,,,,,,,,,,,,,,,,,,,,,,,
6465b69943b54eae57efcb10,2023-11-24_14h35.36.539,kallum_motion_pilot,2023.1.2,Win32,60.06727535,6465b69943b54eae57efcb10,656018846682f3df8008bb8f,656019cbddf0c9decedc71c2,1,7,169,156,1,sevenfive,,,,,,,,,,,,,,,,,,,,,,,,,,,,,,,,,,,,,,,,,,,,,,,,,,,,,,,,,,,,,,,,,,,,,,,,,,,,,,,,,,,,,
6465b69943b54eae57efcb10,2023-11-24_14h35.36.539,kallum_motion_pilot,2023.1.2,Win32,60.06727535,6465b69943b54eae57efcb10,656018846682f3df8008bb8f,656019cbddf0c9decedc71c2,1,8,170,68,1,threeone,,,,,,,,,,,,,,,,,,,,,,,,,,,,,,,,,,,,,,,,,,,,,,,,,,,,,,,,,,,,,,,,,,,,,,,,,,,,,,,,,,,,,
6465b69943b54eae57efcb10,2023-11-24_14h35.36.539,kallum_motion_pilot,2023.1.2,Win32,60.06727535,6465b69943b54eae57efcb10,656018846682f3df8008bb8f,656019cbddf0c9decedc71c2,1,9,171,92,1,sevenfive,,,,,,,,,,,,,,,,,,,,,,,,,,,,,,,,,,,,,,,,,,,,,,,,,,,,,,,,,,,,,,,,,,,,,,,,,,,,,,,,,,,,,
6465b69943b54eae57efcb10,2023-11-24_14h35.36.539,kallum_motion_pilot,2023.1.2,Win32,60.06727535,6465b69943b54eae57efcb10,656018846682f3df8008bb8f,656019cbddf0c9decedc71c2,1,10,172,146,1,sixfive,,,,,,,,,,,,,,,,,,,,,,,,,,,,,,,,,,,,,,,,,,,,,,,,,,,,,,,,,,,,,,,,,,,,,,,,,,,,,,,,,,,,,
6465b69943b54eae57efcb10,2023-11-24_14h35.36.539,kallum_motion_pilot,2023.1.2,Win32,60.06727535,6465b69943b54eae57efcb10,656018846682f3df8008bb8f,656019cbddf0c9decedc71c2,1,11,173,67,1,twofour,,,,,,,,,,,,,,,,,,,,,,,,,,,,,,,,,,,,,,,,,,,,,,,,,,,,,,,,,,,,,,,,,,,,,,,,,,,,,,,,,,,,,
6465b69943b54eae57efcb10,2023-11-24_14h35.36.539,kallum_motion_pilot,2023.1.2,Win32,60.06727535,6465b69943b54eae57efcb10,656018846682f3df8008bb8f,656019cbddf0c9decedc71c2,1,12,174,33,1,onethree,,,,,,,,,,,,,,,,,,,,,,,,,,,,,,,,,,,,,,,,,,,,,,,,,,,,,,,,,,,,,,,,,,,,,,,,,,,,,,,,,,,,,
6465b69943b54eae57efcb10,2023-11-24_14h35.36.539,kallum_motion_pilot,2023.1.2,Win32,60.06727535,6465b69943b54eae57efcb10,656018846682f3df8008bb8f,656019cbddf0c9decedc71c2,1,13,175,137,1,fiveseven,,,,,,,,,,,,,,,,,,,,,,,,,,,,,,,,,,,,,,,,,,,,,,,,,,,,,,,,,,,,,,,,,,,,,,,,,,,,,,,,,,,,,
6465b69943b54eae57efcb10,2023-11-24_14h35.36.539,kallum_motion_pilot,2023.1.2,Win32,60.06727535,6465b69943b54eae57efcb10,656018846682f3df8008bb8f,656019cbddf0c9decedc71c2,1,14,176,107,1,sixeight,,,,,,,,,,,,,,,,,,,,,,,,,,,,,,,,,,,,,,,,,,,,,,,,,,,,,,,,,,,,,,,,,,,,,,,,,,,,,,,,,,,,,
6465b69943b54eae57efcb10,2023-11-24_14h35.36.539,kallum_motion_pilot,2023.1.2,Win32,60.06727535,6465b69943b54eae57efcb10,656018846682f3df8008bb8f,656019cbddf0c9decedc71c2,1,15,177,19,1,twofour,,,,,,,,,,,,,,,,,,,,,,,,,,,,,,,,,,,,,,,,,,,,,,,,,,,,,,,,,,,,,,,,,,,,,,,,,,,,,,,,,,,,,
6465b69943b54eae57efcb10,2023-11-24_14h35.36.539,kallum_motion_pilot,2023.1.2,Win32,60.06727535,6465b69943b54eae57efcb10,656018846682f3df8008bb8f,656019cbddf0c9decedc71c2,1,16,178,84,1,sevenfive,,,,,,,,,,,,,,,,,,,,,,,,,,,,,,,,,,,,,,,,,,,,,,,,,,,,,,,,,,,,,,,,,,,,,,,,,,,,,,,,,,,,,
6465b69943b54eae57efcb10,2023-11-24_14h35.36.539,kallum_motion_pilot,2023.1.2,Win32,60.06727535,6465b69943b54eae57efcb10,656018846682f3df8008bb8f,656019cbddf0c9decedc71c2,1,17,179,69,1,threefour,,,,,,,,,,,,,,,,,,,,,,,,,,,,,,,,,,,,,,,,,,,,,,,,,,,,,,,,,,,,,,,,,,,,,,,,,,,,,,,,,,,,,
6465b69943b54eae57efcb10,2023-11-24_14h35.36.539,kallum_motion_pilot,2023.1.2,Win32,60.06727535,6465b69943b54eae57efcb10,656018846682f3df8008bb8f,656019cbddf0c9decedc71c2,1,18,180,75,1,twofour,,,,,,,,,,,,,,,,,,,,,,,,,,,,,,,,,,,,,,,,,,,,,,,,,,,,,,,,,,,,,,,,,,,,,,,,,,,,,,,,,,,,,
6465b69943b54eae57efcb10,2023-11-24_14h35.36.539,kallum_motion_pilot,2023.1.2,Win32,60.06727535,6465b69943b54eae57efcb10,656018846682f3df8008bb8f,656019cbddf0c9decedc71c2,1,19,181,57,1,onethree,,,,,,,,,,,,,,,,,,,,,,,,,,,,,,,,,,,,,,,,,,,,,,,,,,,,,,,,,,,,,,,,,,,,,,,,,,,,,,,,,,,,,
6465b69943b54eae57efcb10,2023-11-24_14h35.36.539,kallum_motion_pilot,2023.1.2,Win32,60.06727535,6465b69943b54eae57efcb10,656018846682f3df8008bb8f,656019cbddf0c9decedc71c2,1,20,182,2,1,twoone,,,,,,,,,,,,,,,,,,,,,,,,,,,,,,,,,,,,,,,,,,,,,,,,,,,,,,,,,,,,,,,,,,,,,,,,,,,,,,,,,,,,,
6465b69943b54eae57efcb10,2023-11-24_14h35.36.539,kallum_motion_pilot,2023.1.2,Win32,60.06727535,6465b69943b54eae57efcb10,656018846682f3df8008bb8f,656019cbddf0c9decedc71c2,1,21,183,77,1,threefour,,,,,,,,,,,,,,,,,,,,,,,,,,,,,,,,,,,,,,,,,,,,,,,,,,,,,,,,,,,,,,,,,,,,,,,,,,,,,,,,,,,,,
6465b69943b54eae57efcb10,2023-11-24_14h35.36.539,kallum_motion_pilot,2023.1.2,Win32,60.06727535,6465b69943b54eae57efcb10,656018846682f3df8008bb8f,656019cbddf0c9decedc71c2,1,22,184,64,1,onetwo,,,,,,,,,,,,,,,,,,,,,,,,,,,,,,,,,,,,,,,,,,,,,,,,,,,,,,,,,,,,,,,,,,,,,,,,,,,,,,,,,,,,,
6465b69943b54eae57efcb10,2023-11-24_14h35.36.539,kallum_motion_pilot,2023.1.2,Win32,60.06727535,6465b69943b54eae57efcb10,656018846682f3df8008bb8f,656019cbddf0c9decedc71c2,1,23,185,141,1,seveneight,,,,,,,,,,,,,,,,,,,,,,,,,,,,,,,,,,,,,,,,,,,,,,,,,,,,,,,,,,,,,,,,,,,,,,,,,,,,,,,,,,,,,
6465b69943b54eae57efcb10,2023-11-24_14h35.36.539,kallum_motion_pilot,2023.1.2,Win32,60.06727535,6465b69943b54eae57efcb10,656018846682f3df8008bb8f,656019cbddf0c9decedc71c2,1,24,186,30,1,fourtwo,,,,,,,,,,,,,,,,,,,,,,,,,,,,,,,,,,,,,,,,,,,,,,,,,,,,,,,,,,,,,,,,,,,,,,,,,,,,,,,,,,,,,
6465b69943b54eae57efcb10,2023-11-24_14h35.36.539,kallum_motion_pilot,2023.1.2,Win32,60.06727535,6465b69943b54eae57efcb10,656018846682f3df8008bb8f,656019cbddf0c9decedc71c2,1,25,187,108,1,sevenfive,,,,,,,,,,,,,,,,,,,,,,,,,,,,,,,,,,,,,,,,,,,,,,,,,,,,,,,,,,,,,,,,,,,,,,,,,,,,,,,,,,,,,
6465b69943b54eae57efcb10,2023-11-24_14h35.36.539,kallum_motion_pilot,2023.1.2,Win32,60.06727535,6465b69943b54eae57efcb10,656018846682f3df8008bb8f,656019cbddf0c9decedc71c2,1,26,188,87,1,eightseven,,,,,,,,,,,,,,,,,,,,,,,,,,,,,,,,,,,,,,,,,,,,,,,,,,,,,,,,,,,,,,,,,,,,,,,,,,,,,,,,,,,,,
6465b69943b54eae57efcb10,2023-11-24_14h35.36.539,kallum_motion_pilot,2023.1.2,Win32,60.06727535,6465b69943b54eae57efcb10,656018846682f3df8008bb8f,656019cbddf0c9decedc71c2,1,27,189,85,1,seveneight,,,,,,,,,,,,,,,,,,,,,,,,,,,,,,,,,,,,,,,,,,,,,,,,,,,,,,,,,,,,,,,,,,,,,,,,,,,,,,,,,,,,,
6465b69943b54eae57efcb10,2023-11-24_14h35.36.539,kallum_motion_pilot,2023.1.2,Win32,60.06727535,6465b69943b54eae57efcb10,656018846682f3df8008bb8f,656019cbddf0c9decedc71c2,1,28,190,80,1,fivesix,,,,,,,,,,,,,,,,,,,,,,,,,,,,,,,,,,,,,,,,,,,,,,,,,,,,,,,,,,,,,,,,,,,,,,,,,,,,,,,,,,,,,
6465b69943b54eae57efcb10,2023-11-24_14h35.36.539,kallum_motion_pilot,2023.1.2,Win32,60.06727535,6465b69943b54eae57efcb10,656018846682f3df8008bb8f,656019cbddf0c9decedc71c2,1,29,191,116,1,sevenfive,,,,,,,,,,,,,,,,,,,,,,,,,,,,,,,,,,,,,,,,,,,,,,,,,,,,,,,,,,,,,,,,,,,,,,,,,,,,,,,,,,,,,
6465b69943b54eae57efcb10,2023-11-24_14h35.36.539,kallum_motion_pilot,2023.1.2,Win32,60.06727535,6465b69943b54eae57efcb10,656018846682f3df8008bb8f,656019cbddf0c9decedc71c2,1,30,192,17,1,onethree,,,,,,,,,,,,,,,,,,,,,,,,,,,,,,,,,,,,,,,,,,,,,,,,,,,,,,,,,,,,,,,,,,,,,,,,,,,,,,,,,,,,,
6465b69943b54eae57efcb10,2023-11-24_14h35.36.539,kallum_motion_pilot,2023.1.2,Win32,60.06727535,6465b69943b54eae57efcb10,656018846682f3df8008bb8f,656019cbddf0c9decedc71c2,1,31,193,12,1,threeone,,,,,,,,,,,,,,,,,,,,,,,,,,,,,,,,,,,,,,,,,,,,,,,,,,,,,,,,,,,,,,,,,,,,,,,,,,,,,,,,,,,,,
6465b69943b54eae57efcb10,2023-11-24_14h35.36.539,kallum_motion_pilot,2023.1.2,Win32,60.06727535,6465b69943b54eae57efcb10,656018846682f3df8008bb8f,656019cbddf0c9decedc71c2,1,32,194,29,1,threefour,,,,,,,,,,,,,,,,,,,,,,,,,,,,,,,,,,,,,,,,,,,,,,,,,,,,,,,,,,,,,,,,,,,,,,,,,,,,,,,,,,,,,
6465b69943b54eae57efcb10,2023-11-24_14h35.36.539,kallum_motion_pilot,2023.1.2,Win32,60.06727535,6465b69943b54eae57efcb10,656018846682f3df8008bb8f,656019cbddf0c9decedc71c2,1,33,195,56,1,onetwo,,,,,,,,,,,,,,,,,,,,,,,,,,,,,,,,,,,,,,,,,,,,,,,,,,,,,,,,,,,,,,,,,,,,,,,,,,,,,,,,,,,,,
6465b69943b54eae57efcb10,2023-11-24_14h35.36.539,kallum_motion_pilot,2023.1.2,Win32,60.06727535,6465b69943b54eae57efcb10,656018846682f3df8008bb8f,656019cbddf0c9decedc71c2,1,34,196,27,1,twofour,,,,,,,,,,,,,,,,,,,,,,,,,,,,,,,,,,,,,,,,,,,,,,,,,,,,,,,,,,,,,,,,,,,,,,,,,,,,,,,,,,,,,
6465b69943b54eae57efcb10,2023-11-24_14h35.36.539,kallum_motion_pilot,2023.1.2,Win32,60.06727535,6465b69943b54eae57efcb10,656018846682f3df8008bb8f,656019cbddf0c9decedc71c2,1,35,197,58,1,twoone,,,,,,,,,,,,,,,,,,,,,,,,,,,,,,,,,,,,,,,,,,,,,,,,,,,,,,,,,,,,,,,,,,,,,,,,,,,,,,,,,,,,,
6465b69943b54eae57efcb10,2023-11-24_14h35.36.539,kallum_motion_pilot,2023.1.2,Win32,60.06727535,6465b69943b54eae57efcb10,656018846682f3df8008bb8f,656019cbddf0c9decedc71c2,1,36,198,110,1,eightsix,,,,,,,,,,,,,,,,,,,,,,,,,,,,,,,,,,,,,,,,,,,,,,,,,,,,,,,,,,,,,,,,,,,,,,,,,,,,,,,,,,,,,
6465b69943b54eae57efcb10,2023-11-24_14h35.36.539,kallum_motion_pilot,2023.1.2,Win32,60.06727535,6465b69943b54eae57efcb10,656018846682f3df8008bb8f,656019cbddf0c9decedc71c2,1,37,199,1,1,onethree,,,,,,,,,,,,,,,,,,,,,,,,,,,,,,,,,,,,,,,,,,,,,,,,,,,,,,,,,,,,,,,,,,,,,,,,,,,,,,,,,,,,,
6465b69943b54eae57efcb10,2023-11-24_14h35.36.539,kallum_motion_pilot,2023.1.2,Win32,60.06727535,6465b69943b54eae57efcb10,656018846682f3df8008bb8f,656019cbddf0c9decedc71c2,1,38,200,95,1,eightseven,,,,,,,,,,,,,,,,,,,,,,,,,,,,,,,,,,,,,,,,,,,,,,,,,,,,,,,,,,,,,,,,,,,,,,,,,,,,,,,,,,,,,
6465b69943b54eae57efcb10,2023-11-24_14h35.36.539,kallum_motion_pilot,2023.1.2,Win32,60.06727535,6465b69943b54eae57efcb10,656018846682f3df8008bb8f,656019cbddf0c9decedc71c2,1,39,201,65,1,onethree,,,,,,,,,,,,,,,,,,,,,,,,,,,,,,,,,,,,,,,,,,,,,,,,,,,,,,,,,,,,,,,,,,,,,,,,,,,,,,,,,,,,,
6465b69943b54eae57efcb10,2023-11-24_14h35.36.539,kallum_motion_pilot,2023.1.2,Win32,60.06727535,6465b69943b54eae57efcb10,656018846682f3df8008bb8f,656019cbddf0c9decedc71c2,1,40,202,104,1,fivesix,,,,,,,,,,,,,,,,,,,,,,,,,,,,,,,,,,,,,,,,,,,,,,,,,,,,,,,,,,,,,,,,,,,,,,,,,,,,,,,,,,,,,
6465b69943b54eae57efcb10,2023-11-24_14h35.36.539,kallum_motion_pilot,2023.1.2,Win32,60.06727535,6465b69943b54eae57efcb10,656018846682f3df8008bb8f,656019cbddf0c9decedc71c2,1,41,203,111,1,eightseven,,,,,,,,,,,,,,,,,,,,,,,,,,,,,,,,,,,,,,,,,,,,,,,,,,,,,,,,,,,,,,,,,,,,,,,,,,,,,,,,,,,,,
6465b69943b54eae57efcb10,2023-11-24_14h35.36.539,kallum_motion_pilot,2023.1.2,Win32,60.06727535,6465b69943b54eae57efcb10,656018846682f3df8008bb8f,656019cbddf0c9decedc71c2,1,42,204,32,1,onetwo,,,,,,,,,,,,,,,,,,,,,,,,,,,,,,,,,,,,,,,,,,,,,,,,,,,,,,,,,,,,,,,,,,,,,,,,,,,,,,,,,,,,,
6465b69943b54eae57efcb10,2023-11-24_14h35.36.539,kallum_motion_pilot,2023.1.2,Win32,60.06727535,6465b69943b54eae57efcb10,656018846682f3df8008bb8f,656019cbddf0c9decedc71c2,1,43,205,140,1,sevenfive,,,,,,,,,,,,,,,,,,,,,,,,,,,,,,,,,,,,,,,,,,,,,,,,,,,,,,,,,,,,,,,,,,,,,,,,,,,,,,,,,,,,,
6465b69943b54eae57efcb10,2023-11-24_14h35.36.539,kallum_motion_pilot,2023.1.2,Win32,60.06727535,6465b69943b54eae57efcb10,656018846682f3df8008bb8f,656019cbddf0c9decedc71c2,1,44,206,43,1,twofour,,,,,,,,,,,,,,,,,,,,,,,,,,,,,,,,,,,,,,,,,,,,,,,,,,,,,,,,,,,,,,,,,,,,,,,,,,,,,,,,,,,,,
6465b69943b54eae57efcb10,2023-11-24_14h35.36.539,kallum_motion_pilot,2023.1.2,Win32,60.06727535,6465b69943b54eae57efcb10,656018846682f3df8008bb8f,656019cbddf0c9decedc71c2,1,45,207,160,1,fivesix,,,,,,,,,,,,,,,,,,,,,,,,,,,,,,,,,,,,,,,,,,,,,,,,,,,,,,,,,,,,,,,,,,,,,,,,,,,,,,,,,,,,,
6465b69943b54eae57efcb10,2023-11-24_14h35.36.539,kallum_motion_pilot,2023.1.2,Win32,60.06727535,6465b69943b54eae57efcb10,656018846682f3df8008bb8f,656019cbddf0c9decedc71c2,1,46,208,48,1,onetwo,,,,,,,,,,,,,,,,,,,,,,,,,,,,,,,,,,,,,,,,,,,,,,,,,,,,,,,,,,,,,,,,,,,,,,,,,,,,,,,,,,,,,
6465b69943b54eae57efcb10,2023-11-24_14h35.36.539,kallum_motion_pilot,2023.1.2,Win32,60.06727535,6465b69943b54eae57efcb10,656018846682f3df8008bb8f,656019cbddf0c9decedc71c2,1,47,209,136,1,fivesix,,,,,,,,,,,,,,,,,,,,,,,,,,,,,,,,,,,,,,,,,,,,,,,,,,,,,,,,,,,,,,,,,,,,,,,,,,,,,,,,,,,,,
6465b69943b54eae57efcb10,2023-11-24_14h35.36.539,kallum_motion_pilot,2023.1.2,Win32,60.06727535,6465b69943b54eae57efcb10,656018846682f3df8008bb8f,656019cbddf0c9decedc71c2,1,48,210,35,1,twofour,,,,,,,,,,,,,,,,,,,,,,,,,,,,,,,,,,,,,,,,,,,,,,,,,,,,,,,,,,,,,,,,,,,,,,,,,,,,,,,,,,,,,
6465b69943b54eae57efcb10,2023-11-24_14h35.36.539,kallum_motion_pilot,2023.1.2,Win32,60.06727535,6465b69943b54eae57efcb10,656018846682f3df8008bb8f,656019cbddf0c9decedc71c2,1,49,211,49,1,onethree,,,,,,,,,,,,,,,,,,,,,,,,,,,,,,,,,,,,,,,,,,,,,,,,,,,,,,,,,,,,,,,,,,,,,,,,,,,,,,,,,,,,,
6465b69943b54eae57efcb10,2023-11-24_14h35.36.539,kallum_motion_pilot,2023.1.2,Win32,60.06727535,6465b69943b54eae57efcb10,656018846682f3df8008bb8f,656019cbddf0c9decedc71c2,1,50,212,131,1,sixeight,,,,,,,,,,,,,,,,,,,,,,,,,,,,,,,,,,,,,,,,,,,,,,,,,,,,,,,,,,,,,,,,,,,,,,,,,,,,,,,,,,,,,
6465b69943b54eae57efcb10,2023-11-24_14h35.36.539,kallum_motion_pilot,2023.1.2,Win32,60.06727535,6465b69943b54eae57efcb10,656018846682f3df8008bb8f,656019cbddf0c9decedc71c2,1,51,213,73,1,onethree,,,,,,,,,,,,,,,,,,,,,,,,,,,,,,,,,,,,,,,,,,,,,,,,,,,,,,,,,,,,,,,,,,,,,,,,,,,,,,,,,,,,,
6465b69943b54eae57efcb10,2023-11-24_14h35.36.539,kallum_motion_pilot,2023.1.2,Win32,60.06727535,6465b69943b54eae57efcb10,656018846682f3df8008bb8f,656019cbddf0c9decedc71c2,1,52,214,103,1,eightseven,,,,,,,,,,,,,,,,,,,,,,,,,,,,,,,,,,,,,,,,,,,,,,,,,,,,,,,,,,,,,,,,,,,,,,,,,,,,,,,,,,,,,
6465b69943b54eae57efcb10,2023-11-24_14h35.36.539,kallum_motion_pilot,2023.1.2,Win32,60.06727535,6465b69943b54eae57efcb10,656018846682f3df8008bb8f,656019cbddf0c9decedc71c2,1,53,215,62,1,fourtwo,,,,,,,,,,,,,,,,,,,,,,,,,,,,,,,,,,,,,,,,,,,,,,,,,,,,,,,,,,,,,,,,,,,,,,,,,,,,,,,,,,,,,
6465b69943b54eae57efcb10,2023-11-24_14h35.36.539,kallum_motion_pilot,2023.1.2,Win32,60.06727535,6465b69943b54eae57efcb10,656018846682f3df8008bb8f,656019cbddf0c9decedc71c2,1,54,216,24,1,onetwo,,,,,,,,,,,,,,,,,,,,,,,,,,,,,,,,,,,,,,,,,,,,,,,,,,,,,,,,,,,,,,,,,,,,,,,,,,,,,,,,,,,,,
6465b69943b54eae57efcb10,2023-11-24_14h35.36.539,kallum_motion_pilot,2023.1.2,Win32,60.06727535,6465b69943b54eae57efcb10,656018846682f3df8008bb8f,656019cbddf0c9decedc71c2,1,55,217,127,1,eightseven,,,,,,,,,,,,,,,,,,,,,,,,,,,,,,,,,,,,,,,,,,,,,,,,,,,,,,,,,,,,,,,,,,,,,,,,,,,,,,,,,,,,,
6465b69943b54eae57efcb10,2023-11-24_14h35.36.539,kallum_motion_pilot,2023.1.2,Win32,60.06727535,6465b69943b54eae57efcb10,656018846682f3df8008bb8f,656019cbddf0c9decedc71c2,1,56,218,38,1,fourtwo,,,,,,,,,,,,,,,,,,,,,,,,,,,,,,,,,,,,,,,,,,,,,,,,,,,,,,,,,,,,,,,,,,,,,,,,,,,,,,,,,,,,,
6465b69943b54eae57efcb10,2023-11-24_14h35.36.539,kallum_motion_pilot,2023.1.2,Win32,60.06727535,6465b69943b54eae57efcb10,656018846682f3df8008bb8f,656019cbddf0c9decedc71c2,1,57,219,143,1,eightseven,,,,,,,,,,,,,,,,,,,,,,,,,,,,,,,,,,,,,,,,,,,,,,,,,,,,,,,,,,,,,,,,,,,,,,,,,,,,,,,,,,,,,
6465b69943b54eae57efcb10,2023-11-24_14h35.36.539,kallum_motion_pilot,2023.1.2,Win32,60.06727535,6465b69943b54eae57efcb10,656018846682f3df8008bb8f,656019cbddf0c9decedc71c2,1,58,220,78,1,fourtwo,,,,,,,,,,,,,,,,,,,,,,,,,,,,,,,,,,,,,,,,,,,,,,,,,,,,,,,,,,,,,,,,,,,,,,,,,,,,,,,,,,,,,
6465b69943b54eae57efcb10,2023-11-24_14h35.36.539,kallum_motion_pilot,2023.1.2,Win32,60.06727535,6465b69943b54eae57efcb10,656018846682f3df8008bb8f,656019cbddf0c9decedc71c2,1,59,221,134,1,eightsix,,,,,,,,,,,,,,,,,,,,,,,,,,,,,,,,,,,,,,,,,,,,,,,,,,,,,,,,,,,,,,,,,,,,,,,,,,,,,,,,,,,,,
6465b69943b54eae57efcb10,2023-11-24_14h35.36.539,kallum_motion_pilot,2023.1.2,Win32,60.06727535,6465b69943b54eae57efcb10,656018846682f3df8008bb8f,656019cbddf0c9decedc71c2,1,60,222,23,1,fourthree,,,,,,,,,,,,,,,,,,,,,,,,,,,,,,,,,,,,,,,,,,,,,,,,,,,,,,,,,,,,,,,,,,,,,,,,,,,,,,,,,,,,,
6465b69943b54eae57efcb10,2023-11-24_14h35.36.539,kallum_motion_pilot,2023.1.2,Win32,60.06727535,6465b69943b54eae57efcb10,656018846682f3df8008bb8f,656019cbddf0c9decedc71c2,1,61,223,13,1,threefour,,,,,,,,,,,,,,,,,,,,,,,,,,,,,,,,,,,,,,,,,,,,,,,,,,,,,,,,,,,,,,,,,,,,,,,,,,,,,,,,,,,,,
6465b69943b54eae57efcb10,2023-11-24_14h35.36.539,kallum_motion_pilot,2023.1.2,Win32,60.06727535,6465b69943b54eae57efcb10,656018846682f3df8008bb8f,656019cbddf0c9decedc71c2,1,62,224,71,1,fourthree,,,,,,,,,,,,,,,,,,,,,,,,,,,,,,,,,,,,,,,,,,,,,,,,,,,,,,,,,,,,,,,,,,,,,,,,,,,,,,,,,,,,,
6465b69943b54eae57efcb10,2023-11-24_14h35.36.539,kallum_motion_pilot,2023.1.2,Win32,60.06727535,6465b69943b54eae57efcb10,656018846682f3df8008bb8f,656019cbddf0c9decedc71c2,1,63,225,54,1,fourtwo,,,,,,,,,,,,,,,,,,,,,,,,,,,,,,,,,,,,,,,,,,,,,,,,,,,,,,,,,,,,,,,,,,,,,,,,,,,,,,,,,,,,,
6465b69943b54eae57efcb10,2023-11-24_14h35.36.539,kallum_motion_pilot,2023.1.2,Win32,60.06727535,6465b69943b54eae57efcb10,656018846682f3df8008bb8f,656019cbddf0c9decedc71c2,1,64,226,36,1,threeone,,,,,,,,,,,,,,,,,,,,,,,,,,,,,,,,,,,,,,,,,,,,,,,,,,,,,,,,,,,,,,,,,,,,,,,,,,,,,,,,,,,,,
6465b69943b54eae57efcb10,2023-11-24_14h35.36.539,kallum_motion_pilot,2023.1.2,Win32,60.06727535,6465b69943b54eae57efcb10,656018846682f3df8008bb8f,656019cbddf0c9decedc71c2,1,65,227,40,1,onetwo,,,,,,,,,,,,,,,,,,,,,,,,,,,,,,,,,,,,,,,,,,,,,,,,,,,,,,,,,,,,,,,,,,,,,,,,,,,,,,,,,,,,,
6465b69943b54eae57efcb10,2023-11-24_14h35.36.539,kallum_motion_pilot,2023.1.2,Win32,60.06727535,6465b69943b54eae57efcb10,656018846682f3df8008bb8f,656019cbddf0c9decedc71c2,1,66,228,150,1,eightsix,,,,,,,,,,,,,,,,,,,,,,,,,,,,,,,,,,,,,,,,,,,,,,,,,,,,,,,,,,,,,,,,,,,,,,,,,,,,,,,,,,,,,
6465b69943b54eae57efcb10,2023-11-24_14h35.36.539,kallum_motion_pilot,2023.1.2,Win32,60.06727535,6465b69943b54eae57efcb10,656018846682f3df8008bb8f,656019cbddf0c9decedc71c2,1,67,229,158,1,eightsix,,,,,,,,,,,,,,,,,,,,,,,,,,,,,,,,,,,,,,,,,,,,,,,,,,,,,,,,,,,,,,,,,,,,,,,,,,,,,,,,,,,,,
6465b69943b54eae57efcb10,2023-11-24_14h35.36.539,kallum_motion_pilot,2023.1.2,Win32,60.06727535,6465b69943b54eae57efcb10,656018846682f3df8008bb8f,656019cbddf0c9decedc71c2,1,68,230,135,1,eightseven,,,,,,,,,,,,,,,,,,,,,,,,,,,,,,,,,,,,,,,,,,,,,,,,,,,,,,,,,,,,,,,,,,,,,,,,,,,,,,,,,,,,,
6465b69943b54eae57efcb10,2023-11-24_14h35.36.539,kallum_motion_pilot,2023.1.2,Win32,60.06727535,6465b69943b54eae57efcb10,656018846682f3df8008bb8f,656019cbddf0c9decedc71c2,1,69,231,6,1,fourtwo,,,,,,,,,,,,,,,,,,,,,,,,,,,,,,,,,,,,,,,,,,,,,,,,,,,,,,,,,,,,,,,,,,,,,,,,,,,,,,,,,,,,,
6465b69943b54eae57efcb10,2023-11-24_14h35.36.539,kallum_motion_pilot,2023.1.2,Win32,60.06727535,6465b69943b54eae57efcb10,656018846682f3df8008bb8f,656019cbddf0c9decedc71c2,1,70,232,45,1,threefour,,,,,,,,,,,,,,,,,,,,,,,,,,,,,,,,,,,,,,,,,,,,,,,,,,,,,,,,,,,,,,,,,,,,,,,,,,,,,,,,,,,,,
6465b69943b54eae57efcb10,2023-11-24_14h35.36.539,kallum_motion_pilot,2023.1.2,Win32,60.06727535,6465b69943b54eae57efcb10,656018846682f3df8008bb8f,656019cbddf0c9decedc71c2,1,71,233,10,1,twoone,,,,,,,,,,,,,,,,,,,,,,,,,,,,,,,,,,,,,,,,,,,,,,,,,,,,,,,,,,,,,,,,,,,,,,,,,,,,,,,,,,,,,
6465b69943b54eae57efcb10,2023-11-24_14h35.36.539,kallum_motion_pilot,2023.1.2,Win32,60.06727535,6465b69943b54eae57efcb10,656018846682f3df8008bb8f,656019cbddf0c9decedc71c2,1,72,234,0,1,onetwo,,,,,,,,,,,,,,,,,,,,,,,,,,,,,,,,,,,,,,,,,,,,,,,,,,,,,,,,,,,,,,,,,,,,,,,,,,,,,,,,,,,,,
6465b69943b54eae57efcb10,2023-11-24_14h35.36.539,kallum_motion_pilot,2023.1.2,Win32,60.06727535,6465b69943b54eae57efcb10,656018846682f3df8008bb8f,656019cbddf0c9decedc71c2,1,73,235,115,1,sixeight,,,,,,,,,,,,,,,,,,,,,,,,,,,,,,,,,,,,,,,,,,,,,,,,,,,,,,,,,,,,,,,,,,,,,,,,,,,,,,,,,,,,,
6465b69943b54eae57efcb10,2023-11-24_14h35.36.539,kallum_motion_pilot,2023.1.2,Win32,60.06727535,6465b69943b54eae57efcb10,656018846682f3df8008bb8f,656019cbddf0c9decedc71c2,1,74,236,144,1,fivesix,,,,,,,,,,,,,,,,,,,,,,,,,,,,,,,,,,,,,,,,,,,,,,,,,,,,,,,,,,,,,,,,,,,,,,,,,,,,,,,,,,,,,
6465b69943b54eae57efcb10,2023-11-24_14h35.36.539,kallum_motion_pilot,2023.1.2,Win32,60.06727535,6465b69943b54eae57efcb10,656018846682f3df8008bb8f,656019cbddf0c9decedc71c2,1,75,237,129,1,fiveseven,,,,,,,,,,,,,,,,,,,,,,,,,,,,,,,,,,,,,,,,,,,,,,,,,,,,,,,,,,,,,,,,,,,,,,,,,,,,,,,,,,,,,
6465b69943b54eae57efcb10,2023-11-24_14h35.36.539,kallum_motion_pilot,2023.1.2,Win32,60.06727535,6465b69943b54eae57efcb10,656018846682f3df8008bb8f,656019cbddf0c9decedc71c2,1,76,238,11,1,twofour,,,,,,,,,,,,,,,,,,,,,,,,,,,,,,,,,,,,,,,,,,,,,,,,,,,,,,,,,,,,,,,,,,,,,,,,,,,,,,,,,,,,,
6465b69943b54eae57efcb10,2023-11-24_14h35.36.539,kallum_motion_pilot,2023.1.2,Win32,60.06727535,6465b69943b54eae57efcb10,656018846682f3df8008bb8f,656019cbddf0c9decedc71c2,1,77,239,153,1,fiveseven,,,,,,,,,,,,,,,,,,,,,,,,,,,,,,,,,,,,,,,,,,,,,,,,,,,,,,,,,,,,,,,,,,,,,,,,,,,,,,,,,,,,,
6465b69943b54eae57efcb10,2023-11-24_14h35.36.539,kallum_motion_pilot,2023.1.2,Win32,60.06727535,6465b69943b54eae57efcb10,656018846682f3df8008bb8f,656019cbddf0c9decedc71c2,1,78,240,106,1,sixfive,,,,,,,,,,,,,,,,,,,,,,,,,,,,,,,,,,,,,,,,,,,,,,,,,,,,,,,,,,,,,,,,,,,,,,,,,,,,,,,,,,,,,
6465b69943b54eae57efcb10,2023-11-24_14h35.36.539,kallum_motion_pilot,2023.1.2,Win32,60.06727535,6465b69943b54eae57efcb10,656018846682f3df8008bb8f,656019cbddf0c9decedc71c2,1,79,241,121,1,fiveseven,,,,,,,,,,,,,,,,,,,,,,,,,,,,,,,,,,,,,,,,,,,,,,,,,,,,,,,,,,,,,,,,,,,,,,,,,,,,,,,,,,,,,
6465b69943b54eae57efcb10,2023-11-24_14h35.36.539,kallum_motion_pilot,2023.1.2,Win32,60.06727535,6465b69943b54eae57efcb10,656018846682f3df8008bb8f,656019cbddf0c9decedc71c2,1,80,242,66,1,twoone,,,,,,,,,,,,,,,,,,,,,,,,,,,,,,,,,,,,,,,,,,,,,,,,,,,,,,,,,,,,,,,,,,,,,,,,,,,,,,,,,,,,,
6465b69943b54eae57efcb10,2023-11-24_14h35.36.539,kallum_motion_pilot,2023.1.2,Win32,60.06727535,6465b69943b54eae57efcb10,656018846682f3df8008bb8f,656019cbddf0c9decedc71c2,1,81,243,79,1,eightseven,,,,,,,,,,,,,,,,,,,,,,,,,,,,,,,,,,,,,,,,,,,,,,,,,,,,,,,,,,,,,,,,,,,,,,,,,,,,,,,,,,,,,
6465b69943b54eae57efcb10,2023-11-24_14h35.36.539,kallum_motion_pilot,2023.1.2,Win32,60.06727535,6465b69943b54eae57efcb10,656018846682f3df8008bb8f,656019cbddf0c9decedc71c2,1,82,244,159,1,eightseven,,,,,,,,,,,,,,,,,,,,,,,,,,,,,,,,,,,,,,,,,,,,,,,,,,,,,,,,,,,,,,,,,,,,,,,,,,,,,,,,,,,,,
6465b69943b54eae57efcb10,2023-11-24_14h35.36.539,kallum_motion_pilot,2023.1.2,Win32,60.06727535,6465b69943b54eae57efcb10,656018846682f3df8008bb8f,656019cbddf0c9decedc71c2,1,83,245,130,1,sixfive,,,,,,,,,,,,,,,,,,,,,,,,,,,,,,,,,,,,,,,,,,,,,,,,,,,,,,,,,,,,,,,,,,,,,,,,,,,,,,,,,,,,,
6465b69943b54eae57efcb10,2023-11-24_14h35.36.539,kallum_motion_pilot,2023.1.2,Win32,60.06727535,6465b69943b54eae57efcb10,656018846682f3df8008bb8f,656019cbddf0c9decedc71c2,1,84,246,133,1,seveneight,,,,,,,,,,,,,,,,,,,,,,,,,,,,,,,,,,,,,,,,,,,,,,,,,,,,,,,,,,,,,,,,,,,,,,,,,,,,,,,,,,,,,
6465b69943b54eae57efcb10,2023-11-24_14h35.36.539,kallum_motion_pilot,2023.1.2,Win32,60.06727535,6465b69943b54eae57efcb10,656018846682f3df8008bb8f,656019cbddf0c9decedc71c2,1,85,247,76,1,threeone,,,,,,,,,,,,,,,,,,,,,,,,,,,,,,,,,,,,,,,,,,,,,,,,,,,,,,,,,,,,,,,,,,,,,,,,,,,,,,,,,,,,,
6465b69943b54eae57efcb10,2023-11-24_14h35.36.539,kallum_motion_pilot,2023.1.2,Win32,60.06727535,6465b69943b54eae57efcb10,656018846682f3df8008bb8f,656019cbddf0c9decedc71c2,1,86,248,70,1,fourtwo,,,,,,,,,,,,,,,,,,,,,,,,,,,,,,,,,,,,,,,,,,,,,,,,,,,,,,,,,,,,,,,,,,,,,,,,,,,,,,,,,,,,,
6465b69943b54eae57efcb10,2023-11-24_14h35.36.539,kallum_motion_pilot,2023.1.2,Win32,60.06727535,6465b69943b54eae57efcb10,656018846682f3df8008bb8f,656019cbddf0c9decedc71c2,1,87,249,102,1,eightsix,,,,,,,,,,,,,,,,,,,,,,,,,,,,,,,,,,,,,,,,,,,,,,,,,,,,,,,,,,,,,,,,,,,,,,,,,,,,,,,,,,,,,
6465b69943b54eae57efcb10,2023-11-24_14h35.36.539,kallum_motion_pilot,2023.1.2,Win32,60.06727535,6465b69943b54eae57efcb10,656018846682f3df8008bb8f,656019cbddf0c9decedc71c2,1,88,250,7,1,fourthree,,,,,,,,,,,,,,,,,,,,,,,,,,,,,,,,,,,,,,,,,,,,,,,,,,,,,,,,,,,,,,,,,,,,,,,,,,,,,,,,,,,,,
6465b69943b54eae57efcb10,2023-11-24_14h35.36.539,kallum_motion_pilot,2023.1.2,Win32,60.06727535,6465b69943b54eae57efcb10,656018846682f3df8008bb8f,656019cbddf0c9decedc71c2,1,89,251,124,1,sevenfive,,,,,,,,,,,,,,,,,,,,,,,,,,,,,,,,,,,,,,,,,,,,,,,,,,,,,,,,,,,,,,,,,,,,,,,,,,,,,,,,,,,,,
6465b69943b54eae57efcb10,2023-11-24_14h35.36.539,kallum_motion_pilot,2023.1.2,Win32,60.06727535,6465b69943b54eae57efcb10,656018846682f3df8008bb8f,656019cbddf0c9decedc71c2,1,90,252,20,1,threeone,,,,,,,,,,,,,,,,,,,,,,,,,,,,,,,,,,,,,,,,,,,,,,,,,,,,,,,,,,,,,,,,,,,,,,,,,,,,,,,,,,,,,
6465b69943b54eae57efcb10,2023-11-24_14h35.36.539,kallum_motion_pilot,2023.1.2,Win32,60.06727535,6465b69943b54eae57efcb10,656018846682f3df8008bb8f,656019cbddf0c9decedc71c2,1,91,253,113,1,fiveseven,,,,,,,,,,,,,,,,,,,,,,,,,,,,,,,,,,,,,,,,,,,,,,,,,,,,,,,,,,,,,,,,,,,,,,,,,,,,,,,,,,,,,
6465b69943b54eae57efcb10,2023-11-24_14h35.36.539,kallum_motion_pilot,2023.1.2,Win32,60.06727535,6465b69943b54eae57efcb10,656018846682f3df8008bb8f,656019cbddf0c9decedc71c2,1,92,254,120,1,fivesix,,,,,,,,,,,,,,,,,,,,,,,,,,,,,,,,,,,,,,,,,,,,,,,,,,,,,,,,,,,,,,,,,,,,,,,,,,,,,,,,,,,,,
6465b69943b54eae57efcb10,2023-11-24_14h35.36.539,kallum_motion_pilot,2023.1.2,Win32,60.06727535,6465b69943b54eae57efcb10,656018846682f3df8008bb8f,656019cbddf0c9decedc71c2,1,93,255,51,1,twofour,,,,,,,,,,,,,,,,,,,,,,,,,,,,,,,,,,,,,,,,,,,,,,,,,,,,,,,,,,,,,,,,,,,,,,,,,,,,,,,,,,,,,
6465b69943b54eae57efcb10,2023-11-24_14h35.36.539,kallum_motion_pilot,2023.1.2,Win32,60.06727535,6465b69943b54eae57efcb10,656018846682f3df8008bb8f,656019cbddf0c9decedc71c2,1,94,256,18,1,twoone,,,,,,,,,,,,,,,,,,,,,,,,,,,,,,,,,,,,,,,,,,,,,,,,,,,,,,,,,,,,,,,,,,,,,,,,,,,,,,,,,,,,,
6465b69943b54eae57efcb10,2023-11-24_14h35.36.539,kallum_motion_pilot,2023.1.2,Win32,60.06727535,6465b69943b54eae57efcb10,656018846682f3df8008bb8f,656019cbddf0c9decedc71c2,1,95,257,22,1,fourtwo,,,,,,,,,,,,,,,,,,,,,,,,,,,,,,,,,,,,,,,,,,,,,,,,,,,,,,,,,,,,,,,,,,,,,,,,,,,,,,,,,,,,,
6465b69943b54eae57efcb10,2023-11-24_14h35.36.539,kallum_motion_pilot,2023.1.2,Win32,60.06727535,6465b69943b54eae57efcb10,656018846682f3df8008bb8f,656019cbddf0c9decedc71c2,1,96,258,98,1,sixfive,,,,,,,,,,,,,,,,,,,,,,,,,,,,,,,,,,,,,,,,,,,,,,,,,,,,,,,,,,,,,,,,,,,,,,,,,,,,,,,,,,,,,
6465b69943b54eae57efcb10,2023-11-24_14h35.36.539,kallum_motion_pilot,2023.1.2,Win32,60.06727535,6465b69943b54eae57efcb10,656018846682f3df8008bb8f,656019cbddf0c9decedc71c2,1,97,259,109,1,seveneight,,,,,,,,,,,,,,,,,,,,,,,,,,,,,,,,,,,,,,,,,,,,,,,,,,,,,,,,,,,,,,,,,,,,,,,,,,,,,,,,,,,,,
6465b69943b54eae57efcb10,2023-11-24_14h35.36.539,kallum_motion_pilot,2023.1.2,Win32,60.06727535,6465b69943b54eae57efcb10,656018846682f3df8008bb8f,656019cbddf0c9decedc71c2,1,98,260,99,1,sixeight,,,,,,,,,,,,,,,,,,,,,,,,,,,,,,,,,,,,,,,,,,,,,,,,,,,,,,,,,,,,,,,,,,,,,,,,,,,,,,,,,,,,,
6465b69943b54eae57efcb10,2023-11-24_14h35.36.539,kallum_motion_pilot,2023.1.2,Win32,60.06727535,6465b69943b54eae57efcb10,656018846682f3df8008bb8f,656019cbddf0c9decedc71c2,1,99,261,9,1,onethree,,,,,,,,,,,,,,,,,,,,,,,,,,,,,,,,,,,,,,,,,,,,,,,,,,,,,,,,,,,,,,,,,,,,,,,,,,,,,,,,,,,,,
6465b69943b54eae57efcb10,2023-11-24_14h35.36.539,kallum_motion_pilot,2023.1.2,Win32,60.06727535,6465b69943b54eae57efcb10,656018846682f3df8008bb8f,656019cbddf0c9decedc71c2,1,100,262,83,1,sixeight,,,,,,,,,,,,,,,,,,,,,,,,,,,,,,,,,,,,,,,,,,,,,,,,,,,,,,,,,,,,,,,,,,,,,,,,,,,,,,,,,,,,,
6465b69943b54eae57efcb10,2023-11-24_14h35.36.539,kallum_motion_pilot,2023.1.2,Win32,60.06727535,6465b69943b54eae57efcb10,656018846682f3df8008bb8f,656019cbddf0c9decedc71c2,1,101,263,89,1,fiveseven,,,,,,,,,,,,,,,,,,,,,,,,,,,,,,,,,,,,,,,,,,,,,,,,,,,,,,,,,,,,,,,,,,,,,,,,,,,,,,,,,,,,,
6465b69943b54eae57efcb10,2023-11-24_14h35.36.539,kallum_motion_pilot,2023.1.2,Win32,60.06727535,6465b69943b54eae57efcb10,656018846682f3df8008bb8f,656019cbddf0c9decedc71c2,1,102,264,14,1,fourtwo,,,,,,,,,,,,,,,,,,,,,,,,,,,,,,,,,,,,,,,,,,,,,,,,,,,,,,,,,,,,,,,,,,,,,,,,,,,,,,,,,,,,,
6465b69943b54eae57efcb10,2023-11-24_14h35.36.539,kallum_motion_pilot,2023.1.2,Win32,60.06727535,6465b69943b54eae57efcb10,656018846682f3df8008bb8f,656019cbddf0c9decedc71c2,1,103,265,53,1,threefour,,,,,,,,,,,,,,,,,,,,,,,,,,,,,,,,,,,,,,,,,,,,,,,,,,,,,,,,,,,,,,,,,,,,,,,,,,,,,,,,,,,,,
6465b69943b54eae57efcb10,2023-11-24_14h35.36.539,kallum_motion_pilot,2023.1.2,Win32,60.06727535,6465b69943b54eae57efcb10,656018846682f3df8008bb8f,656019cbddf0c9decedc71c2,1,104,266,3,1,twofour,,,,,,,,,,,,,,,,,,,,,,,,,,,,,,,,,,,,,,,,,,,,,,,,,,,,,,,,,,,,,,,,,,,,,,,,,,,,,,,,,,,,,
6465b69943b54eae57efcb10,2023-11-24_14h35.36.539,kallum_motion_pilot,2023.1.2,Win32,60.06727535,6465b69943b54eae57efcb10,656018846682f3df8008bb8f,656019cbddf0c9decedc71c2,1,105,267,118,1,eightsix,,,,,,,,,,,,,,,,,,,,,,,,,,,,,,,,,,,,,,,,,,,,,,,,,,,,,,,,,,,,,,,,,,,,,,,,,,,,,,,,,,,,,
6465b69943b54eae57efcb10,2023-11-24_14h35.36.539,kallum_motion_pilot,2023.1.2,Win32,60.06727535,6465b69943b54eae57efcb10,656018846682f3df8008bb8f,656019cbddf0c9decedc71c2,1,106,268,82,1,sixfive,,,,,,,,,,,,,,,,,,,,,,,,,,,,,,,,,,,,,,,,,,,,,,,,,,,,,,,,,,,,,,,,,,,,,,,,,,,,,,,,,,,,,
6465b69943b54eae57efcb10,2023-11-24_14h35.36.539,kallum_motion_pilot,2023.1.2,Win32,60.06727535,6465b69943b54eae57efcb10,656018846682f3df8008bb8f,656019cbddf0c9decedc71c2,1,107,269,47,1,fourthree,,,,,,,,,,,,,,,,,,,,,,,,,,,,,,,,,,,,,,,,,,,,,,,,,,,,,,,,,,,,,,,,,,,,,,,,,,,,,,,,,,,,,
6465b69943b54eae57efcb10,2023-11-24_14h35.36.539,kallum_motion_pilot,2023.1.2,Win32,60.06727535,6465b69943b54eae57efcb10,656018846682f3df8008bb8f,656019cbddf0c9decedc71c2,1,108,270,112,1,fivesix,,,,,,,,,,,,,,,,,,,,,,,,,,,,,,,,,,,,,,,,,,,,,,,,,,,,,,,,,,,,,,,,,,,,,,,,,,,,,,,,,,,,,
6465b69943b54eae57efcb10,2023-11-24_14h35.36.539,kallum_motion_pilot,2023.1.2,Win32,60.06727535,6465b69943b54eae57efcb10,656018846682f3df8008bb8f,656019cbddf0c9decedc71c2,1,109,271,93,1,seveneight,,,,,,,,,,,,,,,,,,,,,,,,,,,,,,,,,,,,,,,,,,,,,,,,,,,,,,,,,,,,,,,,,,,,,,,,,,,,,,,,,,,,,
6465b69943b54eae57efcb10,2023-11-24_14h35.36.539,kallum_motion_pilot,2023.1.2,Win32,60.06727535,6465b69943b54eae57efcb10,656018846682f3df8008bb8f,656019cbddf0c9decedc71c2,1,110,272,81,1,fiveseven,,,,,,,,,,,,,,,,,,,,,,,,,,,,,,,,,,,,,,,,,,,,,,,,,,,,,,,,,,,,,,,,,,,,,,,,,,,,,,,,,,,,,
6465b69943b54eae57efcb10,2023-11-24_14h35.36.539,kallum_motion_pilot,2023.1.2,Win32,60.06727535,6465b69943b54eae57efcb10,656018846682f3df8008bb8f,656019cbddf0c9decedc71c2,1,111,273,148,1,sevenfive,,,,,,,,,,,,,,,,,,,,,,,,,,,,,,,,,,,,,,,,,,,,,,,,,,,,,,,,,,,,,,,,,,,,,,,,,,,,,,,,,,,,,
6465b69943b54eae57efcb10,2023-11-24_14h35.36.539,kallum_motion_pilot,2023.1.2,Win32,60.06727535,6465b69943b54eae57efcb10,656018846682f3df8008bb8f,656019cbddf0c9decedc71c2,1,112,274,26,1,twoone,,,,,,,,,,,,,,,,,,,,,,,,,,,,,,,,,,,,,,,,,,,,,,,,,,,,,,,,,,,,,,,,,,,,,,,,,,,,,,,,,,,,,
6465b69943b54eae57efcb10,2023-11-24_14h35.36.539,kallum_motion_pilot,2023.1.2,Win32,60.06727535,6465b69943b54eae57efcb10,656018846682f3df8008bb8f,656019cbddf0c9decedc71c2,1,113,275,125,1,seveneight,,,,,,,,,,,,,,,,,,,,,,,,,,,,,,,,,,,,,,,,,,,,,,,,,,,,,,,,,,,,,,,,,,,,,,,,,,,,,,,,,,,,,
6465b69943b54eae57efcb10,2023-11-24_14h35.36.539,kallum_motion_pilot,2023.1.2,Win32,60.06727535,6465b69943b54eae57efcb10,656018846682f3df8008bb8f,656019cbddf0c9decedc71c2,1,114,276,60,1,threeone,,,,,,,,,,,,,,,,,,,,,,,,,,,,,,,,,,,,,,,,,,,,,,,,,,,,,,,,,,,,,,,,,,,,,,,,,,,,,,,,,,,,,
6465b69943b54eae57efcb10,2023-11-24_14h35.36.539,kallum_motion_pilot,2023.1.2,Win32,60.06727535,6465b69943b54eae57efcb10,656018846682f3df8008bb8f,656019cbddf0c9decedc71c2,1,115,277,46,1,fourtwo,,,,,,,,,,,,,,,,,,,,,,,,,,,,,,,,,,,,,,,,,,,,,,,,,,,,,,,,,,,,,,,,,,,,,,,,,,,,,,,,,,,,,
6465b69943b54eae57efcb10,2023-11-24_14h35.36.539,kallum_motion_pilot,2023.1.2,Win32,60.06727535,6465b69943b54eae57efcb10,656018846682f3df8008bb8f,656019cbddf0c9decedc71c2,1,116,278,21,1,threefour,,,,,,,,,,,,,,,,,,,,,,,,,,,,,,,,,,,,,,,,,,,,,,,,,,,,,,,,,,,,,,,,,,,,,,,,,,,,,,,,,,,,,
6465b69943b54eae57efcb10,2023-11-24_14h35.36.539,kallum_motion_pilot,2023.1.2,Win32,60.06727535,6465b69943b54eae57efcb10,656018846682f3df8008bb8f,656019cbddf0c9decedc71c2,1,117,279,117,1,seveneight,,,,,,,,,,,,,,,,,,,,,,,,,,,,,,,,,,,,,,,,,,,,,,,,,,,,,,,,,,,,,,,,,,,,,,,,,,,,,,,,,,,,,
6465b69943b54eae57efcb10,2023-11-24_14h35.36.539,kallum_motion_pilot,2023.1.2,Win32,60.06727535,6465b69943b54eae57efcb10,656018846682f3df8008bb8f,656019cbddf0c9decedc71c2,1,118,280,15,1,fourthree,,,,,,,,,,,,,,,,,,,,,,,,,,,,,,,,,,,,,,,,,,,,,,,,,,,,,,,,,,,,,,,,,,,,,,,,,,,,,,,,,,,,,
6465b69943b54eae57efcb10,2023-11-24_14h35.36.539,kallum_motion_pilot,2023.1.2,Win32,60.06727535,6465b69943b54eae57efcb10,656018846682f3df8008bb8f,656019cbddf0c9decedc71c2,1,119,281,31,1,fourthree,,,,,,,,,,,,,,,,,,,,,,,,,,,,,,,,,,,,,,,,,,,,,,,,,,,,,,,,,,,,,,,,,,,,,,,,,,,,,,,,,,,,,
6465b69943b54eae57efcb10,2023-11-24_14h35.36.539,kallum_motion_pilot,2023.1.2,Win32,60.06727535,6465b69943b54eae57efcb10,656018846682f3df8008bb8f,656019cbddf0c9decedc71c2,1,120,282,123,1,sixeight,,,,,,,,,,,,,,,,,,,,,,,,,,,,,,,,,,,,,,,,,,,,,,,,,,,,,,,,,,,,,,,,,,,,,,,,,,,,,,,,,,,,,
6465b69943b54eae57efcb10,2023-11-24_14h35.36.539,kallum_motion_pilot,2023.1.2,Win32,60.06727535,6465b69943b54eae57efcb10,656018846682f3df8008bb8f,656019cbddf0c9decedc71c2,1,121,283,152,1,fivesix,,,,,,,,,,,,,,,,,,,,,,,,,,,,,,,,,,,,,,,,,,,,,,,,,,,,,,,,,,,,,,,,,,,,,,,,,,,,,,,,,,,,,
6465b69943b54eae57efcb10,2023-11-24_14h35.36.539,kallum_motion_pilot,2023.1.2,Win32,60.06727535,6465b69943b54eae57efcb10,656018846682f3df8008bb8f,656019cbddf0c9decedc71c2,1,122,284,119,1,eightseven,,,,,,,,,,,,,,,,,,,,,,,,,,,,,,,,,,,,,,,,,,,,,,,,,,,,,,,,,,,,,,,,,,,,,,,,,,,,,,,,,,,,,
6465b69943b54eae57efcb10,2023-11-24_14h35.36.539,kallum_motion_pilot,2023.1.2,Win32,60.06727535,6465b69943b54eae57efcb10,656018846682f3df8008bb8f,656019cbddf0c9decedc71c2,1,123,285,157,1,seveneight,,,,,,,,,,,,,,,,,,,,,,,,,,,,,,,,,,,,,,,,,,,,,,,,,,,,,,,,,,,,,,,,,,,,,,,,,,,,,,,,,,,,,
6465b69943b54eae57efcb10,2023-11-24_14h35.36.539,kallum_motion_pilot,2023.1.2,Win32,60.06727535,6465b69943b54eae57efcb10,656018846682f3df8008bb8f,656019cbddf0c9decedc71c2,1,124,286,139,1,sixeight,,,,,,,,,,,,,,,,,,,,,,,,,,,,,,,,,,,,,,,,,,,,,,,,,,,,,,,,,,,,,,,,,,,,,,,,,,,,,,,,,,,,,
6465b69943b54eae57efcb10,2023-11-24_14h35.36.539,kallum_motion_pilot,2023.1.2,Win32,60.06727535,6465b69943b54eae57efcb10,656018846682f3df8008bb8f,656019cbddf0c9decedc71c2,1,125,287,126,1,eightsix,,,,,,,,,,,,,,,,,,,,,,,,,,,,,,,,,,,,,,,,,,,,,,,,,,,,,,,,,,,,,,,,,,,,,,,,,,,,,,,,,,,,,
6465b69943b54eae57efcb10,2023-11-24_14h35.36.539,kallum_motion_pilot,2023.1.2,Win32,60.06727535,6465b69943b54eae57efcb10,656018846682f3df8008bb8f,656019cbddf0c9decedc71c2,1,126,288,52,1,threeone,,,,,,,,,,,,,,,,,,,,,,,,,,,,,,,,,,,,,,,,,,,,,,,,,,,,,,,,,,,,,,,,,,,,,,,,,,,,,,,,,,,,,
6465b69943b54eae57efcb10,2023-11-24_14h35.36.539,kallum_motion_pilot,2023.1.2,Win32,60.06727535,6465b69943b54eae57efcb10,656018846682f3df8008bb8f,656019cbddf0c9decedc71c2,1,127,289,34,1,twoone,,,,,,,,,,,,,,,,,,,,,,,,,,,,,,,,,,,,,,,,,,,,,,,,,,,,,,,,,,,,,,,,,,,,,,,,,,,,,,,,,,,,,
6465b69943b54eae57efcb10,2023-11-24_14h35.36.539,kallum_motion_pilot,2023.1.2,Win32,60.06727535,6465b69943b54eae57efcb10,656018846682f3df8008bb8f,656019cbddf0c9decedc71c2,1,128,290,61,1,threefour,,,,,,,,,,,,,,,,,,,,,,,,,,,,,,,,,,,,,,,,,,,,,,,,,,,,,,,,,,,,,,,,,,,,,,,,,,,,,,,,,,,,,
6465b69943b54eae57efcb10,2023-11-24_14h35.36.539,kallum_motion_pilot,2023.1.2,Win32,60.06727535,6465b69943b54eae57efcb10,656018846682f3df8008bb8f,656019cbddf0c9decedc71c2,1,129,291,114,1,sixfive,,,,,,,,,,,,,,,,,,,,,,,,,,,,,,,,,,,,,,,,,,,,,,,,,,,,,,,,,,,,,,,,,,,,,,,,,,,,,,,,,,,,,
6465b69943b54eae57efcb10,2023-11-24_14h35.36.539,kallum_motion_pilot,2023.1.2,Win32,60.06727535,6465b69943b54eae57efcb10,656018846682f3df8008bb8f,656019cbddf0c9decedc71c2,1,130,292,154,1,sixfive,,,,,,,,,,,,,,,,,,,,,,,,,,,,,,,,,,,,,,,,,,,,,,,,,,,,,,,,,,,,,,,,,,,,,,,,,,,,,,,,,,,,,
6465b69943b54eae57efcb10,2023-11-24_14h35.36.539,kallum_motion_pilot,2023.1.2,Win32,60.06727535,6465b69943b54eae57efcb10,656018846682f3df8008bb8f,656019cbddf0c9decedc71c2,1,131,293,155,1,sixeight,,,,,,,,,,,,,,,,,,,,,,,,,,,,,,,,,,,,,,,,,,,,,,,,,,,,,,,,,,,,,,,,,,,,,,,,,,,,,,,,,,,,,
6465b69943b54eae57efcb10,2023-11-24_14h35.36.539,kallum_motion_pilot,2023.1.2,Win32,60.06727535,6465b69943b54eae57efcb10,656018846682f3df8008bb8f,656019cbddf0c9decedc71c2,1,132,294,128,1,fivesix,,,,,,,,,,,,,,,,,,,,,,,,,,,,,,,,,,,,,,,,,,,,,,,,,,,,,,,,,,,,,,,,,,,,,,,,,,,,,,,,,,,,,
6465b69943b54eae57efcb10,2023-11-24_14h35.36.539,kallum_motion_pilot,2023.1.2,Win32,60.06727535,6465b69943b54eae57efcb10,656018846682f3df8008bb8f,656019cbddf0c9decedc71c2,1,133,295,105,1,fiveseven,,,,,,,,,,,,,,,,,,,,,,,,,,,,,,,,,,,,,,,,,,,,,,,,,,,,,,,,,,,,,,,,,,,,,,,,,,,,,,,,,,,,,
6465b69943b54eae57efcb10,2023-11-24_14h35.36.539,kallum_motion_pilot,2023.1.2,Win32,60.06727535,6465b69943b54eae57efcb10,656018846682f3df8008bb8f,656019cbddf0c9decedc71c2,1,134,296,5,1,threefour,,,,,,,,,,,,,,,,,,,,,,,,,,,,,,,,,,,,,,,,,,,,,,,,,,,,,,,,,,,,,,,,,,,,,,,,,,,,,,,,,,,,,
6465b69943b54eae57efcb10,2023-11-24_14h35.36.539,kallum_motion_pilot,2023.1.2,Win32,60.06727535,6465b69943b54eae57efcb10,656018846682f3df8008bb8f,656019cbddf0c9decedc71c2,1,135,297,151,1,eightseven,,,,,,,,,,,,,,,,,,,,,,,,,,,,,,,,,,,,,,,,,,,,,,,,,,,,,,,,,,,,,,,,,,,,,,,,,,,,,,,,,,,,,
6465b69943b54eae57efcb10,2023-11-24_14h35.36.539,kallum_motion_pilot,2023.1.2,Win32,60.06727535,6465b69943b54eae57efcb10,656018846682f3df8008bb8f,656019cbddf0c9decedc71c2,1,136,298,44,1,threeone,,,,,,,,,,,,,,,,,,,,,,,,,,,,,,,,,,,,,,,,,,,,,,,,,,,,,,,,,,,,,,,,,,,,,,,,,,,,,,,,,,,,,
6465b69943b54eae57efcb10,2023-11-24_14h35.36.539,kallum_motion_pilot,2023.1.2,Win32,60.06727535,6465b69943b54eae57efcb10,656018846682f3df8008bb8f,656019cbddf0c9decedc71c2,1,137,299,25,1,onethree,,,,,,,,,,,,,,,,,,,,,,,,,,,,,,,,,,,,,,,,,,,,,,,,,,,,,,,,,,,,,,,,,,,,,,,,,,,,,,,,,,,,,
6465b69943b54eae57efcb10,2023-11-24_14h35.36.539,kallum_motion_pilot,2023.1.2,Win32,60.06727535,6465b69943b54eae57efcb10,656018846682f3df8008bb8f,656019cbddf0c9decedc71c2,1,138,300,86,1,eightsix,,,,,,,,,,,,,,,,,,,,,,,,,,,,,,,,,,,,,,,,,,,,,,,,,,,,,,,,,,,,,,,,,,,,,,,,,,,,,,,,,,,,,
6465b69943b54eae57efcb10,2023-11-24_14h35.36.539,kallum_motion_pilot,2023.1.2,Win32,60.06727535,6465b69943b54eae57efcb10,656018846682f3df8008bb8f,656019cbddf0c9decedc71c2,1,139,301,74,1,twoone,,,,,,,,,,,,,,,,,,,,,,,,,,,,,,,,,,,,,,,,,,,,,,,,,,,,,,,,,,,,,,,,,,,,,,,,,,,,,,,,,,,,,
6465b69943b54eae57efcb10,2023-11-24_14h35.36.539,kallum_motion_pilot,2023.1.2,Win32,60.06727535,6465b69943b54eae57efcb10,656018846682f3df8008bb8f,656019cbddf0c9decedc71c2,1,140,302,8,1,onetwo,,,,,,,,,,,,,,,,,,,,,,,,,,,,,,,,,,,,,,,,,,,,,,,,,,,,,,,,,,,,,,,,,,,,,,,,,,,,,,,,,,,,,
6465b69943b54eae57efcb10,2023-11-24_14h35.36.539,kallum_motion_pilot,2023.1.2,Win32,60.06727535,6465b69943b54eae57efcb10,656018846682f3df8008bb8f,656019cbddf0c9decedc71c2,1,141,303,28,1,threeone,,,,,,,,,,,,,,,,,,,,,,,,,,,,,,,,,,,,,,,,,,,,,,,,,,,,,,,,,,,,,,,,,,,,,,,,,,,,,,,,,,,,,
6465b69943b54eae57efcb10,2023-11-24_14h35.36.539,kallum_motion_pilot,2023.1.2,Win32,60.06727535,6465b69943b54eae57efcb10,656018846682f3df8008bb8f,656019cbddf0c9decedc71c2,1,142,304,16,1,onetwo,,,,,,,,,,,,,,,,,,,,,,,,,,,,,,,,,,,,,,,,,,,,,,,,,,,,,,,,,,,,,,,,,,,,,,,,,,,,,,,,,,,,,
6465b69943b54eae57efcb10,2023-11-24_14h35.36.539,kallum_motion_pilot,2023.1.2,Win32,60.06727535,6465b69943b54eae57efcb10,656018846682f3df8008bb8f,656019cbddf0c9decedc71c2,1,143,305,142,1,eightsix,,,,,,,,,,,,,,,,,,,,,,,,,,,,,,,,,,,,,,,,,,,,,,,,,,,,,,,,,,,,,,,,,,,,,,,,,,,,,,,,,,,,,
6465b69943b54eae57efcb10,2023-11-24_14h35.36.539,kallum_motion_pilot,2023.1.2,Win32,60.06727535,6465b69943b54eae57efcb10,656018846682f3df8008bb8f,656019cbddf0c9decedc71c2,1,144,306,94,1,eightsix,,,,,,,,,,,,,,,,,,,,,,,,,,,,,,,,,,,,,,,,,,,,,,,,,,,,,,,,,,,,,,,,,,,,,,,,,,,,,,,,,,,,,
6465b69943b54eae57efcb10,2023-11-24_14h35.36.539,kallum_motion_pilot,2023.1.2,Win32,60.06727535,6465b69943b54eae57efcb10,656018846682f3df8008bb8f,656019cbddf0c9decedc71c2,1,145,307,42,1,twoone,,,,,,,,,,,,,,,,,,,,,,,,,,,,,,,,,,,,,,,,,,,,,,,,,,,,,,,,,,,,,,,,,,,,,,,,,,,,,,,,,,,,,
6465b69943b54eae57efcb10,2023-11-24_14h35.36.539,kallum_motion_pilot,2023.1.2,Win32,60.06727535,6465b69943b54eae57efcb10,656018846682f3df8008bb8f,656019cbddf0c9decedc71c2,1,146,308,37,1,threefour,,,,,,,,,,,,,,,,,,,,,,,,,,,,,,,,,,,,,,,,,,,,,,,,,,,,,,,,,,,,,,,,,,,,,,,,,,,,,,,,,,,,,
6465b69943b54eae57efcb10,2023-11-24_14h35.36.539,kallum_motion_pilot,2023.1.2,Win32,60.06727535,6465b69943b54eae57efcb10,656018846682f3df8008bb8f,656019cbddf0c9decedc71c2,1,147,309,4,1,threeone,,,,,,,,,,,,,,,,,,,,,,,,,,,,,,,,,,,,,,,,,,,,,,,,,,,,,,,,,,,,,,,,,,,,,,,,,,,,,,,,,,,,,
6465b69943b54eae57efcb10,2023-11-24_14h35.36.539,kallum_motion_pilot,2023.1.2,Win32,60.06727535,6465b69943b54eae57efcb10,656018846682f3df8008bb8f,656019cbddf0c9decedc71c2,1,148,310,55,1,fourthree,,,,,,,,,,,,,,,,,,,,,,,,,,,,,,,,,,,,,,,,,,,,,,,,,,,,,,,,,,,,,,,,,,,,,,,,,,,,,,,,,,,,,
6465b69943b54eae57efcb10,2023-11-24_14h35.36.539,kallum_motion_pilot,2023.1.2,Win32,60.06727535,6465b69943b54eae57efcb10,656018846682f3df8008bb8f,656019cbddf0c9decedc71c2,1,149,311,145,1,fiveseven,,,,,,,,,,,,,,,,,,,,,,,,,,,,,,,,,,,,,,,,,,,,,,,,,,,,,,,,,,,,,,,,,,,,,,,,,,,,,,,,,,,,,
6465b69943b54eae57efcb10,2023-11-24_14h35.36.539,kallum_motion_pilot,2023.1.2,Win32,60.06727535,6465b69943b54eae57efcb10,656018846682f3df8008bb8f,656019cbddf0c9decedc71c2,1,150,312,96,1,fivesix,,,,,,,,,,,,,,,,,,,,,,,,,,,,,,,,,,,,,,,,,,,,,,,,,,,,,,,,,,,,,,,,,,,,,,,,,,,,,,,,,,,,,
6465b69943b54eae57efcb10,2023-11-24_14h35.36.539,kallum_motion_pilot,2023.1.2,Win32,60.06727535,6465b69943b54eae57efcb10,656018846682f3df8008bb8f,656019cbddf0c9decedc71c2,1,151,313,59,1,twofour,,,,,,,,,,,,,,,,,,,,,,,,,,,,,,,,,,,,,,,,,,,,,,,,,,,,,,,,,,,,,,,,,,,,,,,,,,,,,,,,,,,,,
6465b69943b54eae57efcb10,2023-11-24_14h35.36.539,kallum_motion_pilot,2023.1.2,Win32,60.06727535,6465b69943b54eae57efcb10,656018846682f3df8008bb8f,656019cbddf0c9decedc71c2,1,152,314,100,1,sevenfive,,,,,,,,,,,,,,,,,,,,,,,,,,,,,,,,,,,,,,,,,,,,,,,,,,,,,,,,,,,,,,,,,,,,,,,,,,,,,,,,,,,,,
6465b69943b54eae57efcb10,2023-11-24_14h35.36.539,kallum_motion_pilot,2023.1.2,Win32,60.06727535,6465b69943b54eae57efcb10,656018846682f3df8008bb8f,656019cbddf0c9decedc71c2,1,153,315,161,1,fiveseven,,,,,,,,,,,,,,,,,,,,,,,,,,,,,,,,,,,,,,,,,,,,,,,,,,,,,,,,,,,,,,,,,,,,,,,,,,,,,,,,,,,,,
6465b69943b54eae57efcb10,2023-11-24_14h35.36.539,kallum_motion_pilot,2023.1.2,Win32,60.06727535,6465b69943b54eae57efcb10,656018846682f3df8008bb8f,656019cbddf0c9decedc71c2,1,154,316,41,1,onethree,,,,,,,,,,,,,,,,,,,,,,,,,,,,,,,,,,,,,,,,,,,,,,,,,,,,,,,,,,,,,,,,,,,,,,,,,,,,,,,,,,,,,
6465b69943b54eae57efcb10,2023-11-24_14h35.36.539,kallum_motion_pilot,2023.1.2,Win32,60.06727535,6465b69943b54eae57efcb10,656018846682f3df8008bb8f,656019cbddf0c9decedc71c2,1,155,317,149,1,seveneight,,,,,,,,,,,,,,,,,,,,,,,,,,,,,,,,,,,,,,,,,,,,,,,,,,,,,,,,,,,,,,,,,,,,,,,,,,,,,,,,,,,,,
6465b69943b54eae57efcb10,2023-11-24_14h35.36.539,kallum_motion_pilot,2023.1.2,Win32,60.06727535,6465b69943b54eae57efcb10,656018846682f3df8008bb8f,656019cbddf0c9decedc71c2,1,156,318,147,1,sixeight,,,,,,,,,,,,,,,,,,,,,,,,,,,,,,,,,,,,,,,,,,,,,,,,,,,,,,,,,,,,,,,,,,,,,,,,,,,,,,,,,,,,,
6465b69943b54eae57efcb10,2023-11-24_14h35.36.539,kallum_motion_pilot,2023.1.2,Win32,60.06727535,6465b69943b54eae57efcb10,656018846682f3df8008bb8f,656019cbddf0c9decedc71c2,1,157,319,72,1,onetwo,,,,,,,,,,,,,,,,,,,,,,,,,,,,,,,,,,,,,,,,,,,,,,,,,,,,,,,,,,,,,,,,,,,,,,,,,,,,,,,,,,,,,
6465b69943b54eae57efcb10,2023-11-24_14h35.36.539,kallum_motion_pilot,2023.1.2,Win32,60.06727535,6465b69943b54eae57efcb10,656018846682f3df8008bb8f,656019cbddf0c9decedc71c2,1,158,320,132,1,sevenfive,,,,,,,,,,,,,,,,,,,,,,,,,,,,,,,,,,,,,,,,,,,,,,,,,,,,,,,,,,,,,,,,,,,,,,,,,,,,,,,,,,,,,
6465b69943b54eae57efcb10,2023-11-24_14h35.36.539,kallum_motion_pilot,2023.1.2,Win32,60.06727535,6465b69943b54eae57efcb10,656018846682f3df8008bb8f,656019cbddf0c9decedc71c2,1,159,321,39,1,fourthree,,,,,,,,,,,,,,,,,,,,,,,,,,,,,,,,,,,,,,,,,,,,,,,,,,,,,,,,,,,,,,,,,,,,,,,,,,,,,,,,,,,,,
6465b69943b54eae57efcb10,2023-11-24_14h35.36.539,kallum_motion_pilot,2023.1.2,Win32,60.06727535,6465b69943b54eae57efcb10,656018846682f3df8008bb8f,656019cbddf0c9decedc71c2,1,160,322,97,1,fiveseven,,,,,,,,,,,,,,,,,,,,,,,,,,,,,,,,,,,,,,,,,,,,,,,,,,,,,,,,,,,,,,,,,,,,,,,,,,,,,,,,,,,,,
6465b69943b54eae57efcb10,2023-11-24_14h35.36.539,kallum_motion_pilot,2023.1.2,Win32,60.06727535,6465b69943b54eae57efcb10,656018846682f3df8008bb8f,656019cbddf0c9decedc71c2,1,161,323,122,1,sixfive,,,,,,,,,,,,,,,,,,,,,,,,,,,,,,,,,,,,,,,,,,,,,,,,,,,,,,,,,,,,,,,,,,,,,,,,,,,,,,,,,,,,,
6465b69943b54eae57efcb10,2023-11-24_14h35.36.539,kallum_motion_pilot,2023.1.2,Win32,60.06727535,6465b69943b54eae57efcb10,656018846682f3df8008bb8f,656019cbddf0c9decedc71c2,2,0,324,147,1,sixeight,,,,,,,,,,,,,,,,,,,,,,,,,,,,,,,,,,,,,,,,,,,,,,,,,,,,,,,,,,,,,,,,,,,,,,,,,,,,,,,,,,,,,
6465b69943b54eae57efcb10,2023-11-24_14h35.36.539,kallum_motion_pilot,2023.1.2,Win32,60.06727535,6465b69943b54eae57efcb10,656018846682f3df8008bb8f,656019cbddf0c9decedc71c2,2,1,325,106,1,sixfive,,,,,,,,,,,,,,,,,,,,,,,,,,,,,,,,,,,,,,,,,,,,,,,,,,,,,,,,,,,,,,,,,,,,,,,,,,,,,,,,,,,,,
6465b69943b54eae57efcb10,2023-11-24_14h35.36.539,kallum_motion_pilot,2023.1.2,Win32,60.06727535,6465b69943b54eae57efcb10,656018846682f3df8008bb8f,656019cbddf0c9decedc71c2,2,2,326,46,1,fourtwo,,,,,,,,,,,,,,,,,,,,,,,,,,,,,,,,,,,,,,,,,,,,,,,,,,,,,,,,,,,,,,,,,,,,,,,,,,,,,,,,,,,,,
6465b69943b54eae57efcb10,2023-11-24_14h35.36.539,kallum_motion_pilot,2023.1.2,Win32,60.06727535,6465b69943b54eae57efcb10,656018846682f3df8008bb8f,656019cbddf0c9decedc71c2,2,3,327,53,1,threefour,,,,,,,,,,,,,,,,,,,,,,,,,,,,,,,,,,,,,,,,,,,,,,,,,,,,,,,,,,,,,,,,,,,,,,,,,,,,,,,,,,,,,
6465b69943b54eae57efcb10,2023-11-24_14h35.36.539,kallum_motion_pilot,2023.1.2,Win32,60.06727535,6465b69943b54eae57efcb10,656018846682f3df8008bb8f,656019cbddf0c9decedc71c2,2,4,328,97,1,fiveseven,,,,,,,,,,,,,,,,,,,,,,,,,,,,,,,,,,,,,,,,,,,,,,,,,,,,,,,,,,,,,,,,,,,,,,,,,,,,,,,,,,,,,
6465b69943b54eae57efcb10,2023-11-24_14h35.36.539,kallum_motion_pilot,2023.1.2,Win32,60.06727535,6465b69943b54eae57efcb10,656018846682f3df8008bb8f,656019cbddf0c9decedc71c2,2,5,329,33,1,onethree,,,,,,,,,,,,,,,,,,,,,,,,,,,,,,,,,,,,,,,,,,,,,,,,,,,,,,,,,,,,,,,,,,,,,,,,,,,,,,,,,,,,,
6465b69943b54eae57efcb10,2023-11-24_14h35.36.539,kallum_motion_pilot,2023.1.2,Win32,60.06727535,6465b69943b54eae57efcb10,656018846682f3df8008bb8f,656019cbddf0c9decedc71c2,2,6,330,79,1,eightseven,,,,,,,,,,,,,,,,,,,,,,,,,,,,,,,,,,,,,,,,,,,,,,,,,,,,,,,,,,,,,,,,,,,,,,,,,,,,,,,,,,,,,
6465b69943b54eae57efcb10,2023-11-24_14h35.36.539,kallum_motion_pilot,2023.1.2,Win32,60.06727535,6465b69943b54eae57efcb10,656018846682f3df8008bb8f,656019cbddf0c9decedc71c2,2,7,331,62,1,fourtwo,,,,,,,,,,,,,,,,,,,,,,,,,,,,,,,,,,,,,,,,,,,,,,,,,,,,,,,,,,,,,,,,,,,,,,,,,,,,,,,,,,,,,
6465b69943b54eae57efcb10,2023-11-24_14h35.36.539,kallum_motion_pilot,2023.1.2,Win32,60.06727535,6465b69943b54eae57efcb10,656018846682f3df8008bb8f,656019cbddf0c9decedc71c2,2,8,332,123,1,sixeight,,,,,,,,,,,,,,,,,,,,,,,,,,,,,,,,,,,,,,,,,,,,,,,,,,,,,,,,,,,,,,,,,,,,,,,,,,,,,,,,,,,,,
6465b69943b54eae57efcb10,2023-11-24_14h35.36.539,kallum_motion_pilot,2023.1.2,Win32,60.06727535,6465b69943b54eae57efcb10,656018846682f3df8008bb8f,656019cbddf0c9decedc71c2,2,9,333,131,1,sixeight,,,,,,,,,,,,,,,,,,,,,,,,,,,,,,,,,,,,,,,,,,,,,,,,,,,,,,,,,,,,,,,,,,,,,,,,,,,,,,,,,,,,,
6465b69943b54eae57efcb10,2023-11-24_14h35.36.539,kallum_motion_pilot,2023.1.2,Win32,60.06727535,6465b69943b54eae57efcb10,656018846682f3df8008bb8f,656019cbddf0c9decedc71c2,2,10,334,82,1,sixfive,,,,,,,,,,,,,,,,,,,,,,,,,,,,,,,,,,,,,,,,,,,,,,,,,,,,,,,,,,,,,,,,,,,,,,,,,,,,,,,,,,,,,
6465b69943b54eae57efcb10,2023-11-24_14h35.36.539,kallum_motion_pilot,2023.1.2,Win32,60.06727535,6465b69943b54eae57efcb10,656018846682f3df8008bb8f,656019cbddf0c9decedc71c2,2,11,335,71,1,fourthree,,,,,,,,,,,,,,,,,,,,,,,,,,,,,,,,,,,,,,,,,,,,,,,,,,,,,,,,,,,,,,,,,,,,,,,,,,,,,,,,,,,,,
6465b69943b54eae57efcb10,2023-11-24_14h35.36.539,kallum_motion_pilot,2023.1.2,Win32,60.06727535,6465b69943b54eae57efcb10,656018846682f3df8008bb8f,656019cbddf0c9decedc71c2,2,12,336,134,1,eightsix,,,,,,,,,,,,,,,,,,,,,,,,,,,,,,,,,,,,,,,,,,,,,,,,,,,,,,,,,,,,,,,,,,,,,,,,,,,,,,,,,,,,,
6465b69943b54eae57efcb10,2023-11-24_14h35.36.539,kallum_motion_pilot,2023.1.2,Win32,60.06727535,6465b69943b54eae57efcb10,656018846682f3df8008bb8f,656019cbddf0c9decedc71c2,2,13,337,158,1,eightsix,,,,,,,,,,,,,,,,,,,,,,,,,,,,,,,,,,,,,,,,,,,,,,,,,,,,,,,,,,,,,,,,,,,,,,,,,,,,,,,,,,,,,
6465b69943b54eae57efcb10,2023-11-24_14h35.36.539,kallum_motion_pilot,2023.1.2,Win32,60.06727535,6465b69943b54eae57efcb10,656018846682f3df8008bb8f,656019cbddf0c9decedc71c2,2,14,338,80,1,fivesix,,,,,,,,,,,,,,,,,,,,,,,,,,,,,,,,,,,,,,,,,,,,,,,,,,,,,,,,,,,,,,,,,,,,,,,,,,,,,,,,,,,,,
6465b69943b54eae57efcb10,2023-11-24_14h35.36.539,kallum_motion_pilot,2023.1.2,Win32,60.06727535,6465b69943b54eae57efcb10,656018846682f3df8008bb8f,656019cbddf0c9decedc71c2,2,15,339,67,1,twofour,,,,,,,,,,,,,,,,,,,,,,,,,,,,,,,,,,,,,,,,,,,,,,,,,,,,,,,,,,,,,,,,,,,,,,,,,,,,,,,,,,,,,
6465b69943b54eae57efcb10,2023-11-24_14h35.36.539,kallum_motion_pilot,2023.1.2,Win32,60.06727535,6465b69943b54eae57efcb10,656018846682f3df8008bb8f,656019cbddf0c9decedc71c2,2,16,340,110,1,eightsix,,,,,,,,,,,,,,,,,,,,,,,,,,,,,,,,,,,,,,,,,,,,,,,,,,,,,,,,,,,,,,,,,,,,,,,,,,,,,,,,,,,,,
6465b69943b54eae57efcb10,2023-11-24_14h35.36.539,kallum_motion_pilot,2023.1.2,Win32,60.06727535,6465b69943b54eae57efcb10,656018846682f3df8008bb8f,656019cbddf0c9decedc71c2,2,17,341,127,1,eightseven,,,,,,,,,,,,,,,,,,,,,,,,,,,,,,,,,,,,,,,,,,,,,,,,,,,,,,,,,,,,,,,,,,,,,,,,,,,,,,,,,,,,,
6465b69943b54eae57efcb10,2023-11-24_14h35.36.539,kallum_motion_pilot,2023.1.2,Win32,60.06727535,6465b69943b54eae57efcb10,656018846682f3df8008bb8f,656019cbddf0c9decedc71c2,2,18,342,88,1,fivesix,,,,,,,,,,,,,,,,,,,,,,,,,,,,,,,,,,,,,,,,,,,,,,,,,,,,,,,,,,,,,,,,,,,,,,,,,,,,,,,,,,,,,
6465b69943b54eae57efcb10,2023-11-24_14h35.36.539,kallum_motion_pilot,2023.1.2,Win32,60.06727535,6465b69943b54eae57efcb10,656018846682f3df8008bb8f,656019cbddf0c9decedc71c2,2,19,343,76,1,threeone,,,,,,,,,,,,,,,,,,,,,,,,,,,,,,,,,,,,,,,,,,,,,,,,,,,,,,,,,,,,,,,,,,,,,,,,,,,,,,,,,,,,,
6465b69943b54eae57efcb10,2023-11-24_14h35.36.539,kallum_motion_pilot,2023.1.2,Win32,60.06727535,6465b69943b54eae57efcb10,656018846682f3df8008bb8f,656019cbddf0c9decedc71c2,2,20,344,84,1,sevenfive,,,,,,,,,,,,,,,,,,,,,,,,,,,,,,,,,,,,,,,,,,,,,,,,,,,,,,,,,,,,,,,,,,,,,,,,,,,,,,,,,,,,,
6465b69943b54eae57efcb10,2023-11-24_14h35.36.539,kallum_motion_pilot,2023.1.2,Win32,60.06727535,6465b69943b54eae57efcb10,656018846682f3df8008bb8f,656019cbddf0c9decedc71c2,2,21,345,122,1,sixfive,,,,,,,,,,,,,,,,,,,,,,,,,,,,,,,,,,,,,,,,,,,,,,,,,,,,,,,,,,,,,,,,,,,,,,,,,,,,,,,,,,,,,
6465b69943b54eae57efcb10,2023-11-24_14h35.36.539,kallum_motion_pilot,2023.1.2,Win32,60.06727535,6465b69943b54eae57efcb10,656018846682f3df8008bb8f,656019cbddf0c9decedc71c2,2,22,346,56,1,onetwo,,,,,,,,,,,,,,,,,,,,,,,,,,,,,,,,,,,,,,,,,,,,,,,,,,,,,,,,,,,,,,,,,,,,,,,,,,,,,,,,,,,,,
6465b69943b54eae57efcb10,2023-11-24_14h35.36.539,kallum_motion_pilot,2023.1.2,Win32,60.06727535,6465b69943b54eae57efcb10,656018846682f3df8008bb8f,656019cbddf0c9decedc71c2,2,23,347,104,1,fivesix,,,,,,,,,,,,,,,,,,,,,,,,,,,,,,,,,,,,,,,,,,,,,,,,,,,,,,,,,,,,,,,,,,,,,,,,,,,,,,,,,,,,,
6465b69943b54eae57efcb10,2023-11-24_14h35.36.539,kallum_motion_pilot,2023.1.2,Win32,60.06727535,6465b69943b54eae57efcb10,656018846682f3df8008bb8f,656019cbddf0c9decedc71c2,2,24,348,7,1,fourthree,,,,,,,,,,,,,,,,,,,,,,,,,,,,,,,,,,,,,,,,,,,,,,,,,,,,,,,,,,,,,,,,,,,,,,,,,,,,,,,,,,,,,
6465b69943b54eae57efcb10,2023-11-24_14h35.36.539,kallum_motion_pilot,2023.1.2,Win32,60.06727535,6465b69943b54eae57efcb10,656018846682f3df8008bb8f,656019cbddf0c9decedc71c2,2,25,349,99,1,sixeight,,,,,,,,,,,,,,,,,,,,,,,,,,,,,,,,,,,,,,,,,,,,,,,,,,,,,,,,,,,,,,,,,,,,,,,,,,,,,,,,,,,,,
