Prolific_ID*,date,expName,psychopyVersion,OS,frameRate,PROLIFIC_PID,STUDY_ID,SESSION_ID,hardcoded_stimulus_positions.thisRepN,hardcoded_stimulus_positions.thisTrialN,hardcoded_stimulus_positions.thisN,hardcoded_stimulus_positions.thisIndex,hardcoded_stimulus_positions.ran,StimulusPos,prac_stimorientation_import_loop.thisRepN,prac_stimorientation_import_loop.thisTrialN,prac_stimorientation_import_loop.thisN,prac_stimorientation_import_loop.thisIndex,prac_stimorientation_import_loop.ran,Stimorientation,key_resp.keys,key_resp.rt,key_resp_20.keys,key_resp_20.rt,key_resp_19.keys,key_resp_19.rt,key_resp_15.keys,key_resp_15.rt,key_resp_9.keys,key_resp_9.rt,key_resp_10.keys,key_resp_10.rt,Ecc,Circle1_ori,Circle2_ori,similarity,response_time,mouse_5.x,mouse_5.y,mouse_5.leftButton,mouse_5.midButton,mouse_5.rightButton,mouse_5.clicked_name,mouse_6.x,mouse_6.y,mouse_6.leftButton,mouse_6.midButton,mouse_6.rightButton,mouse_6.clicked_name,duringprac.thisRepN,duringprac.thisTrialN,duringprac.thisN,duringprac.thisIndex,duringprac.ran,key_resp_22.keys,key_resp_22.rt,circle1_ori,circle2_ori,mouse.x,mouse.y,mouse.leftButton,mouse.midButton,mouse.rightButton,mouse.clicked_name,mouse_2.x,mouse_2.y,mouse_2.leftButton,mouse_2.midButton,mouse_2.rightButton,mouse_2.clicked_name,mouse_3.x,mouse_3.y,mouse_3.leftButton,mouse_3.midButton,mouse_3.rightButton,catchresponse,catchnumber,response_time_catch,Catch,mouse_11.x,mouse_11.y,mouse_11.leftButton,mouse_11.midButton,mouse_11.rightButton,main_trial.thisRepN,main_trial.thisTrialN,main_trial.thisN,main_trial.thisIndex,main_trial.ran,Orientationtrialno,xcircle1_ori,xcircle2_ori,double_pass.thisRepN,double_pass.thisTrialN,double_pass.thisN,double_pass.thisIndex,double_pass.ran,key_resp_3.keys,key_resp_3.rt
6535e36590f9255eb268a893,2023-11-23_19h40.35.221,kallum_motion_pilot,2023.1.2,Win32,60.12867537,6535e36590f9255eb268a893,656018846682f3df8008bb8f,65601b205e38d0061becee6f,,,,,,,,,,,,,,,,,,,,,,,,,,,,,,,,,,,,,,,,,,,,,,,,,,,,,,,,,,,,,,,,,,,,,,,,,,,,,,,,,,,,,,,,,,,
6535e36590f9255eb268a893,2023-11-23_19h40.35.221,kallum_motion_pilot,2023.1.2,Win32,60.12867537,6535e36590f9255eb268a893,656018846682f3df8008bb8f,65601b205e38d0061becee6f,0,0,0,40,1,onetwo,,,,,,,,,,,,,,,,,,,,,,,,,,,,,,,,,,,,,,,,,,,,,,,,,,,,,,,,,,,,,,,,,,,,,,,,,,,,,,,,,,,,,
6535e36590f9255eb268a893,2023-11-23_19h40.35.221,kallum_motion_pilot,2023.1.2,Win32,60.12867537,6535e36590f9255eb268a893,656018846682f3df8008bb8f,65601b205e38d0061becee6f,0,1,1,66,1,twoone,,,,,,,,,,,,,,,,,,,,,,,,,,,,,,,,,,,,,,,,,,,,,,,,,,,,,,,,,,,,,,,,,,,,,,,,,,,,,,,,,,,,,
6535e36590f9255eb268a893,2023-11-23_19h40.35.221,kallum_motion_pilot,2023.1.2,Win32,60.12867537,6535e36590f9255eb268a893,656018846682f3df8008bb8f,65601b205e38d0061becee6f,0,2,2,131,1,sixeight,,,,,,,,,,,,,,,,,,,,,,,,,,,,,,,,,,,,,,,,,,,,,,,,,,,,,,,,,,,,,,,,,,,,,,,,,,,,,,,,,,,,,
6535e36590f9255eb268a893,2023-11-23_19h40.35.221,kallum_motion_pilot,2023.1.2,Win32,60.12867537,6535e36590f9255eb268a893,656018846682f3df8008bb8f,65601b205e38d0061becee6f,0,3,3,105,1,fiveseven,,,,,,,,,,,,,,,,,,,,,,,,,,,,,,,,,,,,,,,,,,,,,,,,,,,,,,,,,,,,,,,,,,,,,,,,,,,,,,,,,,,,,
6535e36590f9255eb268a893,2023-11-23_19h40.35.221,kallum_motion_pilot,2023.1.2,Win32,60.12867537,6535e36590f9255eb268a893,656018846682f3df8008bb8f,65601b205e38d0061becee6f,0,4,4,84,1,sevenfive,,,,,,,,,,,,,,,,,,,,,,,,,,,,,,,,,,,,,,,,,,,,,,,,,,,,,,,,,,,,,,,,,,,,,,,,,,,,,,,,,,,,,
6535e36590f9255eb268a893,2023-11-23_19h40.35.221,kallum_motion_pilot,2023.1.2,Win32,60.12867537,6535e36590f9255eb268a893,656018846682f3df8008bb8f,65601b205e38d0061becee6f,0,5,5,18,1,twoone,,,,,,,,,,,,,,,,,,,,,,,,,,,,,,,,,,,,,,,,,,,,,,,,,,,,,,,,,,,,,,,,,,,,,,,,,,,,,,,,,,,,,
6535e36590f9255eb268a893,2023-11-23_19h40.35.221,kallum_motion_pilot,2023.1.2,Win32,60.12867537,6535e36590f9255eb268a893,656018846682f3df8008bb8f,65601b205e38d0061becee6f,0,6,6,91,1,sixeight,,,,,,,,,,,,,,,,,,,,,,,,,,,,,,,,,,,,,,,,,,,,,,,,,,,,,,,,,,,,,,,,,,,,,,,,,,,,,,,,,,,,,
6535e36590f9255eb268a893,2023-11-23_19h40.35.221,kallum_motion_pilot,2023.1.2,Win32,60.12867537,6535e36590f9255eb268a893,656018846682f3df8008bb8f,65601b205e38d0061becee6f,0,7,7,147,1,sixeight,,,,,,,,,,,,,,,,,,,,,,,,,,,,,,,,,,,,,,,,,,,,,,,,,,,,,,,,,,,,,,,,,,,,,,,,,,,,,,,,,,,,,
6535e36590f9255eb268a893,2023-11-23_19h40.35.221,kallum_motion_pilot,2023.1.2,Win32,60.12867537,6535e36590f9255eb268a893,656018846682f3df8008bb8f,65601b205e38d0061becee6f,0,8,8,149,1,seveneight,,,,,,,,,,,,,,,,,,,,,,,,,,,,,,,,,,,,,,,,,,,,,,,,,,,,,,,,,,,,,,,,,,,,,,,,,,,,,,,,,,,,,
6535e36590f9255eb268a893,2023-11-23_19h40.35.221,kallum_motion_pilot,2023.1.2,Win32,60.12867537,6535e36590f9255eb268a893,656018846682f3df8008bb8f,65601b205e38d0061becee6f,0,9,9,148,1,sevenfive,,,,,,,,,,,,,,,,,,,,,,,,,,,,,,,,,,,,,,,,,,,,,,,,,,,,,,,,,,,,,,,,,,,,,,,,,,,,,,,,,,,,,
6535e36590f9255eb268a893,2023-11-23_19h40.35.221,kallum_motion_pilot,2023.1.2,Win32,60.12867537,6535e36590f9255eb268a893,656018846682f3df8008bb8f,65601b205e38d0061becee6f,0,10,10,153,1,fiveseven,,,,,,,,,,,,,,,,,,,,,,,,,,,,,,,,,,,,,,,,,,,,,,,,,,,,,,,,,,,,,,,,,,,,,,,,,,,,,,,,,,,,,
6535e36590f9255eb268a893,2023-11-23_19h40.35.221,kallum_motion_pilot,2023.1.2,Win32,60.12867537,6535e36590f9255eb268a893,656018846682f3df8008bb8f,65601b205e38d0061becee6f,0,11,11,126,1,eightsix,,,,,,,,,,,,,,,,,,,,,,,,,,,,,,,,,,,,,,,,,,,,,,,,,,,,,,,,,,,,,,,,,,,,,,,,,,,,,,,,,,,,,
6535e36590f9255eb268a893,2023-11-23_19h40.35.221,kallum_motion_pilot,2023.1.2,Win32,60.12867537,6535e36590f9255eb268a893,656018846682f3df8008bb8f,65601b205e38d0061becee6f,0,12,12,152,1,fivesix,,,,,,,,,,,,,,,,,,,,,,,,,,,,,,,,,,,,,,,,,,,,,,,,,,,,,,,,,,,,,,,,,,,,,,,,,,,,,,,,,,,,,
6535e36590f9255eb268a893,2023-11-23_19h40.35.221,kallum_motion_pilot,2023.1.2,Win32,60.12867537,6535e36590f9255eb268a893,656018846682f3df8008bb8f,65601b205e38d0061becee6f,0,13,13,33,1,onethree,,,,,,,,,,,,,,,,,,,,,,,,,,,,,,,,,,,,,,,,,,,,,,,,,,,,,,,,,,,,,,,,,,,,,,,,,,,,,,,,,,,,,
6535e36590f9255eb268a893,2023-11-23_19h40.35.221,kallum_motion_pilot,2023.1.2,Win32,60.12867537,6535e36590f9255eb268a893,656018846682f3df8008bb8f,65601b205e38d0061becee6f,0,14,14,45,1,threefour,,,,,,,,,,,,,,,,,,,,,,,,,,,,,,,,,,,,,,,,,,,,,,,,,,,,,,,,,,,,,,,,,,,,,,,,,,,,,,,,,,,,,
6535e36590f9255eb268a893,2023-11-23_19h40.35.221,kallum_motion_pilot,2023.1.2,Win32,60.12867537,6535e36590f9255eb268a893,656018846682f3df8008bb8f,65601b205e38d0061becee6f,0,15,15,158,1,eightsix,,,,,,,,,,,,,,,,,,,,,,,,,,,,,,,,,,,,,,,,,,,,,,,,,,,,,,,,,,,,,,,,,,,,,,,,,,,,,,,,,,,,,
6535e36590f9255eb268a893,2023-11-23_19h40.35.221,kallum_motion_pilot,2023.1.2,Win32,60.12867537,6535e36590f9255eb268a893,656018846682f3df8008bb8f,65601b205e38d0061becee6f,0,16,16,130,1,sixfive,,,,,,,,,,,,,,,,,,,,,,,,,,,,,,,,,,,,,,,,,,,,,,,,,,,,,,,,,,,,,,,,,,,,,,,,,,,,,,,,,,,,,
6535e36590f9255eb268a893,2023-11-23_19h40.35.221,kallum_motion_pilot,2023.1.2,Win32,60.12867537,6535e36590f9255eb268a893,656018846682f3df8008bb8f,65601b205e38d0061becee6f,0,17,17,90,1,sixfive,,,,,,,,,,,,,,,,,,,,,,,,,,,,,,,,,,,,,,,,,,,,,,,,,,,,,,,,,,,,,,,,,,,,,,,,,,,,,,,,,,,,,
6535e36590f9255eb268a893,2023-11-23_19h40.35.221,kallum_motion_pilot,2023.1.2,Win32,60.12867537,6535e36590f9255eb268a893,656018846682f3df8008bb8f,65601b205e38d0061becee6f,0,18,18,29,1,threefour,,,,,,,,,,,,,,,,,,,,,,,,,,,,,,,,,,,,,,,,,,,,,,,,,,,,,,,,,,,,,,,,,,,,,,,,,,,,,,,,,,,,,
6535e36590f9255eb268a893,2023-11-23_19h40.35.221,kallum_motion_pilot,2023.1.2,Win32,60.12867537,6535e36590f9255eb268a893,656018846682f3df8008bb8f,65601b205e38d0061becee6f,0,19,19,96,1,fivesix,,,,,,,,,,,,,,,,,,,,,,,,,,,,,,,,,,,,,,,,,,,,,,,,,,,,,,,,,,,,,,,,,,,,,,,,,,,,,,,,,,,,,
6535e36590f9255eb268a893,2023-11-23_19h40.35.221,kallum_motion_pilot,2023.1.2,Win32,60.12867537,6535e36590f9255eb268a893,656018846682f3df8008bb8f,65601b205e38d0061becee6f,0,20,20,110,1,eightsix,,,,,,,,,,,,,,,,,,,,,,,,,,,,,,,,,,,,,,,,,,,,,,,,,,,,,,,,,,,,,,,,,,,,,,,,,,,,,,,,,,,,,
6535e36590f9255eb268a893,2023-11-23_19h40.35.221,kallum_motion_pilot,2023.1.2,Win32,60.12867537,6535e36590f9255eb268a893,656018846682f3df8008bb8f,65601b205e38d0061becee6f,0,21,21,92,1,sevenfive,,,,,,,,,,,,,,,,,,,,,,,,,,,,,,,,,,,,,,,,,,,,,,,,,,,,,,,,,,,,,,,,,,,,,,,,,,,,,,,,,,,,,
6535e36590f9255eb268a893,2023-11-23_19h40.35.221,kallum_motion_pilot,2023.1.2,Win32,60.12867537,6535e36590f9255eb268a893,656018846682f3df8008bb8f,65601b205e38d0061becee6f,0,22,22,150,1,eightsix,,,,,,,,,,,,,,,,,,,,,,,,,,,,,,,,,,,,,,,,,,,,,,,,,,,,,,,,,,,,,,,,,,,,,,,,,,,,,,,,,,,,,
6535e36590f9255eb268a893,2023-11-23_19h40.35.221,kallum_motion_pilot,2023.1.2,Win32,60.12867537,6535e36590f9255eb268a893,656018846682f3df8008bb8f,65601b205e38d0061becee6f,0,23,23,116,1,sevenfive,,,,,,,,,,,,,,,,,,,,,,,,,,,,,,,,,,,,,,,,,,,,,,,,,,,,,,,,,,,,,,,,,,,,,,,,,,,,,,,,,,,,,
6535e36590f9255eb268a893,2023-11-23_19h40.35.221,kallum_motion_pilot,2023.1.2,Win32,60.12867537,6535e36590f9255eb268a893,656018846682f3df8008bb8f,65601b205e38d0061becee6f,0,24,24,30,1,fourtwo,,,,,,,,,,,,,,,,,,,,,,,,,,,,,,,,,,,,,,,,,,,,,,,,,,,,,,,,,,,,,,,,,,,,,,,,,,,,,,,,,,,,,
6535e36590f9255eb268a893,2023-11-23_19h40.35.221,kallum_motion_pilot,2023.1.2,Win32,60.12867537,6535e36590f9255eb268a893,656018846682f3df8008bb8f,65601b205e38d0061becee6f,0,25,25,154,1,sixfive,,,,,,,,,,,,,,,,,,,,,,,,,,,,,,,,,,,,,,,,,,,,,,,,,,,,,,,,,,,,,,,,,,,,,,,,,,,,,,,,,,,,,
6535e36590f9255eb268a893,2023-11-23_19h40.35.221,kallum_motion_pilot,2023.1.2,Win32,60.12867537,6535e36590f9255eb268a893,656018846682f3df8008bb8f,65601b205e38d0061becee6f,0,26,26,123,1,sixeight,,,,,,,,,,,,,,,,,,,,,,,,,,,,,,,,,,,,,,,,,,,,,,,,,,,,,,,,,,,,,,,,,,,,,,,,,,,,,,,,,,,,,
6535e36590f9255eb268a893,2023-11-23_19h40.35.221,kallum_motion_pilot,2023.1.2,Win32,60.12867537,6535e36590f9255eb268a893,656018846682f3df8008bb8f,65601b205e38d0061becee6f,0,27,27,14,1,fourtwo,,,,,,,,,,,,,,,,,,,,,,,,,,,,,,,,,,,,,,,,,,,,,,,,,,,,,,,,,,,,,,,,,,,,,,,,,,,,,,,,,,,,,
6535e36590f9255eb268a893,2023-11-23_19h40.35.221,kallum_motion_pilot,2023.1.2,Win32,60.12867537,6535e36590f9255eb268a893,656018846682f3df8008bb8f,65601b205e38d0061becee6f,0,28,28,19,1,twofour,,,,,,,,,,,,,,,,,,,,,,,,,,,,,,,,,,,,,,,,,,,,,,,,,,,,,,,,,,,,,,,,,,,,,,,,,,,,,,,,,,,,,
6535e36590f9255eb268a893,2023-11-23_19h40.35.221,kallum_motion_pilot,2023.1.2,Win32,60.12867537,6535e36590f9255eb268a893,656018846682f3df8008bb8f,65601b205e38d0061becee6f,0,29,29,75,1,twofour,,,,,,,,,,,,,,,,,,,,,,,,,,,,,,,,,,,,,,,,,,,,,,,,,,,,,,,,,,,,,,,,,,,,,,,,,,,,,,,,,,,,,
6535e36590f9255eb268a893,2023-11-23_19h40.35.221,kallum_motion_pilot,2023.1.2,Win32,60.12867537,6535e36590f9255eb268a893,656018846682f3df8008bb8f,65601b205e38d0061becee6f,0,30,30,159,1,eightseven,,,,,,,,,,,,,,,,,,,,,,,,,,,,,,,,,,,,,,,,,,,,,,,,,,,,,,,,,,,,,,,,,,,,,,,,,,,,,,,,,,,,,
6535e36590f9255eb268a893,2023-11-23_19h40.35.221,kallum_motion_pilot,2023.1.2,Win32,60.12867537,6535e36590f9255eb268a893,656018846682f3df8008bb8f,65601b205e38d0061becee6f,0,31,31,48,1,onetwo,,,,,,,,,,,,,,,,,,,,,,,,,,,,,,,,,,,,,,,,,,,,,,,,,,,,,,,,,,,,,,,,,,,,,,,,,,,,,,,,,,,,,
6535e36590f9255eb268a893,2023-11-23_19h40.35.221,kallum_motion_pilot,2023.1.2,Win32,60.12867537,6535e36590f9255eb268a893,656018846682f3df8008bb8f,65601b205e38d0061becee6f,0,32,32,89,1,fiveseven,,,,,,,,,,,,,,,,,,,,,,,,,,,,,,,,,,,,,,,,,,,,,,,,,,,,,,,,,,,,,,,,,,,,,,,,,,,,,,,,,,,,,
6535e36590f9255eb268a893,2023-11-23_19h40.35.221,kallum_motion_pilot,2023.1.2,Win32,60.12867537,6535e36590f9255eb268a893,656018846682f3df8008bb8f,65601b205e38d0061becee6f,0,33,33,37,1,threefour,,,,,,,,,,,,,,,,,,,,,,,,,,,,,,,,,,,,,,,,,,,,,,,,,,,,,,,,,,,,,,,,,,,,,,,,,,,,,,,,,,,,,
6535e36590f9255eb268a893,2023-11-23_19h40.35.221,kallum_motion_pilot,2023.1.2,Win32,60.12867537,6535e36590f9255eb268a893,656018846682f3df8008bb8f,65601b205e38d0061becee6f,0,34,34,57,1,onethree,,,,,,,,,,,,,,,,,,,,,,,,,,,,,,,,,,,,,,,,,,,,,,,,,,,,,,,,,,,,,,,,,,,,,,,,,,,,,,,,,,,,,
6535e36590f9255eb268a893,2023-11-23_19h40.35.221,kallum_motion_pilot,2023.1.2,Win32,60.12867537,6535e36590f9255eb268a893,656018846682f3df8008bb8f,65601b205e38d0061becee6f,0,35,35,129,1,fiveseven,,,,,,,,,,,,,,,,,,,,,,,,,,,,,,,,,,,,,,,,,,,,,,,,,,,,,,,,,,,,,,,,,,,,,,,,,,,,,,,,,,,,,
6535e36590f9255eb268a893,2023-11-23_19h40.35.221,kallum_motion_pilot,2023.1.2,Win32,60.12867537,6535e36590f9255eb268a893,656018846682f3df8008bb8f,65601b205e38d0061becee6f,0,36,36,50,1,twoone,,,,,,,,,,,,,,,,,,,,,,,,,,,,,,,,,,,,,,,,,,,,,,,,,,,,,,,,,,,,,,,,,,,,,,,,,,,,,,,,,,,,,
6535e36590f9255eb268a893,2023-11-23_19h40.35.221,kallum_motion_pilot,2023.1.2,Win32,60.12867537,6535e36590f9255eb268a893,656018846682f3df8008bb8f,65601b205e38d0061becee6f,0,37,37,128,1,fivesix,,,,,,,,,,,,,,,,,,,,,,,,,,,,,,,,,,,,,,,,,,,,,,,,,,,,,,,,,,,,,,,,,,,,,,,,,,,,,,,,,,,,,
6535e36590f9255eb268a893,2023-11-23_19h40.35.221,kallum_motion_pilot,2023.1.2,Win32,60.12867537,6535e36590f9255eb268a893,656018846682f3df8008bb8f,65601b205e38d0061becee6f,0,38,38,118,1,eightsix,,,,,,,,,,,,,,,,,,,,,,,,,,,,,,,,,,,,,,,,,,,,,,,,,,,,,,,,,,,,,,,,,,,,,,,,,,,,,,,,,,,,,
6535e36590f9255eb268a893,2023-11-23_19h40.35.221,kallum_motion_pilot,2023.1.2,Win32,60.12867537,6535e36590f9255eb268a893,656018846682f3df8008bb8f,65601b205e38d0061becee6f,0,39,39,60,1,threeone,,,,,,,,,,,,,,,,,,,,,,,,,,,,,,,,,,,,,,,,,,,,,,,,,,,,,,,,,,,,,,,,,,,,,,,,,,,,,,,,,,,,,
6535e36590f9255eb268a893,2023-11-23_19h40.35.221,kallum_motion_pilot,2023.1.2,Win32,60.12867537,6535e36590f9255eb268a893,656018846682f3df8008bb8f,65601b205e38d0061becee6f,0,40,40,11,1,twofour,,,,,,,,,,,,,,,,,,,,,,,,,,,,,,,,,,,,,,,,,,,,,,,,,,,,,,,,,,,,,,,,,,,,,,,,,,,,,,,,,,,,,
6535e36590f9255eb268a893,2023-11-23_19h40.35.221,kallum_motion_pilot,2023.1.2,Win32,60.12867537,6535e36590f9255eb268a893,656018846682f3df8008bb8f,65601b205e38d0061becee6f,0,41,41,21,1,threefour,,,,,,,,,,,,,,,,,,,,,,,,,,,,,,,,,,,,,,,,,,,,,,,,,,,,,,,,,,,,,,,,,,,,,,,,,,,,,,,,,,,,,
6535e36590f9255eb268a893,2023-11-23_19h40.35.221,kallum_motion_pilot,2023.1.2,Win32,60.12867537,6535e36590f9255eb268a893,656018846682f3df8008bb8f,65601b205e38d0061becee6f,0,42,42,63,1,fourthree,,,,,,,,,,,,,,,,,,,,,,,,,,,,,,,,,,,,,,,,,,,,,,,,,,,,,,,,,,,,,,,,,,,,,,,,,,,,,,,,,,,,,
6535e36590f9255eb268a893,2023-11-23_19h40.35.221,kallum_motion_pilot,2023.1.2,Win32,60.12867537,6535e36590f9255eb268a893,656018846682f3df8008bb8f,65601b205e38d0061becee6f,0,43,43,93,1,seveneight,,,,,,,,,,,,,,,,,,,,,,,,,,,,,,,,,,,,,,,,,,,,,,,,,,,,,,,,,,,,,,,,,,,,,,,,,,,,,,,,,,,,,
6535e36590f9255eb268a893,2023-11-23_19h40.35.221,kallum_motion_pilot,2023.1.2,Win32,60.12867537,6535e36590f9255eb268a893,656018846682f3df8008bb8f,65601b205e38d0061becee6f,0,44,44,101,1,seveneight,,,,,,,,,,,,,,,,,,,,,,,,,,,,,,,,,,,,,,,,,,,,,,,,,,,,,,,,,,,,,,,,,,,,,,,,,,,,,,,,,,,,,
6535e36590f9255eb268a893,2023-11-23_19h40.35.221,kallum_motion_pilot,2023.1.2,Win32,60.12867537,6535e36590f9255eb268a893,656018846682f3df8008bb8f,65601b205e38d0061becee6f,0,45,45,108,1,sevenfive,,,,,,,,,,,,,,,,,,,,,,,,,,,,,,,,,,,,,,,,,,,,,,,,,,,,,,,,,,,,,,,,,,,,,,,,,,,,,,,,,,,,,
6535e36590f9255eb268a893,2023-11-23_19h40.35.221,kallum_motion_pilot,2023.1.2,Win32,60.12867537,6535e36590f9255eb268a893,656018846682f3df8008bb8f,65601b205e38d0061becee6f,0,46,46,111,1,eightseven,,,,,,,,,,,,,,,,,,,,,,,,,,,,,,,,,,,,,,,,,,,,,,,,,,,,,,,,,,,,,,,,,,,,,,,,,,,,,,,,,,,,,
6535e36590f9255eb268a893,2023-11-23_19h40.35.221,kallum_motion_pilot,2023.1.2,Win32,60.12867537,6535e36590f9255eb268a893,656018846682f3df8008bb8f,65601b205e38d0061becee6f,0,47,47,155,1,sixeight,,,,,,,,,,,,,,,,,,,,,,,,,,,,,,,,,,,,,,,,,,,,,,,,,,,,,,,,,,,,,,,,,,,,,,,,,,,,,,,,,,,,,
6535e36590f9255eb268a893,2023-11-23_19h40.35.221,kallum_motion_pilot,2023.1.2,Win32,60.12867537,6535e36590f9255eb268a893,656018846682f3df8008bb8f,65601b205e38d0061becee6f,0,48,48,13,1,threefour,,,,,,,,,,,,,,,,,,,,,,,,,,,,,,,,,,,,,,,,,,,,,,,,,,,,,,,,,,,,,,,,,,,,,,,,,,,,,,,,,,,,,
6535e36590f9255eb268a893,2023-11-23_19h40.35.221,kallum_motion_pilot,2023.1.2,Win32,60.12867537,6535e36590f9255eb268a893,656018846682f3df8008bb8f,65601b205e38d0061becee6f,0,49,49,127,1,eightseven,,,,,,,,,,,,,,,,,,,,,,,,,,,,,,,,,,,,,,,,,,,,,,,,,,,,,,,,,,,,,,,,,,,,,,,,,,,,,,,,,,,,,
6535e36590f9255eb268a893,2023-11-23_19h40.35.221,kallum_motion_pilot,2023.1.2,Win32,60.12867537,6535e36590f9255eb268a893,656018846682f3df8008bb8f,65601b205e38d0061becee6f,0,50,50,107,1,sixeight,,,,,,,,,,,,,,,,,,,,,,,,,,,,,,,,,,,,,,,,,,,,,,,,,,,,,,,,,,,,,,,,,,,,,,,,,,,,,,,,,,,,,
6535e36590f9255eb268a893,2023-11-23_19h40.35.221,kallum_motion_pilot,2023.1.2,Win32,60.12867537,6535e36590f9255eb268a893,656018846682f3df8008bb8f,65601b205e38d0061becee6f,0,51,51,136,1,fivesix,,,,,,,,,,,,,,,,,,,,,,,,,,,,,,,,,,,,,,,,,,,,,,,,,,,,,,,,,,,,,,,,,,,,,,,,,,,,,,,,,,,,,
6535e36590f9255eb268a893,2023-11-23_19h40.35.221,kallum_motion_pilot,2023.1.2,Win32,60.12867537,6535e36590f9255eb268a893,656018846682f3df8008bb8f,65601b205e38d0061becee6f,0,52,52,26,1,twoone,,,,,,,,,,,,,,,,,,,,,,,,,,,,,,,,,,,,,,,,,,,,,,,,,,,,,,,,,,,,,,,,,,,,,,,,,,,,,,,,,,,,,
6535e36590f9255eb268a893,2023-11-23_19h40.35.221,kallum_motion_pilot,2023.1.2,Win32,60.12867537,6535e36590f9255eb268a893,656018846682f3df8008bb8f,65601b205e38d0061becee6f,0,53,53,49,1,onethree,,,,,,,,,,,,,,,,,,,,,,,,,,,,,,,,,,,,,,,,,,,,,,,,,,,,,,,,,,,,,,,,,,,,,,,,,,,,,,,,,,,,,
6535e36590f9255eb268a893,2023-11-23_19h40.35.221,kallum_motion_pilot,2023.1.2,Win32,60.12867537,6535e36590f9255eb268a893,656018846682f3df8008bb8f,65601b205e38d0061becee6f,0,54,54,113,1,fiveseven,,,,,,,,,,,,,,,,,,,,,,,,,,,,,,,,,,,,,,,,,,,,,,,,,,,,,,,,,,,,,,,,,,,,,,,,,,,,,,,,,,,,,
6535e36590f9255eb268a893,2023-11-23_19h40.35.221,kallum_motion_pilot,2023.1.2,Win32,60.12867537,6535e36590f9255eb268a893,656018846682f3df8008bb8f,65601b205e38d0061becee6f,0,55,55,79,1,eightseven,,,,,,,,,,,,,,,,,,,,,,,,,,,,,,,,,,,,,,,,,,,,,,,,,,,,,,,,,,,,,,,,,,,,,,,,,,,,,,,,,,,,,
6535e36590f9255eb268a893,2023-11-23_19h40.35.221,kallum_motion_pilot,2023.1.2,Win32,60.12867537,6535e36590f9255eb268a893,656018846682f3df8008bb8f,65601b205e38d0061becee6f,0,56,56,95,1,eightseven,,,,,,,,,,,,,,,,,,,,,,,,,,,,,,,,,,,,,,,,,,,,,,,,,,,,,,,,,,,,,,,,,,,,,,,,,,,,,,,,,,,,,
6535e36590f9255eb268a893,2023-11-23_19h40.35.221,kallum_motion_pilot,2023.1.2,Win32,60.12867537,6535e36590f9255eb268a893,656018846682f3df8008bb8f,65601b205e38d0061becee6f,0,57,57,51,1,twofour,,,,,,,,,,,,,,,,,,,,,,,,,,,,,,,,,,,,,,,,,,,,,,,,,,,,,,,,,,,,,,,,,,,,,,,,,,,,,,,,,,,,,
6535e36590f9255eb268a893,2023-11-23_19h40.35.221,kallum_motion_pilot,2023.1.2,Win32,60.12867537,6535e36590f9255eb268a893,656018846682f3df8008bb8f,65601b205e38d0061becee6f,0,58,58,3,1,twofour,,,,,,,,,,,,,,,,,,,,,,,,,,,,,,,,,,,,,,,,,,,,,,,,,,,,,,,,,,,,,,,,,,,,,,,,,,,,,,,,,,,,,
6535e36590f9255eb268a893,2023-11-23_19h40.35.221,kallum_motion_pilot,2023.1.2,Win32,60.12867537,6535e36590f9255eb268a893,656018846682f3df8008bb8f,65601b205e38d0061becee6f,0,59,59,10,1,twoone,,,,,,,,,,,,,,,,,,,,,,,,,,,,,,,,,,,,,,,,,,,,,,,,,,,,,,,,,,,,,,,,,,,,,,,,,,,,,,,,,,,,,
6535e36590f9255eb268a893,2023-11-23_19h40.35.221,kallum_motion_pilot,2023.1.2,Win32,60.12867537,6535e36590f9255eb268a893,656018846682f3df8008bb8f,65601b205e38d0061becee6f,0,60,60,58,1,twoone,,,,,,,,,,,,,,,,,,,,,,,,,,,,,,,,,,,,,,,,,,,,,,,,,,,,,,,,,,,,,,,,,,,,,,,,,,,,,,,,,,,,,
6535e36590f9255eb268a893,2023-11-23_19h40.35.221,kallum_motion_pilot,2023.1.2,Win32,60.12867537,6535e36590f9255eb268a893,656018846682f3df8008bb8f,65601b205e38d0061becee6f,0,61,61,7,1,fourthree,,,,,,,,,,,,,,,,,,,,,,,,,,,,,,,,,,,,,,,,,,,,,,,,,,,,,,,,,,,,,,,,,,,,,,,,,,,,,,,,,,,,,
6535e36590f9255eb268a893,2023-11-23_19h40.35.221,kallum_motion_pilot,2023.1.2,Win32,60.12867537,6535e36590f9255eb268a893,656018846682f3df8008bb8f,65601b205e38d0061becee6f,0,62,62,146,1,sixfive,,,,,,,,,,,,,,,,,,,,,,,,,,,,,,,,,,,,,,,,,,,,,,,,,,,,,,,,,,,,,,,,,,,,,,,,,,,,,,,,,,,,,
6535e36590f9255eb268a893,2023-11-23_19h40.35.221,kallum_motion_pilot,2023.1.2,Win32,60.12867537,6535e36590f9255eb268a893,656018846682f3df8008bb8f,65601b205e38d0061becee6f,0,63,63,112,1,fivesix,,,,,,,,,,,,,,,,,,,,,,,,,,,,,,,,,,,,,,,,,,,,,,,,,,,,,,,,,,,,,,,,,,,,,,,,,,,,,,,,,,,,,
6535e36590f9255eb268a893,2023-11-23_19h40.35.221,kallum_motion_pilot,2023.1.2,Win32,60.12867537,6535e36590f9255eb268a893,656018846682f3df8008bb8f,65601b205e38d0061becee6f,0,64,64,6,1,fourtwo,,,,,,,,,,,,,,,,,,,,,,,,,,,,,,,,,,,,,,,,,,,,,,,,,,,,,,,,,,,,,,,,,,,,,,,,,,,,,,,,,,,,,
6535e36590f9255eb268a893,2023-11-23_19h40.35.221,kallum_motion_pilot,2023.1.2,Win32,60.12867537,6535e36590f9255eb268a893,656018846682f3df8008bb8f,65601b205e38d0061becee6f,0,65,65,47,1,fourthree,,,,,,,,,,,,,,,,,,,,,,,,,,,,,,,,,,,,,,,,,,,,,,,,,,,,,,,,,,,,,,,,,,,,,,,,,,,,,,,,,,,,,
6535e36590f9255eb268a893,2023-11-23_19h40.35.221,kallum_motion_pilot,2023.1.2,Win32,60.12867537,6535e36590f9255eb268a893,656018846682f3df8008bb8f,65601b205e38d0061becee6f,0,66,66,157,1,seveneight,,,,,,,,,,,,,,,,,,,,,,,,,,,,,,,,,,,,,,,,,,,,,,,,,,,,,,,,,,,,,,,,,,,,,,,,,,,,,,,,,,,,,
6535e36590f9255eb268a893,2023-11-23_19h40.35.221,kallum_motion_pilot,2023.1.2,Win32,60.12867537,6535e36590f9255eb268a893,656018846682f3df8008bb8f,65601b205e38d0061becee6f,0,67,67,142,1,eightsix,,,,,,,,,,,,,,,,,,,,,,,,,,,,,,,,,,,,,,,,,,,,,,,,,,,,,,,,,,,,,,,,,,,,,,,,,,,,,,,,,,,,,
6535e36590f9255eb268a893,2023-11-23_19h40.35.221,kallum_motion_pilot,2023.1.2,Win32,60.12867537,6535e36590f9255eb268a893,656018846682f3df8008bb8f,65601b205e38d0061becee6f,0,68,68,103,1,eightseven,,,,,,,,,,,,,,,,,,,,,,,,,,,,,,,,,,,,,,,,,,,,,,,,,,,,,,,,,,,,,,,,,,,,,,,,,,,,,,,,,,,,,
6535e36590f9255eb268a893,2023-11-23_19h40.35.221,kallum_motion_pilot,2023.1.2,Win32,60.12867537,6535e36590f9255eb268a893,656018846682f3df8008bb8f,65601b205e38d0061becee6f,0,69,69,8,1,onetwo,,,,,,,,,,,,,,,,,,,,,,,,,,,,,,,,,,,,,,,,,,,,,,,,,,,,,,,,,,,,,,,,,,,,,,,,,,,,,,,,,,,,,
6535e36590f9255eb268a893,2023-11-23_19h40.35.221,kallum_motion_pilot,2023.1.2,Win32,60.12867537,6535e36590f9255eb268a893,656018846682f3df8008bb8f,65601b205e38d0061becee6f,0,70,70,34,1,twoone,,,,,,,,,,,,,,,,,,,,,,,,,,,,,,,,,,,,,,,,,,,,,,,,,,,,,,,,,,,,,,,,,,,,,,,,,,,,,,,,,,,,,
6535e36590f9255eb268a893,2023-11-23_19h40.35.221,kallum_motion_pilot,2023.1.2,Win32,60.12867537,6535e36590f9255eb268a893,656018846682f3df8008bb8f,65601b205e38d0061becee6f,0,71,71,124,1,sevenfive,,,,,,,,,,,,,,,,,,,,,,,,,,,,,,,,,,,,,,,,,,,,,,,,,,,,,,,,,,,,,,,,,,,,,,,,,,,,,,,,,,,,,
6535e36590f9255eb268a893,2023-11-23_19h40.35.221,kallum_motion_pilot,2023.1.2,Win32,60.12867537,6535e36590f9255eb268a893,656018846682f3df8008bb8f,65601b205e38d0061becee6f,0,72,72,134,1,eightsix,,,,,,,,,,,,,,,,,,,,,,,,,,,,,,,,,,,,,,,,,,,,,,,,,,,,,,,,,,,,,,,,,,,,,,,,,,,,,,,,,,,,,
6535e36590f9255eb268a893,2023-11-23_19h40.35.221,kallum_motion_pilot,2023.1.2,Win32,60.12867537,6535e36590f9255eb268a893,656018846682f3df8008bb8f,65601b205e38d0061becee6f,0,73,73,80,1,fivesix,,,,,,,,,,,,,,,,,,,,,,,,,,,,,,,,,,,,,,,,,,,,,,,,,,,,,,,,,,,,,,,,,,,,,,,,,,,,,,,,,,,,,
6535e36590f9255eb268a893,2023-11-23_19h40.35.221,kallum_motion_pilot,2023.1.2,Win32,60.12867537,6535e36590f9255eb268a893,656018846682f3df8008bb8f,65601b205e38d0061becee6f,0,74,74,138,1,sixfive,,,,,,,,,,,,,,,,,,,,,,,,,,,,,,,,,,,,,,,,,,,,,,,,,,,,,,,,,,,,,,,,,,,,,,,,,,,,,,,,,,,,,
6535e36590f9255eb268a893,2023-11-23_19h40.35.221,kallum_motion_pilot,2023.1.2,Win32,60.12867537,6535e36590f9255eb268a893,656018846682f3df8008bb8f,65601b205e38d0061becee6f,0,75,75,61,1,threefour,,,,,,,,,,,,,,,,,,,,,,,,,,,,,,,,,,,,,,,,,,,,,,,,,,,,,,,,,,,,,,,,,,,,,,,,,,,,,,,,,,,,,
6535e36590f9255eb268a893,2023-11-23_19h40.35.221,kallum_motion_pilot,2023.1.2,Win32,60.12867537,6535e36590f9255eb268a893,656018846682f3df8008bb8f,65601b205e38d0061becee6f,0,76,76,71,1,fourthree,,,,,,,,,,,,,,,,,,,,,,,,,,,,,,,,,,,,,,,,,,,,,,,,,,,,,,,,,,,,,,,,,,,,,,,,,,,,,,,,,,,,,
6535e36590f9255eb268a893,2023-11-23_19h40.35.221,kallum_motion_pilot,2023.1.2,Win32,60.12867537,6535e36590f9255eb268a893,656018846682f3df8008bb8f,65601b205e38d0061becee6f,0,77,77,43,1,twofour,,,,,,,,,,,,,,,,,,,,,,,,,,,,,,,,,,,,,,,,,,,,,,,,,,,,,,,,,,,,,,,,,,,,,,,,,,,,,,,,,,,,,
6535e36590f9255eb268a893,2023-11-23_19h40.35.221,kallum_motion_pilot,2023.1.2,Win32,60.12867537,6535e36590f9255eb268a893,656018846682f3df8008bb8f,65601b205e38d0061becee6f,0,78,78,83,1,sixeight,,,,,,,,,,,,,,,,,,,,,,,,,,,,,,,,,,,,,,,,,,,,,,,,,,,,,,,,,,,,,,,,,,,,,,,,,,,,,,,,,,,,,
6535e36590f9255eb268a893,2023-11-23_19h40.35.221,kallum_motion_pilot,2023.1.2,Win32,60.12867537,6535e36590f9255eb268a893,656018846682f3df8008bb8f,65601b205e38d0061becee6f,0,79,79,77,1,threefour,,,,,,,,,,,,,,,,,,,,,,,,,,,,,,,,,,,,,,,,,,,,,,,,,,,,,,,,,,,,,,,,,,,,,,,,,,,,,,,,,,,,,
6535e36590f9255eb268a893,2023-11-23_19h40.35.221,kallum_motion_pilot,2023.1.2,Win32,60.12867537,6535e36590f9255eb268a893,656018846682f3df8008bb8f,65601b205e38d0061becee6f,0,80,80,46,1,fourtwo,,,,,,,,,,,,,,,,,,,,,,,,,,,,,,,,,,,,,,,,,,,,,,,,,,,,,,,,,,,,,,,,,,,,,,,,,,,,,,,,,,,,,
6535e36590f9255eb268a893,2023-11-23_19h40.35.221,kallum_motion_pilot,2023.1.2,Win32,60.12867537,6535e36590f9255eb268a893,656018846682f3df8008bb8f,65601b205e38d0061becee6f,0,81,81,16,1,onetwo,,,,,,,,,,,,,,,,,,,,,,,,,,,,,,,,,,,,,,,,,,,,,,,,,,,,,,,,,,,,,,,,,,,,,,,,,,,,,,,,,,,,,
6535e36590f9255eb268a893,2023-11-23_19h40.35.221,kallum_motion_pilot,2023.1.2,Win32,60.12867537,6535e36590f9255eb268a893,656018846682f3df8008bb8f,65601b205e38d0061becee6f,0,82,82,100,1,sevenfive,,,,,,,,,,,,,,,,,,,,,,,,,,,,,,,,,,,,,,,,,,,,,,,,,,,,,,,,,,,,,,,,,,,,,,,,,,,,,,,,,,,,,
6535e36590f9255eb268a893,2023-11-23_19h40.35.221,kallum_motion_pilot,2023.1.2,Win32,60.12867537,6535e36590f9255eb268a893,656018846682f3df8008bb8f,65601b205e38d0061becee6f,0,83,83,87,1,eightseven,,,,,,,,,,,,,,,,,,,,,,,,,,,,,,,,,,,,,,,,,,,,,,,,,,,,,,,,,,,,,,,,,,,,,,,,,,,,,,,,,,,,,
6535e36590f9255eb268a893,2023-11-23_19h40.35.221,kallum_motion_pilot,2023.1.2,Win32,60.12867537,6535e36590f9255eb268a893,656018846682f3df8008bb8f,65601b205e38d0061becee6f,0,84,84,62,1,fourtwo,,,,,,,,,,,,,,,,,,,,,,,,,,,,,,,,,,,,,,,,,,,,,,,,,,,,,,,,,,,,,,,,,,,,,,,,,,,,,,,,,,,,,
6535e36590f9255eb268a893,2023-11-23_19h40.35.221,kallum_motion_pilot,2023.1.2,Win32,60.12867537,6535e36590f9255eb268a893,656018846682f3df8008bb8f,65601b205e38d0061becee6f,0,85,85,106,1,sixfive,,,,,,,,,,,,,,,,,,,,,,,,,,,,,,,,,,,,,,,,,,,,,,,,,,,,,,,,,,,,,,,,,,,,,,,,,,,,,,,,,,,,,
6535e36590f9255eb268a893,2023-11-23_19h40.35.221,kallum_motion_pilot,2023.1.2,Win32,60.12867537,6535e36590f9255eb268a893,656018846682f3df8008bb8f,65601b205e38d0061becee6f,0,86,86,4,1,threeone,,,,,,,,,,,,,,,,,,,,,,,,,,,,,,,,,,,,,,,,,,,,,,,,,,,,,,,,,,,,,,,,,,,,,,,,,,,,,,,,,,,,,
6535e36590f9255eb268a893,2023-11-23_19h40.35.221,kallum_motion_pilot,2023.1.2,Win32,60.12867537,6535e36590f9255eb268a893,656018846682f3df8008bb8f,65601b205e38d0061becee6f,0,87,87,156,1,sevenfive,,,,,,,,,,,,,,,,,,,,,,,,,,,,,,,,,,,,,,,,,,,,,,,,,,,,,,,,,,,,,,,,,,,,,,,,,,,,,,,,,,,,,
6535e36590f9255eb268a893,2023-11-23_19h40.35.221,kallum_motion_pilot,2023.1.2,Win32,60.12867537,6535e36590f9255eb268a893,656018846682f3df8008bb8f,65601b205e38d0061becee6f,0,88,88,1,1,onethree,,,,,,,,,,,,,,,,,,,,,,,,,,,,,,,,,,,,,,,,,,,,,,,,,,,,,,,,,,,,,,,,,,,,,,,,,,,,,,,,,,,,,
6535e36590f9255eb268a893,2023-11-23_19h40.35.221,kallum_motion_pilot,2023.1.2,Win32,60.12867537,6535e36590f9255eb268a893,656018846682f3df8008bb8f,65601b205e38d0061becee6f,0,89,89,44,1,threeone,,,,,,,,,,,,,,,,,,,,,,,,,,,,,,,,,,,,,,,,,,,,,,,,,,,,,,,,,,,,,,,,,,,,,,,,,,,,,,,,,,,,,
6535e36590f9255eb268a893,2023-11-23_19h40.35.221,kallum_motion_pilot,2023.1.2,Win32,60.12867537,6535e36590f9255eb268a893,656018846682f3df8008bb8f,65601b205e38d0061becee6f,0,90,90,117,1,seveneight,,,,,,,,,,,,,,,,,,,,,,,,,,,,,,,,,,,,,,,,,,,,,,,,,,,,,,,,,,,,,,,,,,,,,,,,,,,,,,,,,,,,,
6535e36590f9255eb268a893,2023-11-23_19h40.35.221,kallum_motion_pilot,2023.1.2,Win32,60.12867537,6535e36590f9255eb268a893,656018846682f3df8008bb8f,65601b205e38d0061becee6f,0,91,91,74,1,twoone,,,,,,,,,,,,,,,,,,,,,,,,,,,,,,,,,,,,,,,,,,,,,,,,,,,,,,,,,,,,,,,,,,,,,,,,,,,,,,,,,,,,,
6535e36590f9255eb268a893,2023-11-23_19h40.35.221,kallum_motion_pilot,2023.1.2,Win32,60.12867537,6535e36590f9255eb268a893,656018846682f3df8008bb8f,65601b205e38d0061becee6f,0,92,92,114,1,sixfive,,,,,,,,,,,,,,,,,,,,,,,,,,,,,,,,,,,,,,,,,,,,,,,,,,,,,,,,,,,,,,,,,,,,,,,,,,,,,,,,,,,,,
6535e36590f9255eb268a893,2023-11-23_19h40.35.221,kallum_motion_pilot,2023.1.2,Win32,60.12867537,6535e36590f9255eb268a893,656018846682f3df8008bb8f,65601b205e38d0061becee6f,0,93,93,9,1,onethree,,,,,,,,,,,,,,,,,,,,,,,,,,,,,,,,,,,,,,,,,,,,,,,,,,,,,,,,,,,,,,,,,,,,,,,,,,,,,,,,,,,,,
6535e36590f9255eb268a893,2023-11-23_19h40.35.221,kallum_motion_pilot,2023.1.2,Win32,60.12867537,6535e36590f9255eb268a893,656018846682f3df8008bb8f,65601b205e38d0061becee6f,0,94,94,82,1,sixfive,,,,,,,,,,,,,,,,,,,,,,,,,,,,,,,,,,,,,,,,,,,,,,,,,,,,,,,,,,,,,,,,,,,,,,,,,,,,,,,,,,,,,
6535e36590f9255eb268a893,2023-11-23_19h40.35.221,kallum_motion_pilot,2023.1.2,Win32,60.12867537,6535e36590f9255eb268a893,656018846682f3df8008bb8f,65601b205e38d0061becee6f,0,95,95,132,1,sevenfive,,,,,,,,,,,,,,,,,,,,,,,,,,,,,,,,,,,,,,,,,,,,,,,,,,,,,,,,,,,,,,,,,,,,,,,,,,,,,,,,,,,,,
6535e36590f9255eb268a893,2023-11-23_19h40.35.221,kallum_motion_pilot,2023.1.2,Win32,60.12867537,6535e36590f9255eb268a893,656018846682f3df8008bb8f,65601b205e38d0061becee6f,0,96,96,99,1,sixeight,,,,,,,,,,,,,,,,,,,,,,,,,,,,,,,,,,,,,,,,,,,,,,,,,,,,,,,,,,,,,,,,,,,,,,,,,,,,,,,,,,,,,
6535e36590f9255eb268a893,2023-11-23_19h40.35.221,kallum_motion_pilot,2023.1.2,Win32,60.12867537,6535e36590f9255eb268a893,656018846682f3df8008bb8f,65601b205e38d0061becee6f,0,97,97,23,1,fourthree,,,,,,,,,,,,,,,,,,,,,,,,,,,,,,,,,,,,,,,,,,,,,,,,,,,,,,,,,,,,,,,,,,,,,,,,,,,,,,,,,,,,,
6535e36590f9255eb268a893,2023-11-23_19h40.35.221,kallum_motion_pilot,2023.1.2,Win32,60.12867537,6535e36590f9255eb268a893,656018846682f3df8008bb8f,65601b205e38d0061becee6f,0,98,98,64,1,onetwo,,,,,,,,,,,,,,,,,,,,,,,,,,,,,,,,,,,,,,,,,,,,,,,,,,,,,,,,,,,,,,,,,,,,,,,,,,,,,,,,,,,,,
6535e36590f9255eb268a893,2023-11-23_19h40.35.221,kallum_motion_pilot,2023.1.2,Win32,60.12867537,6535e36590f9255eb268a893,656018846682f3df8008bb8f,65601b205e38d0061becee6f,0,99,99,88,1,fivesix,,,,,,,,,,,,,,,,,,,,,,,,,,,,,,,,,,,,,,,,,,,,,,,,,,,,,,,,,,,,,,,,,,,,,,,,,,,,,,,,,,,,,
6535e36590f9255eb268a893,2023-11-23_19h40.35.221,kallum_motion_pilot,2023.1.2,Win32,60.12867537,6535e36590f9255eb268a893,656018846682f3df8008bb8f,65601b205e38d0061becee6f,0,100,100,32,1,onetwo,,,,,,,,,,,,,,,,,,,,,,,,,,,,,,,,,,,,,,,,,,,,,,,,,,,,,,,,,,,,,,,,,,,,,,,,,,,,,,,,,,,,,
6535e36590f9255eb268a893,2023-11-23_19h40.35.221,kallum_motion_pilot,2023.1.2,Win32,60.12867537,6535e36590f9255eb268a893,656018846682f3df8008bb8f,65601b205e38d0061becee6f,0,101,101,55,1,fourthree,,,,,,,,,,,,,,,,,,,,,,,,,,,,,,,,,,,,,,,,,,,,,,,,,,,,,,,,,,,,,,,,,,,,,,,,,,,,,,,,,,,,,
6535e36590f9255eb268a893,2023-11-23_19h40.35.221,kallum_motion_pilot,2023.1.2,Win32,60.12867537,6535e36590f9255eb268a893,656018846682f3df8008bb8f,65601b205e38d0061becee6f,0,102,102,68,1,threeone,,,,,,,,,,,,,,,,,,,,,,,,,,,,,,,,,,,,,,,,,,,,,,,,,,,,,,,,,,,,,,,,,,,,,,,,,,,,,,,,,,,,,
6535e36590f9255eb268a893,2023-11-23_19h40.35.221,kallum_motion_pilot,2023.1.2,Win32,60.12867537,6535e36590f9255eb268a893,656018846682f3df8008bb8f,65601b205e38d0061becee6f,0,103,103,0,1,onetwo,,,,,,,,,,,,,,,,,,,,,,,,,,,,,,,,,,,,,,,,,,,,,,,,,,,,,,,,,,,,,,,,,,,,,,,,,,,,,,,,,,,,,
6535e36590f9255eb268a893,2023-11-23_19h40.35.221,kallum_motion_pilot,2023.1.2,Win32,60.12867537,6535e36590f9255eb268a893,656018846682f3df8008bb8f,65601b205e38d0061becee6f,0,104,104,20,1,threeone,,,,,,,,,,,,,,,,,,,,,,,,,,,,,,,,,,,,,,,,,,,,,,,,,,,,,,,,,,,,,,,,,,,,,,,,,,,,,,,,,,,,,
6535e36590f9255eb268a893,2023-11-23_19h40.35.221,kallum_motion_pilot,2023.1.2,Win32,60.12867537,6535e36590f9255eb268a893,656018846682f3df8008bb8f,65601b205e38d0061becee6f,0,105,105,104,1,fivesix,,,,,,,,,,,,,,,,,,,,,,,,,,,,,,,,,,,,,,,,,,,,,,,,,,,,,,,,,,,,,,,,,,,,,,,,,,,,,,,,,,,,,
6535e36590f9255eb268a893,2023-11-23_19h40.35.221,kallum_motion_pilot,2023.1.2,Win32,60.12867537,6535e36590f9255eb268a893,656018846682f3df8008bb8f,65601b205e38d0061becee6f,0,106,106,28,1,threeone,,,,,,,,,,,,,,,,,,,,,,,,,,,,,,,,,,,,,,,,,,,,,,,,,,,,,,,,,,,,,,,,,,,,,,,,,,,,,,,,,,,,,
6535e36590f9255eb268a893,2023-11-23_19h40.35.221,kallum_motion_pilot,2023.1.2,Win32,60.12867537,6535e36590f9255eb268a893,656018846682f3df8008bb8f,65601b205e38d0061becee6f,0,107,107,31,1,fourthree,,,,,,,,,,,,,,,,,,,,,,,,,,,,,,,,,,,,,,,,,,,,,,,,,,,,,,,,,,,,,,,,,,,,,,,,,,,,,,,,,,,,,
6535e36590f9255eb268a893,2023-11-23_19h40.35.221,kallum_motion_pilot,2023.1.2,Win32,60.12867537,6535e36590f9255eb268a893,656018846682f3df8008bb8f,65601b205e38d0061becee6f,0,108,108,137,1,fiveseven,,,,,,,,,,,,,,,,,,,,,,,,,,,,,,,,,,,,,,,,,,,,,,,,,,,,,,,,,,,,,,,,,,,,,,,,,,,,,,,,,,,,,
6535e36590f9255eb268a893,2023-11-23_19h40.35.221,kallum_motion_pilot,2023.1.2,Win32,60.12867537,6535e36590f9255eb268a893,656018846682f3df8008bb8f,65601b205e38d0061becee6f,0,109,109,41,1,onethree,,,,,,,,,,,,,,,,,,,,,,,,,,,,,,,,,,,,,,,,,,,,,,,,,,,,,,,,,,,,,,,,,,,,,,,,,,,,,,,,,,,,,
6535e36590f9255eb268a893,2023-11-23_19h40.35.221,kallum_motion_pilot,2023.1.2,Win32,60.12867537,6535e36590f9255eb268a893,656018846682f3df8008bb8f,65601b205e38d0061becee6f,0,110,110,24,1,onetwo,,,,,,,,,,,,,,,,,,,,,,,,,,,,,,,,,,,,,,,,,,,,,,,,,,,,,,,,,,,,,,,,,,,,,,,,,,,,,,,,,,,,,
6535e36590f9255eb268a893,2023-11-23_19h40.35.221,kallum_motion_pilot,2023.1.2,Win32,60.12867537,6535e36590f9255eb268a893,656018846682f3df8008bb8f,65601b205e38d0061becee6f,0,111,111,73,1,onethree,,,,,,,,,,,,,,,,,,,,,,,,,,,,,,,,,,,,,,,,,,,,,,,,,,,,,,,,,,,,,,,,,,,,,,,,,,,,,,,,,,,,,
6535e36590f9255eb268a893,2023-11-23_19h40.35.221,kallum_motion_pilot,2023.1.2,Win32,60.12867537,6535e36590f9255eb268a893,656018846682f3df8008bb8f,65601b205e38d0061becee6f,0,112,112,65,1,onethree,,,,,,,,,,,,,,,,,,,,,,,,,,,,,,,,,,,,,,,,,,,,,,,,,,,,,,,,,,,,,,,,,,,,,,,,,,,,,,,,,,,,,
6535e36590f9255eb268a893,2023-11-23_19h40.35.221,kallum_motion_pilot,2023.1.2,Win32,60.12867537,6535e36590f9255eb268a893,656018846682f3df8008bb8f,65601b205e38d0061becee6f,0,113,113,39,1,fourthree,,,,,,,,,,,,,,,,,,,,,,,,,,,,,,,,,,,,,,,,,,,,,,,,,,,,,,,,,,,,,,,,,,,,,,,,,,,,,,,,,,,,,
6535e36590f9255eb268a893,2023-11-23_19h40.35.221,kallum_motion_pilot,2023.1.2,Win32,60.12867537,6535e36590f9255eb268a893,656018846682f3df8008bb8f,65601b205e38d0061becee6f,0,114,114,17,1,onethree,,,,,,,,,,,,,,,,,,,,,,,,,,,,,,,,,,,,,,,,,,,,,,,,,,,,,,,,,,,,,,,,,,,,,,,,,,,,,,,,,,,,,
6535e36590f9255eb268a893,2023-11-23_19h40.35.221,kallum_motion_pilot,2023.1.2,Win32,60.12867537,6535e36590f9255eb268a893,656018846682f3df8008bb8f,65601b205e38d0061becee6f,0,115,115,25,1,onethree,,,,,,,,,,,,,,,,,,,,,,,,,,,,,,,,,,,,,,,,,,,,,,,,,,,,,,,,,,,,,,,,,,,,,,,,,,,,,,,,,,,,,
6535e36590f9255eb268a893,2023-11-23_19h40.35.221,kallum_motion_pilot,2023.1.2,Win32,60.12867537,6535e36590f9255eb268a893,656018846682f3df8008bb8f,65601b205e38d0061becee6f,0,116,116,56,1,onetwo,,,,,,,,,,,,,,,,,,,,,,,,,,,,,,,,,,,,,,,,,,,,,,,,,,,,,,,,,,,,,,,,,,,,,,,,,,,,,,,,,,,,,
6535e36590f9255eb268a893,2023-11-23_19h40.35.221,kallum_motion_pilot,2023.1.2,Win32,60.12867537,6535e36590f9255eb268a893,656018846682f3df8008bb8f,65601b205e38d0061becee6f,0,117,117,69,1,threefour,,,,,,,,,,,,,,,,,,,,,,,,,,,,,,,,,,,,,,,,,,,,,,,,,,,,,,,,,,,,,,,,,,,,,,,,,,,,,,,,,,,,,
6535e36590f9255eb268a893,2023-11-23_19h40.35.221,kallum_motion_pilot,2023.1.2,Win32,60.12867537,6535e36590f9255eb268a893,656018846682f3df8008bb8f,65601b205e38d0061becee6f,0,118,118,140,1,sevenfive,,,,,,,,,,,,,,,,,,,,,,,,,,,,,,,,,,,,,,,,,,,,,,,,,,,,,,,,,,,,,,,,,,,,,,,,,,,,,,,,,,,,,
6535e36590f9255eb268a893,2023-11-23_19h40.35.221,kallum_motion_pilot,2023.1.2,Win32,60.12867537,6535e36590f9255eb268a893,656018846682f3df8008bb8f,65601b205e38d0061becee6f,0,119,119,161,1,fiveseven,,,,,,,,,,,,,,,,,,,,,,,,,,,,,,,,,,,,,,,,,,,,,,,,,,,,,,,,,,,,,,,,,,,,,,,,,,,,,,,,,,,,,
6535e36590f9255eb268a893,2023-11-23_19h40.35.221,kallum_motion_pilot,2023.1.2,Win32,60.12867537,6535e36590f9255eb268a893,656018846682f3df8008bb8f,65601b205e38d0061becee6f,0,120,120,53,1,threefour,,,,,,,,,,,,,,,,,,,,,,,,,,,,,,,,,,,,,,,,,,,,,,,,,,,,,,,,,,,,,,,,,,,,,,,,,,,,,,,,,,,,,
6535e36590f9255eb268a893,2023-11-23_19h40.35.221,kallum_motion_pilot,2023.1.2,Win32,60.12867537,6535e36590f9255eb268a893,656018846682f3df8008bb8f,65601b205e38d0061becee6f,0,121,121,81,1,fiveseven,,,,,,,,,,,,,,,,,,,,,,,,,,,,,,,,,,,,,,,,,,,,,,,,,,,,,,,,,,,,,,,,,,,,,,,,,,,,,,,,,,,,,
6535e36590f9255eb268a893,2023-11-23_19h40.35.221,kallum_motion_pilot,2023.1.2,Win32,60.12867537,6535e36590f9255eb268a893,656018846682f3df8008bb8f,65601b205e38d0061becee6f,0,122,122,38,1,fourtwo,,,,,,,,,,,,,,,,,,,,,,,,,,,,,,,,,,,,,,,,,,,,,,,,,,,,,,,,,,,,,,,,,,,,,,,,,,,,,,,,,,,,,
6535e36590f9255eb268a893,2023-11-23_19h40.35.221,kallum_motion_pilot,2023.1.2,Win32,60.12867537,6535e36590f9255eb268a893,656018846682f3df8008bb8f,65601b205e38d0061becee6f,0,123,123,15,1,fourthree,,,,,,,,,,,,,,,,,,,,,,,,,,,,,,,,,,,,,,,,,,,,,,,,,,,,,,,,,,,,,,,,,,,,,,,,,,,,,,,,,,,,,
6535e36590f9255eb268a893,2023-11-23_19h40.35.221,kallum_motion_pilot,2023.1.2,Win32,60.12867537,6535e36590f9255eb268a893,656018846682f3df8008bb8f,65601b205e38d0061becee6f,0,124,124,86,1,eightsix,,,,,,,,,,,,,,,,,,,,,,,,,,,,,,,,,,,,,,,,,,,,,,,,,,,,,,,,,,,,,,,,,,,,,,,,,,,,,,,,,,,,,
6535e36590f9255eb268a893,2023-11-23_19h40.35.221,kallum_motion_pilot,2023.1.2,Win32,60.12867537,6535e36590f9255eb268a893,656018846682f3df8008bb8f,65601b205e38d0061becee6f,0,125,125,67,1,twofour,,,,,,,,,,,,,,,,,,,,,,,,,,,,,,,,,,,,,,,,,,,,,,,,,,,,,,,,,,,,,,,,,,,,,,,,,,,,,,,,,,,,,
6535e36590f9255eb268a893,2023-11-23_19h40.35.221,kallum_motion_pilot,2023.1.2,Win32,60.12867537,6535e36590f9255eb268a893,656018846682f3df8008bb8f,65601b205e38d0061becee6f,0,126,126,5,1,threefour,,,,,,,,,,,,,,,,,,,,,,,,,,,,,,,,,,,,,,,,,,,,,,,,,,,,,,,,,,,,,,,,,,,,,,,,,,,,,,,,,,,,,
6535e36590f9255eb268a893,2023-11-23_19h40.35.221,kallum_motion_pilot,2023.1.2,Win32,60.12867537,6535e36590f9255eb268a893,656018846682f3df8008bb8f,65601b205e38d0061becee6f,0,127,127,42,1,twoone,,,,,,,,,,,,,,,,,,,,,,,,,,,,,,,,,,,,,,,,,,,,,,,,,,,,,,,,,,,,,,,,,,,,,,,,,,,,,,,,,,,,,
6535e36590f9255eb268a893,2023-11-23_19h40.35.221,kallum_motion_pilot,2023.1.2,Win32,60.12867537,6535e36590f9255eb268a893,656018846682f3df8008bb8f,65601b205e38d0061becee6f,0,128,128,141,1,seveneight,,,,,,,,,,,,,,,,,,,,,,,,,,,,,,,,,,,,,,,,,,,,,,,,,,,,,,,,,,,,,,,,,,,,,,,,,,,,,,,,,,,,,
6535e36590f9255eb268a893,2023-11-23_19h40.35.221,kallum_motion_pilot,2023.1.2,Win32,60.12867537,6535e36590f9255eb268a893,656018846682f3df8008bb8f,65601b205e38d0061becee6f,0,129,129,119,1,eightseven,,,,,,,,,,,,,,,,,,,,,,,,,,,,,,,,,,,,,,,,,,,,,,,,,,,,,,,,,,,,,,,,,,,,,,,,,,,,,,,,,,,,,
6535e36590f9255eb268a893,2023-11-23_19h40.35.221,kallum_motion_pilot,2023.1.2,Win32,60.12867537,6535e36590f9255eb268a893,656018846682f3df8008bb8f,65601b205e38d0061becee6f,0,130,130,94,1,eightsix,,,,,,,,,,,,,,,,,,,,,,,,,,,,,,,,,,,,,,,,,,,,,,,,,,,,,,,,,,,,,,,,,,,,,,,,,,,,,,,,,,,,,
6535e36590f9255eb268a893,2023-11-23_19h40.35.221,kallum_motion_pilot,2023.1.2,Win32,60.12867537,6535e36590f9255eb268a893,656018846682f3df8008bb8f,65601b205e38d0061becee6f,0,131,131,120,1,fivesix,,,,,,,,,,,,,,,,,,,,,,,,,,,,,,,,,,,,,,,,,,,,,,,,,,,,,,,,,,,,,,,,,,,,,,,,,,,,,,,,,,,,,
6535e36590f9255eb268a893,2023-11-23_19h40.35.221,kallum_motion_pilot,2023.1.2,Win32,60.12867537,6535e36590f9255eb268a893,656018846682f3df8008bb8f,65601b205e38d0061becee6f,0,132,132,76,1,threeone,,,,,,,,,,,,,,,,,,,,,,,,,,,,,,,,,,,,,,,,,,,,,,,,,,,,,,,,,,,,,,,,,,,,,,,,,,,,,,,,,,,,,
6535e36590f9255eb268a893,2023-11-23_19h40.35.221,kallum_motion_pilot,2023.1.2,Win32,60.12867537,6535e36590f9255eb268a893,656018846682f3df8008bb8f,65601b205e38d0061becee6f,0,133,133,78,1,fourtwo,,,,,,,,,,,,,,,,,,,,,,,,,,,,,,,,,,,,,,,,,,,,,,,,,,,,,,,,,,,,,,,,,,,,,,,,,,,,,,,,,,,,,
6535e36590f9255eb268a893,2023-11-23_19h40.35.221,kallum_motion_pilot,2023.1.2,Win32,60.12867537,6535e36590f9255eb268a893,656018846682f3df8008bb8f,65601b205e38d0061becee6f,0,134,134,115,1,sixeight,,,,,,,,,,,,,,,,,,,,,,,,,,,,,,,,,,,,,,,,,,,,,,,,,,,,,,,,,,,,,,,,,,,,,,,,,,,,,,,,,,,,,
6535e36590f9255eb268a893,2023-11-23_19h40.35.221,kallum_motion_pilot,2023.1.2,Win32,60.12867537,6535e36590f9255eb268a893,656018846682f3df8008bb8f,65601b205e38d0061becee6f,0,135,135,109,1,seveneight,,,,,,,,,,,,,,,,,,,,,,,,,,,,,,,,,,,,,,,,,,,,,,,,,,,,,,,,,,,,,,,,,,,,,,,,,,,,,,,,,,,,,
6535e36590f9255eb268a893,2023-11-23_19h40.35.221,kallum_motion_pilot,2023.1.2,Win32,60.12867537,6535e36590f9255eb268a893,656018846682f3df8008bb8f,65601b205e38d0061becee6f,0,136,136,12,1,threeone,,,,,,,,,,,,,,,,,,,,,,,,,,,,,,,,,,,,,,,,,,,,,,,,,,,,,,,,,,,,,,,,,,,,,,,,,,,,,,,,,,,,,
6535e36590f9255eb268a893,2023-11-23_19h40.35.221,kallum_motion_pilot,2023.1.2,Win32,60.12867537,6535e36590f9255eb268a893,656018846682f3df8008bb8f,65601b205e38d0061becee6f,0,137,137,72,1,onetwo,,,,,,,,,,,,,,,,,,,,,,,,,,,,,,,,,,,,,,,,,,,,,,,,,,,,,,,,,,,,,,,,,,,,,,,,,,,,,,,,,,,,,
6535e36590f9255eb268a893,2023-11-23_19h40.35.221,kallum_motion_pilot,2023.1.2,Win32,60.12867537,6535e36590f9255eb268a893,656018846682f3df8008bb8f,65601b205e38d0061becee6f,0,138,138,36,1,threeone,,,,,,,,,,,,,,,,,,,,,,,,,,,,,,,,,,,,,,,,,,,,,,,,,,,,,,,,,,,,,,,,,,,,,,,,,,,,,,,,,,,,,
6535e36590f9255eb268a893,2023-11-23_19h40.35.221,kallum_motion_pilot,2023.1.2,Win32,60.12867537,6535e36590f9255eb268a893,656018846682f3df8008bb8f,65601b205e38d0061becee6f,0,139,139,70,1,fourtwo,,,,,,,,,,,,,,,,,,,,,,,,,,,,,,,,,,,,,,,,,,,,,,,,,,,,,,,,,,,,,,,,,,,,,,,,,,,,,,,,,,,,,
6535e36590f9255eb268a893,2023-11-23_19h40.35.221,kallum_motion_pilot,2023.1.2,Win32,60.12867537,6535e36590f9255eb268a893,656018846682f3df8008bb8f,65601b205e38d0061becee6f,0,140,140,54,1,fourtwo,,,,,,,,,,,,,,,,,,,,,,,,,,,,,,,,,,,,,,,,,,,,,,,,,,,,,,,,,,,,,,,,,,,,,,,,,,,,,,,,,,,,,
6535e36590f9255eb268a893,2023-11-23_19h40.35.221,kallum_motion_pilot,2023.1.2,Win32,60.12867537,6535e36590f9255eb268a893,656018846682f3df8008bb8f,65601b205e38d0061becee6f,0,141,141,135,1,eightseven,,,,,,,,,,,,,,,,,,,,,,,,,,,,,,,,,,,,,,,,,,,,,,,,,,,,,,,,,,,,,,,,,,,,,,,,,,,,,,,,,,,,,
6535e36590f9255eb268a893,2023-11-23_19h40.35.221,kallum_motion_pilot,2023.1.2,Win32,60.12867537,6535e36590f9255eb268a893,656018846682f3df8008bb8f,65601b205e38d0061becee6f,0,142,142,133,1,seveneight,,,,,,,,,,,,,,,,,,,,,,,,,,,,,,,,,,,,,,,,,,,,,,,,,,,,,,,,,,,,,,,,,,,,,,,,,,,,,,,,,,,,,
6535e36590f9255eb268a893,2023-11-23_19h40.35.221,kallum_motion_pilot,2023.1.2,Win32,60.12867537,6535e36590f9255eb268a893,656018846682f3df8008bb8f,65601b205e38d0061becee6f,0,143,143,85,1,seveneight,,,,,,,,,,,,,,,,,,,,,,,,,,,,,,,,,,,,,,,,,,,,,,,,,,,,,,,,,,,,,,,,,,,,,,,,,,,,,,,,,,,,,
6535e36590f9255eb268a893,2023-11-23_19h40.35.221,kallum_motion_pilot,2023.1.2,Win32,60.12867537,6535e36590f9255eb268a893,656018846682f3df8008bb8f,65601b205e38d0061becee6f,0,144,144,144,1,fivesix,,,,,,,,,,,,,,,,,,,,,,,,,,,,,,,,,,,,,,,,,,,,,,,,,,,,,,,,,,,,,,,,,,,,,,,,,,,,,,,,,,,,,
6535e36590f9255eb268a893,2023-11-23_19h40.35.221,kallum_motion_pilot,2023.1.2,Win32,60.12867537,6535e36590f9255eb268a893,656018846682f3df8008bb8f,65601b205e38d0061becee6f,0,145,145,35,1,twofour,,,,,,,,,,,,,,,,,,,,,,,,,,,,,,,,,,,,,,,,,,,,,,,,,,,,,,,,,,,,,,,,,,,,,,,,,,,,,,,,,,,,,
6535e36590f9255eb268a893,2023-11-23_19h40.35.221,kallum_motion_pilot,2023.1.2,Win32,60.12867537,6535e36590f9255eb268a893,656018846682f3df8008bb8f,65601b205e38d0061becee6f,0,146,146,160,1,fivesix,,,,,,,,,,,,,,,,,,,,,,,,,,,,,,,,,,,,,,,,,,,,,,,,,,,,,,,,,,,,,,,,,,,,,,,,,,,,,,,,,,,,,
6535e36590f9255eb268a893,2023-11-23_19h40.35.221,kallum_motion_pilot,2023.1.2,Win32,60.12867537,6535e36590f9255eb268a893,656018846682f3df8008bb8f,65601b205e38d0061becee6f,0,147,147,98,1,sixfive,,,,,,,,,,,,,,,,,,,,,,,,,,,,,,,,,,,,,,,,,,,,,,,,,,,,,,,,,,,,,,,,,,,,,,,,,,,,,,,,,,,,,
6535e36590f9255eb268a893,2023-11-23_19h40.35.221,kallum_motion_pilot,2023.1.2,Win32,60.12867537,6535e36590f9255eb268a893,656018846682f3df8008bb8f,65601b205e38d0061becee6f,0,148,148,52,1,threeone,,,,,,,,,,,,,,,,,,,,,,,,,,,,,,,,,,,,,,,,,,,,,,,,,,,,,,,,,,,,,,,,,,,,,,,,,,,,,,,,,,,,,
6535e36590f9255eb268a893,2023-11-23_19h40.35.221,kallum_motion_pilot,2023.1.2,Win32,60.12867537,6535e36590f9255eb268a893,656018846682f3df8008bb8f,65601b205e38d0061becee6f,0,149,149,145,1,fiveseven,,,,,,,,,,,,,,,,,,,,,,,,,,,,,,,,,,,,,,,,,,,,,,,,,,,,,,,,,,,,,,,,,,,,,,,,,,,,,,,,,,,,,
6535e36590f9255eb268a893,2023-11-23_19h40.35.221,kallum_motion_pilot,2023.1.2,Win32,60.12867537,6535e36590f9255eb268a893,656018846682f3df8008bb8f,65601b205e38d0061becee6f,0,150,150,59,1,twofour,,,,,,,,,,,,,,,,,,,,,,,,,,,,,,,,,,,,,,,,,,,,,,,,,,,,,,,,,,,,,,,,,,,,,,,,,,,,,,,,,,,,,
6535e36590f9255eb268a893,2023-11-23_19h40.35.221,kallum_motion_pilot,2023.1.2,Win32,60.12867537,6535e36590f9255eb268a893,656018846682f3df8008bb8f,65601b205e38d0061becee6f,0,151,151,121,1,fiveseven,,,,,,,,,,,,,,,,,,,,,,,,,,,,,,,,,,,,,,,,,,,,,,,,,,,,,,,,,,,,,,,,,,,,,,,,,,,,,,,,,,,,,
6535e36590f9255eb268a893,2023-11-23_19h40.35.221,kallum_motion_pilot,2023.1.2,Win32,60.12867537,6535e36590f9255eb268a893,656018846682f3df8008bb8f,65601b205e38d0061becee6f,0,152,152,22,1,fourtwo,,,,,,,,,,,,,,,,,,,,,,,,,,,,,,,,,,,,,,,,,,,,,,,,,,,,,,,,,,,,,,,,,,,,,,,,,,,,,,,,,,,,,
6535e36590f9255eb268a893,2023-11-23_19h40.35.221,kallum_motion_pilot,2023.1.2,Win32,60.12867537,6535e36590f9255eb268a893,656018846682f3df8008bb8f,65601b205e38d0061becee6f,0,153,153,27,1,twofour,,,,,,,,,,,,,,,,,,,,,,,,,,,,,,,,,,,,,,,,,,,,,,,,,,,,,,,,,,,,,,,,,,,,,,,,,,,,,,,,,,,,,
6535e36590f9255eb268a893,2023-11-23_19h40.35.221,kallum_motion_pilot,2023.1.2,Win32,60.12867537,6535e36590f9255eb268a893,656018846682f3df8008bb8f,65601b205e38d0061becee6f,0,154,154,151,1,eightseven,,,,,,,,,,,,,,,,,,,,,,,,,,,,,,,,,,,,,,,,,,,,,,,,,,,,,,,,,,,,,,,,,,,,,,,,,,,,,,,,,,,,,
6535e36590f9255eb268a893,2023-11-23_19h40.35.221,kallum_motion_pilot,2023.1.2,Win32,60.12867537,6535e36590f9255eb268a893,656018846682f3df8008bb8f,65601b205e38d0061becee6f,0,155,155,2,1,twoone,,,,,,,,,,,,,,,,,,,,,,,,,,,,,,,,,,,,,,,,,,,,,,,,,,,,,,,,,,,,,,,,,,,,,,,,,,,,,,,,,,,,,
6535e36590f9255eb268a893,2023-11-23_19h40.35.221,kallum_motion_pilot,2023.1.2,Win32,60.12867537,6535e36590f9255eb268a893,656018846682f3df8008bb8f,65601b205e38d0061becee6f,0,156,156,139,1,sixeight,,,,,,,,,,,,,,,,,,,,,,,,,,,,,,,,,,,,,,,,,,,,,,,,,,,,,,,,,,,,,,,,,,,,,,,,,,,,,,,,,,,,,
6535e36590f9255eb268a893,2023-11-23_19h40.35.221,kallum_motion_pilot,2023.1.2,Win32,60.12867537,6535e36590f9255eb268a893,656018846682f3df8008bb8f,65601b205e38d0061becee6f,0,157,157,97,1,fiveseven,,,,,,,,,,,,,,,,,,,,,,,,,,,,,,,,,,,,,,,,,,,,,,,,,,,,,,,,,,,,,,,,,,,,,,,,,,,,,,,,,,,,,
6535e36590f9255eb268a893,2023-11-23_19h40.35.221,kallum_motion_pilot,2023.1.2,Win32,60.12867537,6535e36590f9255eb268a893,656018846682f3df8008bb8f,65601b205e38d0061becee6f,0,158,158,143,1,eightseven,,,,,,,,,,,,,,,,,,,,,,,,,,,,,,,,,,,,,,,,,,,,,,,,,,,,,,,,,,,,,,,,,,,,,,,,,,,,,,,,,,,,,
6535e36590f9255eb268a893,2023-11-23_19h40.35.221,kallum_motion_pilot,2023.1.2,Win32,60.12867537,6535e36590f9255eb268a893,656018846682f3df8008bb8f,65601b205e38d0061becee6f,0,159,159,125,1,seveneight,,,,,,,,,,,,,,,,,,,,,,,,,,,,,,,,,,,,,,,,,,,,,,,,,,,,,,,,,,,,,,,,,,,,,,,,,,,,,,,,,,,,,
6535e36590f9255eb268a893,2023-11-23_19h40.35.221,kallum_motion_pilot,2023.1.2,Win32,60.12867537,6535e36590f9255eb268a893,656018846682f3df8008bb8f,65601b205e38d0061becee6f,0,160,160,122,1,sixfive,,,,,,,,,,,,,,,,,,,,,,,,,,,,,,,,,,,,,,,,,,,,,,,,,,,,,,,,,,,,,,,,,,,,,,,,,,,,,,,,,,,,,
6535e36590f9255eb268a893,2023-11-23_19h40.35.221,kallum_motion_pilot,2023.1.2,Win32,60.12867537,6535e36590f9255eb268a893,656018846682f3df8008bb8f,65601b205e38d0061becee6f,0,161,161,102,1,eightsix,,,,,,,,,,,,,,,,,,,,,,,,,,,,,,,,,,,,,,,,,,,,,,,,,,,,,,,,,,,,,,,,,,,,,,,,,,,,,,,,,,,,,
6535e36590f9255eb268a893,2023-11-23_19h40.35.221,kallum_motion_pilot,2023.1.2,Win32,60.12867537,6535e36590f9255eb268a893,656018846682f3df8008bb8f,65601b205e38d0061becee6f,1,0,162,91,1,sixeight,,,,,,,,,,,,,,,,,,,,,,,,,,,,,,,,,,,,,,,,,,,,,,,,,,,,,,,,,,,,,,,,,,,,,,,,,,,,,,,,,,,,,
6535e36590f9255eb268a893,2023-11-23_19h40.35.221,kallum_motion_pilot,2023.1.2,Win32,60.12867537,6535e36590f9255eb268a893,656018846682f3df8008bb8f,65601b205e38d0061becee6f,1,1,163,32,1,onetwo,,,,,,,,,,,,,,,,,,,,,,,,,,,,,,,,,,,,,,,,,,,,,,,,,,,,,,,,,,,,,,,,,,,,,,,,,,,,,,,,,,,,,
6535e36590f9255eb268a893,2023-11-23_19h40.35.221,kallum_motion_pilot,2023.1.2,Win32,60.12867537,6535e36590f9255eb268a893,656018846682f3df8008bb8f,65601b205e38d0061becee6f,1,2,164,75,1,twofour,,,,,,,,,,,,,,,,,,,,,,,,,,,,,,,,,,,,,,,,,,,,,,,,,,,,,,,,,,,,,,,,,,,,,,,,,,,,,,,,,,,,,
6535e36590f9255eb268a893,2023-11-23_19h40.35.221,kallum_motion_pilot,2023.1.2,Win32,60.12867537,6535e36590f9255eb268a893,656018846682f3df8008bb8f,65601b205e38d0061becee6f,1,3,165,37,1,threefour,,,,,,,,,,,,,,,,,,,,,,,,,,,,,,,,,,,,,,,,,,,,,,,,,,,,,,,,,,,,,,,,,,,,,,,,,,,,,,,,,,,,,
6535e36590f9255eb268a893,2023-11-23_19h40.35.221,kallum_motion_pilot,2023.1.2,Win32,60.12867537,6535e36590f9255eb268a893,656018846682f3df8008bb8f,65601b205e38d0061becee6f,1,4,166,31,1,fourthree,,,,,,,,,,,,,,,,,,,,,,,,,,,,,,,,,,,,,,,,,,,,,,,,,,,,,,,,,,,,,,,,,,,,,,,,,,,,,,,,,,,,,
6535e36590f9255eb268a893,2023-11-23_19h40.35.221,kallum_motion_pilot,2023.1.2,Win32,60.12867537,6535e36590f9255eb268a893,656018846682f3df8008bb8f,65601b205e38d0061becee6f,1,5,167,51,1,twofour,,,,,,,,,,,,,,,,,,,,,,,,,,,,,,,,,,,,,,,,,,,,,,,,,,,,,,,,,,,,,,,,,,,,,,,,,,,,,,,,,,,,,
6535e36590f9255eb268a893,2023-11-23_19h40.35.221,kallum_motion_pilot,2023.1.2,Win32,60.12867537,6535e36590f9255eb268a893,656018846682f3df8008bb8f,65601b205e38d0061becee6f,1,6,168,10,1,twoone,,,,,,,,,,,,,,,,,,,,,,,,,,,,,,,,,,,,,,,,,,,,,,,,,,,,,,,,,,,,,,,,,,,,,,,,,,,,,,,,,,,,,
6535e36590f9255eb268a893,2023-11-23_19h40.35.221,kallum_motion_pilot,2023.1.2,Win32,60.12867537,6535e36590f9255eb268a893,656018846682f3df8008bb8f,65601b205e38d0061becee6f,1,7,169,112,1,fivesix,,,,,,,,,,,,,,,,,,,,,,,,,,,,,,,,,,,,,,,,,,,,,,,,,,,,,,,,,,,,,,,,,,,,,,,,,,,,,,,,,,,,,
6535e36590f9255eb268a893,2023-11-23_19h40.35.221,kallum_motion_pilot,2023.1.2,Win32,60.12867537,6535e36590f9255eb268a893,656018846682f3df8008bb8f,65601b205e38d0061becee6f,1,8,170,152,1,fivesix,,,,,,,,,,,,,,,,,,,,,,,,,,,,,,,,,,,,,,,,,,,,,,,,,,,,,,,,,,,,,,,,,,,,,,,,,,,,,,,,,,,,,
6535e36590f9255eb268a893,2023-11-23_19h40.35.221,kallum_motion_pilot,2023.1.2,Win32,60.12867537,6535e36590f9255eb268a893,656018846682f3df8008bb8f,65601b205e38d0061becee6f,1,9,171,89,1,fiveseven,,,,,,,,,,,,,,,,,,,,,,,,,,,,,,,,,,,,,,,,,,,,,,,,,,,,,,,,,,,,,,,,,,,,,,,,,,,,,,,,,,,,,
6535e36590f9255eb268a893,2023-11-23_19h40.35.221,kallum_motion_pilot,2023.1.2,Win32,60.12867537,6535e36590f9255eb268a893,656018846682f3df8008bb8f,65601b205e38d0061becee6f,1,10,172,122,1,sixfive,,,,,,,,,,,,,,,,,,,,,,,,,,,,,,,,,,,,,,,,,,,,,,,,,,,,,,,,,,,,,,,,,,,,,,,,,,,,,,,,,,,,,
6535e36590f9255eb268a893,2023-11-23_19h40.35.221,kallum_motion_pilot,2023.1.2,Win32,60.12867537,6535e36590f9255eb268a893,656018846682f3df8008bb8f,65601b205e38d0061becee6f,1,11,173,154,1,sixfive,,,,,,,,,,,,,,,,,,,,,,,,,,,,,,,,,,,,,,,,,,,,,,,,,,,,,,,,,,,,,,,,,,,,,,,,,,,,,,,,,,,,,
6535e36590f9255eb268a893,2023-11-23_19h40.35.221,kallum_motion_pilot,2023.1.2,Win32,60.12867537,6535e36590f9255eb268a893,656018846682f3df8008bb8f,65601b205e38d0061becee6f,1,12,174,46,1,fourtwo,,,,,,,,,,,,,,,,,,,,,,,,,,,,,,,,,,,,,,,,,,,,,,,,,,,,,,,,,,,,,,,,,,,,,,,,,,,,,,,,,,,,,
6535e36590f9255eb268a893,2023-11-23_19h40.35.221,kallum_motion_pilot,2023.1.2,Win32,60.12867537,6535e36590f9255eb268a893,656018846682f3df8008bb8f,65601b205e38d0061becee6f,1,13,175,146,1,sixfive,,,,,,,,,,,,,,,,,,,,,,,,,,,,,,,,,,,,,,,,,,,,,,,,,,,,,,,,,,,,,,,,,,,,,,,,,,,,,,,,,,,,,
6535e36590f9255eb268a893,2023-11-23_19h40.35.221,kallum_motion_pilot,2023.1.2,Win32,60.12867537,6535e36590f9255eb268a893,656018846682f3df8008bb8f,65601b205e38d0061becee6f,1,14,176,80,1,fivesix,,,,,,,,,,,,,,,,,,,,,,,,,,,,,,,,,,,,,,,,,,,,,,,,,,,,,,,,,,,,,,,,,,,,,,,,,,,,,,,,,,,,,
6535e36590f9255eb268a893,2023-11-23_19h40.35.221,kallum_motion_pilot,2023.1.2,Win32,60.12867537,6535e36590f9255eb268a893,656018846682f3df8008bb8f,65601b205e38d0061becee6f,1,15,177,7,1,fourthree,,,,,,,,,,,,,,,,,,,,,,,,,,,,,,,,,,,,,,,,,,,,,,,,,,,,,,,,,,,,,,,,,,,,,,,,,,,,,,,,,,,,,
6535e36590f9255eb268a893,2023-11-23_19h40.35.221,kallum_motion_pilot,2023.1.2,Win32,60.12867537,6535e36590f9255eb268a893,656018846682f3df8008bb8f,65601b205e38d0061becee6f,1,16,178,68,1,threeone,,,,,,,,,,,,,,,,,,,,,,,,,,,,,,,,,,,,,,,,,,,,,,,,,,,,,,,,,,,,,,,,,,,,,,,,,,,,,,,,,,,,,
6535e36590f9255eb268a893,2023-11-23_19h40.35.221,kallum_motion_pilot,2023.1.2,Win32,60.12867537,6535e36590f9255eb268a893,656018846682f3df8008bb8f,65601b205e38d0061becee6f,1,17,179,65,1,onethree,,,,,,,,,,,,,,,,,,,,,,,,,,,,,,,,,,,,,,,,,,,,,,,,,,,,,,,,,,,,,,,,,,,,,,,,,,,,,,,,,,,,,
6535e36590f9255eb268a893,2023-11-23_19h40.35.221,kallum_motion_pilot,2023.1.2,Win32,60.12867537,6535e36590f9255eb268a893,656018846682f3df8008bb8f,65601b205e38d0061becee6f,1,18,180,136,1,fivesix,,,,,,,,,,,,,,,,,,,,,,,,,,,,,,,,,,,,,,,,,,,,,,,,,,,,,,,,,,,,,,,,,,,,,,,,,,,,,,,,,,,,,
6535e36590f9255eb268a893,2023-11-23_19h40.35.221,kallum_motion_pilot,2023.1.2,Win32,60.12867537,6535e36590f9255eb268a893,656018846682f3df8008bb8f,65601b205e38d0061becee6f,1,19,181,40,1,onetwo,,,,,,,,,,,,,,,,,,,,,,,,,,,,,,,,,,,,,,,,,,,,,,,,,,,,,,,,,,,,,,,,,,,,,,,,,,,,,,,,,,,,,
6535e36590f9255eb268a893,2023-11-23_19h40.35.221,kallum_motion_pilot,2023.1.2,Win32,60.12867537,6535e36590f9255eb268a893,656018846682f3df8008bb8f,65601b205e38d0061becee6f,1,20,182,59,1,twofour,,,,,,,,,,,,,,,,,,,,,,,,,,,,,,,,,,,,,,,,,,,,,,,,,,,,,,,,,,,,,,,,,,,,,,,,,,,,,,,,,,,,,
6535e36590f9255eb268a893,2023-11-23_19h40.35.221,kallum_motion_pilot,2023.1.2,Win32,60.12867537,6535e36590f9255eb268a893,656018846682f3df8008bb8f,65601b205e38d0061becee6f,1,21,183,34,1,twoone,,,,,,,,,,,,,,,,,,,,,,,,,,,,,,,,,,,,,,,,,,,,,,,,,,,,,,,,,,,,,,,,,,,,,,,,,,,,,,,,,,,,,
6535e36590f9255eb268a893,2023-11-23_19h40.35.221,kallum_motion_pilot,2023.1.2,Win32,60.12867537,6535e36590f9255eb268a893,656018846682f3df8008bb8f,65601b205e38d0061becee6f,1,22,184,99,1,sixeight,,,,,,,,,,,,,,,,,,,,,,,,,,,,,,,,,,,,,,,,,,,,,,,,,,,,,,,,,,,,,,,,,,,,,,,,,,,,,,,,,,,,,
6535e36590f9255eb268a893,2023-11-23_19h40.35.221,kallum_motion_pilot,2023.1.2,Win32,60.12867537,6535e36590f9255eb268a893,656018846682f3df8008bb8f,65601b205e38d0061becee6f,1,23,185,101,1,seveneight,,,,,,,,,,,,,,,,,,,,,,,,,,,,,,,,,,,,,,,,,,,,,,,,,,,,,,,,,,,,,,,,,,,,,,,,,,,,,,,,,,,,,
6535e36590f9255eb268a893,2023-11-23_19h40.35.221,kallum_motion_pilot,2023.1.2,Win32,60.12867537,6535e36590f9255eb268a893,656018846682f3df8008bb8f,65601b205e38d0061becee6f,1,24,186,33,1,onethree,,,,,,,,,,,,,,,,,,,,,,,,,,,,,,,,,,,,,,,,,,,,,,,,,,,,,,,,,,,,,,,,,,,,,,,,,,,,,,,,,,,,,
6535e36590f9255eb268a893,2023-11-23_19h40.35.221,kallum_motion_pilot,2023.1.2,Win32,60.12867537,6535e36590f9255eb268a893,656018846682f3df8008bb8f,65601b205e38d0061becee6f,1,25,187,97,1,fiveseven,,,,,,,,,,,,,,,,,,,,,,,,,,,,,,,,,,,,,,,,,,,,,,,,,,,,,,,,,,,,,,,,,,,,,,,,,,,,,,,,,,,,,
6535e36590f9255eb268a893,2023-11-23_19h40.35.221,kallum_motion_pilot,2023.1.2,Win32,60.12867537,6535e36590f9255eb268a893,656018846682f3df8008bb8f,65601b205e38d0061becee6f,1,26,188,56,1,onetwo,,,,,,,,,,,,,,,,,,,,,,,,,,,,,,,,,,,,,,,,,,,,,,,,,,,,,,,,,,,,,,,,,,,,,,,,,,,,,,,,,,,,,
6535e36590f9255eb268a893,2023-11-23_19h40.35.221,kallum_motion_pilot,2023.1.2,Win32,60.12867537,6535e36590f9255eb268a893,656018846682f3df8008bb8f,65601b205e38d0061becee6f,1,27,189,127,1,eightseven,,,,,,,,,,,,,,,,,,,,,,,,,,,,,,,,,,,,,,,,,,,,,,,,,,,,,,,,,,,,,,,,,,,,,,,,,,,,,,,,,,,,,
6535e36590f9255eb268a893,2023-11-23_19h40.35.221,kallum_motion_pilot,2023.1.2,Win32,60.12867537,6535e36590f9255eb268a893,656018846682f3df8008bb8f,65601b205e38d0061becee6f,1,28,190,19,1,twofour,,,,,,,,,,,,,,,,,,,,,,,,,,,,,,,,,,,,,,,,,,,,,,,,,,,,,,,,,,,,,,,,,,,,,,,,,,,,,,,,,,,,,
6535e36590f9255eb268a893,2023-11-23_19h40.35.221,kallum_motion_pilot,2023.1.2,Win32,60.12867537,6535e36590f9255eb268a893,656018846682f3df8008bb8f,65601b205e38d0061becee6f,1,29,191,60,1,threeone,,,,,,,,,,,,,,,,,,,,,,,,,,,,,,,,,,,,,,,,,,,,,,,,,,,,,,,,,,,,,,,,,,,,,,,,,,,,,,,,,,,,,
6535e36590f9255eb268a893,2023-11-23_19h40.35.221,kallum_motion_pilot,2023.1.2,Win32,60.12867537,6535e36590f9255eb268a893,656018846682f3df8008bb8f,65601b205e38d0061becee6f,1,30,192,3,1,twofour,,,,,,,,,,,,,,,,,,,,,,,,,,,,,,,,,,,,,,,,,,,,,,,,,,,,,,,,,,,,,,,,,,,,,,,,,,,,,,,,,,,,,
6535e36590f9255eb268a893,2023-11-23_19h40.35.221,kallum_motion_pilot,2023.1.2,Win32,60.12867537,6535e36590f9255eb268a893,656018846682f3df8008bb8f,65601b205e38d0061becee6f,1,31,193,54,1,fourtwo,,,,,,,,,,,,,,,,,,,,,,,,,,,,,,,,,,,,,,,,,,,,,,,,,,,,,,,,,,,,,,,,,,,,,,,,,,,,,,,,,,,,,
6535e36590f9255eb268a893,2023-11-23_19h40.35.221,kallum_motion_pilot,2023.1.2,Win32,60.12867537,6535e36590f9255eb268a893,656018846682f3df8008bb8f,65601b205e38d0061becee6f,1,32,194,44,1,threeone,,,,,,,,,,,,,,,,,,,,,,,,,,,,,,,,,,,,,,,,,,,,,,,,,,,,,,,,,,,,,,,,,,,,,,,,,,,,,,,,,,,,,
6535e36590f9255eb268a893,2023-11-23_19h40.35.221,kallum_motion_pilot,2023.1.2,Win32,60.12867537,6535e36590f9255eb268a893,656018846682f3df8008bb8f,65601b205e38d0061becee6f,1,33,195,125,1,seveneight,,,,,,,,,,,,,,,,,,,,,,,,,,,,,,,,,,,,,,,,,,,,,,,,,,,,,,,,,,,,,,,,,,,,,,,,,,,,,,,,,,,,,
6535e36590f9255eb268a893,2023-11-23_19h40.35.221,kallum_motion_pilot,2023.1.2,Win32,60.12867537,6535e36590f9255eb268a893,656018846682f3df8008bb8f,65601b205e38d0061becee6f,1,34,196,81,1,fiveseven,,,,,,,,,,,,,,,,,,,,,,,,,,,,,,,,,,,,,,,,,,,,,,,,,,,,,,,,,,,,,,,,,,,,,,,,,,,,,,,,,,,,,
6535e36590f9255eb268a893,2023-11-23_19h40.35.221,kallum_motion_pilot,2023.1.2,Win32,60.12867537,6535e36590f9255eb268a893,656018846682f3df8008bb8f,65601b205e38d0061becee6f,1,35,197,124,1,sevenfive,,,,,,,,,,,,,,,,,,,,,,,,,,,,,,,,,,,,,,,,,,,,,,,,,,,,,,,,,,,,,,,,,,,,,,,,,,,,,,,,,,,,,
6535e36590f9255eb268a893,2023-11-23_19h40.35.221,kallum_motion_pilot,2023.1.2,Win32,60.12867537,6535e36590f9255eb268a893,656018846682f3df8008bb8f,65601b205e38d0061becee6f,1,36,198,135,1,eightseven,,,,,,,,,,,,,,,,,,,,,,,,,,,,,,,,,,,,,,,,,,,,,,,,,,,,,,,,,,,,,,,,,,,,,,,,,,,,,,,,,,,,,
6535e36590f9255eb268a893,2023-11-23_19h40.35.221,kallum_motion_pilot,2023.1.2,Win32,60.12867537,6535e36590f9255eb268a893,656018846682f3df8008bb8f,65601b205e38d0061becee6f,1,37,199,77,1,threefour,,,,,,,,,,,,,,,,,,,,,,,,,,,,,,,,,,,,,,,,,,,,,,,,,,,,,,,,,,,,,,,,,,,,,,,,,,,,,,,,,,,,,
6535e36590f9255eb268a893,2023-11-23_19h40.35.221,kallum_motion_pilot,2023.1.2,Win32,60.12867537,6535e36590f9255eb268a893,656018846682f3df8008bb8f,65601b205e38d0061becee6f,1,38,200,25,1,onethree,,,,,,,,,,,,,,,,,,,,,,,,,,,,,,,,,,,,,,,,,,,,,,,,,,,,,,,,,,,,,,,,,,,,,,,,,,,,,,,,,,,,,
6535e36590f9255eb268a893,2023-11-23_19h40.35.221,kallum_motion_pilot,2023.1.2,Win32,60.12867537,6535e36590f9255eb268a893,656018846682f3df8008bb8f,65601b205e38d0061becee6f,1,39,201,129,1,fiveseven,,,,,,,,,,,,,,,,,,,,,,,,,,,,,,,,,,,,,,,,,,,,,,,,,,,,,,,,,,,,,,,,,,,,,,,,,,,,,,,,,,,,,
6535e36590f9255eb268a893,2023-11-23_19h40.35.221,kallum_motion_pilot,2023.1.2,Win32,60.12867537,6535e36590f9255eb268a893,656018846682f3df8008bb8f,65601b205e38d0061becee6f,1,40,202,93,1,seveneight,,,,,,,,,,,,,,,,,,,,,,,,,,,,,,,,,,,,,,,,,,,,,,,,,,,,,,,,,,,,,,,,,,,,,,,,,,,,,,,,,,,,,
6535e36590f9255eb268a893,2023-11-23_19h40.35.221,kallum_motion_pilot,2023.1.2,Win32,60.12867537,6535e36590f9255eb268a893,656018846682f3df8008bb8f,65601b205e38d0061becee6f,1,41,203,130,1,sixfive,,,,,,,,,,,,,,,,,,,,,,,,,,,,,,,,,,,,,,,,,,,,,,,,,,,,,,,,,,,,,,,,,,,,,,,,,,,,,,,,,,,,,
6535e36590f9255eb268a893,2023-11-23_19h40.35.221,kallum_motion_pilot,2023.1.2,Win32,60.12867537,6535e36590f9255eb268a893,656018846682f3df8008bb8f,65601b205e38d0061becee6f,1,42,204,116,1,sevenfive,,,,,,,,,,,,,,,,,,,,,,,,,,,,,,,,,,,,,,,,,,,,,,,,,,,,,,,,,,,,,,,,,,,,,,,,,,,,,,,,,,,,,
6535e36590f9255eb268a893,2023-11-23_19h40.35.221,kallum_motion_pilot,2023.1.2,Win32,60.12867537,6535e36590f9255eb268a893,656018846682f3df8008bb8f,65601b205e38d0061becee6f,1,43,205,121,1,fiveseven,,,,,,,,,,,,,,,,,,,,,,,,,,,,,,,,,,,,,,,,,,,,,,,,,,,,,,,,,,,,,,,,,,,,,,,,,,,,,,,,,,,,,
6535e36590f9255eb268a893,2023-11-23_19h40.35.221,kallum_motion_pilot,2023.1.2,Win32,60.12867537,6535e36590f9255eb268a893,656018846682f3df8008bb8f,65601b205e38d0061becee6f,1,44,206,88,1,fivesix,,,,,,,,,,,,,,,,,,,,,,,,,,,,,,,,,,,,,,,,,,,,,,,,,,,,,,,,,,,,,,,,,,,,,,,,,,,,,,,,,,,,,
6535e36590f9255eb268a893,2023-11-23_19h40.35.221,kallum_motion_pilot,2023.1.2,Win32,60.12867537,6535e36590f9255eb268a893,656018846682f3df8008bb8f,65601b205e38d0061becee6f,1,45,207,96,1,fivesix,,,,,,,,,,,,,,,,,,,,,,,,,,,,,,,,,,,,,,,,,,,,,,,,,,,,,,,,,,,,,,,,,,,,,,,,,,,,,,,,,,,,,
6535e36590f9255eb268a893,2023-11-23_19h40.35.221,kallum_motion_pilot,2023.1.2,Win32,60.12867537,6535e36590f9255eb268a893,656018846682f3df8008bb8f,65601b205e38d0061becee6f,1,46,208,24,1,onetwo,,,,,,,,,,,,,,,,,,,,,,,,,,,,,,,,,,,,,,,,,,,,,,,,,,,,,,,,,,,,,,,,,,,,,,,,,,,,,,,,,,,,,
6535e36590f9255eb268a893,2023-11-23_19h40.35.221,kallum_motion_pilot,2023.1.2,Win32,60.12867537,6535e36590f9255eb268a893,656018846682f3df8008bb8f,65601b205e38d0061becee6f,1,47,209,30,1,fourtwo,,,,,,,,,,,,,,,,,,,,,,,,,,,,,,,,,,,,,,,,,,,,,,,,,,,,,,,,,,,,,,,,,,,,,,,,,,,,,,,,,,,,,
6535e36590f9255eb268a893,2023-11-23_19h40.35.221,kallum_motion_pilot,2023.1.2,Win32,60.12867537,6535e36590f9255eb268a893,656018846682f3df8008bb8f,65601b205e38d0061becee6f,1,48,210,153,1,fiveseven,,,,,,,,,,,,,,,,,,,,,,,,,,,,,,,,,,,,,,,,,,,,,,,,,,,,,,,,,,,,,,,,,,,,,,,,,,,,,,,,,,,,,
6535e36590f9255eb268a893,2023-11-23_19h40.35.221,kallum_motion_pilot,2023.1.2,Win32,60.12867537,6535e36590f9255eb268a893,656018846682f3df8008bb8f,65601b205e38d0061becee6f,1,49,211,161,1,fiveseven,,,,,,,,,,,,,,,,,,,,,,,,,,,,,,,,,,,,,,,,,,,,,,,,,,,,,,,,,,,,,,,,,,,,,,,,,,,,,,,,,,,,,
6535e36590f9255eb268a893,2023-11-23_19h40.35.221,kallum_motion_pilot,2023.1.2,Win32,60.12867537,6535e36590f9255eb268a893,656018846682f3df8008bb8f,65601b205e38d0061becee6f,1,50,212,106,1,sixfive,,,,,,,,,,,,,,,,,,,,,,,,,,,,,,,,,,,,,,,,,,,,,,,,,,,,,,,,,,,,,,,,,,,,,,,,,,,,,,,,,,,,,
6535e36590f9255eb268a893,2023-11-23_19h40.35.221,kallum_motion_pilot,2023.1.2,Win32,60.12867537,6535e36590f9255eb268a893,656018846682f3df8008bb8f,65601b205e38d0061becee6f,1,51,213,20,1,threeone,,,,,,,,,,,,,,,,,,,,,,,,,,,,,,,,,,,,,,,,,,,,,,,,,,,,,,,,,,,,,,,,,,,,,,,,,,,,,,,,,,,,,
6535e36590f9255eb268a893,2023-11-23_19h40.35.221,kallum_motion_pilot,2023.1.2,Win32,60.12867537,6535e36590f9255eb268a893,656018846682f3df8008bb8f,65601b205e38d0061becee6f,1,52,214,90,1,sixfive,,,,,,,,,,,,,,,,,,,,,,,,,,,,,,,,,,,,,,,,,,,,,,,,,,,,,,,,,,,,,,,,,,,,,,,,,,,,,,,,,,,,,
6535e36590f9255eb268a893,2023-11-23_19h40.35.221,kallum_motion_pilot,2023.1.2,Win32,60.12867537,6535e36590f9255eb268a893,656018846682f3df8008bb8f,65601b205e38d0061becee6f,1,53,215,92,1,sevenfive,,,,,,,,,,,,,,,,,,,,,,,,,,,,,,,,,,,,,,,,,,,,,,,,,,,,,,,,,,,,,,,,,,,,,,,,,,,,,,,,,,,,,
6535e36590f9255eb268a893,2023-11-23_19h40.35.221,kallum_motion_pilot,2023.1.2,Win32,60.12867537,6535e36590f9255eb268a893,656018846682f3df8008bb8f,65601b205e38d0061becee6f,1,54,216,111,1,eightseven,,,,,,,,,,,,,,,,,,,,,,,,,,,,,,,,,,,,,,,,,,,,,,,,,,,,,,,,,,,,,,,,,,,,,,,,,,,,,,,,,,,,,
6535e36590f9255eb268a893,2023-11-23_19h40.35.221,kallum_motion_pilot,2023.1.2,Win32,60.12867537,6535e36590f9255eb268a893,656018846682f3df8008bb8f,65601b205e38d0061becee6f,1,55,217,47,1,fourthree,,,,,,,,,,,,,,,,,,,,,,,,,,,,,,,,,,,,,,,,,,,,,,,,,,,,,,,,,,,,,,,,,,,,,,,,,,,,,,,,,,,,,
6535e36590f9255eb268a893,2023-11-23_19h40.35.221,kallum_motion_pilot,2023.1.2,Win32,60.12867537,6535e36590f9255eb268a893,656018846682f3df8008bb8f,65601b205e38d0061becee6f,1,56,218,42,1,twoone,,,,,,,,,,,,,,,,,,,,,,,,,,,,,,,,,,,,,,,,,,,,,,,,,,,,,,,,,,,,,,,,,,,,,,,,,,,,,,,,,,,,,
6535e36590f9255eb268a893,2023-11-23_19h40.35.221,kallum_motion_pilot,2023.1.2,Win32,60.12867537,6535e36590f9255eb268a893,656018846682f3df8008bb8f,65601b205e38d0061becee6f,1,57,219,108,1,sevenfive,,,,,,,,,,,,,,,,,,,,,,,,,,,,,,,,,,,,,,,,,,,,,,,,,,,,,,,,,,,,,,,,,,,,,,,,,,,,,,,,,,,,,
6535e36590f9255eb268a893,2023-11-23_19h40.35.221,kallum_motion_pilot,2023.1.2,Win32,60.12867537,6535e36590f9255eb268a893,656018846682f3df8008bb8f,65601b205e38d0061becee6f,1,58,220,49,1,onethree,,,,,,,,,,,,,,,,,,,,,,,,,,,,,,,,,,,,,,,,,,,,,,,,,,,,,,,,,,,,,,,,,,,,,,,,,,,,,,,,,,,,,
6535e36590f9255eb268a893,2023-11-23_19h40.35.221,kallum_motion_pilot,2023.1.2,Win32,60.12867537,6535e36590f9255eb268a893,656018846682f3df8008bb8f,65601b205e38d0061becee6f,1,59,221,109,1,seveneight,,,,,,,,,,,,,,,,,,,,,,,,,,,,,,,,,,,,,,,,,,,,,,,,,,,,,,,,,,,,,,,,,,,,,,,,,,,,,,,,,,,,,
6535e36590f9255eb268a893,2023-11-23_19h40.35.221,kallum_motion_pilot,2023.1.2,Win32,60.12867537,6535e36590f9255eb268a893,656018846682f3df8008bb8f,65601b205e38d0061becee6f,1,60,222,35,1,twofour,,,,,,,,,,,,,,,,,,,,,,,,,,,,,,,,,,,,,,,,,,,,,,,,,,,,,,,,,,,,,,,,,,,,,,,,,,,,,,,,,,,,,
6535e36590f9255eb268a893,2023-11-23_19h40.35.221,kallum_motion_pilot,2023.1.2,Win32,60.12867537,6535e36590f9255eb268a893,656018846682f3df8008bb8f,65601b205e38d0061becee6f,1,61,223,38,1,fourtwo,,,,,,,,,,,,,,,,,,,,,,,,,,,,,,,,,,,,,,,,,,,,,,,,,,,,,,,,,,,,,,,,,,,,,,,,,,,,,,,,,,,,,
6535e36590f9255eb268a893,2023-11-23_19h40.35.221,kallum_motion_pilot,2023.1.2,Win32,60.12867537,6535e36590f9255eb268a893,656018846682f3df8008bb8f,65601b205e38d0061becee6f,1,62,224,27,1,twofour,,,,,,,,,,,,,,,,,,,,,,,,,,,,,,,,,,,,,,,,,,,,,,,,,,,,,,,,,,,,,,,,,,,,,,,,,,,,,,,,,,,,,
6535e36590f9255eb268a893,2023-11-23_19h40.35.221,kallum_motion_pilot,2023.1.2,Win32,60.12867537,6535e36590f9255eb268a893,656018846682f3df8008bb8f,65601b205e38d0061becee6f,1,63,225,117,1,seveneight,,,,,,,,,,,,,,,,,,,,,,,,,,,,,,,,,,,,,,,,,,,,,,,,,,,,,,,,,,,,,,,,,,,,,,,,,,,,,,,,,,,,,
6535e36590f9255eb268a893,2023-11-23_19h40.35.221,kallum_motion_pilot,2023.1.2,Win32,60.12867537,6535e36590f9255eb268a893,656018846682f3df8008bb8f,65601b205e38d0061becee6f,1,64,226,87,1,eightseven,,,,,,,,,,,,,,,,,,,,,,,,,,,,,,,,,,,,,,,,,,,,,,,,,,,,,,,,,,,,,,,,,,,,,,,,,,,,,,,,,,,,,
6535e36590f9255eb268a893,2023-11-23_19h40.35.221,kallum_motion_pilot,2023.1.2,Win32,60.12867537,6535e36590f9255eb268a893,656018846682f3df8008bb8f,65601b205e38d0061becee6f,1,65,227,57,1,onethree,,,,,,,,,,,,,,,,,,,,,,,,,,,,,,,,,,,,,,,,,,,,,,,,,,,,,,,,,,,,,,,,,,,,,,,,,,,,,,,,,,,,,
6535e36590f9255eb268a893,2023-11-23_19h40.35.221,kallum_motion_pilot,2023.1.2,Win32,60.12867537,6535e36590f9255eb268a893,656018846682f3df8008bb8f,65601b205e38d0061becee6f,1,66,228,148,1,sevenfive,,,,,,,,,,,,,,,,,,,,,,,,,,,,,,,,,,,,,,,,,,,,,,,,,,,,,,,,,,,,,,,,,,,,,,,,,,,,,,,,,,,,,
6535e36590f9255eb268a893,2023-11-23_19h40.35.221,kallum_motion_pilot,2023.1.2,Win32,60.12867537,6535e36590f9255eb268a893,656018846682f3df8008bb8f,65601b205e38d0061becee6f,1,67,229,28,1,threeone,,,,,,,,,,,,,,,,,,,,,,,,,,,,,,,,,,,,,,,,,,,,,,,,,,,,,,,,,,,,,,,,,,,,,,,,,,,,,,,,,,,,,
6535e36590f9255eb268a893,2023-11-23_19h40.35.221,kallum_motion_pilot,2023.1.2,Win32,60.12867537,6535e36590f9255eb268a893,656018846682f3df8008bb8f,65601b205e38d0061becee6f,1,68,230,137,1,fiveseven,,,,,,,,,,,,,,,,,,,,,,,,,,,,,,,,,,,,,,,,,,,,,,,,,,,,,,,,,,,,,,,,,,,,,,,,,,,,,,,,,,,,,
6535e36590f9255eb268a893,2023-11-23_19h40.35.221,kallum_motion_pilot,2023.1.2,Win32,60.12867537,6535e36590f9255eb268a893,656018846682f3df8008bb8f,65601b205e38d0061becee6f,1,69,231,53,1,threefour,,,,,,,,,,,,,,,,,,,,,,,,,,,,,,,,,,,,,,,,,,,,,,,,,,,,,,,,,,,,,,,,,,,,,,,,,,,,,,,,,,,,,
6535e36590f9255eb268a893,2023-11-23_19h40.35.221,kallum_motion_pilot,2023.1.2,Win32,60.12867537,6535e36590f9255eb268a893,656018846682f3df8008bb8f,65601b205e38d0061becee6f,1,70,232,150,1,eightsix,,,,,,,,,,,,,,,,,,,,,,,,,,,,,,,,,,,,,,,,,,,,,,,,,,,,,,,,,,,,,,,,,,,,,,,,,,,,,,,,,,,,,
6535e36590f9255eb268a893,2023-11-23_19h40.35.221,kallum_motion_pilot,2023.1.2,Win32,60.12867537,6535e36590f9255eb268a893,656018846682f3df8008bb8f,65601b205e38d0061becee6f,1,71,233,11,1,twofour,,,,,,,,,,,,,,,,,,,,,,,,,,,,,,,,,,,,,,,,,,,,,,,,,,,,,,,,,,,,,,,,,,,,,,,,,,,,,,,,,,,,,
6535e36590f9255eb268a893,2023-11-23_19h40.35.221,kallum_motion_pilot,2023.1.2,Win32,60.12867537,6535e36590f9255eb268a893,656018846682f3df8008bb8f,65601b205e38d0061becee6f,1,72,234,160,1,fivesix,,,,,,,,,,,,,,,,,,,,,,,,,,,,,,,,,,,,,,,,,,,,,,,,,,,,,,,,,,,,,,,,,,,,,,,,,,,,,,,,,,,,,
6535e36590f9255eb268a893,2023-11-23_19h40.35.221,kallum_motion_pilot,2023.1.2,Win32,60.12867537,6535e36590f9255eb268a893,656018846682f3df8008bb8f,65601b205e38d0061becee6f,1,73,235,9,1,onethree,,,,,,,,,,,,,,,,,,,,,,,,,,,,,,,,,,,,,,,,,,,,,,,,,,,,,,,,,,,,,,,,,,,,,,,,,,,,,,,,,,,,,
6535e36590f9255eb268a893,2023-11-23_19h40.35.221,kallum_motion_pilot,2023.1.2,Win32,60.12867537,6535e36590f9255eb268a893,656018846682f3df8008bb8f,65601b205e38d0061becee6f,1,74,236,156,1,sevenfive,,,,,,,,,,,,,,,,,,,,,,,,,,,,,,,,,,,,,,,,,,,,,,,,,,,,,,,,,,,,,,,,,,,,,,,,,,,,,,,,,,,,,
6535e36590f9255eb268a893,2023-11-23_19h40.35.221,kallum_motion_pilot,2023.1.2,Win32,60.12867537,6535e36590f9255eb268a893,656018846682f3df8008bb8f,65601b205e38d0061becee6f,1,75,237,84,1,sevenfive,,,,,,,,,,,,,,,,,,,,,,,,,,,,,,,,,,,,,,,,,,,,,,,,,,,,,,,,,,,,,,,,,,,,,,,,,,,,,,,,,,,,,
6535e36590f9255eb268a893,2023-11-23_19h40.35.221,kallum_motion_pilot,2023.1.2,Win32,60.12867537,6535e36590f9255eb268a893,656018846682f3df8008bb8f,65601b205e38d0061becee6f,1,76,238,43,1,twofour,,,,,,,,,,,,,,,,,,,,,,,,,,,,,,,,,,,,,,,,,,,,,,,,,,,,,,,,,,,,,,,,,,,,,,,,,,,,,,,,,,,,,
6535e36590f9255eb268a893,2023-11-23_19h40.35.221,kallum_motion_pilot,2023.1.2,Win32,60.12867537,6535e36590f9255eb268a893,656018846682f3df8008bb8f,65601b205e38d0061becee6f,1,77,239,85,1,seveneight,,,,,,,,,,,,,,,,,,,,,,,,,,,,,,,,,,,,,,,,,,,,,,,,,,,,,,,,,,,,,,,,,,,,,,,,,,,,,,,,,,,,,
6535e36590f9255eb268a893,2023-11-23_19h40.35.221,kallum_motion_pilot,2023.1.2,Win32,60.12867537,6535e36590f9255eb268a893,656018846682f3df8008bb8f,65601b205e38d0061becee6f,1,78,240,82,1,sixfive,,,,,,,,,,,,,,,,,,,,,,,,,,,,,,,,,,,,,,,,,,,,,,,,,,,,,,,,,,,,,,,,,,,,,,,,,,,,,,,,,,,,,
6535e36590f9255eb268a893,2023-11-23_19h40.35.221,kallum_motion_pilot,2023.1.2,Win32,60.12867537,6535e36590f9255eb268a893,656018846682f3df8008bb8f,65601b205e38d0061becee6f,1,79,241,52,1,threeone,,,,,,,,,,,,,,,,,,,,,,,,,,,,,,,,,,,,,,,,,,,,,,,,,,,,,,,,,,,,,,,,,,,,,,,,,,,,,,,,,,,,,
6535e36590f9255eb268a893,2023-11-23_19h40.35.221,kallum_motion_pilot,2023.1.2,Win32,60.12867537,6535e36590f9255eb268a893,656018846682f3df8008bb8f,65601b205e38d0061becee6f,1,80,242,118,1,eightsix,,,,,,,,,,,,,,,,,,,,,,,,,,,,,,,,,,,,,,,,,,,,,,,,,,,,,,,,,,,,,,,,,,,,,,,,,,,,,,,,,,,,,
6535e36590f9255eb268a893,2023-11-23_19h40.35.221,kallum_motion_pilot,2023.1.2,Win32,60.12867537,6535e36590f9255eb268a893,656018846682f3df8008bb8f,65601b205e38d0061becee6f,1,81,243,83,1,sixeight,,,,,,,,,,,,,,,,,,,,,,,,,,,,,,,,,,,,,,,,,,,,,,,,,,,,,,,,,,,,,,,,,,,,,,,,,,,,,,,,,,,,,
6535e36590f9255eb268a893,2023-11-23_19h40.35.221,kallum_motion_pilot,2023.1.2,Win32,60.12867537,6535e36590f9255eb268a893,656018846682f3df8008bb8f,65601b205e38d0061becee6f,1,82,244,141,1,seveneight,,,,,,,,,,,,,,,,,,,,,,,,,,,,,,,,,,,,,,,,,,,,,,,,,,,,,,,,,,,,,,,,,,,,,,,,,,,,,,,,,,,,,
6535e36590f9255eb268a893,2023-11-23_19h40.35.221,kallum_motion_pilot,2023.1.2,Win32,60.12867537,6535e36590f9255eb268a893,656018846682f3df8008bb8f,65601b205e38d0061becee6f,1,83,245,61,1,threefour,,,,,,,,,,,,,,,,,,,,,,,,,,,,,,,,,,,,,,,,,,,,,,,,,,,,,,,,,,,,,,,,,,,,,,,,,,,,,,,,,,,,,
6535e36590f9255eb268a893,2023-11-23_19h40.35.221,kallum_motion_pilot,2023.1.2,Win32,60.12867537,6535e36590f9255eb268a893,656018846682f3df8008bb8f,65601b205e38d0061becee6f,1,84,246,131,1,sixeight,,,,,,,,,,,,,,,,,,,,,,,,,,,,,,,,,,,,,,,,,,,,,,,,,,,,,,,,,,,,,,,,,,,,,,,,,,,,,,,,,,,,,
6535e36590f9255eb268a893,2023-11-23_19h40.35.221,kallum_motion_pilot,2023.1.2,Win32,60.12867537,6535e36590f9255eb268a893,656018846682f3df8008bb8f,65601b205e38d0061becee6f,1,85,247,62,1,fourtwo,,,,,,,,,,,,,,,,,,,,,,,,,,,,,,,,,,,,,,,,,,,,,,,,,,,,,,,,,,,,,,,,,,,,,,,,,,,,,,,,,,,,,
6535e36590f9255eb268a893,2023-11-23_19h40.35.221,kallum_motion_pilot,2023.1.2,Win32,60.12867537,6535e36590f9255eb268a893,656018846682f3df8008bb8f,65601b205e38d0061becee6f,1,86,248,159,1,eightseven,,,,,,,,,,,,,,,,,,,,,,,,,,,,,,,,,,,,,,,,,,,,,,,,,,,,,,,,,,,,,,,,,,,,,,,,,,,,,,,,,,,,,
6535e36590f9255eb268a893,2023-11-23_19h40.35.221,kallum_motion_pilot,2023.1.2,Win32,60.12867537,6535e36590f9255eb268a893,656018846682f3df8008bb8f,65601b205e38d0061becee6f,1,87,249,16,1,onetwo,,,,,,,,,,,,,,,,,,,,,,,,,,,,,,,,,,,,,,,,,,,,,,,,,,,,,,,,,,,,,,,,,,,,,,,,,,,,,,,,,,,,,
6535e36590f9255eb268a893,2023-11-23_19h40.35.221,kallum_motion_pilot,2023.1.2,Win32,60.12867537,6535e36590f9255eb268a893,656018846682f3df8008bb8f,65601b205e38d0061becee6f,1,88,250,113,1,fiveseven,,,,,,,,,,,,,,,,,,,,,,,,,,,,,,,,,,,,,,,,,,,,,,,,,,,,,,,,,,,,,,,,,,,,,,,,,,,,,,,,,,,,,
6535e36590f9255eb268a893,2023-11-23_19h40.35.221,kallum_motion_pilot,2023.1.2,Win32,60.12867537,6535e36590f9255eb268a893,656018846682f3df8008bb8f,65601b205e38d0061becee6f,1,89,251,18,1,twoone,,,,,,,,,,,,,,,,,,,,,,,,,,,,,,,,,,,,,,,,,,,,,,,,,,,,,,,,,,,,,,,,,,,,,,,,,,,,,,,,,,,,,
6535e36590f9255eb268a893,2023-11-23_19h40.35.221,kallum_motion_pilot,2023.1.2,Win32,60.12867537,6535e36590f9255eb268a893,656018846682f3df8008bb8f,65601b205e38d0061becee6f,1,90,252,98,1,sixfive,,,,,,,,,,,,,,,,,,,,,,,,,,,,,,,,,,,,,,,,,,,,,,,,,,,,,,,,,,,,,,,,,,,,,,,,,,,,,,,,,,,,,
6535e36590f9255eb268a893,2023-11-23_19h40.35.221,kallum_motion_pilot,2023.1.2,Win32,60.12867537,6535e36590f9255eb268a893,656018846682f3df8008bb8f,65601b205e38d0061becee6f,1,91,253,114,1,sixfive,,,,,,,,,,,,,,,,,,,,,,,,,,,,,,,,,,,,,,,,,,,,,,,,,,,,,,,,,,,,,,,,,,,,,,,,,,,,,,,,,,,,,
6535e36590f9255eb268a893,2023-11-23_19h40.35.221,kallum_motion_pilot,2023.1.2,Win32,60.12867537,6535e36590f9255eb268a893,656018846682f3df8008bb8f,65601b205e38d0061becee6f,1,92,254,36,1,threeone,,,,,,,,,,,,,,,,,,,,,,,,,,,,,,,,,,,,,,,,,,,,,,,,,,,,,,,,,,,,,,,,,,,,,,,,,,,,,,,,,,,,,
6535e36590f9255eb268a893,2023-11-23_19h40.35.221,kallum_motion_pilot,2023.1.2,Win32,60.12867537,6535e36590f9255eb268a893,656018846682f3df8008bb8f,65601b205e38d0061becee6f,1,93,255,15,1,fourthree,,,,,,,,,,,,,,,,,,,,,,,,,,,,,,,,,,,,,,,,,,,,,,,,,,,,,,,,,,,,,,,,,,,,,,,,,,,,,,,,,,,,,
6535e36590f9255eb268a893,2023-11-23_19h40.35.221,kallum_motion_pilot,2023.1.2,Win32,60.12867537,6535e36590f9255eb268a893,656018846682f3df8008bb8f,65601b205e38d0061becee6f,1,94,256,17,1,onethree,,,,,,,,,,,,,,,,,,,,,,,,,,,,,,,,,,,,,,,,,,,,,,,,,,,,,,,,,,,,,,,,,,,,,,,,,,,,,,,,,,,,,
6535e36590f9255eb268a893,2023-11-23_19h40.35.221,kallum_motion_pilot,2023.1.2,Win32,60.12867537,6535e36590f9255eb268a893,656018846682f3df8008bb8f,65601b205e38d0061becee6f,1,95,257,78,1,fourtwo,,,,,,,,,,,,,,,,,,,,,,,,,,,,,,,,,,,,,,,,,,,,,,,,,,,,,,,,,,,,,,,,,,,,,,,,,,,,,,,,,,,,,
6535e36590f9255eb268a893,2023-11-23_19h40.35.221,kallum_motion_pilot,2023.1.2,Win32,60.12867537,6535e36590f9255eb268a893,656018846682f3df8008bb8f,65601b205e38d0061becee6f,1,96,258,12,1,threeone,,,,,,,,,,,,,,,,,,,,,,,,,,,,,,,,,,,,,,,,,,,,,,,,,,,,,,,,,,,,,,,,,,,,,,,,,,,,,,,,,,,,,
6535e36590f9255eb268a893,2023-11-23_19h40.35.221,kallum_motion_pilot,2023.1.2,Win32,60.12867537,6535e36590f9255eb268a893,656018846682f3df8008bb8f,65601b205e38d0061becee6f,1,97,259,105,1,fiveseven,,,,,,,,,,,,,,,,,,,,,,,,,,,,,,,,,,,,,,,,,,,,,,,,,,,,,,,,,,,,,,,,,,,,,,,,,,,,,,,,,,,,,
6535e36590f9255eb268a893,2023-11-23_19h40.35.221,kallum_motion_pilot,2023.1.2,Win32,60.12867537,6535e36590f9255eb268a893,656018846682f3df8008bb8f,65601b205e38d0061becee6f,1,98,260,142,1,eightsix,,,,,,,,,,,,,,,,,,,,,,,,,,,,,,,,,,,,,,,,,,,,,,,,,,,,,,,,,,,,,,,,,,,,,,,,,,,,,,,,,,,,,
6535e36590f9255eb268a893,2023-11-23_19h40.35.221,kallum_motion_pilot,2023.1.2,Win32,60.12867537,6535e36590f9255eb268a893,656018846682f3df8008bb8f,65601b205e38d0061becee6f,1,99,261,67,1,twofour,,,,,,,,,,,,,,,,,,,,,,,,,,,,,,,,,,,,,,,,,,,,,,,,,,,,,,,,,,,,,,,,,,,,,,,,,,,,,,,,,,,,,
6535e36590f9255eb268a893,2023-11-23_19h40.35.221,kallum_motion_pilot,2023.1.2,Win32,60.12867537,6535e36590f9255eb268a893,656018846682f3df8008bb8f,65601b205e38d0061becee6f,1,100,262,95,1,eightseven,,,,,,,,,,,,,,,,,,,,,,,,,,,,,,,,,,,,,,,,,,,,,,,,,,,,,,,,,,,,,,,,,,,,,,,,,,,,,,,,,,,,,
6535e36590f9255eb268a893,2023-11-23_19h40.35.221,kallum_motion_pilot,2023.1.2,Win32,60.12867537,6535e36590f9255eb268a893,656018846682f3df8008bb8f,65601b205e38d0061becee6f,1,101,263,128,1,fivesix,,,,,,,,,,,,,,,,,,,,,,,,,,,,,,,,,,,,,,,,,,,,,,,,,,,,,,,,,,,,,,,,,,,,,,,,,,,,,,,,,,,,,
6535e36590f9255eb268a893,2023-11-23_19h40.35.221,kallum_motion_pilot,2023.1.2,Win32,60.12867537,6535e36590f9255eb268a893,656018846682f3df8008bb8f,65601b205e38d0061becee6f,1,102,264,63,1,fourthree,,,,,,,,,,,,,,,,,,,,,,,,,,,,,,,,,,,,,,,,,,,,,,,,,,,,,,,,,,,,,,,,,,,,,,,,,,,,,,,,,,,,,
6535e36590f9255eb268a893,2023-11-23_19h40.35.221,kallum_motion_pilot,2023.1.2,Win32,60.12867537,6535e36590f9255eb268a893,656018846682f3df8008bb8f,65601b205e38d0061becee6f,1,103,265,138,1,sixfive,,,,,,,,,,,,,,,,,,,,,,,,,,,,,,,,,,,,,,,,,,,,,,,,,,,,,,,,,,,,,,,,,,,,,,,,,,,,,,,,,,,,,
6535e36590f9255eb268a893,2023-11-23_19h40.35.221,kallum_motion_pilot,2023.1.2,Win32,60.12867537,6535e36590f9255eb268a893,656018846682f3df8008bb8f,65601b205e38d0061becee6f,1,104,266,132,1,sevenfive,,,,,,,,,,,,,,,,,,,,,,,,,,,,,,,,,,,,,,,,,,,,,,,,,,,,,,,,,,,,,,,,,,,,,,,,,,,,,,,,,,,,,
6535e36590f9255eb268a893,2023-11-23_19h40.35.221,kallum_motion_pilot,2023.1.2,Win32,60.12867537,6535e36590f9255eb268a893,656018846682f3df8008bb8f,65601b205e38d0061becee6f,1,105,267,100,1,sevenfive,,,,,,,,,,,,,,,,,,,,,,,,,,,,,,,,,,,,,,,,,,,,,,,,,,,,,,,,,,,,,,,,,,,,,,,,,,,,,,,,,,,,,
6535e36590f9255eb268a893,2023-11-23_19h40.35.221,kallum_motion_pilot,2023.1.2,Win32,60.12867537,6535e36590f9255eb268a893,656018846682f3df8008bb8f,65601b205e38d0061becee6f,1,106,268,115,1,sixeight,,,,,,,,,,,,,,,,,,,,,,,,,,,,,,,,,,,,,,,,,,,,,,,,,,,,,,,,,,,,,,,,,,,,,,,,,,,,,,,,,,,,,
6535e36590f9255eb268a893,2023-11-23_19h40.35.221,kallum_motion_pilot,2023.1.2,Win32,60.12867537,6535e36590f9255eb268a893,656018846682f3df8008bb8f,65601b205e38d0061becee6f,1,107,269,151,1,eightseven,,,,,,,,,,,,,,,,,,,,,,,,,,,,,,,,,,,,,,,,,,,,,,,,,,,,,,,,,,,,,,,,,,,,,,,,,,,,,,,,,,,,,
6535e36590f9255eb268a893,2023-11-23_19h40.35.221,kallum_motion_pilot,2023.1.2,Win32,60.12867537,6535e36590f9255eb268a893,656018846682f3df8008bb8f,65601b205e38d0061becee6f,1,108,270,94,1,eightsix,,,,,,,,,,,,,,,,,,,,,,,,,,,,,,,,,,,,,,,,,,,,,,,,,,,,,,,,,,,,,,,,,,,,,,,,,,,,,,,,,,,,,
6535e36590f9255eb268a893,2023-11-23_19h40.35.221,kallum_motion_pilot,2023.1.2,Win32,60.12867537,6535e36590f9255eb268a893,656018846682f3df8008bb8f,65601b205e38d0061becee6f,1,109,271,50,1,twoone,,,,,,,,,,,,,,,,,,,,,,,,,,,,,,,,,,,,,,,,,,,,,,,,,,,,,,,,,,,,,,,,,,,,,,,,,,,,,,,,,,,,,
6535e36590f9255eb268a893,2023-11-23_19h40.35.221,kallum_motion_pilot,2023.1.2,Win32,60.12867537,6535e36590f9255eb268a893,656018846682f3df8008bb8f,65601b205e38d0061becee6f,1,110,272,103,1,eightseven,,,,,,,,,,,,,,,,,,,,,,,,,,,,,,,,,,,,,,,,,,,,,,,,,,,,,,,,,,,,,,,,,,,,,,,,,,,,,,,,,,,,,
6535e36590f9255eb268a893,2023-11-23_19h40.35.221,kallum_motion_pilot,2023.1.2,Win32,60.12867537,6535e36590f9255eb268a893,656018846682f3df8008bb8f,65601b205e38d0061becee6f,1,111,273,8,1,onetwo,,,,,,,,,,,,,,,,,,,,,,,,,,,,,,,,,,,,,,,,,,,,,,,,,,,,,,,,,,,,,,,,,,,,,,,,,,,,,,,,,,,,,
6535e36590f9255eb268a893,2023-11-23_19h40.35.221,kallum_motion_pilot,2023.1.2,Win32,60.12867537,6535e36590f9255eb268a893,656018846682f3df8008bb8f,65601b205e38d0061becee6f,1,112,274,69,1,threefour,,,,,,,,,,,,,,,,,,,,,,,,,,,,,,,,,,,,,,,,,,,,,,,,,,,,,,,,,,,,,,,,,,,,,,,,,,,,,,,,,,,,,
6535e36590f9255eb268a893,2023-11-23_19h40.35.221,kallum_motion_pilot,2023.1.2,Win32,60.12867537,6535e36590f9255eb268a893,656018846682f3df8008bb8f,65601b205e38d0061becee6f,1,113,275,107,1,sixeight,,,,,,,,,,,,,,,,,,,,,,,,,,,,,,,,,,,,,,,,,,,,,,,,,,,,,,,,,,,,,,,,,,,,,,,,,,,,,,,,,,,,,
6535e36590f9255eb268a893,2023-11-23_19h40.35.221,kallum_motion_pilot,2023.1.2,Win32,60.12867537,6535e36590f9255eb268a893,656018846682f3df8008bb8f,65601b205e38d0061becee6f,1,114,276,102,1,eightsix,,,,,,,,,,,,,,,,,,,,,,,,,,,,,,,,,,,,,,,,,,,,,,,,,,,,,,,,,,,,,,,,,,,,,,,,,,,,,,,,,,,,,
6535e36590f9255eb268a893,2023-11-23_19h40.35.221,kallum_motion_pilot,2023.1.2,Win32,60.12867537,6535e36590f9255eb268a893,656018846682f3df8008bb8f,65601b205e38d0061becee6f,1,115,277,1,1,onethree,,,,,,,,,,,,,,,,,,,,,,,,,,,,,,,,,,,,,,,,,,,,,,,,,,,,,,,,,,,,,,,,,,,,,,,,,,,,,,,,,,,,,
6535e36590f9255eb268a893,2023-11-23_19h40.35.221,kallum_motion_pilot,2023.1.2,Win32,60.12867537,6535e36590f9255eb268a893,656018846682f3df8008bb8f,65601b205e38d0061becee6f,1,116,278,5,1,threefour,,,,,,,,,,,,,,,,,,,,,,,,,,,,,,,,,,,,,,,,,,,,,,,,,,,,,,,,,,,,,,,,,,,,,,,,,,,,,,,,,,,,,
6535e36590f9255eb268a893,2023-11-23_19h40.35.221,kallum_motion_pilot,2023.1.2,Win32,60.12867537,6535e36590f9255eb268a893,656018846682f3df8008bb8f,65601b205e38d0061becee6f,1,117,279,104,1,fivesix,,,,,,,,,,,,,,,,,,,,,,,,,,,,,,,,,,,,,,,,,,,,,,,,,,,,,,,,,,,,,,,,,,,,,,,,,,,,,,,,,,,,,
6535e36590f9255eb268a893,2023-11-23_19h40.35.221,kallum_motion_pilot,2023.1.2,Win32,60.12867537,6535e36590f9255eb268a893,656018846682f3df8008bb8f,65601b205e38d0061becee6f,1,118,280,140,1,sevenfive,,,,,,,,,,,,,,,,,,,,,,,,,,,,,,,,,,,,,,,,,,,,,,,,,,,,,,,,,,,,,,,,,,,,,,,,,,,,,,,,,,,,,
6535e36590f9255eb268a893,2023-11-23_19h40.35.221,kallum_motion_pilot,2023.1.2,Win32,60.12867537,6535e36590f9255eb268a893,656018846682f3df8008bb8f,65601b205e38d0061becee6f,1,119,281,120,1,fivesix,,,,,,,,,,,,,,,,,,,,,,,,,,,,,,,,,,,,,,,,,,,,,,,,,,,,,,,,,,,,,,,,,,,,,,,,,,,,,,,,,,,,,
6535e36590f9255eb268a893,2023-11-23_19h40.35.221,kallum_motion_pilot,2023.1.2,Win32,60.12867537,6535e36590f9255eb268a893,656018846682f3df8008bb8f,65601b205e38d0061becee6f,1,120,282,14,1,fourtwo,,,,,,,,,,,,,,,,,,,,,,,,,,,,,,,,,,,,,,,,,,,,,,,,,,,,,,,,,,,,,,,,,,,,,,,,,,,,,,,,,,,,,
6535e36590f9255eb268a893,2023-11-23_19h40.35.221,kallum_motion_pilot,2023.1.2,Win32,60.12867537,6535e36590f9255eb268a893,656018846682f3df8008bb8f,65601b205e38d0061becee6f,1,121,283,119,1,eightseven,,,,,,,,,,,,,,,,,,,,,,,,,,,,,,,,,,,,,,,,,,,,,,,,,,,,,,,,,,,,,,,,,,,,,,,,,,,,,,,,,,,,,
6535e36590f9255eb268a893,2023-11-23_19h40.35.221,kallum_motion_pilot,2023.1.2,Win32,60.12867537,6535e36590f9255eb268a893,656018846682f3df8008bb8f,65601b205e38d0061becee6f,1,122,284,41,1,onethree,,,,,,,,,,,,,,,,,,,,,,,,,,,,,,,,,,,,,,,,,,,,,,,,,,,,,,,,,,,,,,,,,,,,,,,,,,,,,,,,,,,,,
6535e36590f9255eb268a893,2023-11-23_19h40.35.221,kallum_motion_pilot,2023.1.2,Win32,60.12867537,6535e36590f9255eb268a893,656018846682f3df8008bb8f,65601b205e38d0061becee6f,1,123,285,55,1,fourthree,,,,,,,,,,,,,,,,,,,,,,,,,,,,,,,,,,,,,,,,,,,,,,,,,,,,,,,,,,,,,,,,,,,,,,,,,,,,,,,,,,,,,
6535e36590f9255eb268a893,2023-11-23_19h40.35.221,kallum_motion_pilot,2023.1.2,Win32,60.12867537,6535e36590f9255eb268a893,656018846682f3df8008bb8f,65601b205e38d0061becee6f,1,124,286,45,1,threefour,,,,,,,,,,,,,,,,,,,,,,,,,,,,,,,,,,,,,,,,,,,,,,,,,,,,,,,,,,,,,,,,,,,,,,,,,,,,,,,,,,,,,
6535e36590f9255eb268a893,2023-11-23_19h40.35.221,kallum_motion_pilot,2023.1.2,Win32,60.12867537,6535e36590f9255eb268a893,656018846682f3df8008bb8f,65601b205e38d0061becee6f,1,125,287,144,1,fivesix,,,,,,,,,,,,,,,,,,,,,,,,,,,,,,,,,,,,,,,,,,,,,,,,,,,,,,,,,,,,,,,,,,,,,,,,,,,,,,,,,,,,,
6535e36590f9255eb268a893,2023-11-23_19h40.35.221,kallum_motion_pilot,2023.1.2,Win32,60.12867537,6535e36590f9255eb268a893,656018846682f3df8008bb8f,65601b205e38d0061becee6f,1,126,288,143,1,eightseven,,,,,,,,,,,,,,,,,,,,,,,,,,,,,,,,,,,,,,,,,,,,,,,,,,,,,,,,,,,,,,,,,,,,,,,,,,,,,,,,,,,,,
6535e36590f9255eb268a893,2023-11-23_19h40.35.221,kallum_motion_pilot,2023.1.2,Win32,60.12867537,6535e36590f9255eb268a893,656018846682f3df8008bb8f,65601b205e38d0061becee6f,1,127,289,58,1,twoone,,,,,,,,,,,,,,,,,,,,,,,,,,,,,,,,,,,,,,,,,,,,,,,,,,,,,,,,,,,,,,,,,,,,,,,,,,,,,,,,,,,,,
6535e36590f9255eb268a893,2023-11-23_19h40.35.221,kallum_motion_pilot,2023.1.2,Win32,60.12867537,6535e36590f9255eb268a893,656018846682f3df8008bb8f,65601b205e38d0061becee6f,1,128,290,73,1,onethree,,,,,,,,,,,,,,,,,,,,,,,,,,,,,,,,,,,,,,,,,,,,,,,,,,,,,,,,,,,,,,,,,,,,,,,,,,,,,,,,,,,,,
6535e36590f9255eb268a893,2023-11-23_19h40.35.221,kallum_motion_pilot,2023.1.2,Win32,60.12867537,6535e36590f9255eb268a893,656018846682f3df8008bb8f,65601b205e38d0061becee6f,1,129,291,123,1,sixeight,,,,,,,,,,,,,,,,,,,,,,,,,,,,,,,,,,,,,,,,,,,,,,,,,,,,,,,,,,,,,,,,,,,,,,,,,,,,,,,,,,,,,
6535e36590f9255eb268a893,2023-11-23_19h40.35.221,kallum_motion_pilot,2023.1.2,Win32,60.12867537,6535e36590f9255eb268a893,656018846682f3df8008bb8f,65601b205e38d0061becee6f,1,130,292,79,1,eightseven,,,,,,,,,,,,,,,,,,,,,,,,,,,,,,,,,,,,,,,,,,,,,,,,,,,,,,,,,,,,,,,,,,,,,,,,,,,,,,,,,,,,,
6535e36590f9255eb268a893,2023-11-23_19h40.35.221,kallum_motion_pilot,2023.1.2,Win32,60.12867537,6535e36590f9255eb268a893,656018846682f3df8008bb8f,65601b205e38d0061becee6f,1,131,293,126,1,eightsix,,,,,,,,,,,,,,,,,,,,,,,,,,,,,,,,,,,,,,,,,,,,,,,,,,,,,,,,,,,,,,,,,,,,,,,,,,,,,,,,,,,,,
6535e36590f9255eb268a893,2023-11-23_19h40.35.221,kallum_motion_pilot,2023.1.2,Win32,60.12867537,6535e36590f9255eb268a893,656018846682f3df8008bb8f,65601b205e38d0061becee6f,1,132,294,4,1,threeone,,,,,,,,,,,,,,,,,,,,,,,,,,,,,,,,,,,,,,,,,,,,,,,,,,,,,,,,,,,,,,,,,,,,,,,,,,,,,,,,,,,,,
6535e36590f9255eb268a893,2023-11-23_19h40.35.221,kallum_motion_pilot,2023.1.2,Win32,60.12867537,6535e36590f9255eb268a893,656018846682f3df8008bb8f,65601b205e38d0061becee6f,1,133,295,66,1,twoone,,,,,,,,,,,,,,,,,,,,,,,,,,,,,,,,,,,,,,,,,,,,,,,,,,,,,,,,,,,,,,,,,,,,,,,,,,,,,,,,,,,,,
6535e36590f9255eb268a893,2023-11-23_19h40.35.221,kallum_motion_pilot,2023.1.2,Win32,60.12867537,6535e36590f9255eb268a893,656018846682f3df8008bb8f,65601b205e38d0061becee6f,1,134,296,26,1,twoone,,,,,,,,,,,,,,,,,,,,,,,,,,,,,,,,,,,,,,,,,,,,,,,,,,,,,,,,,,,,,,,,,,,,,,,,,,,,,,,,,,,,,
6535e36590f9255eb268a893,2023-11-23_19h40.35.221,kallum_motion_pilot,2023.1.2,Win32,60.12867537,6535e36590f9255eb268a893,656018846682f3df8008bb8f,65601b205e38d0061becee6f,1,135,297,74,1,twoone,,,,,,,,,,,,,,,,,,,,,,,,,,,,,,,,,,,,,,,,,,,,,,,,,,,,,,,,,,,,,,,,,,,,,,,,,,,,,,,,,,,,,
6535e36590f9255eb268a893,2023-11-23_19h40.35.221,kallum_motion_pilot,2023.1.2,Win32,60.12867537,6535e36590f9255eb268a893,656018846682f3df8008bb8f,65601b205e38d0061becee6f,1,136,298,155,1,sixeight,,,,,,,,,,,,,,,,,,,,,,,,,,,,,,,,,,,,,,,,,,,,,,,,,,,,,,,,,,,,,,,,,,,,,,,,,,,,,,,,,,,,,
6535e36590f9255eb268a893,2023-11-23_19h40.35.221,kallum_motion_pilot,2023.1.2,Win32,60.12867537,6535e36590f9255eb268a893,656018846682f3df8008bb8f,65601b205e38d0061becee6f,1,137,299,22,1,fourtwo,,,,,,,,,,,,,,,,,,,,,,,,,,,,,,,,,,,,,,,,,,,,,,,,,,,,,,,,,,,,,,,,,,,,,,,,,,,,,,,,,,,,,
6535e36590f9255eb268a893,2023-11-23_19h40.35.221,kallum_motion_pilot,2023.1.2,Win32,60.12867537,6535e36590f9255eb268a893,656018846682f3df8008bb8f,65601b205e38d0061becee6f,1,138,300,39,1,fourthree,,,,,,,,,,,,,,,,,,,,,,,,,,,,,,,,,,,,,,,,,,,,,,,,,,,,,,,,,,,,,,,,,,,,,,,,,,,,,,,,,,,,,
6535e36590f9255eb268a893,2023-11-23_19h40.35.221,kallum_motion_pilot,2023.1.2,Win32,60.12867537,6535e36590f9255eb268a893,656018846682f3df8008bb8f,65601b205e38d0061becee6f,1,139,301,76,1,threeone,,,,,,,,,,,,,,,,,,,,,,,,,,,,,,,,,,,,,,,,,,,,,,,,,,,,,,,,,,,,,,,,,,,,,,,,,,,,,,,,,,,,,
6535e36590f9255eb268a893,2023-11-23_19h40.35.221,kallum_motion_pilot,2023.1.2,Win32,60.12867537,6535e36590f9255eb268a893,656018846682f3df8008bb8f,65601b205e38d0061becee6f,1,140,302,157,1,seveneight,,,,,,,,,,,,,,,,,,,,,,,,,,,,,,,,,,,,,,,,,,,,,,,,,,,,,,,,,,,,,,,,,,,,,,,,,,,,,,,,,,,,,
6535e36590f9255eb268a893,2023-11-23_19h40.35.221,kallum_motion_pilot,2023.1.2,Win32,60.12867537,6535e36590f9255eb268a893,656018846682f3df8008bb8f,65601b205e38d0061becee6f,1,141,303,6,1,fourtwo,,,,,,,,,,,,,,,,,,,,,,,,,,,,,,,,,,,,,,,,,,,,,,,,,,,,,,,,,,,,,,,,,,,,,,,,,,,,,,,,,,,,,
6535e36590f9255eb268a893,2023-11-23_19h40.35.221,kallum_motion_pilot,2023.1.2,Win32,60.12867537,6535e36590f9255eb268a893,656018846682f3df8008bb8f,65601b205e38d0061becee6f,1,142,304,13,1,threefour,,,,,,,,,,,,,,,,,,,,,,,,,,,,,,,,,,,,,,,,,,,,,,,,,,,,,,,,,,,,,,,,,,,,,,,,,,,,,,,,,,,,,
6535e36590f9255eb268a893,2023-11-23_19h40.35.221,kallum_motion_pilot,2023.1.2,Win32,60.12867537,6535e36590f9255eb268a893,656018846682f3df8008bb8f,65601b205e38d0061becee6f,1,143,305,2,1,twoone,,,,,,,,,,,,,,,,,,,,,,,,,,,,,,,,,,,,,,,,,,,,,,,,,,,,,,,,,,,,,,,,,,,,,,,,,,,,,,,,,,,,,
6535e36590f9255eb268a893,2023-11-23_19h40.35.221,kallum_motion_pilot,2023.1.2,Win32,60.12867537,6535e36590f9255eb268a893,656018846682f3df8008bb8f,65601b205e38d0061becee6f,1,144,306,71,1,fourthree,,,,,,,,,,,,,,,,,,,,,,,,,,,,,,,,,,,,,,,,,,,,,,,,,,,,,,,,,,,,,,,,,,,,,,,,,,,,,,,,,,,,,
6535e36590f9255eb268a893,2023-11-23_19h40.35.221,kallum_motion_pilot,2023.1.2,Win32,60.12867537,6535e36590f9255eb268a893,656018846682f3df8008bb8f,65601b205e38d0061becee6f,1,145,307,64,1,onetwo,,,,,,,,,,,,,,,,,,,,,,,,,,,,,,,,,,,,,,,,,,,,,,,,,,,,,,,,,,,,,,,,,,,,,,,,,,,,,,,,,,,,,
6535e36590f9255eb268a893,2023-11-23_19h40.35.221,kallum_motion_pilot,2023.1.2,Win32,60.12867537,6535e36590f9255eb268a893,656018846682f3df8008bb8f,65601b205e38d0061becee6f,1,146,308,70,1,fourtwo,,,,,,,,,,,,,,,,,,,,,,,,,,,,,,,,,,,,,,,,,,,,,,,,,,,,,,,,,,,,,,,,,,,,,,,,,,,,,,,,,,,,,
6535e36590f9255eb268a893,2023-11-23_19h40.35.221,kallum_motion_pilot,2023.1.2,Win32,60.12867537,6535e36590f9255eb268a893,656018846682f3df8008bb8f,65601b205e38d0061becee6f,1,147,309,48,1,onetwo,,,,,,,,,,,,,,,,,,,,,,,,,,,,,,,,,,,,,,,,,,,,,,,,,,,,,,,,,,,,,,,,,,,,,,,,,,,,,,,,,,,,,
6535e36590f9255eb268a893,2023-11-23_19h40.35.221,kallum_motion_pilot,2023.1.2,Win32,60.12867537,6535e36590f9255eb268a893,656018846682f3df8008bb8f,65601b205e38d0061becee6f,1,148,310,134,1,eightsix,,,,,,,,,,,,,,,,,,,,,,,,,,,,,,,,,,,,,,,,,,,,,,,,,,,,,,,,,,,,,,,,,,,,,,,,,,,,,,,,,,,,,
6535e36590f9255eb268a893,2023-11-23_19h40.35.221,kallum_motion_pilot,2023.1.2,Win32,60.12867537,6535e36590f9255eb268a893,656018846682f3df8008bb8f,65601b205e38d0061becee6f,1,149,311,147,1,sixeight,,,,,,,,,,,,,,,,,,,,,,,,,,,,,,,,,,,,,,,,,,,,,,,,,,,,,,,,,,,,,,,,,,,,,,,,,,,,,,,,,,,,,
6535e36590f9255eb268a893,2023-11-23_19h40.35.221,kallum_motion_pilot,2023.1.2,Win32,60.12867537,6535e36590f9255eb268a893,656018846682f3df8008bb8f,65601b205e38d0061becee6f,1,150,312,158,1,eightsix,,,,,,,,,,,,,,,,,,,,,,,,,,,,,,,,,,,,,,,,,,,,,,,,,,,,,,,,,,,,,,,,,,,,,,,,,,,,,,,,,,,,,
6535e36590f9255eb268a893,2023-11-23_19h40.35.221,kallum_motion_pilot,2023.1.2,Win32,60.12867537,6535e36590f9255eb268a893,656018846682f3df8008bb8f,65601b205e38d0061becee6f,1,151,313,110,1,eightsix,,,,,,,,,,,,,,,,,,,,,,,,,,,,,,,,,,,,,,,,,,,,,,,,,,,,,,,,,,,,,,,,,,,,,,,,,,,,,,,,,,,,,
6535e36590f9255eb268a893,2023-11-23_19h40.35.221,kallum_motion_pilot,2023.1.2,Win32,60.12867537,6535e36590f9255eb268a893,656018846682f3df8008bb8f,65601b205e38d0061becee6f,1,152,314,133,1,seveneight,,,,,,,,,,,,,,,,,,,,,,,,,,,,,,,,,,,,,,,,,,,,,,,,,,,,,,,,,,,,,,,,,,,,,,,,,,,,,,,,,,,,,
6535e36590f9255eb268a893,2023-11-23_19h40.35.221,kallum_motion_pilot,2023.1.2,Win32,60.12867537,6535e36590f9255eb268a893,656018846682f3df8008bb8f,65601b205e38d0061becee6f,1,153,315,139,1,sixeight,,,,,,,,,,,,,,,,,,,,,,,,,,,,,,,,,,,,,,,,,,,,,,,,,,,,,,,,,,,,,,,,,,,,,,,,,,,,,,,,,,,,,
6535e36590f9255eb268a893,2023-11-23_19h40.35.221,kallum_motion_pilot,2023.1.2,Win32,60.12867537,6535e36590f9255eb268a893,656018846682f3df8008bb8f,65601b205e38d0061becee6f,1,154,316,149,1,seveneight,,,,,,,,,,,,,,,,,,,,,,,,,,,,,,,,,,,,,,,,,,,,,,,,,,,,,,,,,,,,,,,,,,,,,,,,,,,,,,,,,,,,,
6535e36590f9255eb268a893,2023-11-23_19h40.35.221,kallum_motion_pilot,2023.1.2,Win32,60.12867537,6535e36590f9255eb268a893,656018846682f3df8008bb8f,65601b205e38d0061becee6f,1,155,317,23,1,fourthree,,,,,,,,,,,,,,,,,,,,,,,,,,,,,,,,,,,,,,,,,,,,,,,,,,,,,,,,,,,,,,,,,,,,,,,,,,,,,,,,,,,,,
6535e36590f9255eb268a893,2023-11-23_19h40.35.221,kallum_motion_pilot,2023.1.2,Win32,60.12867537,6535e36590f9255eb268a893,656018846682f3df8008bb8f,65601b205e38d0061becee6f,1,156,318,72,1,onetwo,,,,,,,,,,,,,,,,,,,,,,,,,,,,,,,,,,,,,,,,,,,,,,,,,,,,,,,,,,,,,,,,,,,,,,,,,,,,,,,,,,,,,
6535e36590f9255eb268a893,2023-11-23_19h40.35.221,kallum_motion_pilot,2023.1.2,Win32,60.12867537,6535e36590f9255eb268a893,656018846682f3df8008bb8f,65601b205e38d0061becee6f,1,157,319,21,1,threefour,,,,,,,,,,,,,,,,,,,,,,,,,,,,,,,,,,,,,,,,,,,,,,,,,,,,,,,,,,,,,,,,,,,,,,,,,,,,,,,,,,,,,
6535e36590f9255eb268a893,2023-11-23_19h40.35.221,kallum_motion_pilot,2023.1.2,Win32,60.12867537,6535e36590f9255eb268a893,656018846682f3df8008bb8f,65601b205e38d0061becee6f,1,158,320,145,1,fiveseven,,,,,,,,,,,,,,,,,,,,,,,,,,,,,,,,,,,,,,,,,,,,,,,,,,,,,,,,,,,,,,,,,,,,,,,,,,,,,,,,,,,,,
6535e36590f9255eb268a893,2023-11-23_19h40.35.221,kallum_motion_pilot,2023.1.2,Win32,60.12867537,6535e36590f9255eb268a893,656018846682f3df8008bb8f,65601b205e38d0061becee6f,1,159,321,29,1,threefour,,,,,,,,,,,,,,,,,,,,,,,,,,,,,,,,,,,,,,,,,,,,,,,,,,,,,,,,,,,,,,,,,,,,,,,,,,,,,,,,,,,,,
6535e36590f9255eb268a893,2023-11-23_19h40.35.221,kallum_motion_pilot,2023.1.2,Win32,60.12867537,6535e36590f9255eb268a893,656018846682f3df8008bb8f,65601b205e38d0061becee6f,1,160,322,86,1,eightsix,,,,,,,,,,,,,,,,,,,,,,,,,,,,,,,,,,,,,,,,,,,,,,,,,,,,,,,,,,,,,,,,,,,,,,,,,,,,,,,,,,,,,
6535e36590f9255eb268a893,2023-11-23_19h40.35.221,kallum_motion_pilot,2023.1.2,Win32,60.12867537,6535e36590f9255eb268a893,656018846682f3df8008bb8f,65601b205e38d0061becee6f,1,161,323,0,1,onetwo,,,,,,,,,,,,,,,,,,,,,,,,,,,,,,,,,,,,,,,,,,,,,,,,,,,,,,,,,,,,,,,,,,,,,,,,,,,,,,,,,,,,,
6535e36590f9255eb268a893,2023-11-23_19h40.35.221,kallum_motion_pilot,2023.1.2,Win32,60.12867537,6535e36590f9255eb268a893,656018846682f3df8008bb8f,65601b205e38d0061becee6f,2,0,324,56,1,onetwo,,,,,,,,,,,,,,,,,,,,,,,,,,,,,,,,,,,,,,,,,,,,,,,,,,,,,,,,,,,,,,,,,,,,,,,,,,,,,,,,,,,,,
6535e36590f9255eb268a893,2023-11-23_19h40.35.221,kallum_motion_pilot,2023.1.2,Win32,60.12867537,6535e36590f9255eb268a893,656018846682f3df8008bb8f,65601b205e38d0061becee6f,2,1,325,128,1,fivesix,,,,,,,,,,,,,,,,,,,,,,,,,,,,,,,,,,,,,,,,,,,,,,,,,,,,,,,,,,,,,,,,,,,,,,,,,,,,,,,,,,,,,
6535e36590f9255eb268a893,2023-11-23_19h40.35.221,kallum_motion_pilot,2023.1.2,Win32,60.12867537,6535e36590f9255eb268a893,656018846682f3df8008bb8f,65601b205e38d0061becee6f,2,2,326,82,1,sixfive,,,,,,,,,,,,,,,,,,,,,,,,,,,,,,,,,,,,,,,,,,,,,,,,,,,,,,,,,,,,,,,,,,,,,,,,,,,,,,,,,,,,,
6535e36590f9255eb268a893,2023-11-23_19h40.35.221,kallum_motion_pilot,2023.1.2,Win32,60.12867537,6535e36590f9255eb268a893,656018846682f3df8008bb8f,65601b205e38d0061becee6f,2,3,327,75,1,twofour,,,,,,,,,,,,,,,,,,,,,,,,,,,,,,,,,,,,,,,,,,,,,,,,,,,,,,,,,,,,,,,,,,,,,,,,,,,,,,,,,,,,,
6535e36590f9255eb268a893,2023-11-23_19h40.35.221,kallum_motion_pilot,2023.1.2,Win32,60.12867537,6535e36590f9255eb268a893,656018846682f3df8008bb8f,65601b205e38d0061becee6f,2,4,328,92,1,sevenfive,,,,,,,,,,,,,,,,,,,,,,,,,,,,,,,,,,,,,,,,,,,,,,,,,,,,,,,,,,,,,,,,,,,,,,,,,,,,,,,,,,,,,
6535e36590f9255eb268a893,2023-11-23_19h40.35.221,kallum_motion_pilot,2023.1.2,Win32,60.12867537,6535e36590f9255eb268a893,656018846682f3df8008bb8f,65601b205e38d0061becee6f,2,5,329,55,1,fourthree,,,,,,,,,,,,,,,,,,,,,,,,,,,,,,,,,,,,,,,,,,,,,,,,,,,,,,,,,,,,,,,,,,,,,,,,,,,,,,,,,,,,,
6535e36590f9255eb268a893,2023-11-23_19h40.35.221,kallum_motion_pilot,2023.1.2,Win32,60.12867537,6535e36590f9255eb268a893,656018846682f3df8008bb8f,65601b205e38d0061becee6f,2,6,330,46,1,fourtwo,,,,,,,,,,,,,,,,,,,,,,,,,,,,,,,,,,,,,,,,,,,,,,,,,,,,,,,,,,,,,,,,,,,,,,,,,,,,,,,,,,,,,
6535e36590f9255eb268a893,2023-11-23_19h40.35.221,kallum_motion_pilot,2023.1.2,Win32,60.12867537,6535e36590f9255eb268a893,656018846682f3df8008bb8f,65601b205e38d0061becee6f,2,7,331,67,1,twofour,,,,,,,,,,,,,,,,,,,,,,,,,,,,,,,,,,,,,,,,,,,,,,,,,,,,,,,,,,,,,,,,,,,,,,,,,,,,,,,,,,,,,
6535e36590f9255eb268a893,2023-11-23_19h40.35.221,kallum_motion_pilot,2023.1.2,Win32,60.12867537,6535e36590f9255eb268a893,656018846682f3df8008bb8f,65601b205e38d0061becee6f,2,8,332,62,1,fourtwo,,,,,,,,,,,,,,,,,,,,,,,,,,,,,,,,,,,,,,,,,,,,,,,,,,,,,,,,,,,,,,,,,,,,,,,,,,,,,,,,,,,,,
6535e36590f9255eb268a893,2023-11-23_19h40.35.221,kallum_motion_pilot,2023.1.2,Win32,60.12867537,6535e36590f9255eb268a893,656018846682f3df8008bb8f,65601b205e38d0061becee6f,2,9,333,21,1,threefour,,,,,,,,,,,,,,,,,,,,,,,,,,,,,,,,,,,,,,,,,,,,,,,,,,,,,,,,,,,,,,,,,,,,,,,,,,,,,,,,,,,,,
6535e36590f9255eb268a893,2023-11-23_19h40.35.221,kallum_motion_pilot,2023.1.2,Win32,60.12867537,6535e36590f9255eb268a893,656018846682f3df8008bb8f,65601b205e38d0061becee6f,2,10,334,149,1,seveneight,,,,,,,,,,,,,,,,,,,,,,,,,,,,,,,,,,,,,,,,,,,,,,,,,,,,,,,,,,,,,,,,,,,,,,,,,,,,,,,,,,,,,
6535e36590f9255eb268a893,2023-11-23_19h40.35.221,kallum_motion_pilot,2023.1.2,Win32,60.12867537,6535e36590f9255eb268a893,656018846682f3df8008bb8f,65601b205e38d0061becee6f,2,11,335,65,1,onethree,,,,,,,,,,,,,,,,,,,,,,,,,,,,,,,,,,,,,,,,,,,,,,,,,,,,,,,,,,,,,,,,,,,,,,,,,,,,,,,,,,,,,
6535e36590f9255eb268a893,2023-11-23_19h40.35.221,kallum_motion_pilot,2023.1.2,Win32,60.12867537,6535e36590f9255eb268a893,656018846682f3df8008bb8f,65601b205e38d0061becee6f,2,12,336,113,1,fiveseven,,,,,,,,,,,,,,,,,,,,,,,,,,,,,,,,,,,,,,,,,,,,,,,,,,,,,,,,,,,,,,,,,,,,,,,,,,,,,,,,,,,,,
6535e36590f9255eb268a893,2023-11-23_19h40.35.221,kallum_motion_pilot,2023.1.2,Win32,60.12867537,6535e36590f9255eb268a893,656018846682f3df8008bb8f,65601b205e38d0061becee6f,2,13,337,98,1,sixfive,,,,,,,,,,,,,,,,,,,,,,,,,,,,,,,,,,,,,,,,,,,,,,,,,,,,,,,,,,,,,,,,,,,,,,,,,,,,,,,,,,,,,
6535e36590f9255eb268a893,2023-11-23_19h40.35.221,kallum_motion_pilot,2023.1.2,Win32,60.12867537,6535e36590f9255eb268a893,656018846682f3df8008bb8f,65601b205e38d0061becee6f,2,14,338,77,1,threefour,,,,,,,,,,,,,,,,,,,,,,,,,,,,,,,,,,,,,,,,,,,,,,,,,,,,,,,,,,,,,,,,,,,,,,,,,,,,,,,,,,,,,
6535e36590f9255eb268a893,2023-11-23_19h40.35.221,kallum_motion_pilot,2023.1.2,Win32,60.12867537,6535e36590f9255eb268a893,656018846682f3df8008bb8f,65601b205e38d0061becee6f,2,15,339,44,1,threeone,,,,,,,,,,,,,,,,,,,,,,,,,,,,,,,,,,,,,,,,,,,,,,,,,,,,,,,,,,,,,,,,,,,,,,,,,,,,,,,,,,,,,
6535e36590f9255eb268a893,2023-11-23_19h40.35.221,kallum_motion_pilot,2023.1.2,Win32,60.12867537,6535e36590f9255eb268a893,656018846682f3df8008bb8f,65601b205e38d0061becee6f,2,16,340,140,1,sevenfive,,,,,,,,,,,,,,,,,,,,,,,,,,,,,,,,,,,,,,,,,,,,,,,,,,,,,,,,,,,,,,,,,,,,,,,,,,,,,,,,,,,,,
6535e36590f9255eb268a893,2023-11-23_19h40.35.221,kallum_motion_pilot,2023.1.2,Win32,60.12867537,6535e36590f9255eb268a893,656018846682f3df8008bb8f,65601b205e38d0061becee6f,2,17,341,117,1,seveneight,,,,,,,,,,,,,,,,,,,,,,,,,,,,,,,,,,,,,,,,,,,,,,,,,,,,,,,,,,,,,,,,,,,,,,,,,,,,,,,,,,,,,
6535e36590f9255eb268a893,2023-11-23_19h40.35.221,kallum_motion_pilot,2023.1.2,Win32,60.12867537,6535e36590f9255eb268a893,656018846682f3df8008bb8f,65601b205e38d0061becee6f,2,18,342,127,1,eightseven,,,,,,,,,,,,,,,,,,,,,,,,,,,,,,,,,,,,,,,,,,,,,,,,,,,,,,,,,,,,,,,,,,,,,,,,,,,,,,,,,,,,,
6535e36590f9255eb268a893,2023-11-23_19h40.35.221,kallum_motion_pilot,2023.1.2,Win32,60.12867537,6535e36590f9255eb268a893,656018846682f3df8008bb8f,65601b205e38d0061becee6f,2,19,343,107,1,sixeight,,,,,,,,,,,,,,,,,,,,,,,,,,,,,,,,,,,,,,,,,,,,,,,,,,,,,,,,,,,,,,,,,,,,,,,,,,,,,,,,,,,,,
6535e36590f9255eb268a893,2023-11-23_19h40.35.221,kallum_motion_pilot,2023.1.2,Win32,60.12867537,6535e36590f9255eb268a893,656018846682f3df8008bb8f,65601b205e38d0061becee6f,2,20,344,34,1,twoone,,,,,,,,,,,,,,,,,,,,,,,,,,,,,,,,,,,,,,,,,,,,,,,,,,,,,,,,,,,,,,,,,,,,,,,,,,,,,,,,,,,,,
6535e36590f9255eb268a893,2023-11-23_19h40.35.221,kallum_motion_pilot,2023.1.2,Win32,60.12867537,6535e36590f9255eb268a893,656018846682f3df8008bb8f,65601b205e38d0061becee6f,2,21,345,52,1,threeone,,,,,,,,,,,,,,,,,,,,,,,,,,,,,,,,,,,,,,,,,,,,,,,,,,,,,,,,,,,,,,,,,,,,,,,,,,,,,,,,,,,,,
6535e36590f9255eb268a893,2023-11-23_19h40.35.221,kallum_motion_pilot,2023.1.2,Win32,60.12867537,6535e36590f9255eb268a893,656018846682f3df8008bb8f,65601b205e38d0061becee6f,2,22,346,143,1,eightseven,,,,,,,,,,,,,,,,,,,,,,,,,,,,,,,,,,,,,,,,,,,,,,,,,,,,,,,,,,,,,,,,,,,,,,,,,,,,,,,,,,,,,
6535e36590f9255eb268a893,2023-11-23_19h40.35.221,kallum_motion_pilot,2023.1.2,Win32,60.12867537,6535e36590f9255eb268a893,656018846682f3df8008bb8f,65601b205e38d0061becee6f,2,23,347,80,1,fivesix,,,,,,,,,,,,,,,,,,,,,,,,,,,,,,,,,,,,,,,,,,,,,,,,,,,,,,,,,,,,,,,,,,,,,,,,,,,,,,,,,,,,,
6535e36590f9255eb268a893,2023-11-23_19h40.35.221,kallum_motion_pilot,2023.1.2,Win32,60.12867537,6535e36590f9255eb268a893,656018846682f3df8008bb8f,65601b205e38d0061becee6f,2,24,348,24,1,onetwo,,,,,,,,,,,,,,,,,,,,,,,,,,,,,,,,,,,,,,,,,,,,,,,,,,,,,,,,,,,,,,,,,,,,,,,,,,,,,,,,,,,,,
6535e36590f9255eb268a893,2023-11-23_19h40.35.221,kallum_motion_pilot,2023.1.2,Win32,60.12867537,6535e36590f9255eb268a893,656018846682f3df8008bb8f,65601b205e38d0061becee6f,2,25,349,120,1,fivesix,,,,,,,,,,,,,,,,,,,,,,,,,,,,,,,,,,,,,,,,,,,,,,,,,,,,,,,,,,,,,,,,,,,,,,,,,,,,,,,,,,,,,
