Prolific_ID*,date,expName,psychopyVersion,OS,frameRate,PROLIFIC_PID,STUDY_ID,SESSION_ID,hardcoded_stimulus_positions.thisRepN,hardcoded_stimulus_positions.thisTrialN,hardcoded_stimulus_positions.thisN,hardcoded_stimulus_positions.thisIndex,hardcoded_stimulus_positions.ran,StimulusPos,prac_stimorientation_import_loop.thisRepN,prac_stimorientation_import_loop.thisTrialN,prac_stimorientation_import_loop.thisN,prac_stimorientation_import_loop.thisIndex,prac_stimorientation_import_loop.ran,Stimorientation,key_resp.keys,key_resp.rt,key_resp_20.keys,key_resp_20.rt,key_resp_19.keys,key_resp_19.rt,key_resp_15.keys,key_resp_15.rt,key_resp_9.keys,key_resp_9.rt,key_resp_10.keys,key_resp_10.rt,Ecc,Circle1_ori,Circle2_ori,similarity,response_time,mouse_5.x,mouse_5.y,mouse_5.leftButton,mouse_5.midButton,mouse_5.rightButton,mouse_5.clicked_name,mouse_6.x,mouse_6.y,mouse_6.leftButton,mouse_6.midButton,mouse_6.rightButton,mouse_6.clicked_name,duringprac.thisRepN,duringprac.thisTrialN,duringprac.thisN,duringprac.thisIndex,duringprac.ran,key_resp_22.keys,key_resp_22.rt,circle1_ori,circle2_ori,mouse.x,mouse.y,mouse.leftButton,mouse.midButton,mouse.rightButton,mouse.clicked_name,mouse_2.x,mouse_2.y,mouse_2.leftButton,mouse_2.midButton,mouse_2.rightButton,mouse_2.clicked_name,mouse_3.x,mouse_3.y,mouse_3.leftButton,mouse_3.midButton,mouse_3.rightButton,catchresponse,catchnumber,response_time_catch,Catch,mouse_11.x,mouse_11.y,mouse_11.leftButton,mouse_11.midButton,mouse_11.rightButton,main_trial.thisRepN,main_trial.thisTrialN,main_trial.thisN,main_trial.thisIndex,main_trial.ran,Orientationtrialno,xcircle1_ori,xcircle2_ori,double_pass.thisRepN,double_pass.thisTrialN,double_pass.thisN,double_pass.thisIndex,double_pass.ran,key_resp_3.keys,key_resp_3.rt
5fdb8dbac85359924ce3220b,2023-11-24_03h37.13.021,kallum_motion_pilot,2023.1.2,Win32,12.00120012,5fdb8dbac85359924ce3220b,656018846682f3df8008bb8f,656019d00a2237becaca17f0,,,,,,,,,,,,,,,,,,,,,,,,,,,,,,,,,,,,,,,,,,,,,,,,,,,,,,,,,,,,,,,,,,,,,,,,,,,,,,,,,,,,,,,,,,,
5fdb8dbac85359924ce3220b,2023-11-24_03h37.13.021,kallum_motion_pilot,2023.1.2,Win32,12.00120012,5fdb8dbac85359924ce3220b,656018846682f3df8008bb8f,656019d00a2237becaca17f0,0,0,0,91,1,sixeight,,,,,,,,,,,,,,,,,,,,,,,,,,,,,,,,,,,,,,,,,,,,,,,,,,,,,,,,,,,,,,,,,,,,,,,,,,,,,,,,,,,,,
5fdb8dbac85359924ce3220b,2023-11-24_03h37.13.021,kallum_motion_pilot,2023.1.2,Win32,12.00120012,5fdb8dbac85359924ce3220b,656018846682f3df8008bb8f,656019d00a2237becaca17f0,0,1,1,65,1,onethree,,,,,,,,,,,,,,,,,,,,,,,,,,,,,,,,,,,,,,,,,,,,,,,,,,,,,,,,,,,,,,,,,,,,,,,,,,,,,,,,,,,,,
5fdb8dbac85359924ce3220b,2023-11-24_03h37.13.021,kallum_motion_pilot,2023.1.2,Win32,12.00120012,5fdb8dbac85359924ce3220b,656018846682f3df8008bb8f,656019d00a2237becaca17f0,0,2,2,18,1,twoone,,,,,,,,,,,,,,,,,,,,,,,,,,,,,,,,,,,,,,,,,,,,,,,,,,,,,,,,,,,,,,,,,,,,,,,,,,,,,,,,,,,,,
5fdb8dbac85359924ce3220b,2023-11-24_03h37.13.021,kallum_motion_pilot,2023.1.2,Win32,12.00120012,5fdb8dbac85359924ce3220b,656018846682f3df8008bb8f,656019d00a2237becaca17f0,0,3,3,33,1,onethree,,,,,,,,,,,,,,,,,,,,,,,,,,,,,,,,,,,,,,,,,,,,,,,,,,,,,,,,,,,,,,,,,,,,,,,,,,,,,,,,,,,,,
5fdb8dbac85359924ce3220b,2023-11-24_03h37.13.021,kallum_motion_pilot,2023.1.2,Win32,12.00120012,5fdb8dbac85359924ce3220b,656018846682f3df8008bb8f,656019d00a2237becaca17f0,0,4,4,143,1,eightseven,,,,,,,,,,,,,,,,,,,,,,,,,,,,,,,,,,,,,,,,,,,,,,,,,,,,,,,,,,,,,,,,,,,,,,,,,,,,,,,,,,,,,
5fdb8dbac85359924ce3220b,2023-11-24_03h37.13.021,kallum_motion_pilot,2023.1.2,Win32,12.00120012,5fdb8dbac85359924ce3220b,656018846682f3df8008bb8f,656019d00a2237becaca17f0,0,5,5,94,1,eightsix,,,,,,,,,,,,,,,,,,,,,,,,,,,,,,,,,,,,,,,,,,,,,,,,,,,,,,,,,,,,,,,,,,,,,,,,,,,,,,,,,,,,,
5fdb8dbac85359924ce3220b,2023-11-24_03h37.13.021,kallum_motion_pilot,2023.1.2,Win32,12.00120012,5fdb8dbac85359924ce3220b,656018846682f3df8008bb8f,656019d00a2237becaca17f0,0,6,6,114,1,sixfive,,,,,,,,,,,,,,,,,,,,,,,,,,,,,,,,,,,,,,,,,,,,,,,,,,,,,,,,,,,,,,,,,,,,,,,,,,,,,,,,,,,,,
5fdb8dbac85359924ce3220b,2023-11-24_03h37.13.021,kallum_motion_pilot,2023.1.2,Win32,12.00120012,5fdb8dbac85359924ce3220b,656018846682f3df8008bb8f,656019d00a2237becaca17f0,0,7,7,31,1,fourthree,,,,,,,,,,,,,,,,,,,,,,,,,,,,,,,,,,,,,,,,,,,,,,,,,,,,,,,,,,,,,,,,,,,,,,,,,,,,,,,,,,,,,
5fdb8dbac85359924ce3220b,2023-11-24_03h37.13.021,kallum_motion_pilot,2023.1.2,Win32,12.00120012,5fdb8dbac85359924ce3220b,656018846682f3df8008bb8f,656019d00a2237becaca17f0,0,8,8,10,1,twoone,,,,,,,,,,,,,,,,,,,,,,,,,,,,,,,,,,,,,,,,,,,,,,,,,,,,,,,,,,,,,,,,,,,,,,,,,,,,,,,,,,,,,
5fdb8dbac85359924ce3220b,2023-11-24_03h37.13.021,kallum_motion_pilot,2023.1.2,Win32,12.00120012,5fdb8dbac85359924ce3220b,656018846682f3df8008bb8f,656019d00a2237becaca17f0,0,9,9,54,1,fourtwo,,,,,,,,,,,,,,,,,,,,,,,,,,,,,,,,,,,,,,,,,,,,,,,,,,,,,,,,,,,,,,,,,,,,,,,,,,,,,,,,,,,,,
5fdb8dbac85359924ce3220b,2023-11-24_03h37.13.021,kallum_motion_pilot,2023.1.2,Win32,12.00120012,5fdb8dbac85359924ce3220b,656018846682f3df8008bb8f,656019d00a2237becaca17f0,0,10,10,82,1,sixfive,,,,,,,,,,,,,,,,,,,,,,,,,,,,,,,,,,,,,,,,,,,,,,,,,,,,,,,,,,,,,,,,,,,,,,,,,,,,,,,,,,,,,
5fdb8dbac85359924ce3220b,2023-11-24_03h37.13.021,kallum_motion_pilot,2023.1.2,Win32,12.00120012,5fdb8dbac85359924ce3220b,656018846682f3df8008bb8f,656019d00a2237becaca17f0,0,11,11,11,1,twofour,,,,,,,,,,,,,,,,,,,,,,,,,,,,,,,,,,,,,,,,,,,,,,,,,,,,,,,,,,,,,,,,,,,,,,,,,,,,,,,,,,,,,
5fdb8dbac85359924ce3220b,2023-11-24_03h37.13.021,kallum_motion_pilot,2023.1.2,Win32,12.00120012,5fdb8dbac85359924ce3220b,656018846682f3df8008bb8f,656019d00a2237becaca17f0,0,12,12,137,1,fiveseven,,,,,,,,,,,,,,,,,,,,,,,,,,,,,,,,,,,,,,,,,,,,,,,,,,,,,,,,,,,,,,,,,,,,,,,,,,,,,,,,,,,,,
5fdb8dbac85359924ce3220b,2023-11-24_03h37.13.021,kallum_motion_pilot,2023.1.2,Win32,12.00120012,5fdb8dbac85359924ce3220b,656018846682f3df8008bb8f,656019d00a2237becaca17f0,0,13,13,29,1,threefour,,,,,,,,,,,,,,,,,,,,,,,,,,,,,,,,,,,,,,,,,,,,,,,,,,,,,,,,,,,,,,,,,,,,,,,,,,,,,,,,,,,,,
5fdb8dbac85359924ce3220b,2023-11-24_03h37.13.021,kallum_motion_pilot,2023.1.2,Win32,12.00120012,5fdb8dbac85359924ce3220b,656018846682f3df8008bb8f,656019d00a2237becaca17f0,0,14,14,43,1,twofour,,,,,,,,,,,,,,,,,,,,,,,,,,,,,,,,,,,,,,,,,,,,,,,,,,,,,,,,,,,,,,,,,,,,,,,,,,,,,,,,,,,,,
5fdb8dbac85359924ce3220b,2023-11-24_03h37.13.021,kallum_motion_pilot,2023.1.2,Win32,12.00120012,5fdb8dbac85359924ce3220b,656018846682f3df8008bb8f,656019d00a2237becaca17f0,0,15,15,74,1,twoone,,,,,,,,,,,,,,,,,,,,,,,,,,,,,,,,,,,,,,,,,,,,,,,,,,,,,,,,,,,,,,,,,,,,,,,,,,,,,,,,,,,,,
5fdb8dbac85359924ce3220b,2023-11-24_03h37.13.021,kallum_motion_pilot,2023.1.2,Win32,12.00120012,5fdb8dbac85359924ce3220b,656018846682f3df8008bb8f,656019d00a2237becaca17f0,0,16,16,150,1,eightsix,,,,,,,,,,,,,,,,,,,,,,,,,,,,,,,,,,,,,,,,,,,,,,,,,,,,,,,,,,,,,,,,,,,,,,,,,,,,,,,,,,,,,
5fdb8dbac85359924ce3220b,2023-11-24_03h37.13.021,kallum_motion_pilot,2023.1.2,Win32,12.00120012,5fdb8dbac85359924ce3220b,656018846682f3df8008bb8f,656019d00a2237becaca17f0,0,17,17,157,1,seveneight,,,,,,,,,,,,,,,,,,,,,,,,,,,,,,,,,,,,,,,,,,,,,,,,,,,,,,,,,,,,,,,,,,,,,,,,,,,,,,,,,,,,,
5fdb8dbac85359924ce3220b,2023-11-24_03h37.13.021,kallum_motion_pilot,2023.1.2,Win32,12.00120012,5fdb8dbac85359924ce3220b,656018846682f3df8008bb8f,656019d00a2237becaca17f0,0,18,18,159,1,eightseven,,,,,,,,,,,,,,,,,,,,,,,,,,,,,,,,,,,,,,,,,,,,,,,,,,,,,,,,,,,,,,,,,,,,,,,,,,,,,,,,,,,,,
5fdb8dbac85359924ce3220b,2023-11-24_03h37.13.021,kallum_motion_pilot,2023.1.2,Win32,12.00120012,5fdb8dbac85359924ce3220b,656018846682f3df8008bb8f,656019d00a2237becaca17f0,0,19,19,77,1,threefour,,,,,,,,,,,,,,,,,,,,,,,,,,,,,,,,,,,,,,,,,,,,,,,,,,,,,,,,,,,,,,,,,,,,,,,,,,,,,,,,,,,,,
5fdb8dbac85359924ce3220b,2023-11-24_03h37.13.021,kallum_motion_pilot,2023.1.2,Win32,12.00120012,5fdb8dbac85359924ce3220b,656018846682f3df8008bb8f,656019d00a2237becaca17f0,0,20,20,28,1,threeone,,,,,,,,,,,,,,,,,,,,,,,,,,,,,,,,,,,,,,,,,,,,,,,,,,,,,,,,,,,,,,,,,,,,,,,,,,,,,,,,,,,,,
5fdb8dbac85359924ce3220b,2023-11-24_03h37.13.021,kallum_motion_pilot,2023.1.2,Win32,12.00120012,5fdb8dbac85359924ce3220b,656018846682f3df8008bb8f,656019d00a2237becaca17f0,0,21,21,97,1,fiveseven,,,,,,,,,,,,,,,,,,,,,,,,,,,,,,,,,,,,,,,,,,,,,,,,,,,,,,,,,,,,,,,,,,,,,,,,,,,,,,,,,,,,,
5fdb8dbac85359924ce3220b,2023-11-24_03h37.13.021,kallum_motion_pilot,2023.1.2,Win32,12.00120012,5fdb8dbac85359924ce3220b,656018846682f3df8008bb8f,656019d00a2237becaca17f0,0,22,22,141,1,seveneight,,,,,,,,,,,,,,,,,,,,,,,,,,,,,,,,,,,,,,,,,,,,,,,,,,,,,,,,,,,,,,,,,,,,,,,,,,,,,,,,,,,,,
5fdb8dbac85359924ce3220b,2023-11-24_03h37.13.021,kallum_motion_pilot,2023.1.2,Win32,12.00120012,5fdb8dbac85359924ce3220b,656018846682f3df8008bb8f,656019d00a2237becaca17f0,0,23,23,154,1,sixfive,,,,,,,,,,,,,,,,,,,,,,,,,,,,,,,,,,,,,,,,,,,,,,,,,,,,,,,,,,,,,,,,,,,,,,,,,,,,,,,,,,,,,
5fdb8dbac85359924ce3220b,2023-11-24_03h37.13.021,kallum_motion_pilot,2023.1.2,Win32,12.00120012,5fdb8dbac85359924ce3220b,656018846682f3df8008bb8f,656019d00a2237becaca17f0,0,24,24,49,1,onethree,,,,,,,,,,,,,,,,,,,,,,,,,,,,,,,,,,,,,,,,,,,,,,,,,,,,,,,,,,,,,,,,,,,,,,,,,,,,,,,,,,,,,
5fdb8dbac85359924ce3220b,2023-11-24_03h37.13.021,kallum_motion_pilot,2023.1.2,Win32,12.00120012,5fdb8dbac85359924ce3220b,656018846682f3df8008bb8f,656019d00a2237becaca17f0,0,25,25,8,1,onetwo,,,,,,,,,,,,,,,,,,,,,,,,,,,,,,,,,,,,,,,,,,,,,,,,,,,,,,,,,,,,,,,,,,,,,,,,,,,,,,,,,,,,,
5fdb8dbac85359924ce3220b,2023-11-24_03h37.13.021,kallum_motion_pilot,2023.1.2,Win32,12.00120012,5fdb8dbac85359924ce3220b,656018846682f3df8008bb8f,656019d00a2237becaca17f0,0,26,26,102,1,eightsix,,,,,,,,,,,,,,,,,,,,,,,,,,,,,,,,,,,,,,,,,,,,,,,,,,,,,,,,,,,,,,,,,,,,,,,,,,,,,,,,,,,,,
5fdb8dbac85359924ce3220b,2023-11-24_03h37.13.021,kallum_motion_pilot,2023.1.2,Win32,12.00120012,5fdb8dbac85359924ce3220b,656018846682f3df8008bb8f,656019d00a2237becaca17f0,0,27,27,124,1,sevenfive,,,,,,,,,,,,,,,,,,,,,,,,,,,,,,,,,,,,,,,,,,,,,,,,,,,,,,,,,,,,,,,,,,,,,,,,,,,,,,,,,,,,,
5fdb8dbac85359924ce3220b,2023-11-24_03h37.13.021,kallum_motion_pilot,2023.1.2,Win32,12.00120012,5fdb8dbac85359924ce3220b,656018846682f3df8008bb8f,656019d00a2237becaca17f0,0,28,28,130,1,sixfive,,,,,,,,,,,,,,,,,,,,,,,,,,,,,,,,,,,,,,,,,,,,,,,,,,,,,,,,,,,,,,,,,,,,,,,,,,,,,,,,,,,,,
5fdb8dbac85359924ce3220b,2023-11-24_03h37.13.021,kallum_motion_pilot,2023.1.2,Win32,12.00120012,5fdb8dbac85359924ce3220b,656018846682f3df8008bb8f,656019d00a2237becaca17f0,0,29,29,96,1,fivesix,,,,,,,,,,,,,,,,,,,,,,,,,,,,,,,,,,,,,,,,,,,,,,,,,,,,,,,,,,,,,,,,,,,,,,,,,,,,,,,,,,,,,
5fdb8dbac85359924ce3220b,2023-11-24_03h37.13.021,kallum_motion_pilot,2023.1.2,Win32,12.00120012,5fdb8dbac85359924ce3220b,656018846682f3df8008bb8f,656019d00a2237becaca17f0,0,30,30,156,1,sevenfive,,,,,,,,,,,,,,,,,,,,,,,,,,,,,,,,,,,,,,,,,,,,,,,,,,,,,,,,,,,,,,,,,,,,,,,,,,,,,,,,,,,,,
5fdb8dbac85359924ce3220b,2023-11-24_03h37.13.021,kallum_motion_pilot,2023.1.2,Win32,12.00120012,5fdb8dbac85359924ce3220b,656018846682f3df8008bb8f,656019d00a2237becaca17f0,0,31,31,158,1,eightsix,,,,,,,,,,,,,,,,,,,,,,,,,,,,,,,,,,,,,,,,,,,,,,,,,,,,,,,,,,,,,,,,,,,,,,,,,,,,,,,,,,,,,
5fdb8dbac85359924ce3220b,2023-11-24_03h37.13.021,kallum_motion_pilot,2023.1.2,Win32,12.00120012,5fdb8dbac85359924ce3220b,656018846682f3df8008bb8f,656019d00a2237becaca17f0,0,32,32,132,1,sevenfive,,,,,,,,,,,,,,,,,,,,,,,,,,,,,,,,,,,,,,,,,,,,,,,,,,,,,,,,,,,,,,,,,,,,,,,,,,,,,,,,,,,,,
5fdb8dbac85359924ce3220b,2023-11-24_03h37.13.021,kallum_motion_pilot,2023.1.2,Win32,12.00120012,5fdb8dbac85359924ce3220b,656018846682f3df8008bb8f,656019d00a2237becaca17f0,0,33,33,47,1,fourthree,,,,,,,,,,,,,,,,,,,,,,,,,,,,,,,,,,,,,,,,,,,,,,,,,,,,,,,,,,,,,,,,,,,,,,,,,,,,,,,,,,,,,
5fdb8dbac85359924ce3220b,2023-11-24_03h37.13.021,kallum_motion_pilot,2023.1.2,Win32,12.00120012,5fdb8dbac85359924ce3220b,656018846682f3df8008bb8f,656019d00a2237becaca17f0,0,34,34,53,1,threefour,,,,,,,,,,,,,,,,,,,,,,,,,,,,,,,,,,,,,,,,,,,,,,,,,,,,,,,,,,,,,,,,,,,,,,,,,,,,,,,,,,,,,
5fdb8dbac85359924ce3220b,2023-11-24_03h37.13.021,kallum_motion_pilot,2023.1.2,Win32,12.00120012,5fdb8dbac85359924ce3220b,656018846682f3df8008bb8f,656019d00a2237becaca17f0,0,35,35,22,1,fourtwo,,,,,,,,,,,,,,,,,,,,,,,,,,,,,,,,,,,,,,,,,,,,,,,,,,,,,,,,,,,,,,,,,,,,,,,,,,,,,,,,,,,,,
5fdb8dbac85359924ce3220b,2023-11-24_03h37.13.021,kallum_motion_pilot,2023.1.2,Win32,12.00120012,5fdb8dbac85359924ce3220b,656018846682f3df8008bb8f,656019d00a2237becaca17f0,0,36,36,113,1,fiveseven,,,,,,,,,,,,,,,,,,,,,,,,,,,,,,,,,,,,,,,,,,,,,,,,,,,,,,,,,,,,,,,,,,,,,,,,,,,,,,,,,,,,,
5fdb8dbac85359924ce3220b,2023-11-24_03h37.13.021,kallum_motion_pilot,2023.1.2,Win32,12.00120012,5fdb8dbac85359924ce3220b,656018846682f3df8008bb8f,656019d00a2237becaca17f0,0,37,37,36,1,threeone,,,,,,,,,,,,,,,,,,,,,,,,,,,,,,,,,,,,,,,,,,,,,,,,,,,,,,,,,,,,,,,,,,,,,,,,,,,,,,,,,,,,,
5fdb8dbac85359924ce3220b,2023-11-24_03h37.13.021,kallum_motion_pilot,2023.1.2,Win32,12.00120012,5fdb8dbac85359924ce3220b,656018846682f3df8008bb8f,656019d00a2237becaca17f0,0,38,38,17,1,onethree,,,,,,,,,,,,,,,,,,,,,,,,,,,,,,,,,,,,,,,,,,,,,,,,,,,,,,,,,,,,,,,,,,,,,,,,,,,,,,,,,,,,,
5fdb8dbac85359924ce3220b,2023-11-24_03h37.13.021,kallum_motion_pilot,2023.1.2,Win32,12.00120012,5fdb8dbac85359924ce3220b,656018846682f3df8008bb8f,656019d00a2237becaca17f0,0,39,39,45,1,threefour,,,,,,,,,,,,,,,,,,,,,,,,,,,,,,,,,,,,,,,,,,,,,,,,,,,,,,,,,,,,,,,,,,,,,,,,,,,,,,,,,,,,,
5fdb8dbac85359924ce3220b,2023-11-24_03h37.13.021,kallum_motion_pilot,2023.1.2,Win32,12.00120012,5fdb8dbac85359924ce3220b,656018846682f3df8008bb8f,656019d00a2237becaca17f0,0,40,40,127,1,eightseven,,,,,,,,,,,,,,,,,,,,,,,,,,,,,,,,,,,,,,,,,,,,,,,,,,,,,,,,,,,,,,,,,,,,,,,,,,,,,,,,,,,,,
5fdb8dbac85359924ce3220b,2023-11-24_03h37.13.021,kallum_motion_pilot,2023.1.2,Win32,12.00120012,5fdb8dbac85359924ce3220b,656018846682f3df8008bb8f,656019d00a2237becaca17f0,0,41,41,40,1,onetwo,,,,,,,,,,,,,,,,,,,,,,,,,,,,,,,,,,,,,,,,,,,,,,,,,,,,,,,,,,,,,,,,,,,,,,,,,,,,,,,,,,,,,
5fdb8dbac85359924ce3220b,2023-11-24_03h37.13.021,kallum_motion_pilot,2023.1.2,Win32,12.00120012,5fdb8dbac85359924ce3220b,656018846682f3df8008bb8f,656019d00a2237becaca17f0,0,42,42,56,1,onetwo,,,,,,,,,,,,,,,,,,,,,,,,,,,,,,,,,,,,,,,,,,,,,,,,,,,,,,,,,,,,,,,,,,,,,,,,,,,,,,,,,,,,,
5fdb8dbac85359924ce3220b,2023-11-24_03h37.13.021,kallum_motion_pilot,2023.1.2,Win32,12.00120012,5fdb8dbac85359924ce3220b,656018846682f3df8008bb8f,656019d00a2237becaca17f0,0,43,43,149,1,seveneight,,,,,,,,,,,,,,,,,,,,,,,,,,,,,,,,,,,,,,,,,,,,,,,,,,,,,,,,,,,,,,,,,,,,,,,,,,,,,,,,,,,,,
5fdb8dbac85359924ce3220b,2023-11-24_03h37.13.021,kallum_motion_pilot,2023.1.2,Win32,12.00120012,5fdb8dbac85359924ce3220b,656018846682f3df8008bb8f,656019d00a2237becaca17f0,0,44,44,145,1,fiveseven,,,,,,,,,,,,,,,,,,,,,,,,,,,,,,,,,,,,,,,,,,,,,,,,,,,,,,,,,,,,,,,,,,,,,,,,,,,,,,,,,,,,,
5fdb8dbac85359924ce3220b,2023-11-24_03h37.13.021,kallum_motion_pilot,2023.1.2,Win32,12.00120012,5fdb8dbac85359924ce3220b,656018846682f3df8008bb8f,656019d00a2237becaca17f0,0,45,45,37,1,threefour,,,,,,,,,,,,,,,,,,,,,,,,,,,,,,,,,,,,,,,,,,,,,,,,,,,,,,,,,,,,,,,,,,,,,,,,,,,,,,,,,,,,,
5fdb8dbac85359924ce3220b,2023-11-24_03h37.13.021,kallum_motion_pilot,2023.1.2,Win32,12.00120012,5fdb8dbac85359924ce3220b,656018846682f3df8008bb8f,656019d00a2237becaca17f0,0,46,46,55,1,fourthree,,,,,,,,,,,,,,,,,,,,,,,,,,,,,,,,,,,,,,,,,,,,,,,,,,,,,,,,,,,,,,,,,,,,,,,,,,,,,,,,,,,,,
5fdb8dbac85359924ce3220b,2023-11-24_03h37.13.021,kallum_motion_pilot,2023.1.2,Win32,12.00120012,5fdb8dbac85359924ce3220b,656018846682f3df8008bb8f,656019d00a2237becaca17f0,0,47,47,79,1,eightseven,,,,,,,,,,,,,,,,,,,,,,,,,,,,,,,,,,,,,,,,,,,,,,,,,,,,,,,,,,,,,,,,,,,,,,,,,,,,,,,,,,,,,
5fdb8dbac85359924ce3220b,2023-11-24_03h37.13.021,kallum_motion_pilot,2023.1.2,Win32,12.00120012,5fdb8dbac85359924ce3220b,656018846682f3df8008bb8f,656019d00a2237becaca17f0,0,48,48,34,1,twoone,,,,,,,,,,,,,,,,,,,,,,,,,,,,,,,,,,,,,,,,,,,,,,,,,,,,,,,,,,,,,,,,,,,,,,,,,,,,,,,,,,,,,
5fdb8dbac85359924ce3220b,2023-11-24_03h37.13.021,kallum_motion_pilot,2023.1.2,Win32,12.00120012,5fdb8dbac85359924ce3220b,656018846682f3df8008bb8f,656019d00a2237becaca17f0,0,49,49,16,1,onetwo,,,,,,,,,,,,,,,,,,,,,,,,,,,,,,,,,,,,,,,,,,,,,,,,,,,,,,,,,,,,,,,,,,,,,,,,,,,,,,,,,,,,,
5fdb8dbac85359924ce3220b,2023-11-24_03h37.13.021,kallum_motion_pilot,2023.1.2,Win32,12.00120012,5fdb8dbac85359924ce3220b,656018846682f3df8008bb8f,656019d00a2237becaca17f0,0,50,50,146,1,sixfive,,,,,,,,,,,,,,,,,,,,,,,,,,,,,,,,,,,,,,,,,,,,,,,,,,,,,,,,,,,,,,,,,,,,,,,,,,,,,,,,,,,,,
5fdb8dbac85359924ce3220b,2023-11-24_03h37.13.021,kallum_motion_pilot,2023.1.2,Win32,12.00120012,5fdb8dbac85359924ce3220b,656018846682f3df8008bb8f,656019d00a2237becaca17f0,0,51,51,153,1,fiveseven,,,,,,,,,,,,,,,,,,,,,,,,,,,,,,,,,,,,,,,,,,,,,,,,,,,,,,,,,,,,,,,,,,,,,,,,,,,,,,,,,,,,,
5fdb8dbac85359924ce3220b,2023-11-24_03h37.13.021,kallum_motion_pilot,2023.1.2,Win32,12.00120012,5fdb8dbac85359924ce3220b,656018846682f3df8008bb8f,656019d00a2237becaca17f0,0,52,52,106,1,sixfive,,,,,,,,,,,,,,,,,,,,,,,,,,,,,,,,,,,,,,,,,,,,,,,,,,,,,,,,,,,,,,,,,,,,,,,,,,,,,,,,,,,,,
5fdb8dbac85359924ce3220b,2023-11-24_03h37.13.021,kallum_motion_pilot,2023.1.2,Win32,12.00120012,5fdb8dbac85359924ce3220b,656018846682f3df8008bb8f,656019d00a2237becaca17f0,0,53,53,123,1,sixeight,,,,,,,,,,,,,,,,,,,,,,,,,,,,,,,,,,,,,,,,,,,,,,,,,,,,,,,,,,,,,,,,,,,,,,,,,,,,,,,,,,,,,
5fdb8dbac85359924ce3220b,2023-11-24_03h37.13.021,kallum_motion_pilot,2023.1.2,Win32,12.00120012,5fdb8dbac85359924ce3220b,656018846682f3df8008bb8f,656019d00a2237becaca17f0,0,54,54,73,1,onethree,,,,,,,,,,,,,,,,,,,,,,,,,,,,,,,,,,,,,,,,,,,,,,,,,,,,,,,,,,,,,,,,,,,,,,,,,,,,,,,,,,,,,
5fdb8dbac85359924ce3220b,2023-11-24_03h37.13.021,kallum_motion_pilot,2023.1.2,Win32,12.00120012,5fdb8dbac85359924ce3220b,656018846682f3df8008bb8f,656019d00a2237becaca17f0,0,55,55,13,1,threefour,,,,,,,,,,,,,,,,,,,,,,,,,,,,,,,,,,,,,,,,,,,,,,,,,,,,,,,,,,,,,,,,,,,,,,,,,,,,,,,,,,,,,
5fdb8dbac85359924ce3220b,2023-11-24_03h37.13.021,kallum_motion_pilot,2023.1.2,Win32,12.00120012,5fdb8dbac85359924ce3220b,656018846682f3df8008bb8f,656019d00a2237becaca17f0,0,56,56,144,1,fivesix,,,,,,,,,,,,,,,,,,,,,,,,,,,,,,,,,,,,,,,,,,,,,,,,,,,,,,,,,,,,,,,,,,,,,,,,,,,,,,,,,,,,,
5fdb8dbac85359924ce3220b,2023-11-24_03h37.13.021,kallum_motion_pilot,2023.1.2,Win32,12.00120012,5fdb8dbac85359924ce3220b,656018846682f3df8008bb8f,656019d00a2237becaca17f0,0,57,57,111,1,eightseven,,,,,,,,,,,,,,,,,,,,,,,,,,,,,,,,,,,,,,,,,,,,,,,,,,,,,,,,,,,,,,,,,,,,,,,,,,,,,,,,,,,,,
5fdb8dbac85359924ce3220b,2023-11-24_03h37.13.021,kallum_motion_pilot,2023.1.2,Win32,12.00120012,5fdb8dbac85359924ce3220b,656018846682f3df8008bb8f,656019d00a2237becaca17f0,0,58,58,9,1,onethree,,,,,,,,,,,,,,,,,,,,,,,,,,,,,,,,,,,,,,,,,,,,,,,,,,,,,,,,,,,,,,,,,,,,,,,,,,,,,,,,,,,,,
5fdb8dbac85359924ce3220b,2023-11-24_03h37.13.021,kallum_motion_pilot,2023.1.2,Win32,12.00120012,5fdb8dbac85359924ce3220b,656018846682f3df8008bb8f,656019d00a2237becaca17f0,0,59,59,44,1,threeone,,,,,,,,,,,,,,,,,,,,,,,,,,,,,,,,,,,,,,,,,,,,,,,,,,,,,,,,,,,,,,,,,,,,,,,,,,,,,,,,,,,,,
5fdb8dbac85359924ce3220b,2023-11-24_03h37.13.021,kallum_motion_pilot,2023.1.2,Win32,12.00120012,5fdb8dbac85359924ce3220b,656018846682f3df8008bb8f,656019d00a2237becaca17f0,0,60,60,105,1,fiveseven,,,,,,,,,,,,,,,,,,,,,,,,,,,,,,,,,,,,,,,,,,,,,,,,,,,,,,,,,,,,,,,,,,,,,,,,,,,,,,,,,,,,,
5fdb8dbac85359924ce3220b,2023-11-24_03h37.13.021,kallum_motion_pilot,2023.1.2,Win32,12.00120012,5fdb8dbac85359924ce3220b,656018846682f3df8008bb8f,656019d00a2237becaca17f0,0,61,61,122,1,sixfive,,,,,,,,,,,,,,,,,,,,,,,,,,,,,,,,,,,,,,,,,,,,,,,,,,,,,,,,,,,,,,,,,,,,,,,,,,,,,,,,,,,,,
5fdb8dbac85359924ce3220b,2023-11-24_03h37.13.021,kallum_motion_pilot,2023.1.2,Win32,12.00120012,5fdb8dbac85359924ce3220b,656018846682f3df8008bb8f,656019d00a2237becaca17f0,0,62,62,139,1,sixeight,,,,,,,,,,,,,,,,,,,,,,,,,,,,,,,,,,,,,,,,,,,,,,,,,,,,,,,,,,,,,,,,,,,,,,,,,,,,,,,,,,,,,
5fdb8dbac85359924ce3220b,2023-11-24_03h37.13.021,kallum_motion_pilot,2023.1.2,Win32,12.00120012,5fdb8dbac85359924ce3220b,656018846682f3df8008bb8f,656019d00a2237becaca17f0,0,63,63,41,1,onethree,,,,,,,,,,,,,,,,,,,,,,,,,,,,,,,,,,,,,,,,,,,,,,,,,,,,,,,,,,,,,,,,,,,,,,,,,,,,,,,,,,,,,
5fdb8dbac85359924ce3220b,2023-11-24_03h37.13.021,kallum_motion_pilot,2023.1.2,Win32,12.00120012,5fdb8dbac85359924ce3220b,656018846682f3df8008bb8f,656019d00a2237becaca17f0,0,64,64,131,1,sixeight,,,,,,,,,,,,,,,,,,,,,,,,,,,,,,,,,,,,,,,,,,,,,,,,,,,,,,,,,,,,,,,,,,,,,,,,,,,,,,,,,,,,,
5fdb8dbac85359924ce3220b,2023-11-24_03h37.13.021,kallum_motion_pilot,2023.1.2,Win32,12.00120012,5fdb8dbac85359924ce3220b,656018846682f3df8008bb8f,656019d00a2237becaca17f0,0,65,65,81,1,fiveseven,,,,,,,,,,,,,,,,,,,,,,,,,,,,,,,,,,,,,,,,,,,,,,,,,,,,,,,,,,,,,,,,,,,,,,,,,,,,,,,,,,,,,
5fdb8dbac85359924ce3220b,2023-11-24_03h37.13.021,kallum_motion_pilot,2023.1.2,Win32,12.00120012,5fdb8dbac85359924ce3220b,656018846682f3df8008bb8f,656019d00a2237becaca17f0,0,66,66,134,1,eightsix,,,,,,,,,,,,,,,,,,,,,,,,,,,,,,,,,,,,,,,,,,,,,,,,,,,,,,,,,,,,,,,,,,,,,,,,,,,,,,,,,,,,,
5fdb8dbac85359924ce3220b,2023-11-24_03h37.13.021,kallum_motion_pilot,2023.1.2,Win32,12.00120012,5fdb8dbac85359924ce3220b,656018846682f3df8008bb8f,656019d00a2237becaca17f0,0,67,67,0,1,onetwo,,,,,,,,,,,,,,,,,,,,,,,,,,,,,,,,,,,,,,,,,,,,,,,,,,,,,,,,,,,,,,,,,,,,,,,,,,,,,,,,,,,,,
5fdb8dbac85359924ce3220b,2023-11-24_03h37.13.021,kallum_motion_pilot,2023.1.2,Win32,12.00120012,5fdb8dbac85359924ce3220b,656018846682f3df8008bb8f,656019d00a2237becaca17f0,0,68,68,140,1,sevenfive,,,,,,,,,,,,,,,,,,,,,,,,,,,,,,,,,,,,,,,,,,,,,,,,,,,,,,,,,,,,,,,,,,,,,,,,,,,,,,,,,,,,,
5fdb8dbac85359924ce3220b,2023-11-24_03h37.13.021,kallum_motion_pilot,2023.1.2,Win32,12.00120012,5fdb8dbac85359924ce3220b,656018846682f3df8008bb8f,656019d00a2237becaca17f0,0,69,69,60,1,threeone,,,,,,,,,,,,,,,,,,,,,,,,,,,,,,,,,,,,,,,,,,,,,,,,,,,,,,,,,,,,,,,,,,,,,,,,,,,,,,,,,,,,,
5fdb8dbac85359924ce3220b,2023-11-24_03h37.13.021,kallum_motion_pilot,2023.1.2,Win32,12.00120012,5fdb8dbac85359924ce3220b,656018846682f3df8008bb8f,656019d00a2237becaca17f0,0,70,70,99,1,sixeight,,,,,,,,,,,,,,,,,,,,,,,,,,,,,,,,,,,,,,,,,,,,,,,,,,,,,,,,,,,,,,,,,,,,,,,,,,,,,,,,,,,,,
5fdb8dbac85359924ce3220b,2023-11-24_03h37.13.021,kallum_motion_pilot,2023.1.2,Win32,12.00120012,5fdb8dbac85359924ce3220b,656018846682f3df8008bb8f,656019d00a2237becaca17f0,0,71,71,23,1,fourthree,,,,,,,,,,,,,,,,,,,,,,,,,,,,,,,,,,,,,,,,,,,,,,,,,,,,,,,,,,,,,,,,,,,,,,,,,,,,,,,,,,,,,
5fdb8dbac85359924ce3220b,2023-11-24_03h37.13.021,kallum_motion_pilot,2023.1.2,Win32,12.00120012,5fdb8dbac85359924ce3220b,656018846682f3df8008bb8f,656019d00a2237becaca17f0,0,72,72,63,1,fourthree,,,,,,,,,,,,,,,,,,,,,,,,,,,,,,,,,,,,,,,,,,,,,,,,,,,,,,,,,,,,,,,,,,,,,,,,,,,,,,,,,,,,,
5fdb8dbac85359924ce3220b,2023-11-24_03h37.13.021,kallum_motion_pilot,2023.1.2,Win32,12.00120012,5fdb8dbac85359924ce3220b,656018846682f3df8008bb8f,656019d00a2237becaca17f0,0,73,73,89,1,fiveseven,,,,,,,,,,,,,,,,,,,,,,,,,,,,,,,,,,,,,,,,,,,,,,,,,,,,,,,,,,,,,,,,,,,,,,,,,,,,,,,,,,,,,
5fdb8dbac85359924ce3220b,2023-11-24_03h37.13.021,kallum_motion_pilot,2023.1.2,Win32,12.00120012,5fdb8dbac85359924ce3220b,656018846682f3df8008bb8f,656019d00a2237becaca17f0,0,74,74,119,1,eightseven,,,,,,,,,,,,,,,,,,,,,,,,,,,,,,,,,,,,,,,,,,,,,,,,,,,,,,,,,,,,,,,,,,,,,,,,,,,,,,,,,,,,,
5fdb8dbac85359924ce3220b,2023-11-24_03h37.13.021,kallum_motion_pilot,2023.1.2,Win32,12.00120012,5fdb8dbac85359924ce3220b,656018846682f3df8008bb8f,656019d00a2237becaca17f0,0,75,75,69,1,threefour,,,,,,,,,,,,,,,,,,,,,,,,,,,,,,,,,,,,,,,,,,,,,,,,,,,,,,,,,,,,,,,,,,,,,,,,,,,,,,,,,,,,,
5fdb8dbac85359924ce3220b,2023-11-24_03h37.13.021,kallum_motion_pilot,2023.1.2,Win32,12.00120012,5fdb8dbac85359924ce3220b,656018846682f3df8008bb8f,656019d00a2237becaca17f0,0,76,76,27,1,twofour,,,,,,,,,,,,,,,,,,,,,,,,,,,,,,,,,,,,,,,,,,,,,,,,,,,,,,,,,,,,,,,,,,,,,,,,,,,,,,,,,,,,,
5fdb8dbac85359924ce3220b,2023-11-24_03h37.13.021,kallum_motion_pilot,2023.1.2,Win32,12.00120012,5fdb8dbac85359924ce3220b,656018846682f3df8008bb8f,656019d00a2237becaca17f0,0,77,77,7,1,fourthree,,,,,,,,,,,,,,,,,,,,,,,,,,,,,,,,,,,,,,,,,,,,,,,,,,,,,,,,,,,,,,,,,,,,,,,,,,,,,,,,,,,,,
5fdb8dbac85359924ce3220b,2023-11-24_03h37.13.021,kallum_motion_pilot,2023.1.2,Win32,12.00120012,5fdb8dbac85359924ce3220b,656018846682f3df8008bb8f,656019d00a2237becaca17f0,0,78,78,61,1,threefour,,,,,,,,,,,,,,,,,,,,,,,,,,,,,,,,,,,,,,,,,,,,,,,,,,,,,,,,,,,,,,,,,,,,,,,,,,,,,,,,,,,,,
5fdb8dbac85359924ce3220b,2023-11-24_03h37.13.021,kallum_motion_pilot,2023.1.2,Win32,12.00120012,5fdb8dbac85359924ce3220b,656018846682f3df8008bb8f,656019d00a2237becaca17f0,0,79,79,1,1,onethree,,,,,,,,,,,,,,,,,,,,,,,,,,,,,,,,,,,,,,,,,,,,,,,,,,,,,,,,,,,,,,,,,,,,,,,,,,,,,,,,,,,,,
5fdb8dbac85359924ce3220b,2023-11-24_03h37.13.021,kallum_motion_pilot,2023.1.2,Win32,12.00120012,5fdb8dbac85359924ce3220b,656018846682f3df8008bb8f,656019d00a2237becaca17f0,0,80,80,46,1,fourtwo,,,,,,,,,,,,,,,,,,,,,,,,,,,,,,,,,,,,,,,,,,,,,,,,,,,,,,,,,,,,,,,,,,,,,,,,,,,,,,,,,,,,,
5fdb8dbac85359924ce3220b,2023-11-24_03h37.13.021,kallum_motion_pilot,2023.1.2,Win32,12.00120012,5fdb8dbac85359924ce3220b,656018846682f3df8008bb8f,656019d00a2237becaca17f0,0,81,81,93,1,seveneight,,,,,,,,,,,,,,,,,,,,,,,,,,,,,,,,,,,,,,,,,,,,,,,,,,,,,,,,,,,,,,,,,,,,,,,,,,,,,,,,,,,,,
5fdb8dbac85359924ce3220b,2023-11-24_03h37.13.021,kallum_motion_pilot,2023.1.2,Win32,12.00120012,5fdb8dbac85359924ce3220b,656018846682f3df8008bb8f,656019d00a2237becaca17f0,0,82,82,4,1,threeone,,,,,,,,,,,,,,,,,,,,,,,,,,,,,,,,,,,,,,,,,,,,,,,,,,,,,,,,,,,,,,,,,,,,,,,,,,,,,,,,,,,,,
5fdb8dbac85359924ce3220b,2023-11-24_03h37.13.021,kallum_motion_pilot,2023.1.2,Win32,12.00120012,5fdb8dbac85359924ce3220b,656018846682f3df8008bb8f,656019d00a2237becaca17f0,0,83,83,110,1,eightsix,,,,,,,,,,,,,,,,,,,,,,,,,,,,,,,,,,,,,,,,,,,,,,,,,,,,,,,,,,,,,,,,,,,,,,,,,,,,,,,,,,,,,
5fdb8dbac85359924ce3220b,2023-11-24_03h37.13.021,kallum_motion_pilot,2023.1.2,Win32,12.00120012,5fdb8dbac85359924ce3220b,656018846682f3df8008bb8f,656019d00a2237becaca17f0,0,84,84,88,1,fivesix,,,,,,,,,,,,,,,,,,,,,,,,,,,,,,,,,,,,,,,,,,,,,,,,,,,,,,,,,,,,,,,,,,,,,,,,,,,,,,,,,,,,,
5fdb8dbac85359924ce3220b,2023-11-24_03h37.13.021,kallum_motion_pilot,2023.1.2,Win32,12.00120012,5fdb8dbac85359924ce3220b,656018846682f3df8008bb8f,656019d00a2237becaca17f0,0,85,85,72,1,onetwo,,,,,,,,,,,,,,,,,,,,,,,,,,,,,,,,,,,,,,,,,,,,,,,,,,,,,,,,,,,,,,,,,,,,,,,,,,,,,,,,,,,,,
5fdb8dbac85359924ce3220b,2023-11-24_03h37.13.021,kallum_motion_pilot,2023.1.2,Win32,12.00120012,5fdb8dbac85359924ce3220b,656018846682f3df8008bb8f,656019d00a2237becaca17f0,0,86,86,87,1,eightseven,,,,,,,,,,,,,,,,,,,,,,,,,,,,,,,,,,,,,,,,,,,,,,,,,,,,,,,,,,,,,,,,,,,,,,,,,,,,,,,,,,,,,
5fdb8dbac85359924ce3220b,2023-11-24_03h37.13.021,kallum_motion_pilot,2023.1.2,Win32,12.00120012,5fdb8dbac85359924ce3220b,656018846682f3df8008bb8f,656019d00a2237becaca17f0,0,87,87,78,1,fourtwo,,,,,,,,,,,,,,,,,,,,,,,,,,,,,,,,,,,,,,,,,,,,,,,,,,,,,,,,,,,,,,,,,,,,,,,,,,,,,,,,,,,,,
5fdb8dbac85359924ce3220b,2023-11-24_03h37.13.021,kallum_motion_pilot,2023.1.2,Win32,12.00120012,5fdb8dbac85359924ce3220b,656018846682f3df8008bb8f,656019d00a2237becaca17f0,0,88,88,3,1,twofour,,,,,,,,,,,,,,,,,,,,,,,,,,,,,,,,,,,,,,,,,,,,,,,,,,,,,,,,,,,,,,,,,,,,,,,,,,,,,,,,,,,,,
5fdb8dbac85359924ce3220b,2023-11-24_03h37.13.021,kallum_motion_pilot,2023.1.2,Win32,12.00120012,5fdb8dbac85359924ce3220b,656018846682f3df8008bb8f,656019d00a2237becaca17f0,0,89,89,21,1,threefour,,,,,,,,,,,,,,,,,,,,,,,,,,,,,,,,,,,,,,,,,,,,,,,,,,,,,,,,,,,,,,,,,,,,,,,,,,,,,,,,,,,,,
5fdb8dbac85359924ce3220b,2023-11-24_03h37.13.021,kallum_motion_pilot,2023.1.2,Win32,12.00120012,5fdb8dbac85359924ce3220b,656018846682f3df8008bb8f,656019d00a2237becaca17f0,0,90,90,116,1,sevenfive,,,,,,,,,,,,,,,,,,,,,,,,,,,,,,,,,,,,,,,,,,,,,,,,,,,,,,,,,,,,,,,,,,,,,,,,,,,,,,,,,,,,,
5fdb8dbac85359924ce3220b,2023-11-24_03h37.13.021,kallum_motion_pilot,2023.1.2,Win32,12.00120012,5fdb8dbac85359924ce3220b,656018846682f3df8008bb8f,656019d00a2237becaca17f0,0,91,91,125,1,seveneight,,,,,,,,,,,,,,,,,,,,,,,,,,,,,,,,,,,,,,,,,,,,,,,,,,,,,,,,,,,,,,,,,,,,,,,,,,,,,,,,,,,,,
5fdb8dbac85359924ce3220b,2023-11-24_03h37.13.021,kallum_motion_pilot,2023.1.2,Win32,12.00120012,5fdb8dbac85359924ce3220b,656018846682f3df8008bb8f,656019d00a2237becaca17f0,0,92,92,115,1,sixeight,,,,,,,,,,,,,,,,,,,,,,,,,,,,,,,,,,,,,,,,,,,,,,,,,,,,,,,,,,,,,,,,,,,,,,,,,,,,,,,,,,,,,
5fdb8dbac85359924ce3220b,2023-11-24_03h37.13.021,kallum_motion_pilot,2023.1.2,Win32,12.00120012,5fdb8dbac85359924ce3220b,656018846682f3df8008bb8f,656019d00a2237becaca17f0,0,93,93,71,1,fourthree,,,,,,,,,,,,,,,,,,,,,,,,,,,,,,,,,,,,,,,,,,,,,,,,,,,,,,,,,,,,,,,,,,,,,,,,,,,,,,,,,,,,,
5fdb8dbac85359924ce3220b,2023-11-24_03h37.13.021,kallum_motion_pilot,2023.1.2,Win32,12.00120012,5fdb8dbac85359924ce3220b,656018846682f3df8008bb8f,656019d00a2237becaca17f0,0,94,94,32,1,onetwo,,,,,,,,,,,,,,,,,,,,,,,,,,,,,,,,,,,,,,,,,,,,,,,,,,,,,,,,,,,,,,,,,,,,,,,,,,,,,,,,,,,,,
5fdb8dbac85359924ce3220b,2023-11-24_03h37.13.021,kallum_motion_pilot,2023.1.2,Win32,12.00120012,5fdb8dbac85359924ce3220b,656018846682f3df8008bb8f,656019d00a2237becaca17f0,0,95,95,38,1,fourtwo,,,,,,,,,,,,,,,,,,,,,,,,,,,,,,,,,,,,,,,,,,,,,,,,,,,,,,,,,,,,,,,,,,,,,,,,,,,,,,,,,,,,,
5fdb8dbac85359924ce3220b,2023-11-24_03h37.13.021,kallum_motion_pilot,2023.1.2,Win32,12.00120012,5fdb8dbac85359924ce3220b,656018846682f3df8008bb8f,656019d00a2237becaca17f0,0,96,96,14,1,fourtwo,,,,,,,,,,,,,,,,,,,,,,,,,,,,,,,,,,,,,,,,,,,,,,,,,,,,,,,,,,,,,,,,,,,,,,,,,,,,,,,,,,,,,
5fdb8dbac85359924ce3220b,2023-11-24_03h37.13.021,kallum_motion_pilot,2023.1.2,Win32,12.00120012,5fdb8dbac85359924ce3220b,656018846682f3df8008bb8f,656019d00a2237becaca17f0,0,97,97,107,1,sixeight,,,,,,,,,,,,,,,,,,,,,,,,,,,,,,,,,,,,,,,,,,,,,,,,,,,,,,,,,,,,,,,,,,,,,,,,,,,,,,,,,,,,,
5fdb8dbac85359924ce3220b,2023-11-24_03h37.13.021,kallum_motion_pilot,2023.1.2,Win32,12.00120012,5fdb8dbac85359924ce3220b,656018846682f3df8008bb8f,656019d00a2237becaca17f0,0,98,98,67,1,twofour,,,,,,,,,,,,,,,,,,,,,,,,,,,,,,,,,,,,,,,,,,,,,,,,,,,,,,,,,,,,,,,,,,,,,,,,,,,,,,,,,,,,,
5fdb8dbac85359924ce3220b,2023-11-24_03h37.13.021,kallum_motion_pilot,2023.1.2,Win32,12.00120012,5fdb8dbac85359924ce3220b,656018846682f3df8008bb8f,656019d00a2237becaca17f0,0,99,99,148,1,sevenfive,,,,,,,,,,,,,,,,,,,,,,,,,,,,,,,,,,,,,,,,,,,,,,,,,,,,,,,,,,,,,,,,,,,,,,,,,,,,,,,,,,,,,
5fdb8dbac85359924ce3220b,2023-11-24_03h37.13.021,kallum_motion_pilot,2023.1.2,Win32,12.00120012,5fdb8dbac85359924ce3220b,656018846682f3df8008bb8f,656019d00a2237becaca17f0,0,100,100,118,1,eightsix,,,,,,,,,,,,,,,,,,,,,,,,,,,,,,,,,,,,,,,,,,,,,,,,,,,,,,,,,,,,,,,,,,,,,,,,,,,,,,,,,,,,,
5fdb8dbac85359924ce3220b,2023-11-24_03h37.13.021,kallum_motion_pilot,2023.1.2,Win32,12.00120012,5fdb8dbac85359924ce3220b,656018846682f3df8008bb8f,656019d00a2237becaca17f0,0,101,101,6,1,fourtwo,,,,,,,,,,,,,,,,,,,,,,,,,,,,,,,,,,,,,,,,,,,,,,,,,,,,,,,,,,,,,,,,,,,,,,,,,,,,,,,,,,,,,
5fdb8dbac85359924ce3220b,2023-11-24_03h37.13.021,kallum_motion_pilot,2023.1.2,Win32,12.00120012,5fdb8dbac85359924ce3220b,656018846682f3df8008bb8f,656019d00a2237becaca17f0,0,102,102,5,1,threefour,,,,,,,,,,,,,,,,,,,,,,,,,,,,,,,,,,,,,,,,,,,,,,,,,,,,,,,,,,,,,,,,,,,,,,,,,,,,,,,,,,,,,
5fdb8dbac85359924ce3220b,2023-11-24_03h37.13.021,kallum_motion_pilot,2023.1.2,Win32,12.00120012,5fdb8dbac85359924ce3220b,656018846682f3df8008bb8f,656019d00a2237becaca17f0,0,103,103,76,1,threeone,,,,,,,,,,,,,,,,,,,,,,,,,,,,,,,,,,,,,,,,,,,,,,,,,,,,,,,,,,,,,,,,,,,,,,,,,,,,,,,,,,,,,
5fdb8dbac85359924ce3220b,2023-11-24_03h37.13.021,kallum_motion_pilot,2023.1.2,Win32,12.00120012,5fdb8dbac85359924ce3220b,656018846682f3df8008bb8f,656019d00a2237becaca17f0,0,104,104,75,1,twofour,,,,,,,,,,,,,,,,,,,,,,,,,,,,,,,,,,,,,,,,,,,,,,,,,,,,,,,,,,,,,,,,,,,,,,,,,,,,,,,,,,,,,
5fdb8dbac85359924ce3220b,2023-11-24_03h37.13.021,kallum_motion_pilot,2023.1.2,Win32,12.00120012,5fdb8dbac85359924ce3220b,656018846682f3df8008bb8f,656019d00a2237becaca17f0,0,105,105,51,1,twofour,,,,,,,,,,,,,,,,,,,,,,,,,,,,,,,,,,,,,,,,,,,,,,,,,,,,,,,,,,,,,,,,,,,,,,,,,,,,,,,,,,,,,
5fdb8dbac85359924ce3220b,2023-11-24_03h37.13.021,kallum_motion_pilot,2023.1.2,Win32,12.00120012,5fdb8dbac85359924ce3220b,656018846682f3df8008bb8f,656019d00a2237becaca17f0,0,106,106,121,1,fiveseven,,,,,,,,,,,,,,,,,,,,,,,,,,,,,,,,,,,,,,,,,,,,,,,,,,,,,,,,,,,,,,,,,,,,,,,,,,,,,,,,,,,,,
5fdb8dbac85359924ce3220b,2023-11-24_03h37.13.021,kallum_motion_pilot,2023.1.2,Win32,12.00120012,5fdb8dbac85359924ce3220b,656018846682f3df8008bb8f,656019d00a2237becaca17f0,0,107,107,12,1,threeone,,,,,,,,,,,,,,,,,,,,,,,,,,,,,,,,,,,,,,,,,,,,,,,,,,,,,,,,,,,,,,,,,,,,,,,,,,,,,,,,,,,,,
5fdb8dbac85359924ce3220b,2023-11-24_03h37.13.021,kallum_motion_pilot,2023.1.2,Win32,12.00120012,5fdb8dbac85359924ce3220b,656018846682f3df8008bb8f,656019d00a2237becaca17f0,0,108,108,151,1,eightseven,,,,,,,,,,,,,,,,,,,,,,,,,,,,,,,,,,,,,,,,,,,,,,,,,,,,,,,,,,,,,,,,,,,,,,,,,,,,,,,,,,,,,
5fdb8dbac85359924ce3220b,2023-11-24_03h37.13.021,kallum_motion_pilot,2023.1.2,Win32,12.00120012,5fdb8dbac85359924ce3220b,656018846682f3df8008bb8f,656019d00a2237becaca17f0,0,109,109,95,1,eightseven,,,,,,,,,,,,,,,,,,,,,,,,,,,,,,,,,,,,,,,,,,,,,,,,,,,,,,,,,,,,,,,,,,,,,,,,,,,,,,,,,,,,,
5fdb8dbac85359924ce3220b,2023-11-24_03h37.13.021,kallum_motion_pilot,2023.1.2,Win32,12.00120012,5fdb8dbac85359924ce3220b,656018846682f3df8008bb8f,656019d00a2237becaca17f0,0,110,110,25,1,onethree,,,,,,,,,,,,,,,,,,,,,,,,,,,,,,,,,,,,,,,,,,,,,,,,,,,,,,,,,,,,,,,,,,,,,,,,,,,,,,,,,,,,,
5fdb8dbac85359924ce3220b,2023-11-24_03h37.13.021,kallum_motion_pilot,2023.1.2,Win32,12.00120012,5fdb8dbac85359924ce3220b,656018846682f3df8008bb8f,656019d00a2237becaca17f0,0,111,111,103,1,eightseven,,,,,,,,,,,,,,,,,,,,,,,,,,,,,,,,,,,,,,,,,,,,,,,,,,,,,,,,,,,,,,,,,,,,,,,,,,,,,,,,,,,,,
5fdb8dbac85359924ce3220b,2023-11-24_03h37.13.021,kallum_motion_pilot,2023.1.2,Win32,12.00120012,5fdb8dbac85359924ce3220b,656018846682f3df8008bb8f,656019d00a2237becaca17f0,0,112,112,57,1,onethree,,,,,,,,,,,,,,,,,,,,,,,,,,,,,,,,,,,,,,,,,,,,,,,,,,,,,,,,,,,,,,,,,,,,,,,,,,,,,,,,,,,,,
5fdb8dbac85359924ce3220b,2023-11-24_03h37.13.021,kallum_motion_pilot,2023.1.2,Win32,12.00120012,5fdb8dbac85359924ce3220b,656018846682f3df8008bb8f,656019d00a2237becaca17f0,0,113,113,152,1,fivesix,,,,,,,,,,,,,,,,,,,,,,,,,,,,,,,,,,,,,,,,,,,,,,,,,,,,,,,,,,,,,,,,,,,,,,,,,,,,,,,,,,,,,
5fdb8dbac85359924ce3220b,2023-11-24_03h37.13.021,kallum_motion_pilot,2023.1.2,Win32,12.00120012,5fdb8dbac85359924ce3220b,656018846682f3df8008bb8f,656019d00a2237becaca17f0,0,114,114,100,1,sevenfive,,,,,,,,,,,,,,,,,,,,,,,,,,,,,,,,,,,,,,,,,,,,,,,,,,,,,,,,,,,,,,,,,,,,,,,,,,,,,,,,,,,,,
5fdb8dbac85359924ce3220b,2023-11-24_03h37.13.021,kallum_motion_pilot,2023.1.2,Win32,12.00120012,5fdb8dbac85359924ce3220b,656018846682f3df8008bb8f,656019d00a2237becaca17f0,0,115,115,83,1,sixeight,,,,,,,,,,,,,,,,,,,,,,,,,,,,,,,,,,,,,,,,,,,,,,,,,,,,,,,,,,,,,,,,,,,,,,,,,,,,,,,,,,,,,
5fdb8dbac85359924ce3220b,2023-11-24_03h37.13.021,kallum_motion_pilot,2023.1.2,Win32,12.00120012,5fdb8dbac85359924ce3220b,656018846682f3df8008bb8f,656019d00a2237becaca17f0,0,116,116,30,1,fourtwo,,,,,,,,,,,,,,,,,,,,,,,,,,,,,,,,,,,,,,,,,,,,,,,,,,,,,,,,,,,,,,,,,,,,,,,,,,,,,,,,,,,,,
5fdb8dbac85359924ce3220b,2023-11-24_03h37.13.021,kallum_motion_pilot,2023.1.2,Win32,12.00120012,5fdb8dbac85359924ce3220b,656018846682f3df8008bb8f,656019d00a2237becaca17f0,0,117,117,117,1,seveneight,,,,,,,,,,,,,,,,,,,,,,,,,,,,,,,,,,,,,,,,,,,,,,,,,,,,,,,,,,,,,,,,,,,,,,,,,,,,,,,,,,,,,
5fdb8dbac85359924ce3220b,2023-11-24_03h37.13.021,kallum_motion_pilot,2023.1.2,Win32,12.00120012,5fdb8dbac85359924ce3220b,656018846682f3df8008bb8f,656019d00a2237becaca17f0,0,118,118,84,1,sevenfive,,,,,,,,,,,,,,,,,,,,,,,,,,,,,,,,,,,,,,,,,,,,,,,,,,,,,,,,,,,,,,,,,,,,,,,,,,,,,,,,,,,,,
5fdb8dbac85359924ce3220b,2023-11-24_03h37.13.021,kallum_motion_pilot,2023.1.2,Win32,12.00120012,5fdb8dbac85359924ce3220b,656018846682f3df8008bb8f,656019d00a2237becaca17f0,0,119,119,80,1,fivesix,,,,,,,,,,,,,,,,,,,,,,,,,,,,,,,,,,,,,,,,,,,,,,,,,,,,,,,,,,,,,,,,,,,,,,,,,,,,,,,,,,,,,
5fdb8dbac85359924ce3220b,2023-11-24_03h37.13.021,kallum_motion_pilot,2023.1.2,Win32,12.00120012,5fdb8dbac85359924ce3220b,656018846682f3df8008bb8f,656019d00a2237becaca17f0,0,120,120,138,1,sixfive,,,,,,,,,,,,,,,,,,,,,,,,,,,,,,,,,,,,,,,,,,,,,,,,,,,,,,,,,,,,,,,,,,,,,,,,,,,,,,,,,,,,,
5fdb8dbac85359924ce3220b,2023-11-24_03h37.13.021,kallum_motion_pilot,2023.1.2,Win32,12.00120012,5fdb8dbac85359924ce3220b,656018846682f3df8008bb8f,656019d00a2237becaca17f0,0,121,121,19,1,twofour,,,,,,,,,,,,,,,,,,,,,,,,,,,,,,,,,,,,,,,,,,,,,,,,,,,,,,,,,,,,,,,,,,,,,,,,,,,,,,,,,,,,,
5fdb8dbac85359924ce3220b,2023-11-24_03h37.13.021,kallum_motion_pilot,2023.1.2,Win32,12.00120012,5fdb8dbac85359924ce3220b,656018846682f3df8008bb8f,656019d00a2237becaca17f0,0,122,122,142,1,eightsix,,,,,,,,,,,,,,,,,,,,,,,,,,,,,,,,,,,,,,,,,,,,,,,,,,,,,,,,,,,,,,,,,,,,,,,,,,,,,,,,,,,,,
5fdb8dbac85359924ce3220b,2023-11-24_03h37.13.021,kallum_motion_pilot,2023.1.2,Win32,12.00120012,5fdb8dbac85359924ce3220b,656018846682f3df8008bb8f,656019d00a2237becaca17f0,0,123,123,59,1,twofour,,,,,,,,,,,,,,,,,,,,,,,,,,,,,,,,,,,,,,,,,,,,,,,,,,,,,,,,,,,,,,,,,,,,,,,,,,,,,,,,,,,,,
5fdb8dbac85359924ce3220b,2023-11-24_03h37.13.021,kallum_motion_pilot,2023.1.2,Win32,12.00120012,5fdb8dbac85359924ce3220b,656018846682f3df8008bb8f,656019d00a2237becaca17f0,0,124,124,35,1,twofour,,,,,,,,,,,,,,,,,,,,,,,,,,,,,,,,,,,,,,,,,,,,,,,,,,,,,,,,,,,,,,,,,,,,,,,,,,,,,,,,,,,,,
5fdb8dbac85359924ce3220b,2023-11-24_03h37.13.021,kallum_motion_pilot,2023.1.2,Win32,12.00120012,5fdb8dbac85359924ce3220b,656018846682f3df8008bb8f,656019d00a2237becaca17f0,0,125,125,98,1,sixfive,,,,,,,,,,,,,,,,,,,,,,,,,,,,,,,,,,,,,,,,,,,,,,,,,,,,,,,,,,,,,,,,,,,,,,,,,,,,,,,,,,,,,
5fdb8dbac85359924ce3220b,2023-11-24_03h37.13.021,kallum_motion_pilot,2023.1.2,Win32,12.00120012,5fdb8dbac85359924ce3220b,656018846682f3df8008bb8f,656019d00a2237becaca17f0,0,126,126,20,1,threeone,,,,,,,,,,,,,,,,,,,,,,,,,,,,,,,,,,,,,,,,,,,,,,,,,,,,,,,,,,,,,,,,,,,,,,,,,,,,,,,,,,,,,
5fdb8dbac85359924ce3220b,2023-11-24_03h37.13.021,kallum_motion_pilot,2023.1.2,Win32,12.00120012,5fdb8dbac85359924ce3220b,656018846682f3df8008bb8f,656019d00a2237becaca17f0,0,127,127,26,1,twoone,,,,,,,,,,,,,,,,,,,,,,,,,,,,,,,,,,,,,,,,,,,,,,,,,,,,,,,,,,,,,,,,,,,,,,,,,,,,,,,,,,,,,
5fdb8dbac85359924ce3220b,2023-11-24_03h37.13.021,kallum_motion_pilot,2023.1.2,Win32,12.00120012,5fdb8dbac85359924ce3220b,656018846682f3df8008bb8f,656019d00a2237becaca17f0,0,128,128,135,1,eightseven,,,,,,,,,,,,,,,,,,,,,,,,,,,,,,,,,,,,,,,,,,,,,,,,,,,,,,,,,,,,,,,,,,,,,,,,,,,,,,,,,,,,,
5fdb8dbac85359924ce3220b,2023-11-24_03h37.13.021,kallum_motion_pilot,2023.1.2,Win32,12.00120012,5fdb8dbac85359924ce3220b,656018846682f3df8008bb8f,656019d00a2237becaca17f0,0,129,129,92,1,sevenfive,,,,,,,,,,,,,,,,,,,,,,,,,,,,,,,,,,,,,,,,,,,,,,,,,,,,,,,,,,,,,,,,,,,,,,,,,,,,,,,,,,,,,
5fdb8dbac85359924ce3220b,2023-11-24_03h37.13.021,kallum_motion_pilot,2023.1.2,Win32,12.00120012,5fdb8dbac85359924ce3220b,656018846682f3df8008bb8f,656019d00a2237becaca17f0,0,130,130,161,1,fiveseven,,,,,,,,,,,,,,,,,,,,,,,,,,,,,,,,,,,,,,,,,,,,,,,,,,,,,,,,,,,,,,,,,,,,,,,,,,,,,,,,,,,,,
5fdb8dbac85359924ce3220b,2023-11-24_03h37.13.021,kallum_motion_pilot,2023.1.2,Win32,12.00120012,5fdb8dbac85359924ce3220b,656018846682f3df8008bb8f,656019d00a2237becaca17f0,0,131,131,120,1,fivesix,,,,,,,,,,,,,,,,,,,,,,,,,,,,,,,,,,,,,,,,,,,,,,,,,,,,,,,,,,,,,,,,,,,,,,,,,,,,,,,,,,,,,
5fdb8dbac85359924ce3220b,2023-11-24_03h37.13.021,kallum_motion_pilot,2023.1.2,Win32,12.00120012,5fdb8dbac85359924ce3220b,656018846682f3df8008bb8f,656019d00a2237becaca17f0,0,132,132,58,1,twoone,,,,,,,,,,,,,,,,,,,,,,,,,,,,,,,,,,,,,,,,,,,,,,,,,,,,,,,,,,,,,,,,,,,,,,,,,,,,,,,,,,,,,
5fdb8dbac85359924ce3220b,2023-11-24_03h37.13.021,kallum_motion_pilot,2023.1.2,Win32,12.00120012,5fdb8dbac85359924ce3220b,656018846682f3df8008bb8f,656019d00a2237becaca17f0,0,133,133,15,1,fourthree,,,,,,,,,,,,,,,,,,,,,,,,,,,,,,,,,,,,,,,,,,,,,,,,,,,,,,,,,,,,,,,,,,,,,,,,,,,,,,,,,,,,,
5fdb8dbac85359924ce3220b,2023-11-24_03h37.13.021,kallum_motion_pilot,2023.1.2,Win32,12.00120012,5fdb8dbac85359924ce3220b,656018846682f3df8008bb8f,656019d00a2237becaca17f0,0,134,134,160,1,fivesix,,,,,,,,,,,,,,,,,,,,,,,,,,,,,,,,,,,,,,,,,,,,,,,,,,,,,,,,,,,,,,,,,,,,,,,,,,,,,,,,,,,,,
5fdb8dbac85359924ce3220b,2023-11-24_03h37.13.021,kallum_motion_pilot,2023.1.2,Win32,12.00120012,5fdb8dbac85359924ce3220b,656018846682f3df8008bb8f,656019d00a2237becaca17f0,0,135,135,70,1,fourtwo,,,,,,,,,,,,,,,,,,,,,,,,,,,,,,,,,,,,,,,,,,,,,,,,,,,,,,,,,,,,,,,,,,,,,,,,,,,,,,,,,,,,,
5fdb8dbac85359924ce3220b,2023-11-24_03h37.13.021,kallum_motion_pilot,2023.1.2,Win32,12.00120012,5fdb8dbac85359924ce3220b,656018846682f3df8008bb8f,656019d00a2237becaca17f0,0,136,136,48,1,onetwo,,,,,,,,,,,,,,,,,,,,,,,,,,,,,,,,,,,,,,,,,,,,,,,,,,,,,,,,,,,,,,,,,,,,,,,,,,,,,,,,,,,,,
5fdb8dbac85359924ce3220b,2023-11-24_03h37.13.021,kallum_motion_pilot,2023.1.2,Win32,12.00120012,5fdb8dbac85359924ce3220b,656018846682f3df8008bb8f,656019d00a2237becaca17f0,0,137,137,64,1,onetwo,,,,,,,,,,,,,,,,,,,,,,,,,,,,,,,,,,,,,,,,,,,,,,,,,,,,,,,,,,,,,,,,,,,,,,,,,,,,,,,,,,,,,
5fdb8dbac85359924ce3220b,2023-11-24_03h37.13.021,kallum_motion_pilot,2023.1.2,Win32,12.00120012,5fdb8dbac85359924ce3220b,656018846682f3df8008bb8f,656019d00a2237becaca17f0,0,138,138,50,1,twoone,,,,,,,,,,,,,,,,,,,,,,,,,,,,,,,,,,,,,,,,,,,,,,,,,,,,,,,,,,,,,,,,,,,,,,,,,,,,,,,,,,,,,
5fdb8dbac85359924ce3220b,2023-11-24_03h37.13.021,kallum_motion_pilot,2023.1.2,Win32,12.00120012,5fdb8dbac85359924ce3220b,656018846682f3df8008bb8f,656019d00a2237becaca17f0,0,139,139,108,1,sevenfive,,,,,,,,,,,,,,,,,,,,,,,,,,,,,,,,,,,,,,,,,,,,,,,,,,,,,,,,,,,,,,,,,,,,,,,,,,,,,,,,,,,,,
5fdb8dbac85359924ce3220b,2023-11-24_03h37.13.021,kallum_motion_pilot,2023.1.2,Win32,12.00120012,5fdb8dbac85359924ce3220b,656018846682f3df8008bb8f,656019d00a2237becaca17f0,0,140,140,52,1,threeone,,,,,,,,,,,,,,,,,,,,,,,,,,,,,,,,,,,,,,,,,,,,,,,,,,,,,,,,,,,,,,,,,,,,,,,,,,,,,,,,,,,,,
5fdb8dbac85359924ce3220b,2023-11-24_03h37.13.021,kallum_motion_pilot,2023.1.2,Win32,12.00120012,5fdb8dbac85359924ce3220b,656018846682f3df8008bb8f,656019d00a2237becaca17f0,0,141,141,2,1,twoone,,,,,,,,,,,,,,,,,,,,,,,,,,,,,,,,,,,,,,,,,,,,,,,,,,,,,,,,,,,,,,,,,,,,,,,,,,,,,,,,,,,,,
5fdb8dbac85359924ce3220b,2023-11-24_03h37.13.021,kallum_motion_pilot,2023.1.2,Win32,12.00120012,5fdb8dbac85359924ce3220b,656018846682f3df8008bb8f,656019d00a2237becaca17f0,0,142,142,112,1,fivesix,,,,,,,,,,,,,,,,,,,,,,,,,,,,,,,,,,,,,,,,,,,,,,,,,,,,,,,,,,,,,,,,,,,,,,,,,,,,,,,,,,,,,
5fdb8dbac85359924ce3220b,2023-11-24_03h37.13.021,kallum_motion_pilot,2023.1.2,Win32,12.00120012,5fdb8dbac85359924ce3220b,656018846682f3df8008bb8f,656019d00a2237becaca17f0,0,143,143,136,1,fivesix,,,,,,,,,,,,,,,,,,,,,,,,,,,,,,,,,,,,,,,,,,,,,,,,,,,,,,,,,,,,,,,,,,,,,,,,,,,,,,,,,,,,,
5fdb8dbac85359924ce3220b,2023-11-24_03h37.13.021,kallum_motion_pilot,2023.1.2,Win32,12.00120012,5fdb8dbac85359924ce3220b,656018846682f3df8008bb8f,656019d00a2237becaca17f0,0,144,144,101,1,seveneight,,,,,,,,,,,,,,,,,,,,,,,,,,,,,,,,,,,,,,,,,,,,,,,,,,,,,,,,,,,,,,,,,,,,,,,,,,,,,,,,,,,,,
5fdb8dbac85359924ce3220b,2023-11-24_03h37.13.021,kallum_motion_pilot,2023.1.2,Win32,12.00120012,5fdb8dbac85359924ce3220b,656018846682f3df8008bb8f,656019d00a2237becaca17f0,0,145,145,128,1,fivesix,,,,,,,,,,,,,,,,,,,,,,,,,,,,,,,,,,,,,,,,,,,,,,,,,,,,,,,,,,,,,,,,,,,,,,,,,,,,,,,,,,,,,
5fdb8dbac85359924ce3220b,2023-11-24_03h37.13.021,kallum_motion_pilot,2023.1.2,Win32,12.00120012,5fdb8dbac85359924ce3220b,656018846682f3df8008bb8f,656019d00a2237becaca17f0,0,146,146,147,1,sixeight,,,,,,,,,,,,,,,,,,,,,,,,,,,,,,,,,,,,,,,,,,,,,,,,,,,,,,,,,,,,,,,,,,,,,,,,,,,,,,,,,,,,,
5fdb8dbac85359924ce3220b,2023-11-24_03h37.13.021,kallum_motion_pilot,2023.1.2,Win32,12.00120012,5fdb8dbac85359924ce3220b,656018846682f3df8008bb8f,656019d00a2237becaca17f0,0,147,147,42,1,twoone,,,,,,,,,,,,,,,,,,,,,,,,,,,,,,,,,,,,,,,,,,,,,,,,,,,,,,,,,,,,,,,,,,,,,,,,,,,,,,,,,,,,,
5fdb8dbac85359924ce3220b,2023-11-24_03h37.13.021,kallum_motion_pilot,2023.1.2,Win32,12.00120012,5fdb8dbac85359924ce3220b,656018846682f3df8008bb8f,656019d00a2237becaca17f0,0,148,148,133,1,seveneight,,,,,,,,,,,,,,,,,,,,,,,,,,,,,,,,,,,,,,,,,,,,,,,,,,,,,,,,,,,,,,,,,,,,,,,,,,,,,,,,,,,,,
5fdb8dbac85359924ce3220b,2023-11-24_03h37.13.021,kallum_motion_pilot,2023.1.2,Win32,12.00120012,5fdb8dbac85359924ce3220b,656018846682f3df8008bb8f,656019d00a2237becaca17f0,0,149,149,66,1,twoone,,,,,,,,,,,,,,,,,,,,,,,,,,,,,,,,,,,,,,,,,,,,,,,,,,,,,,,,,,,,,,,,,,,,,,,,,,,,,,,,,,,,,
5fdb8dbac85359924ce3220b,2023-11-24_03h37.13.021,kallum_motion_pilot,2023.1.2,Win32,12.00120012,5fdb8dbac85359924ce3220b,656018846682f3df8008bb8f,656019d00a2237becaca17f0,0,150,150,62,1,fourtwo,,,,,,,,,,,,,,,,,,,,,,,,,,,,,,,,,,,,,,,,,,,,,,,,,,,,,,,,,,,,,,,,,,,,,,,,,,,,,,,,,,,,,
5fdb8dbac85359924ce3220b,2023-11-24_03h37.13.021,kallum_motion_pilot,2023.1.2,Win32,12.00120012,5fdb8dbac85359924ce3220b,656018846682f3df8008bb8f,656019d00a2237becaca17f0,0,151,151,109,1,seveneight,,,,,,,,,,,,,,,,,,,,,,,,,,,,,,,,,,,,,,,,,,,,,,,,,,,,,,,,,,,,,,,,,,,,,,,,,,,,,,,,,,,,,
5fdb8dbac85359924ce3220b,2023-11-24_03h37.13.021,kallum_motion_pilot,2023.1.2,Win32,12.00120012,5fdb8dbac85359924ce3220b,656018846682f3df8008bb8f,656019d00a2237becaca17f0,0,152,152,85,1,seveneight,,,,,,,,,,,,,,,,,,,,,,,,,,,,,,,,,,,,,,,,,,,,,,,,,,,,,,,,,,,,,,,,,,,,,,,,,,,,,,,,,,,,,
5fdb8dbac85359924ce3220b,2023-11-24_03h37.13.021,kallum_motion_pilot,2023.1.2,Win32,12.00120012,5fdb8dbac85359924ce3220b,656018846682f3df8008bb8f,656019d00a2237becaca17f0,0,153,153,129,1,fiveseven,,,,,,,,,,,,,,,,,,,,,,,,,,,,,,,,,,,,,,,,,,,,,,,,,,,,,,,,,,,,,,,,,,,,,,,,,,,,,,,,,,,,,
5fdb8dbac85359924ce3220b,2023-11-24_03h37.13.021,kallum_motion_pilot,2023.1.2,Win32,12.00120012,5fdb8dbac85359924ce3220b,656018846682f3df8008bb8f,656019d00a2237becaca17f0,0,154,154,86,1,eightsix,,,,,,,,,,,,,,,,,,,,,,,,,,,,,,,,,,,,,,,,,,,,,,,,,,,,,,,,,,,,,,,,,,,,,,,,,,,,,,,,,,,,,
5fdb8dbac85359924ce3220b,2023-11-24_03h37.13.021,kallum_motion_pilot,2023.1.2,Win32,12.00120012,5fdb8dbac85359924ce3220b,656018846682f3df8008bb8f,656019d00a2237becaca17f0,0,155,155,68,1,threeone,,,,,,,,,,,,,,,,,,,,,,,,,,,,,,,,,,,,,,,,,,,,,,,,,,,,,,,,,,,,,,,,,,,,,,,,,,,,,,,,,,,,,
5fdb8dbac85359924ce3220b,2023-11-24_03h37.13.021,kallum_motion_pilot,2023.1.2,Win32,12.00120012,5fdb8dbac85359924ce3220b,656018846682f3df8008bb8f,656019d00a2237becaca17f0,0,156,156,155,1,sixeight,,,,,,,,,,,,,,,,,,,,,,,,,,,,,,,,,,,,,,,,,,,,,,,,,,,,,,,,,,,,,,,,,,,,,,,,,,,,,,,,,,,,,
5fdb8dbac85359924ce3220b,2023-11-24_03h37.13.021,kallum_motion_pilot,2023.1.2,Win32,12.00120012,5fdb8dbac85359924ce3220b,656018846682f3df8008bb8f,656019d00a2237becaca17f0,0,157,157,126,1,eightsix,,,,,,,,,,,,,,,,,,,,,,,,,,,,,,,,,,,,,,,,,,,,,,,,,,,,,,,,,,,,,,,,,,,,,,,,,,,,,,,,,,,,,
5fdb8dbac85359924ce3220b,2023-11-24_03h37.13.021,kallum_motion_pilot,2023.1.2,Win32,12.00120012,5fdb8dbac85359924ce3220b,656018846682f3df8008bb8f,656019d00a2237becaca17f0,0,158,158,104,1,fivesix,,,,,,,,,,,,,,,,,,,,,,,,,,,,,,,,,,,,,,,,,,,,,,,,,,,,,,,,,,,,,,,,,,,,,,,,,,,,,,,,,,,,,
5fdb8dbac85359924ce3220b,2023-11-24_03h37.13.021,kallum_motion_pilot,2023.1.2,Win32,12.00120012,5fdb8dbac85359924ce3220b,656018846682f3df8008bb8f,656019d00a2237becaca17f0,0,159,159,39,1,fourthree,,,,,,,,,,,,,,,,,,,,,,,,,,,,,,,,,,,,,,,,,,,,,,,,,,,,,,,,,,,,,,,,,,,,,,,,,,,,,,,,,,,,,
5fdb8dbac85359924ce3220b,2023-11-24_03h37.13.021,kallum_motion_pilot,2023.1.2,Win32,12.00120012,5fdb8dbac85359924ce3220b,656018846682f3df8008bb8f,656019d00a2237becaca17f0,0,160,160,24,1,onetwo,,,,,,,,,,,,,,,,,,,,,,,,,,,,,,,,,,,,,,,,,,,,,,,,,,,,,,,,,,,,,,,,,,,,,,,,,,,,,,,,,,,,,
5fdb8dbac85359924ce3220b,2023-11-24_03h37.13.021,kallum_motion_pilot,2023.1.2,Win32,12.00120012,5fdb8dbac85359924ce3220b,656018846682f3df8008bb8f,656019d00a2237becaca17f0,0,161,161,90,1,sixfive,,,,,,,,,,,,,,,,,,,,,,,,,,,,,,,,,,,,,,,,,,,,,,,,,,,,,,,,,,,,,,,,,,,,,,,,,,,,,,,,,,,,,
5fdb8dbac85359924ce3220b,2023-11-24_03h37.13.021,kallum_motion_pilot,2023.1.2,Win32,12.00120012,5fdb8dbac85359924ce3220b,656018846682f3df8008bb8f,656019d00a2237becaca17f0,1,0,162,21,1,threefour,,,,,,,,,,,,,,,,,,,,,,,,,,,,,,,,,,,,,,,,,,,,,,,,,,,,,,,,,,,,,,,,,,,,,,,,,,,,,,,,,,,,,
5fdb8dbac85359924ce3220b,2023-11-24_03h37.13.021,kallum_motion_pilot,2023.1.2,Win32,12.00120012,5fdb8dbac85359924ce3220b,656018846682f3df8008bb8f,656019d00a2237becaca17f0,1,1,163,56,1,onetwo,,,,,,,,,,,,,,,,,,,,,,,,,,,,,,,,,,,,,,,,,,,,,,,,,,,,,,,,,,,,,,,,,,,,,,,,,,,,,,,,,,,,,
5fdb8dbac85359924ce3220b,2023-11-24_03h37.13.021,kallum_motion_pilot,2023.1.2,Win32,12.00120012,5fdb8dbac85359924ce3220b,656018846682f3df8008bb8f,656019d00a2237becaca17f0,1,2,164,16,1,onetwo,,,,,,,,,,,,,,,,,,,,,,,,,,,,,,,,,,,,,,,,,,,,,,,,,,,,,,,,,,,,,,,,,,,,,,,,,,,,,,,,,,,,,
5fdb8dbac85359924ce3220b,2023-11-24_03h37.13.021,kallum_motion_pilot,2023.1.2,Win32,12.00120012,5fdb8dbac85359924ce3220b,656018846682f3df8008bb8f,656019d00a2237becaca17f0,1,3,165,25,1,onethree,,,,,,,,,,,,,,,,,,,,,,,,,,,,,,,,,,,,,,,,,,,,,,,,,,,,,,,,,,,,,,,,,,,,,,,,,,,,,,,,,,,,,
5fdb8dbac85359924ce3220b,2023-11-24_03h37.13.021,kallum_motion_pilot,2023.1.2,Win32,12.00120012,5fdb8dbac85359924ce3220b,656018846682f3df8008bb8f,656019d00a2237becaca17f0,1,4,166,77,1,threefour,,,,,,,,,,,,,,,,,,,,,,,,,,,,,,,,,,,,,,,,,,,,,,,,,,,,,,,,,,,,,,,,,,,,,,,,,,,,,,,,,,,,,
5fdb8dbac85359924ce3220b,2023-11-24_03h37.13.021,kallum_motion_pilot,2023.1.2,Win32,12.00120012,5fdb8dbac85359924ce3220b,656018846682f3df8008bb8f,656019d00a2237becaca17f0,1,5,167,4,1,threeone,,,,,,,,,,,,,,,,,,,,,,,,,,,,,,,,,,,,,,,,,,,,,,,,,,,,,,,,,,,,,,,,,,,,,,,,,,,,,,,,,,,,,
5fdb8dbac85359924ce3220b,2023-11-24_03h37.13.021,kallum_motion_pilot,2023.1.2,Win32,12.00120012,5fdb8dbac85359924ce3220b,656018846682f3df8008bb8f,656019d00a2237becaca17f0,1,6,168,1,1,onethree,,,,,,,,,,,,,,,,,,,,,,,,,,,,,,,,,,,,,,,,,,,,,,,,,,,,,,,,,,,,,,,,,,,,,,,,,,,,,,,,,,,,,
5fdb8dbac85359924ce3220b,2023-11-24_03h37.13.021,kallum_motion_pilot,2023.1.2,Win32,12.00120012,5fdb8dbac85359924ce3220b,656018846682f3df8008bb8f,656019d00a2237becaca17f0,1,7,169,125,1,seveneight,,,,,,,,,,,,,,,,,,,,,,,,,,,,,,,,,,,,,,,,,,,,,,,,,,,,,,,,,,,,,,,,,,,,,,,,,,,,,,,,,,,,,
5fdb8dbac85359924ce3220b,2023-11-24_03h37.13.021,kallum_motion_pilot,2023.1.2,Win32,12.00120012,5fdb8dbac85359924ce3220b,656018846682f3df8008bb8f,656019d00a2237becaca17f0,1,8,170,3,1,twofour,,,,,,,,,,,,,,,,,,,,,,,,,,,,,,,,,,,,,,,,,,,,,,,,,,,,,,,,,,,,,,,,,,,,,,,,,,,,,,,,,,,,,
5fdb8dbac85359924ce3220b,2023-11-24_03h37.13.021,kallum_motion_pilot,2023.1.2,Win32,12.00120012,5fdb8dbac85359924ce3220b,656018846682f3df8008bb8f,656019d00a2237becaca17f0,1,9,171,17,1,onethree,,,,,,,,,,,,,,,,,,,,,,,,,,,,,,,,,,,,,,,,,,,,,,,,,,,,,,,,,,,,,,,,,,,,,,,,,,,,,,,,,,,,,
5fdb8dbac85359924ce3220b,2023-11-24_03h37.13.021,kallum_motion_pilot,2023.1.2,Win32,12.00120012,5fdb8dbac85359924ce3220b,656018846682f3df8008bb8f,656019d00a2237becaca17f0,1,10,172,23,1,fourthree,,,,,,,,,,,,,,,,,,,,,,,,,,,,,,,,,,,,,,,,,,,,,,,,,,,,,,,,,,,,,,,,,,,,,,,,,,,,,,,,,,,,,
5fdb8dbac85359924ce3220b,2023-11-24_03h37.13.021,kallum_motion_pilot,2023.1.2,Win32,12.00120012,5fdb8dbac85359924ce3220b,656018846682f3df8008bb8f,656019d00a2237becaca17f0,1,11,173,121,1,fiveseven,,,,,,,,,,,,,,,,,,,,,,,,,,,,,,,,,,,,,,,,,,,,,,,,,,,,,,,,,,,,,,,,,,,,,,,,,,,,,,,,,,,,,
5fdb8dbac85359924ce3220b,2023-11-24_03h37.13.021,kallum_motion_pilot,2023.1.2,Win32,12.00120012,5fdb8dbac85359924ce3220b,656018846682f3df8008bb8f,656019d00a2237becaca17f0,1,12,174,94,1,eightsix,,,,,,,,,,,,,,,,,,,,,,,,,,,,,,,,,,,,,,,,,,,,,,,,,,,,,,,,,,,,,,,,,,,,,,,,,,,,,,,,,,,,,
5fdb8dbac85359924ce3220b,2023-11-24_03h37.13.021,kallum_motion_pilot,2023.1.2,Win32,12.00120012,5fdb8dbac85359924ce3220b,656018846682f3df8008bb8f,656019d00a2237becaca17f0,1,13,175,59,1,twofour,,,,,,,,,,,,,,,,,,,,,,,,,,,,,,,,,,,,,,,,,,,,,,,,,,,,,,,,,,,,,,,,,,,,,,,,,,,,,,,,,,,,,
5fdb8dbac85359924ce3220b,2023-11-24_03h37.13.021,kallum_motion_pilot,2023.1.2,Win32,12.00120012,5fdb8dbac85359924ce3220b,656018846682f3df8008bb8f,656019d00a2237becaca17f0,1,14,176,54,1,fourtwo,,,,,,,,,,,,,,,,,,,,,,,,,,,,,,,,,,,,,,,,,,,,,,,,,,,,,,,,,,,,,,,,,,,,,,,,,,,,,,,,,,,,,
5fdb8dbac85359924ce3220b,2023-11-24_03h37.13.021,kallum_motion_pilot,2023.1.2,Win32,12.00120012,5fdb8dbac85359924ce3220b,656018846682f3df8008bb8f,656019d00a2237becaca17f0,1,15,177,41,1,onethree,,,,,,,,,,,,,,,,,,,,,,,,,,,,,,,,,,,,,,,,,,,,,,,,,,,,,,,,,,,,,,,,,,,,,,,,,,,,,,,,,,,,,
5fdb8dbac85359924ce3220b,2023-11-24_03h37.13.021,kallum_motion_pilot,2023.1.2,Win32,12.00120012,5fdb8dbac85359924ce3220b,656018846682f3df8008bb8f,656019d00a2237becaca17f0,1,16,178,140,1,sevenfive,,,,,,,,,,,,,,,,,,,,,,,,,,,,,,,,,,,,,,,,,,,,,,,,,,,,,,,,,,,,,,,,,,,,,,,,,,,,,,,,,,,,,
5fdb8dbac85359924ce3220b,2023-11-24_03h37.13.021,kallum_motion_pilot,2023.1.2,Win32,12.00120012,5fdb8dbac85359924ce3220b,656018846682f3df8008bb8f,656019d00a2237becaca17f0,1,17,179,141,1,seveneight,,,,,,,,,,,,,,,,,,,,,,,,,,,,,,,,,,,,,,,,,,,,,,,,,,,,,,,,,,,,,,,,,,,,,,,,,,,,,,,,,,,,,
5fdb8dbac85359924ce3220b,2023-11-24_03h37.13.021,kallum_motion_pilot,2023.1.2,Win32,12.00120012,5fdb8dbac85359924ce3220b,656018846682f3df8008bb8f,656019d00a2237becaca17f0,1,18,180,76,1,threeone,,,,,,,,,,,,,,,,,,,,,,,,,,,,,,,,,,,,,,,,,,,,,,,,,,,,,,,,,,,,,,,,,,,,,,,,,,,,,,,,,,,,,
5fdb8dbac85359924ce3220b,2023-11-24_03h37.13.021,kallum_motion_pilot,2023.1.2,Win32,12.00120012,5fdb8dbac85359924ce3220b,656018846682f3df8008bb8f,656019d00a2237becaca17f0,1,19,181,97,1,fiveseven,,,,,,,,,,,,,,,,,,,,,,,,,,,,,,,,,,,,,,,,,,,,,,,,,,,,,,,,,,,,,,,,,,,,,,,,,,,,,,,,,,,,,
5fdb8dbac85359924ce3220b,2023-11-24_03h37.13.021,kallum_motion_pilot,2023.1.2,Win32,12.00120012,5fdb8dbac85359924ce3220b,656018846682f3df8008bb8f,656019d00a2237becaca17f0,1,20,182,151,1,eightseven,,,,,,,,,,,,,,,,,,,,,,,,,,,,,,,,,,,,,,,,,,,,,,,,,,,,,,,,,,,,,,,,,,,,,,,,,,,,,,,,,,,,,
5fdb8dbac85359924ce3220b,2023-11-24_03h37.13.021,kallum_motion_pilot,2023.1.2,Win32,12.00120012,5fdb8dbac85359924ce3220b,656018846682f3df8008bb8f,656019d00a2237becaca17f0,1,21,183,24,1,onetwo,,,,,,,,,,,,,,,,,,,,,,,,,,,,,,,,,,,,,,,,,,,,,,,,,,,,,,,,,,,,,,,,,,,,,,,,,,,,,,,,,,,,,
5fdb8dbac85359924ce3220b,2023-11-24_03h37.13.021,kallum_motion_pilot,2023.1.2,Win32,12.00120012,5fdb8dbac85359924ce3220b,656018846682f3df8008bb8f,656019d00a2237becaca17f0,1,22,184,83,1,sixeight,,,,,,,,,,,,,,,,,,,,,,,,,,,,,,,,,,,,,,,,,,,,,,,,,,,,,,,,,,,,,,,,,,,,,,,,,,,,,,,,,,,,,
5fdb8dbac85359924ce3220b,2023-11-24_03h37.13.021,kallum_motion_pilot,2023.1.2,Win32,12.00120012,5fdb8dbac85359924ce3220b,656018846682f3df8008bb8f,656019d00a2237becaca17f0,1,23,185,161,1,fiveseven,,,,,,,,,,,,,,,,,,,,,,,,,,,,,,,,,,,,,,,,,,,,,,,,,,,,,,,,,,,,,,,,,,,,,,,,,,,,,,,,,,,,,
5fdb8dbac85359924ce3220b,2023-11-24_03h37.13.021,kallum_motion_pilot,2023.1.2,Win32,12.00120012,5fdb8dbac85359924ce3220b,656018846682f3df8008bb8f,656019d00a2237becaca17f0,1,24,186,65,1,onethree,,,,,,,,,,,,,,,,,,,,,,,,,,,,,,,,,,,,,,,,,,,,,,,,,,,,,,,,,,,,,,,,,,,,,,,,,,,,,,,,,,,,,
5fdb8dbac85359924ce3220b,2023-11-24_03h37.13.021,kallum_motion_pilot,2023.1.2,Win32,12.00120012,5fdb8dbac85359924ce3220b,656018846682f3df8008bb8f,656019d00a2237becaca17f0,1,25,187,156,1,sevenfive,,,,,,,,,,,,,,,,,,,,,,,,,,,,,,,,,,,,,,,,,,,,,,,,,,,,,,,,,,,,,,,,,,,,,,,,,,,,,,,,,,,,,
5fdb8dbac85359924ce3220b,2023-11-24_03h37.13.021,kallum_motion_pilot,2023.1.2,Win32,12.00120012,5fdb8dbac85359924ce3220b,656018846682f3df8008bb8f,656019d00a2237becaca17f0,1,26,188,82,1,sixfive,,,,,,,,,,,,,,,,,,,,,,,,,,,,,,,,,,,,,,,,,,,,,,,,,,,,,,,,,,,,,,,,,,,,,,,,,,,,,,,,,,,,,
5fdb8dbac85359924ce3220b,2023-11-24_03h37.13.021,kallum_motion_pilot,2023.1.2,Win32,12.00120012,5fdb8dbac85359924ce3220b,656018846682f3df8008bb8f,656019d00a2237becaca17f0,1,27,189,105,1,fiveseven,,,,,,,,,,,,,,,,,,,,,,,,,,,,,,,,,,,,,,,,,,,,,,,,,,,,,,,,,,,,,,,,,,,,,,,,,,,,,,,,,,,,,
5fdb8dbac85359924ce3220b,2023-11-24_03h37.13.021,kallum_motion_pilot,2023.1.2,Win32,12.00120012,5fdb8dbac85359924ce3220b,656018846682f3df8008bb8f,656019d00a2237becaca17f0,1,28,190,53,1,threefour,,,,,,,,,,,,,,,,,,,,,,,,,,,,,,,,,,,,,,,,,,,,,,,,,,,,,,,,,,,,,,,,,,,,,,,,,,,,,,,,,,,,,
5fdb8dbac85359924ce3220b,2023-11-24_03h37.13.021,kallum_motion_pilot,2023.1.2,Win32,12.00120012,5fdb8dbac85359924ce3220b,656018846682f3df8008bb8f,656019d00a2237becaca17f0,1,29,191,62,1,fourtwo,,,,,,,,,,,,,,,,,,,,,,,,,,,,,,,,,,,,,,,,,,,,,,,,,,,,,,,,,,,,,,,,,,,,,,,,,,,,,,,,,,,,,
5fdb8dbac85359924ce3220b,2023-11-24_03h37.13.021,kallum_motion_pilot,2023.1.2,Win32,12.00120012,5fdb8dbac85359924ce3220b,656018846682f3df8008bb8f,656019d00a2237becaca17f0,1,30,192,87,1,eightseven,,,,,,,,,,,,,,,,,,,,,,,,,,,,,,,,,,,,,,,,,,,,,,,,,,,,,,,,,,,,,,,,,,,,,,,,,,,,,,,,,,,,,
5fdb8dbac85359924ce3220b,2023-11-24_03h37.13.021,kallum_motion_pilot,2023.1.2,Win32,12.00120012,5fdb8dbac85359924ce3220b,656018846682f3df8008bb8f,656019d00a2237becaca17f0,1,31,193,126,1,eightsix,,,,,,,,,,,,,,,,,,,,,,,,,,,,,,,,,,,,,,,,,,,,,,,,,,,,,,,,,,,,,,,,,,,,,,,,,,,,,,,,,,,,,
5fdb8dbac85359924ce3220b,2023-11-24_03h37.13.021,kallum_motion_pilot,2023.1.2,Win32,12.00120012,5fdb8dbac85359924ce3220b,656018846682f3df8008bb8f,656019d00a2237becaca17f0,1,32,194,110,1,eightsix,,,,,,,,,,,,,,,,,,,,,,,,,,,,,,,,,,,,,,,,,,,,,,,,,,,,,,,,,,,,,,,,,,,,,,,,,,,,,,,,,,,,,
5fdb8dbac85359924ce3220b,2023-11-24_03h37.13.021,kallum_motion_pilot,2023.1.2,Win32,12.00120012,5fdb8dbac85359924ce3220b,656018846682f3df8008bb8f,656019d00a2237becaca17f0,1,33,195,72,1,onetwo,,,,,,,,,,,,,,,,,,,,,,,,,,,,,,,,,,,,,,,,,,,,,,,,,,,,,,,,,,,,,,,,,,,,,,,,,,,,,,,,,,,,,
5fdb8dbac85359924ce3220b,2023-11-24_03h37.13.021,kallum_motion_pilot,2023.1.2,Win32,12.00120012,5fdb8dbac85359924ce3220b,656018846682f3df8008bb8f,656019d00a2237becaca17f0,1,34,196,84,1,sevenfive,,,,,,,,,,,,,,,,,,,,,,,,,,,,,,,,,,,,,,,,,,,,,,,,,,,,,,,,,,,,,,,,,,,,,,,,,,,,,,,,,,,,,
5fdb8dbac85359924ce3220b,2023-11-24_03h37.13.021,kallum_motion_pilot,2023.1.2,Win32,12.00120012,5fdb8dbac85359924ce3220b,656018846682f3df8008bb8f,656019d00a2237becaca17f0,1,35,197,10,1,twoone,,,,,,,,,,,,,,,,,,,,,,,,,,,,,,,,,,,,,,,,,,,,,,,,,,,,,,,,,,,,,,,,,,,,,,,,,,,,,,,,,,,,,
5fdb8dbac85359924ce3220b,2023-11-24_03h37.13.021,kallum_motion_pilot,2023.1.2,Win32,12.00120012,5fdb8dbac85359924ce3220b,656018846682f3df8008bb8f,656019d00a2237becaca17f0,1,36,198,50,1,twoone,,,,,,,,,,,,,,,,,,,,,,,,,,,,,,,,,,,,,,,,,,,,,,,,,,,,,,,,,,,,,,,,,,,,,,,,,,,,,,,,,,,,,
5fdb8dbac85359924ce3220b,2023-11-24_03h37.13.021,kallum_motion_pilot,2023.1.2,Win32,12.00120012,5fdb8dbac85359924ce3220b,656018846682f3df8008bb8f,656019d00a2237becaca17f0,1,37,199,28,1,threeone,,,,,,,,,,,,,,,,,,,,,,,,,,,,,,,,,,,,,,,,,,,,,,,,,,,,,,,,,,,,,,,,,,,,,,,,,,,,,,,,,,,,,
5fdb8dbac85359924ce3220b,2023-11-24_03h37.13.021,kallum_motion_pilot,2023.1.2,Win32,12.00120012,5fdb8dbac85359924ce3220b,656018846682f3df8008bb8f,656019d00a2237becaca17f0,1,38,200,154,1,sixfive,,,,,,,,,,,,,,,,,,,,,,,,,,,,,,,,,,,,,,,,,,,,,,,,,,,,,,,,,,,,,,,,,,,,,,,,,,,,,,,,,,,,,
5fdb8dbac85359924ce3220b,2023-11-24_03h37.13.021,kallum_motion_pilot,2023.1.2,Win32,12.00120012,5fdb8dbac85359924ce3220b,656018846682f3df8008bb8f,656019d00a2237becaca17f0,1,39,201,111,1,eightseven,,,,,,,,,,,,,,,,,,,,,,,,,,,,,,,,,,,,,,,,,,,,,,,,,,,,,,,,,,,,,,,,,,,,,,,,,,,,,,,,,,,,,
5fdb8dbac85359924ce3220b,2023-11-24_03h37.13.021,kallum_motion_pilot,2023.1.2,Win32,12.00120012,5fdb8dbac85359924ce3220b,656018846682f3df8008bb8f,656019d00a2237becaca17f0,1,40,202,117,1,seveneight,,,,,,,,,,,,,,,,,,,,,,,,,,,,,,,,,,,,,,,,,,,,,,,,,,,,,,,,,,,,,,,,,,,,,,,,,,,,,,,,,,,,,
5fdb8dbac85359924ce3220b,2023-11-24_03h37.13.021,kallum_motion_pilot,2023.1.2,Win32,12.00120012,5fdb8dbac85359924ce3220b,656018846682f3df8008bb8f,656019d00a2237becaca17f0,1,41,203,148,1,sevenfive,,,,,,,,,,,,,,,,,,,,,,,,,,,,,,,,,,,,,,,,,,,,,,,,,,,,,,,,,,,,,,,,,,,,,,,,,,,,,,,,,,,,,
5fdb8dbac85359924ce3220b,2023-11-24_03h37.13.021,kallum_motion_pilot,2023.1.2,Win32,12.00120012,5fdb8dbac85359924ce3220b,656018846682f3df8008bb8f,656019d00a2237becaca17f0,1,42,204,120,1,fivesix,,,,,,,,,,,,,,,,,,,,,,,,,,,,,,,,,,,,,,,,,,,,,,,,,,,,,,,,,,,,,,,,,,,,,,,,,,,,,,,,,,,,,
5fdb8dbac85359924ce3220b,2023-11-24_03h37.13.021,kallum_motion_pilot,2023.1.2,Win32,12.00120012,5fdb8dbac85359924ce3220b,656018846682f3df8008bb8f,656019d00a2237becaca17f0,1,43,205,12,1,threeone,,,,,,,,,,,,,,,,,,,,,,,,,,,,,,,,,,,,,,,,,,,,,,,,,,,,,,,,,,,,,,,,,,,,,,,,,,,,,,,,,,,,,
5fdb8dbac85359924ce3220b,2023-11-24_03h37.13.021,kallum_motion_pilot,2023.1.2,Win32,12.00120012,5fdb8dbac85359924ce3220b,656018846682f3df8008bb8f,656019d00a2237becaca17f0,1,44,206,20,1,threeone,,,,,,,,,,,,,,,,,,,,,,,,,,,,,,,,,,,,,,,,,,,,,,,,,,,,,,,,,,,,,,,,,,,,,,,,,,,,,,,,,,,,,
5fdb8dbac85359924ce3220b,2023-11-24_03h37.13.021,kallum_motion_pilot,2023.1.2,Win32,12.00120012,5fdb8dbac85359924ce3220b,656018846682f3df8008bb8f,656019d00a2237becaca17f0,1,45,207,43,1,twofour,,,,,,,,,,,,,,,,,,,,,,,,,,,,,,,,,,,,,,,,,,,,,,,,,,,,,,,,,,,,,,,,,,,,,,,,,,,,,,,,,,,,,
5fdb8dbac85359924ce3220b,2023-11-24_03h37.13.021,kallum_motion_pilot,2023.1.2,Win32,12.00120012,5fdb8dbac85359924ce3220b,656018846682f3df8008bb8f,656019d00a2237becaca17f0,1,46,208,75,1,twofour,,,,,,,,,,,,,,,,,,,,,,,,,,,,,,,,,,,,,,,,,,,,,,,,,,,,,,,,,,,,,,,,,,,,,,,,,,,,,,,,,,,,,
5fdb8dbac85359924ce3220b,2023-11-24_03h37.13.021,kallum_motion_pilot,2023.1.2,Win32,12.00120012,5fdb8dbac85359924ce3220b,656018846682f3df8008bb8f,656019d00a2237becaca17f0,1,47,209,9,1,onethree,,,,,,,,,,,,,,,,,,,,,,,,,,,,,,,,,,,,,,,,,,,,,,,,,,,,,,,,,,,,,,,,,,,,,,,,,,,,,,,,,,,,,
5fdb8dbac85359924ce3220b,2023-11-24_03h37.13.021,kallum_motion_pilot,2023.1.2,Win32,12.00120012,5fdb8dbac85359924ce3220b,656018846682f3df8008bb8f,656019d00a2237becaca17f0,1,48,210,89,1,fiveseven,,,,,,,,,,,,,,,,,,,,,,,,,,,,,,,,,,,,,,,,,,,,,,,,,,,,,,,,,,,,,,,,,,,,,,,,,,,,,,,,,,,,,
5fdb8dbac85359924ce3220b,2023-11-24_03h37.13.021,kallum_motion_pilot,2023.1.2,Win32,12.00120012,5fdb8dbac85359924ce3220b,656018846682f3df8008bb8f,656019d00a2237becaca17f0,1,49,211,44,1,threeone,,,,,,,,,,,,,,,,,,,,,,,,,,,,,,,,,,,,,,,,,,,,,,,,,,,,,,,,,,,,,,,,,,,,,,,,,,,,,,,,,,,,,
5fdb8dbac85359924ce3220b,2023-11-24_03h37.13.021,kallum_motion_pilot,2023.1.2,Win32,12.00120012,5fdb8dbac85359924ce3220b,656018846682f3df8008bb8f,656019d00a2237becaca17f0,1,50,212,31,1,fourthree,,,,,,,,,,,,,,,,,,,,,,,,,,,,,,,,,,,,,,,,,,,,,,,,,,,,,,,,,,,,,,,,,,,,,,,,,,,,,,,,,,,,,
5fdb8dbac85359924ce3220b,2023-11-24_03h37.13.021,kallum_motion_pilot,2023.1.2,Win32,12.00120012,5fdb8dbac85359924ce3220b,656018846682f3df8008bb8f,656019d00a2237becaca17f0,1,51,213,78,1,fourtwo,,,,,,,,,,,,,,,,,,,,,,,,,,,,,,,,,,,,,,,,,,,,,,,,,,,,,,,,,,,,,,,,,,,,,,,,,,,,,,,,,,,,,
5fdb8dbac85359924ce3220b,2023-11-24_03h37.13.021,kallum_motion_pilot,2023.1.2,Win32,12.00120012,5fdb8dbac85359924ce3220b,656018846682f3df8008bb8f,656019d00a2237becaca17f0,1,52,214,79,1,eightseven,,,,,,,,,,,,,,,,,,,,,,,,,,,,,,,,,,,,,,,,,,,,,,,,,,,,,,,,,,,,,,,,,,,,,,,,,,,,,,,,,,,,,
5fdb8dbac85359924ce3220b,2023-11-24_03h37.13.021,kallum_motion_pilot,2023.1.2,Win32,12.00120012,5fdb8dbac85359924ce3220b,656018846682f3df8008bb8f,656019d00a2237becaca17f0,1,53,215,129,1,fiveseven,,,,,,,,,,,,,,,,,,,,,,,,,,,,,,,,,,,,,,,,,,,,,,,,,,,,,,,,,,,,,,,,,,,,,,,,,,,,,,,,,,,,,
5fdb8dbac85359924ce3220b,2023-11-24_03h37.13.021,kallum_motion_pilot,2023.1.2,Win32,12.00120012,5fdb8dbac85359924ce3220b,656018846682f3df8008bb8f,656019d00a2237becaca17f0,1,54,216,157,1,seveneight,,,,,,,,,,,,,,,,,,,,,,,,,,,,,,,,,,,,,,,,,,,,,,,,,,,,,,,,,,,,,,,,,,,,,,,,,,,,,,,,,,,,,
5fdb8dbac85359924ce3220b,2023-11-24_03h37.13.021,kallum_motion_pilot,2023.1.2,Win32,12.00120012,5fdb8dbac85359924ce3220b,656018846682f3df8008bb8f,656019d00a2237becaca17f0,1,55,217,61,1,threefour,,,,,,,,,,,,,,,,,,,,,,,,,,,,,,,,,,,,,,,,,,,,,,,,,,,,,,,,,,,,,,,,,,,,,,,,,,,,,,,,,,,,,
5fdb8dbac85359924ce3220b,2023-11-24_03h37.13.021,kallum_motion_pilot,2023.1.2,Win32,12.00120012,5fdb8dbac85359924ce3220b,656018846682f3df8008bb8f,656019d00a2237becaca17f0,1,56,218,5,1,threefour,,,,,,,,,,,,,,,,,,,,,,,,,,,,,,,,,,,,,,,,,,,,,,,,,,,,,,,,,,,,,,,,,,,,,,,,,,,,,,,,,,,,,
5fdb8dbac85359924ce3220b,2023-11-24_03h37.13.021,kallum_motion_pilot,2023.1.2,Win32,12.00120012,5fdb8dbac85359924ce3220b,656018846682f3df8008bb8f,656019d00a2237becaca17f0,1,57,219,42,1,twoone,,,,,,,,,,,,,,,,,,,,,,,,,,,,,,,,,,,,,,,,,,,,,,,,,,,,,,,,,,,,,,,,,,,,,,,,,,,,,,,,,,,,,
5fdb8dbac85359924ce3220b,2023-11-24_03h37.13.021,kallum_motion_pilot,2023.1.2,Win32,12.00120012,5fdb8dbac85359924ce3220b,656018846682f3df8008bb8f,656019d00a2237becaca17f0,1,58,220,113,1,fiveseven,,,,,,,,,,,,,,,,,,,,,,,,,,,,,,,,,,,,,,,,,,,,,,,,,,,,,,,,,,,,,,,,,,,,,,,,,,,,,,,,,,,,,
5fdb8dbac85359924ce3220b,2023-11-24_03h37.13.021,kallum_motion_pilot,2023.1.2,Win32,12.00120012,5fdb8dbac85359924ce3220b,656018846682f3df8008bb8f,656019d00a2237becaca17f0,1,59,221,108,1,sevenfive,,,,,,,,,,,,,,,,,,,,,,,,,,,,,,,,,,,,,,,,,,,,,,,,,,,,,,,,,,,,,,,,,,,,,,,,,,,,,,,,,,,,,
5fdb8dbac85359924ce3220b,2023-11-24_03h37.13.021,kallum_motion_pilot,2023.1.2,Win32,12.00120012,5fdb8dbac85359924ce3220b,656018846682f3df8008bb8f,656019d00a2237becaca17f0,1,60,222,19,1,twofour,,,,,,,,,,,,,,,,,,,,,,,,,,,,,,,,,,,,,,,,,,,,,,,,,,,,,,,,,,,,,,,,,,,,,,,,,,,,,,,,,,,,,
5fdb8dbac85359924ce3220b,2023-11-24_03h37.13.021,kallum_motion_pilot,2023.1.2,Win32,12.00120012,5fdb8dbac85359924ce3220b,656018846682f3df8008bb8f,656019d00a2237becaca17f0,1,61,223,66,1,twoone,,,,,,,,,,,,,,,,,,,,,,,,,,,,,,,,,,,,,,,,,,,,,,,,,,,,,,,,,,,,,,,,,,,,,,,,,,,,,,,,,,,,,
5fdb8dbac85359924ce3220b,2023-11-24_03h37.13.021,kallum_motion_pilot,2023.1.2,Win32,12.00120012,5fdb8dbac85359924ce3220b,656018846682f3df8008bb8f,656019d00a2237becaca17f0,1,62,224,81,1,fiveseven,,,,,,,,,,,,,,,,,,,,,,,,,,,,,,,,,,,,,,,,,,,,,,,,,,,,,,,,,,,,,,,,,,,,,,,,,,,,,,,,,,,,,
5fdb8dbac85359924ce3220b,2023-11-24_03h37.13.021,kallum_motion_pilot,2023.1.2,Win32,12.00120012,5fdb8dbac85359924ce3220b,656018846682f3df8008bb8f,656019d00a2237becaca17f0,1,63,225,133,1,seveneight,,,,,,,,,,,,,,,,,,,,,,,,,,,,,,,,,,,,,,,,,,,,,,,,,,,,,,,,,,,,,,,,,,,,,,,,,,,,,,,,,,,,,
5fdb8dbac85359924ce3220b,2023-11-24_03h37.13.021,kallum_motion_pilot,2023.1.2,Win32,12.00120012,5fdb8dbac85359924ce3220b,656018846682f3df8008bb8f,656019d00a2237becaca17f0,1,64,226,153,1,fiveseven,,,,,,,,,,,,,,,,,,,,,,,,,,,,,,,,,,,,,,,,,,,,,,,,,,,,,,,,,,,,,,,,,,,,,,,,,,,,,,,,,,,,,
5fdb8dbac85359924ce3220b,2023-11-24_03h37.13.021,kallum_motion_pilot,2023.1.2,Win32,12.00120012,5fdb8dbac85359924ce3220b,656018846682f3df8008bb8f,656019d00a2237becaca17f0,1,65,227,132,1,sevenfive,,,,,,,,,,,,,,,,,,,,,,,,,,,,,,,,,,,,,,,,,,,,,,,,,,,,,,,,,,,,,,,,,,,,,,,,,,,,,,,,,,,,,
5fdb8dbac85359924ce3220b,2023-11-24_03h37.13.021,kallum_motion_pilot,2023.1.2,Win32,12.00120012,5fdb8dbac85359924ce3220b,656018846682f3df8008bb8f,656019d00a2237becaca17f0,1,66,228,35,1,twofour,,,,,,,,,,,,,,,,,,,,,,,,,,,,,,,,,,,,,,,,,,,,,,,,,,,,,,,,,,,,,,,,,,,,,,,,,,,,,,,,,,,,,
5fdb8dbac85359924ce3220b,2023-11-24_03h37.13.021,kallum_motion_pilot,2023.1.2,Win32,12.00120012,5fdb8dbac85359924ce3220b,656018846682f3df8008bb8f,656019d00a2237becaca17f0,1,67,229,131,1,sixeight,,,,,,,,,,,,,,,,,,,,,,,,,,,,,,,,,,,,,,,,,,,,,,,,,,,,,,,,,,,,,,,,,,,,,,,,,,,,,,,,,,,,,
5fdb8dbac85359924ce3220b,2023-11-24_03h37.13.021,kallum_motion_pilot,2023.1.2,Win32,12.00120012,5fdb8dbac85359924ce3220b,656018846682f3df8008bb8f,656019d00a2237becaca17f0,1,68,230,91,1,sixeight,,,,,,,,,,,,,,,,,,,,,,,,,,,,,,,,,,,,,,,,,,,,,,,,,,,,,,,,,,,,,,,,,,,,,,,,,,,,,,,,,,,,,
5fdb8dbac85359924ce3220b,2023-11-24_03h37.13.021,kallum_motion_pilot,2023.1.2,Win32,12.00120012,5fdb8dbac85359924ce3220b,656018846682f3df8008bb8f,656019d00a2237becaca17f0,1,69,231,27,1,twofour,,,,,,,,,,,,,,,,,,,,,,,,,,,,,,,,,,,,,,,,,,,,,,,,,,,,,,,,,,,,,,,,,,,,,,,,,,,,,,,,,,,,,
5fdb8dbac85359924ce3220b,2023-11-24_03h37.13.021,kallum_motion_pilot,2023.1.2,Win32,12.00120012,5fdb8dbac85359924ce3220b,656018846682f3df8008bb8f,656019d00a2237becaca17f0,1,70,232,149,1,seveneight,,,,,,,,,,,,,,,,,,,,,,,,,,,,,,,,,,,,,,,,,,,,,,,,,,,,,,,,,,,,,,,,,,,,,,,,,,,,,,,,,,,,,
5fdb8dbac85359924ce3220b,2023-11-24_03h37.13.021,kallum_motion_pilot,2023.1.2,Win32,12.00120012,5fdb8dbac85359924ce3220b,656018846682f3df8008bb8f,656019d00a2237becaca17f0,1,71,233,158,1,eightsix,,,,,,,,,,,,,,,,,,,,,,,,,,,,,,,,,,,,,,,,,,,,,,,,,,,,,,,,,,,,,,,,,,,,,,,,,,,,,,,,,,,,,
5fdb8dbac85359924ce3220b,2023-11-24_03h37.13.021,kallum_motion_pilot,2023.1.2,Win32,12.00120012,5fdb8dbac85359924ce3220b,656018846682f3df8008bb8f,656019d00a2237becaca17f0,1,72,234,22,1,fourtwo,,,,,,,,,,,,,,,,,,,,,,,,,,,,,,,,,,,,,,,,,,,,,,,,,,,,,,,,,,,,,,,,,,,,,,,,,,,,,,,,,,,,,
5fdb8dbac85359924ce3220b,2023-11-24_03h37.13.021,kallum_motion_pilot,2023.1.2,Win32,12.00120012,5fdb8dbac85359924ce3220b,656018846682f3df8008bb8f,656019d00a2237becaca17f0,1,73,235,123,1,sixeight,,,,,,,,,,,,,,,,,,,,,,,,,,,,,,,,,,,,,,,,,,,,,,,,,,,,,,,,,,,,,,,,,,,,,,,,,,,,,,,,,,,,,
5fdb8dbac85359924ce3220b,2023-11-24_03h37.13.021,kallum_motion_pilot,2023.1.2,Win32,12.00120012,5fdb8dbac85359924ce3220b,656018846682f3df8008bb8f,656019d00a2237becaca17f0,1,74,236,127,1,eightseven,,,,,,,,,,,,,,,,,,,,,,,,,,,,,,,,,,,,,,,,,,,,,,,,,,,,,,,,,,,,,,,,,,,,,,,,,,,,,,,,,,,,,
5fdb8dbac85359924ce3220b,2023-11-24_03h37.13.021,kallum_motion_pilot,2023.1.2,Win32,12.00120012,5fdb8dbac85359924ce3220b,656018846682f3df8008bb8f,656019d00a2237becaca17f0,1,75,237,18,1,twoone,,,,,,,,,,,,,,,,,,,,,,,,,,,,,,,,,,,,,,,,,,,,,,,,,,,,,,,,,,,,,,,,,,,,,,,,,,,,,,,,,,,,,
5fdb8dbac85359924ce3220b,2023-11-24_03h37.13.021,kallum_motion_pilot,2023.1.2,Win32,12.00120012,5fdb8dbac85359924ce3220b,656018846682f3df8008bb8f,656019d00a2237becaca17f0,1,76,238,109,1,seveneight,,,,,,,,,,,,,,,,,,,,,,,,,,,,,,,,,,,,,,,,,,,,,,,,,,,,,,,,,,,,,,,,,,,,,,,,,,,,,,,,,,,,,
5fdb8dbac85359924ce3220b,2023-11-24_03h37.13.021,kallum_motion_pilot,2023.1.2,Win32,12.00120012,5fdb8dbac85359924ce3220b,656018846682f3df8008bb8f,656019d00a2237becaca17f0,1,77,239,128,1,fivesix,,,,,,,,,,,,,,,,,,,,,,,,,,,,,,,,,,,,,,,,,,,,,,,,,,,,,,,,,,,,,,,,,,,,,,,,,,,,,,,,,,,,,
5fdb8dbac85359924ce3220b,2023-11-24_03h37.13.021,kallum_motion_pilot,2023.1.2,Win32,12.00120012,5fdb8dbac85359924ce3220b,656018846682f3df8008bb8f,656019d00a2237becaca17f0,1,78,240,118,1,eightsix,,,,,,,,,,,,,,,,,,,,,,,,,,,,,,,,,,,,,,,,,,,,,,,,,,,,,,,,,,,,,,,,,,,,,,,,,,,,,,,,,,,,,
5fdb8dbac85359924ce3220b,2023-11-24_03h37.13.021,kallum_motion_pilot,2023.1.2,Win32,12.00120012,5fdb8dbac85359924ce3220b,656018846682f3df8008bb8f,656019d00a2237becaca17f0,1,79,241,49,1,onethree,,,,,,,,,,,,,,,,,,,,,,,,,,,,,,,,,,,,,,,,,,,,,,,,,,,,,,,,,,,,,,,,,,,,,,,,,,,,,,,,,,,,,
5fdb8dbac85359924ce3220b,2023-11-24_03h37.13.021,kallum_motion_pilot,2023.1.2,Win32,12.00120012,5fdb8dbac85359924ce3220b,656018846682f3df8008bb8f,656019d00a2237becaca17f0,1,80,242,144,1,fivesix,,,,,,,,,,,,,,,,,,,,,,,,,,,,,,,,,,,,,,,,,,,,,,,,,,,,,,,,,,,,,,,,,,,,,,,,,,,,,,,,,,,,,
5fdb8dbac85359924ce3220b,2023-11-24_03h37.13.021,kallum_motion_pilot,2023.1.2,Win32,12.00120012,5fdb8dbac85359924ce3220b,656018846682f3df8008bb8f,656019d00a2237becaca17f0,1,81,243,93,1,seveneight,,,,,,,,,,,,,,,,,,,,,,,,,,,,,,,,,,,,,,,,,,,,,,,,,,,,,,,,,,,,,,,,,,,,,,,,,,,,,,,,,,,,,
5fdb8dbac85359924ce3220b,2023-11-24_03h37.13.021,kallum_motion_pilot,2023.1.2,Win32,12.00120012,5fdb8dbac85359924ce3220b,656018846682f3df8008bb8f,656019d00a2237becaca17f0,1,82,244,48,1,onetwo,,,,,,,,,,,,,,,,,,,,,,,,,,,,,,,,,,,,,,,,,,,,,,,,,,,,,,,,,,,,,,,,,,,,,,,,,,,,,,,,,,,,,
5fdb8dbac85359924ce3220b,2023-11-24_03h37.13.021,kallum_motion_pilot,2023.1.2,Win32,12.00120012,5fdb8dbac85359924ce3220b,656018846682f3df8008bb8f,656019d00a2237becaca17f0,1,83,245,143,1,eightseven,,,,,,,,,,,,,,,,,,,,,,,,,,,,,,,,,,,,,,,,,,,,,,,,,,,,,,,,,,,,,,,,,,,,,,,,,,,,,,,,,,,,,
5fdb8dbac85359924ce3220b,2023-11-24_03h37.13.021,kallum_motion_pilot,2023.1.2,Win32,12.00120012,5fdb8dbac85359924ce3220b,656018846682f3df8008bb8f,656019d00a2237becaca17f0,1,84,246,73,1,onethree,,,,,,,,,,,,,,,,,,,,,,,,,,,,,,,,,,,,,,,,,,,,,,,,,,,,,,,,,,,,,,,,,,,,,,,,,,,,,,,,,,,,,
5fdb8dbac85359924ce3220b,2023-11-24_03h37.13.021,kallum_motion_pilot,2023.1.2,Win32,12.00120012,5fdb8dbac85359924ce3220b,656018846682f3df8008bb8f,656019d00a2237becaca17f0,1,85,247,115,1,sixeight,,,,,,,,,,,,,,,,,,,,,,,,,,,,,,,,,,,,,,,,,,,,,,,,,,,,,,,,,,,,,,,,,,,,,,,,,,,,,,,,,,,,,
5fdb8dbac85359924ce3220b,2023-11-24_03h37.13.021,kallum_motion_pilot,2023.1.2,Win32,12.00120012,5fdb8dbac85359924ce3220b,656018846682f3df8008bb8f,656019d00a2237becaca17f0,1,86,248,101,1,seveneight,,,,,,,,,,,,,,,,,,,,,,,,,,,,,,,,,,,,,,,,,,,,,,,,,,,,,,,,,,,,,,,,,,,,,,,,,,,,,,,,,,,,,
5fdb8dbac85359924ce3220b,2023-11-24_03h37.13.021,kallum_motion_pilot,2023.1.2,Win32,12.00120012,5fdb8dbac85359924ce3220b,656018846682f3df8008bb8f,656019d00a2237becaca17f0,1,87,249,135,1,eightseven,,,,,,,,,,,,,,,,,,,,,,,,,,,,,,,,,,,,,,,,,,,,,,,,,,,,,,,,,,,,,,,,,,,,,,,,,,,,,,,,,,,,,
5fdb8dbac85359924ce3220b,2023-11-24_03h37.13.021,kallum_motion_pilot,2023.1.2,Win32,12.00120012,5fdb8dbac85359924ce3220b,656018846682f3df8008bb8f,656019d00a2237becaca17f0,1,88,250,58,1,twoone,,,,,,,,,,,,,,,,,,,,,,,,,,,,,,,,,,,,,,,,,,,,,,,,,,,,,,,,,,,,,,,,,,,,,,,,,,,,,,,,,,,,,
5fdb8dbac85359924ce3220b,2023-11-24_03h37.13.021,kallum_motion_pilot,2023.1.2,Win32,12.00120012,5fdb8dbac85359924ce3220b,656018846682f3df8008bb8f,656019d00a2237becaca17f0,1,89,251,64,1,onetwo,,,,,,,,,,,,,,,,,,,,,,,,,,,,,,,,,,,,,,,,,,,,,,,,,,,,,,,,,,,,,,,,,,,,,,,,,,,,,,,,,,,,,
5fdb8dbac85359924ce3220b,2023-11-24_03h37.13.021,kallum_motion_pilot,2023.1.2,Win32,12.00120012,5fdb8dbac85359924ce3220b,656018846682f3df8008bb8f,656019d00a2237becaca17f0,1,90,252,139,1,sixeight,,,,,,,,,,,,,,,,,,,,,,,,,,,,,,,,,,,,,,,,,,,,,,,,,,,,,,,,,,,,,,,,,,,,,,,,,,,,,,,,,,,,,
5fdb8dbac85359924ce3220b,2023-11-24_03h37.13.021,kallum_motion_pilot,2023.1.2,Win32,12.00120012,5fdb8dbac85359924ce3220b,656018846682f3df8008bb8f,656019d00a2237becaca17f0,1,91,253,51,1,twofour,,,,,,,,,,,,,,,,,,,,,,,,,,,,,,,,,,,,,,,,,,,,,,,,,,,,,,,,,,,,,,,,,,,,,,,,,,,,,,,,,,,,,
5fdb8dbac85359924ce3220b,2023-11-24_03h37.13.021,kallum_motion_pilot,2023.1.2,Win32,12.00120012,5fdb8dbac85359924ce3220b,656018846682f3df8008bb8f,656019d00a2237becaca17f0,1,92,254,36,1,threeone,,,,,,,,,,,,,,,,,,,,,,,,,,,,,,,,,,,,,,,,,,,,,,,,,,,,,,,,,,,,,,,,,,,,,,,,,,,,,,,,,,,,,
5fdb8dbac85359924ce3220b,2023-11-24_03h37.13.021,kallum_motion_pilot,2023.1.2,Win32,12.00120012,5fdb8dbac85359924ce3220b,656018846682f3df8008bb8f,656019d00a2237becaca17f0,1,93,255,134,1,eightsix,,,,,,,,,,,,,,,,,,,,,,,,,,,,,,,,,,,,,,,,,,,,,,,,,,,,,,,,,,,,,,,,,,,,,,,,,,,,,,,,,,,,,
5fdb8dbac85359924ce3220b,2023-11-24_03h37.13.021,kallum_motion_pilot,2023.1.2,Win32,12.00120012,5fdb8dbac85359924ce3220b,656018846682f3df8008bb8f,656019d00a2237becaca17f0,1,94,256,145,1,fiveseven,,,,,,,,,,,,,,,,,,,,,,,,,,,,,,,,,,,,,,,,,,,,,,,,,,,,,,,,,,,,,,,,,,,,,,,,,,,,,,,,,,,,,
5fdb8dbac85359924ce3220b,2023-11-24_03h37.13.021,kallum_motion_pilot,2023.1.2,Win32,12.00120012,5fdb8dbac85359924ce3220b,656018846682f3df8008bb8f,656019d00a2237becaca17f0,1,95,257,52,1,threeone,,,,,,,,,,,,,,,,,,,,,,,,,,,,,,,,,,,,,,,,,,,,,,,,,,,,,,,,,,,,,,,,,,,,,,,,,,,,,,,,,,,,,
5fdb8dbac85359924ce3220b,2023-11-24_03h37.13.021,kallum_motion_pilot,2023.1.2,Win32,12.00120012,5fdb8dbac85359924ce3220b,656018846682f3df8008bb8f,656019d00a2237becaca17f0,1,96,258,32,1,onetwo,,,,,,,,,,,,,,,,,,,,,,,,,,,,,,,,,,,,,,,,,,,,,,,,,,,,,,,,,,,,,,,,,,,,,,,,,,,,,,,,,,,,,
5fdb8dbac85359924ce3220b,2023-11-24_03h37.13.021,kallum_motion_pilot,2023.1.2,Win32,12.00120012,5fdb8dbac85359924ce3220b,656018846682f3df8008bb8f,656019d00a2237becaca17f0,1,97,259,68,1,threeone,,,,,,,,,,,,,,,,,,,,,,,,,,,,,,,,,,,,,,,,,,,,,,,,,,,,,,,,,,,,,,,,,,,,,,,,,,,,,,,,,,,,,
5fdb8dbac85359924ce3220b,2023-11-24_03h37.13.021,kallum_motion_pilot,2023.1.2,Win32,12.00120012,5fdb8dbac85359924ce3220b,656018846682f3df8008bb8f,656019d00a2237becaca17f0,1,98,260,92,1,sevenfive,,,,,,,,,,,,,,,,,,,,,,,,,,,,,,,,,,,,,,,,,,,,,,,,,,,,,,,,,,,,,,,,,,,,,,,,,,,,,,,,,,,,,
5fdb8dbac85359924ce3220b,2023-11-24_03h37.13.021,kallum_motion_pilot,2023.1.2,Win32,12.00120012,5fdb8dbac85359924ce3220b,656018846682f3df8008bb8f,656019d00a2237becaca17f0,1,99,261,106,1,sixfive,,,,,,,,,,,,,,,,,,,,,,,,,,,,,,,,,,,,,,,,,,,,,,,,,,,,,,,,,,,,,,,,,,,,,,,,,,,,,,,,,,,,,
5fdb8dbac85359924ce3220b,2023-11-24_03h37.13.021,kallum_motion_pilot,2023.1.2,Win32,12.00120012,5fdb8dbac85359924ce3220b,656018846682f3df8008bb8f,656019d00a2237becaca17f0,1,100,262,142,1,eightsix,,,,,,,,,,,,,,,,,,,,,,,,,,,,,,,,,,,,,,,,,,,,,,,,,,,,,,,,,,,,,,,,,,,,,,,,,,,,,,,,,,,,,
5fdb8dbac85359924ce3220b,2023-11-24_03h37.13.021,kallum_motion_pilot,2023.1.2,Win32,12.00120012,5fdb8dbac85359924ce3220b,656018846682f3df8008bb8f,656019d00a2237becaca17f0,1,101,263,40,1,onetwo,,,,,,,,,,,,,,,,,,,,,,,,,,,,,,,,,,,,,,,,,,,,,,,,,,,,,,,,,,,,,,,,,,,,,,,,,,,,,,,,,,,,,
5fdb8dbac85359924ce3220b,2023-11-24_03h37.13.021,kallum_motion_pilot,2023.1.2,Win32,12.00120012,5fdb8dbac85359924ce3220b,656018846682f3df8008bb8f,656019d00a2237becaca17f0,1,102,264,130,1,sixfive,,,,,,,,,,,,,,,,,,,,,,,,,,,,,,,,,,,,,,,,,,,,,,,,,,,,,,,,,,,,,,,,,,,,,,,,,,,,,,,,,,,,,
5fdb8dbac85359924ce3220b,2023-11-24_03h37.13.021,kallum_motion_pilot,2023.1.2,Win32,12.00120012,5fdb8dbac85359924ce3220b,656018846682f3df8008bb8f,656019d00a2237becaca17f0,1,103,265,60,1,threeone,,,,,,,,,,,,,,,,,,,,,,,,,,,,,,,,,,,,,,,,,,,,,,,,,,,,,,,,,,,,,,,,,,,,,,,,,,,,,,,,,,,,,
5fdb8dbac85359924ce3220b,2023-11-24_03h37.13.021,kallum_motion_pilot,2023.1.2,Win32,12.00120012,5fdb8dbac85359924ce3220b,656018846682f3df8008bb8f,656019d00a2237becaca17f0,1,104,266,85,1,seveneight,,,,,,,,,,,,,,,,,,,,,,,,,,,,,,,,,,,,,,,,,,,,,,,,,,,,,,,,,,,,,,,,,,,,,,,,,,,,,,,,,,,,,
5fdb8dbac85359924ce3220b,2023-11-24_03h37.13.021,kallum_motion_pilot,2023.1.2,Win32,12.00120012,5fdb8dbac85359924ce3220b,656018846682f3df8008bb8f,656019d00a2237becaca17f0,1,105,267,96,1,fivesix,,,,,,,,,,,,,,,,,,,,,,,,,,,,,,,,,,,,,,,,,,,,,,,,,,,,,,,,,,,,,,,,,,,,,,,,,,,,,,,,,,,,,
5fdb8dbac85359924ce3220b,2023-11-24_03h37.13.021,kallum_motion_pilot,2023.1.2,Win32,12.00120012,5fdb8dbac85359924ce3220b,656018846682f3df8008bb8f,656019d00a2237becaca17f0,1,106,268,80,1,fivesix,,,,,,,,,,,,,,,,,,,,,,,,,,,,,,,,,,,,,,,,,,,,,,,,,,,,,,,,,,,,,,,,,,,,,,,,,,,,,,,,,,,,,
5fdb8dbac85359924ce3220b,2023-11-24_03h37.13.021,kallum_motion_pilot,2023.1.2,Win32,12.00120012,5fdb8dbac85359924ce3220b,656018846682f3df8008bb8f,656019d00a2237becaca17f0,1,107,269,26,1,twoone,,,,,,,,,,,,,,,,,,,,,,,,,,,,,,,,,,,,,,,,,,,,,,,,,,,,,,,,,,,,,,,,,,,,,,,,,,,,,,,,,,,,,
5fdb8dbac85359924ce3220b,2023-11-24_03h37.13.021,kallum_motion_pilot,2023.1.2,Win32,12.00120012,5fdb8dbac85359924ce3220b,656018846682f3df8008bb8f,656019d00a2237becaca17f0,1,108,270,88,1,fivesix,,,,,,,,,,,,,,,,,,,,,,,,,,,,,,,,,,,,,,,,,,,,,,,,,,,,,,,,,,,,,,,,,,,,,,,,,,,,,,,,,,,,,
5fdb8dbac85359924ce3220b,2023-11-24_03h37.13.021,kallum_motion_pilot,2023.1.2,Win32,12.00120012,5fdb8dbac85359924ce3220b,656018846682f3df8008bb8f,656019d00a2237becaca17f0,1,109,271,99,1,sixeight,,,,,,,,,,,,,,,,,,,,,,,,,,,,,,,,,,,,,,,,,,,,,,,,,,,,,,,,,,,,,,,,,,,,,,,,,,,,,,,,,,,,,
5fdb8dbac85359924ce3220b,2023-11-24_03h37.13.021,kallum_motion_pilot,2023.1.2,Win32,12.00120012,5fdb8dbac85359924ce3220b,656018846682f3df8008bb8f,656019d00a2237becaca17f0,1,110,272,137,1,fiveseven,,,,,,,,,,,,,,,,,,,,,,,,,,,,,,,,,,,,,,,,,,,,,,,,,,,,,,,,,,,,,,,,,,,,,,,,,,,,,,,,,,,,,
5fdb8dbac85359924ce3220b,2023-11-24_03h37.13.021,kallum_motion_pilot,2023.1.2,Win32,12.00120012,5fdb8dbac85359924ce3220b,656018846682f3df8008bb8f,656019d00a2237becaca17f0,1,111,273,95,1,eightseven,,,,,,,,,,,,,,,,,,,,,,,,,,,,,,,,,,,,,,,,,,,,,,,,,,,,,,,,,,,,,,,,,,,,,,,,,,,,,,,,,,,,,
5fdb8dbac85359924ce3220b,2023-11-24_03h37.13.021,kallum_motion_pilot,2023.1.2,Win32,12.00120012,5fdb8dbac85359924ce3220b,656018846682f3df8008bb8f,656019d00a2237becaca17f0,1,112,274,29,1,threefour,,,,,,,,,,,,,,,,,,,,,,,,,,,,,,,,,,,,,,,,,,,,,,,,,,,,,,,,,,,,,,,,,,,,,,,,,,,,,,,,,,,,,
5fdb8dbac85359924ce3220b,2023-11-24_03h37.13.021,kallum_motion_pilot,2023.1.2,Win32,12.00120012,5fdb8dbac85359924ce3220b,656018846682f3df8008bb8f,656019d00a2237becaca17f0,1,113,275,159,1,eightseven,,,,,,,,,,,,,,,,,,,,,,,,,,,,,,,,,,,,,,,,,,,,,,,,,,,,,,,,,,,,,,,,,,,,,,,,,,,,,,,,,,,,,
5fdb8dbac85359924ce3220b,2023-11-24_03h37.13.021,kallum_motion_pilot,2023.1.2,Win32,12.00120012,5fdb8dbac85359924ce3220b,656018846682f3df8008bb8f,656019d00a2237becaca17f0,1,114,276,70,1,fourtwo,,,,,,,,,,,,,,,,,,,,,,,,,,,,,,,,,,,,,,,,,,,,,,,,,,,,,,,,,,,,,,,,,,,,,,,,,,,,,,,,,,,,,
5fdb8dbac85359924ce3220b,2023-11-24_03h37.13.021,kallum_motion_pilot,2023.1.2,Win32,12.00120012,5fdb8dbac85359924ce3220b,656018846682f3df8008bb8f,656019d00a2237becaca17f0,1,115,277,14,1,fourtwo,,,,,,,,,,,,,,,,,,,,,,,,,,,,,,,,,,,,,,,,,,,,,,,,,,,,,,,,,,,,,,,,,,,,,,,,,,,,,,,,,,,,,
5fdb8dbac85359924ce3220b,2023-11-24_03h37.13.021,kallum_motion_pilot,2023.1.2,Win32,12.00120012,5fdb8dbac85359924ce3220b,656018846682f3df8008bb8f,656019d00a2237becaca17f0,1,116,278,8,1,onetwo,,,,,,,,,,,,,,,,,,,,,,,,,,,,,,,,,,,,,,,,,,,,,,,,,,,,,,,,,,,,,,,,,,,,,,,,,,,,,,,,,,,,,
5fdb8dbac85359924ce3220b,2023-11-24_03h37.13.021,kallum_motion_pilot,2023.1.2,Win32,12.00120012,5fdb8dbac85359924ce3220b,656018846682f3df8008bb8f,656019d00a2237becaca17f0,1,117,279,102,1,eightsix,,,,,,,,,,,,,,,,,,,,,,,,,,,,,,,,,,,,,,,,,,,,,,,,,,,,,,,,,,,,,,,,,,,,,,,,,,,,,,,,,,,,,
5fdb8dbac85359924ce3220b,2023-11-24_03h37.13.021,kallum_motion_pilot,2023.1.2,Win32,12.00120012,5fdb8dbac85359924ce3220b,656018846682f3df8008bb8f,656019d00a2237becaca17f0,1,118,280,155,1,sixeight,,,,,,,,,,,,,,,,,,,,,,,,,,,,,,,,,,,,,,,,,,,,,,,,,,,,,,,,,,,,,,,,,,,,,,,,,,,,,,,,,,,,,
5fdb8dbac85359924ce3220b,2023-11-24_03h37.13.021,kallum_motion_pilot,2023.1.2,Win32,12.00120012,5fdb8dbac85359924ce3220b,656018846682f3df8008bb8f,656019d00a2237becaca17f0,1,119,281,67,1,twofour,,,,,,,,,,,,,,,,,,,,,,,,,,,,,,,,,,,,,,,,,,,,,,,,,,,,,,,,,,,,,,,,,,,,,,,,,,,,,,,,,,,,,
5fdb8dbac85359924ce3220b,2023-11-24_03h37.13.021,kallum_motion_pilot,2023.1.2,Win32,12.00120012,5fdb8dbac85359924ce3220b,656018846682f3df8008bb8f,656019d00a2237becaca17f0,1,120,282,7,1,fourthree,,,,,,,,,,,,,,,,,,,,,,,,,,,,,,,,,,,,,,,,,,,,,,,,,,,,,,,,,,,,,,,,,,,,,,,,,,,,,,,,,,,,,
5fdb8dbac85359924ce3220b,2023-11-24_03h37.13.021,kallum_motion_pilot,2023.1.2,Win32,12.00120012,5fdb8dbac85359924ce3220b,656018846682f3df8008bb8f,656019d00a2237becaca17f0,1,121,283,69,1,threefour,,,,,,,,,,,,,,,,,,,,,,,,,,,,,,,,,,,,,,,,,,,,,,,,,,,,,,,,,,,,,,,,,,,,,,,,,,,,,,,,,,,,,
5fdb8dbac85359924ce3220b,2023-11-24_03h37.13.021,kallum_motion_pilot,2023.1.2,Win32,12.00120012,5fdb8dbac85359924ce3220b,656018846682f3df8008bb8f,656019d00a2237becaca17f0,1,122,284,147,1,sixeight,,,,,,,,,,,,,,,,,,,,,,,,,,,,,,,,,,,,,,,,,,,,,,,,,,,,,,,,,,,,,,,,,,,,,,,,,,,,,,,,,,,,,
5fdb8dbac85359924ce3220b,2023-11-24_03h37.13.021,kallum_motion_pilot,2023.1.2,Win32,12.00120012,5fdb8dbac85359924ce3220b,656018846682f3df8008bb8f,656019d00a2237becaca17f0,1,123,285,112,1,fivesix,,,,,,,,,,,,,,,,,,,,,,,,,,,,,,,,,,,,,,,,,,,,,,,,,,,,,,,,,,,,,,,,,,,,,,,,,,,,,,,,,,,,,
5fdb8dbac85359924ce3220b,2023-11-24_03h37.13.021,kallum_motion_pilot,2023.1.2,Win32,12.00120012,5fdb8dbac85359924ce3220b,656018846682f3df8008bb8f,656019d00a2237becaca17f0,1,124,286,6,1,fourtwo,,,,,,,,,,,,,,,,,,,,,,,,,,,,,,,,,,,,,,,,,,,,,,,,,,,,,,,,,,,,,,,,,,,,,,,,,,,,,,,,,,,,,
5fdb8dbac85359924ce3220b,2023-11-24_03h37.13.021,kallum_motion_pilot,2023.1.2,Win32,12.00120012,5fdb8dbac85359924ce3220b,656018846682f3df8008bb8f,656019d00a2237becaca17f0,1,125,287,116,1,sevenfive,,,,,,,,,,,,,,,,,,,,,,,,,,,,,,,,,,,,,,,,,,,,,,,,,,,,,,,,,,,,,,,,,,,,,,,,,,,,,,,,,,,,,
5fdb8dbac85359924ce3220b,2023-11-24_03h37.13.021,kallum_motion_pilot,2023.1.2,Win32,12.00120012,5fdb8dbac85359924ce3220b,656018846682f3df8008bb8f,656019d00a2237becaca17f0,1,126,288,146,1,sixfive,,,,,,,,,,,,,,,,,,,,,,,,,,,,,,,,,,,,,,,,,,,,,,,,,,,,,,,,,,,,,,,,,,,,,,,,,,,,,,,,,,,,,
5fdb8dbac85359924ce3220b,2023-11-24_03h37.13.021,kallum_motion_pilot,2023.1.2,Win32,12.00120012,5fdb8dbac85359924ce3220b,656018846682f3df8008bb8f,656019d00a2237becaca17f0,1,127,289,114,1,sixfive,,,,,,,,,,,,,,,,,,,,,,,,,,,,,,,,,,,,,,,,,,,,,,,,,,,,,,,,,,,,,,,,,,,,,,,,,,,,,,,,,,,,,
5fdb8dbac85359924ce3220b,2023-11-24_03h37.13.021,kallum_motion_pilot,2023.1.2,Win32,12.00120012,5fdb8dbac85359924ce3220b,656018846682f3df8008bb8f,656019d00a2237becaca17f0,1,128,290,46,1,fourtwo,,,,,,,,,,,,,,,,,,,,,,,,,,,,,,,,,,,,,,,,,,,,,,,,,,,,,,,,,,,,,,,,,,,,,,,,,,,,,,,,,,,,,
5fdb8dbac85359924ce3220b,2023-11-24_03h37.13.021,kallum_motion_pilot,2023.1.2,Win32,12.00120012,5fdb8dbac85359924ce3220b,656018846682f3df8008bb8f,656019d00a2237becaca17f0,1,129,291,152,1,fivesix,,,,,,,,,,,,,,,,,,,,,,,,,,,,,,,,,,,,,,,,,,,,,,,,,,,,,,,,,,,,,,,,,,,,,,,,,,,,,,,,,,,,,
5fdb8dbac85359924ce3220b,2023-11-24_03h37.13.021,kallum_motion_pilot,2023.1.2,Win32,12.00120012,5fdb8dbac85359924ce3220b,656018846682f3df8008bb8f,656019d00a2237becaca17f0,1,130,292,45,1,threefour,,,,,,,,,,,,,,,,,,,,,,,,,,,,,,,,,,,,,,,,,,,,,,,,,,,,,,,,,,,,,,,,,,,,,,,,,,,,,,,,,,,,,
5fdb8dbac85359924ce3220b,2023-11-24_03h37.13.021,kallum_motion_pilot,2023.1.2,Win32,12.00120012,5fdb8dbac85359924ce3220b,656018846682f3df8008bb8f,656019d00a2237becaca17f0,1,131,293,98,1,sixfive,,,,,,,,,,,,,,,,,,,,,,,,,,,,,,,,,,,,,,,,,,,,,,,,,,,,,,,,,,,,,,,,,,,,,,,,,,,,,,,,,,,,,
5fdb8dbac85359924ce3220b,2023-11-24_03h37.13.021,kallum_motion_pilot,2023.1.2,Win32,12.00120012,5fdb8dbac85359924ce3220b,656018846682f3df8008bb8f,656019d00a2237becaca17f0,1,132,294,122,1,sixfive,,,,,,,,,,,,,,,,,,,,,,,,,,,,,,,,,,,,,,,,,,,,,,,,,,,,,,,,,,,,,,,,,,,,,,,,,,,,,,,,,,,,,
5fdb8dbac85359924ce3220b,2023-11-24_03h37.13.021,kallum_motion_pilot,2023.1.2,Win32,12.00120012,5fdb8dbac85359924ce3220b,656018846682f3df8008bb8f,656019d00a2237becaca17f0,1,133,295,37,1,threefour,,,,,,,,,,,,,,,,,,,,,,,,,,,,,,,,,,,,,,,,,,,,,,,,,,,,,,,,,,,,,,,,,,,,,,,,,,,,,,,,,,,,,
5fdb8dbac85359924ce3220b,2023-11-24_03h37.13.021,kallum_motion_pilot,2023.1.2,Win32,12.00120012,5fdb8dbac85359924ce3220b,656018846682f3df8008bb8f,656019d00a2237becaca17f0,1,134,296,30,1,fourtwo,,,,,,,,,,,,,,,,,,,,,,,,,,,,,,,,,,,,,,,,,,,,,,,,,,,,,,,,,,,,,,,,,,,,,,,,,,,,,,,,,,,,,
5fdb8dbac85359924ce3220b,2023-11-24_03h37.13.021,kallum_motion_pilot,2023.1.2,Win32,12.00120012,5fdb8dbac85359924ce3220b,656018846682f3df8008bb8f,656019d00a2237becaca17f0,1,135,297,47,1,fourthree,,,,,,,,,,,,,,,,,,,,,,,,,,,,,,,,,,,,,,,,,,,,,,,,,,,,,,,,,,,,,,,,,,,,,,,,,,,,,,,,,,,,,
5fdb8dbac85359924ce3220b,2023-11-24_03h37.13.021,kallum_motion_pilot,2023.1.2,Win32,12.00120012,5fdb8dbac85359924ce3220b,656018846682f3df8008bb8f,656019d00a2237becaca17f0,1,136,298,57,1,onethree,,,,,,,,,,,,,,,,,,,,,,,,,,,,,,,,,,,,,,,,,,,,,,,,,,,,,,,,,,,,,,,,,,,,,,,,,,,,,,,,,,,,,
5fdb8dbac85359924ce3220b,2023-11-24_03h37.13.021,kallum_motion_pilot,2023.1.2,Win32,12.00120012,5fdb8dbac85359924ce3220b,656018846682f3df8008bb8f,656019d00a2237becaca17f0,1,137,299,33,1,onethree,,,,,,,,,,,,,,,,,,,,,,,,,,,,,,,,,,,,,,,,,,,,,,,,,,,,,,,,,,,,,,,,,,,,,,,,,,,,,,,,,,,,,
5fdb8dbac85359924ce3220b,2023-11-24_03h37.13.021,kallum_motion_pilot,2023.1.2,Win32,12.00120012,5fdb8dbac85359924ce3220b,656018846682f3df8008bb8f,656019d00a2237becaca17f0,1,138,300,38,1,fourtwo,,,,,,,,,,,,,,,,,,,,,,,,,,,,,,,,,,,,,,,,,,,,,,,,,,,,,,,,,,,,,,,,,,,,,,,,,,,,,,,,,,,,,
5fdb8dbac85359924ce3220b,2023-11-24_03h37.13.021,kallum_motion_pilot,2023.1.2,Win32,12.00120012,5fdb8dbac85359924ce3220b,656018846682f3df8008bb8f,656019d00a2237becaca17f0,1,139,301,74,1,twoone,,,,,,,,,,,,,,,,,,,,,,,,,,,,,,,,,,,,,,,,,,,,,,,,,,,,,,,,,,,,,,,,,,,,,,,,,,,,,,,,,,,,,
5fdb8dbac85359924ce3220b,2023-11-24_03h37.13.021,kallum_motion_pilot,2023.1.2,Win32,12.00120012,5fdb8dbac85359924ce3220b,656018846682f3df8008bb8f,656019d00a2237becaca17f0,1,140,302,150,1,eightsix,,,,,,,,,,,,,,,,,,,,,,,,,,,,,,,,,,,,,,,,,,,,,,,,,,,,,,,,,,,,,,,,,,,,,,,,,,,,,,,,,,,,,
5fdb8dbac85359924ce3220b,2023-11-24_03h37.13.021,kallum_motion_pilot,2023.1.2,Win32,12.00120012,5fdb8dbac85359924ce3220b,656018846682f3df8008bb8f,656019d00a2237becaca17f0,1,141,303,39,1,fourthree,,,,,,,,,,,,,,,,,,,,,,,,,,,,,,,,,,,,,,,,,,,,,,,,,,,,,,,,,,,,,,,,,,,,,,,,,,,,,,,,,,,,,
5fdb8dbac85359924ce3220b,2023-11-24_03h37.13.021,kallum_motion_pilot,2023.1.2,Win32,12.00120012,5fdb8dbac85359924ce3220b,656018846682f3df8008bb8f,656019d00a2237becaca17f0,1,142,304,63,1,fourthree,,,,,,,,,,,,,,,,,,,,,,,,,,,,,,,,,,,,,,,,,,,,,,,,,,,,,,,,,,,,,,,,,,,,,,,,,,,,,,,,,,,,,
5fdb8dbac85359924ce3220b,2023-11-24_03h37.13.021,kallum_motion_pilot,2023.1.2,Win32,12.00120012,5fdb8dbac85359924ce3220b,656018846682f3df8008bb8f,656019d00a2237becaca17f0,1,143,305,90,1,sixfive,,,,,,,,,,,,,,,,,,,,,,,,,,,,,,,,,,,,,,,,,,,,,,,,,,,,,,,,,,,,,,,,,,,,,,,,,,,,,,,,,,,,,
5fdb8dbac85359924ce3220b,2023-11-24_03h37.13.021,kallum_motion_pilot,2023.1.2,Win32,12.00120012,5fdb8dbac85359924ce3220b,656018846682f3df8008bb8f,656019d00a2237becaca17f0,1,144,306,136,1,fivesix,,,,,,,,,,,,,,,,,,,,,,,,,,,,,,,,,,,,,,,,,,,,,,,,,,,,,,,,,,,,,,,,,,,,,,,,,,,,,,,,,,,,,
5fdb8dbac85359924ce3220b,2023-11-24_03h37.13.021,kallum_motion_pilot,2023.1.2,Win32,12.00120012,5fdb8dbac85359924ce3220b,656018846682f3df8008bb8f,656019d00a2237becaca17f0,1,145,307,104,1,fivesix,,,,,,,,,,,,,,,,,,,,,,,,,,,,,,,,,,,,,,,,,,,,,,,,,,,,,,,,,,,,,,,,,,,,,,,,,,,,,,,,,,,,,
5fdb8dbac85359924ce3220b,2023-11-24_03h37.13.021,kallum_motion_pilot,2023.1.2,Win32,12.00120012,5fdb8dbac85359924ce3220b,656018846682f3df8008bb8f,656019d00a2237becaca17f0,1,146,308,13,1,threefour,,,,,,,,,,,,,,,,,,,,,,,,,,,,,,,,,,,,,,,,,,,,,,,,,,,,,,,,,,,,,,,,,,,,,,,,,,,,,,,,,,,,,
5fdb8dbac85359924ce3220b,2023-11-24_03h37.13.021,kallum_motion_pilot,2023.1.2,Win32,12.00120012,5fdb8dbac85359924ce3220b,656018846682f3df8008bb8f,656019d00a2237becaca17f0,1,147,309,86,1,eightsix,,,,,,,,,,,,,,,,,,,,,,,,,,,,,,,,,,,,,,,,,,,,,,,,,,,,,,,,,,,,,,,,,,,,,,,,,,,,,,,,,,,,,
5fdb8dbac85359924ce3220b,2023-11-24_03h37.13.021,kallum_motion_pilot,2023.1.2,Win32,12.00120012,5fdb8dbac85359924ce3220b,656018846682f3df8008bb8f,656019d00a2237becaca17f0,1,148,310,119,1,eightseven,,,,,,,,,,,,,,,,,,,,,,,,,,,,,,,,,,,,,,,,,,,,,,,,,,,,,,,,,,,,,,,,,,,,,,,,,,,,,,,,,,,,,
5fdb8dbac85359924ce3220b,2023-11-24_03h37.13.021,kallum_motion_pilot,2023.1.2,Win32,12.00120012,5fdb8dbac85359924ce3220b,656018846682f3df8008bb8f,656019d00a2237becaca17f0,1,149,311,71,1,fourthree,,,,,,,,,,,,,,,,,,,,,,,,,,,,,,,,,,,,,,,,,,,,,,,,,,,,,,,,,,,,,,,,,,,,,,,,,,,,,,,,,,,,,
5fdb8dbac85359924ce3220b,2023-11-24_03h37.13.021,kallum_motion_pilot,2023.1.2,Win32,12.00120012,5fdb8dbac85359924ce3220b,656018846682f3df8008bb8f,656019d00a2237becaca17f0,1,150,312,11,1,twofour,,,,,,,,,,,,,,,,,,,,,,,,,,,,,,,,,,,,,,,,,,,,,,,,,,,,,,,,,,,,,,,,,,,,,,,,,,,,,,,,,,,,,
5fdb8dbac85359924ce3220b,2023-11-24_03h37.13.021,kallum_motion_pilot,2023.1.2,Win32,12.00120012,5fdb8dbac85359924ce3220b,656018846682f3df8008bb8f,656019d00a2237becaca17f0,1,151,313,107,1,sixeight,,,,,,,,,,,,,,,,,,,,,,,,,,,,,,,,,,,,,,,,,,,,,,,,,,,,,,,,,,,,,,,,,,,,,,,,,,,,,,,,,,,,,
5fdb8dbac85359924ce3220b,2023-11-24_03h37.13.021,kallum_motion_pilot,2023.1.2,Win32,12.00120012,5fdb8dbac85359924ce3220b,656018846682f3df8008bb8f,656019d00a2237becaca17f0,1,152,314,15,1,fourthree,,,,,,,,,,,,,,,,,,,,,,,,,,,,,,,,,,,,,,,,,,,,,,,,,,,,,,,,,,,,,,,,,,,,,,,,,,,,,,,,,,,,,
5fdb8dbac85359924ce3220b,2023-11-24_03h37.13.021,kallum_motion_pilot,2023.1.2,Win32,12.00120012,5fdb8dbac85359924ce3220b,656018846682f3df8008bb8f,656019d00a2237becaca17f0,1,153,315,100,1,sevenfive,,,,,,,,,,,,,,,,,,,,,,,,,,,,,,,,,,,,,,,,,,,,,,,,,,,,,,,,,,,,,,,,,,,,,,,,,,,,,,,,,,,,,
5fdb8dbac85359924ce3220b,2023-11-24_03h37.13.021,kallum_motion_pilot,2023.1.2,Win32,12.00120012,5fdb8dbac85359924ce3220b,656018846682f3df8008bb8f,656019d00a2237becaca17f0,1,154,316,34,1,twoone,,,,,,,,,,,,,,,,,,,,,,,,,,,,,,,,,,,,,,,,,,,,,,,,,,,,,,,,,,,,,,,,,,,,,,,,,,,,,,,,,,,,,
5fdb8dbac85359924ce3220b,2023-11-24_03h37.13.021,kallum_motion_pilot,2023.1.2,Win32,12.00120012,5fdb8dbac85359924ce3220b,656018846682f3df8008bb8f,656019d00a2237becaca17f0,1,155,317,0,1,onetwo,,,,,,,,,,,,,,,,,,,,,,,,,,,,,,,,,,,,,,,,,,,,,,,,,,,,,,,,,,,,,,,,,,,,,,,,,,,,,,,,,,,,,
5fdb8dbac85359924ce3220b,2023-11-24_03h37.13.021,kallum_motion_pilot,2023.1.2,Win32,12.00120012,5fdb8dbac85359924ce3220b,656018846682f3df8008bb8f,656019d00a2237becaca17f0,1,156,318,124,1,sevenfive,,,,,,,,,,,,,,,,,,,,,,,,,,,,,,,,,,,,,,,,,,,,,,,,,,,,,,,,,,,,,,,,,,,,,,,,,,,,,,,,,,,,,
5fdb8dbac85359924ce3220b,2023-11-24_03h37.13.021,kallum_motion_pilot,2023.1.2,Win32,12.00120012,5fdb8dbac85359924ce3220b,656018846682f3df8008bb8f,656019d00a2237becaca17f0,1,157,319,103,1,eightseven,,,,,,,,,,,,,,,,,,,,,,,,,,,,,,,,,,,,,,,,,,,,,,,,,,,,,,,,,,,,,,,,,,,,,,,,,,,,,,,,,,,,,
5fdb8dbac85359924ce3220b,2023-11-24_03h37.13.021,kallum_motion_pilot,2023.1.2,Win32,12.00120012,5fdb8dbac85359924ce3220b,656018846682f3df8008bb8f,656019d00a2237becaca17f0,1,158,320,138,1,sixfive,,,,,,,,,,,,,,,,,,,,,,,,,,,,,,,,,,,,,,,,,,,,,,,,,,,,,,,,,,,,,,,,,,,,,,,,,,,,,,,,,,,,,
5fdb8dbac85359924ce3220b,2023-11-24_03h37.13.021,kallum_motion_pilot,2023.1.2,Win32,12.00120012,5fdb8dbac85359924ce3220b,656018846682f3df8008bb8f,656019d00a2237becaca17f0,1,159,321,2,1,twoone,,,,,,,,,,,,,,,,,,,,,,,,,,,,,,,,,,,,,,,,,,,,,,,,,,,,,,,,,,,,,,,,,,,,,,,,,,,,,,,,,,,,,
5fdb8dbac85359924ce3220b,2023-11-24_03h37.13.021,kallum_motion_pilot,2023.1.2,Win32,12.00120012,5fdb8dbac85359924ce3220b,656018846682f3df8008bb8f,656019d00a2237becaca17f0,1,160,322,160,1,fivesix,,,,,,,,,,,,,,,,,,,,,,,,,,,,,,,,,,,,,,,,,,,,,,,,,,,,,,,,,,,,,,,,,,,,,,,,,,,,,,,,,,,,,
5fdb8dbac85359924ce3220b,2023-11-24_03h37.13.021,kallum_motion_pilot,2023.1.2,Win32,12.00120012,5fdb8dbac85359924ce3220b,656018846682f3df8008bb8f,656019d00a2237becaca17f0,1,161,323,55,1,fourthree,,,,,,,,,,,,,,,,,,,,,,,,,,,,,,,,,,,,,,,,,,,,,,,,,,,,,,,,,,,,,,,,,,,,,,,,,,,,,,,,,,,,,
5fdb8dbac85359924ce3220b,2023-11-24_03h37.13.021,kallum_motion_pilot,2023.1.2,Win32,12.00120012,5fdb8dbac85359924ce3220b,656018846682f3df8008bb8f,656019d00a2237becaca17f0,2,0,324,127,1,eightseven,,,,,,,,,,,,,,,,,,,,,,,,,,,,,,,,,,,,,,,,,,,,,,,,,,,,,,,,,,,,,,,,,,,,,,,,,,,,,,,,,,,,,
5fdb8dbac85359924ce3220b,2023-11-24_03h37.13.021,kallum_motion_pilot,2023.1.2,Win32,12.00120012,5fdb8dbac85359924ce3220b,656018846682f3df8008bb8f,656019d00a2237becaca17f0,2,1,325,72,1,onetwo,,,,,,,,,,,,,,,,,,,,,,,,,,,,,,,,,,,,,,,,,,,,,,,,,,,,,,,,,,,,,,,,,,,,,,,,,,,,,,,,,,,,,
5fdb8dbac85359924ce3220b,2023-11-24_03h37.13.021,kallum_motion_pilot,2023.1.2,Win32,12.00120012,5fdb8dbac85359924ce3220b,656018846682f3df8008bb8f,656019d00a2237becaca17f0,2,2,326,94,1,eightsix,,,,,,,,,,,,,,,,,,,,,,,,,,,,,,,,,,,,,,,,,,,,,,,,,,,,,,,,,,,,,,,,,,,,,,,,,,,,,,,,,,,,,
5fdb8dbac85359924ce3220b,2023-11-24_03h37.13.021,kallum_motion_pilot,2023.1.2,Win32,12.00120012,5fdb8dbac85359924ce3220b,656018846682f3df8008bb8f,656019d00a2237becaca17f0,2,3,327,109,1,seveneight,,,,,,,,,,,,,,,,,,,,,,,,,,,,,,,,,,,,,,,,,,,,,,,,,,,,,,,,,,,,,,,,,,,,,,,,,,,,,,,,,,,,,
5fdb8dbac85359924ce3220b,2023-11-24_03h37.13.021,kallum_motion_pilot,2023.1.2,Win32,12.00120012,5fdb8dbac85359924ce3220b,656018846682f3df8008bb8f,656019d00a2237becaca17f0,2,4,328,128,1,fivesix,,,,,,,,,,,,,,,,,,,,,,,,,,,,,,,,,,,,,,,,,,,,,,,,,,,,,,,,,,,,,,,,,,,,,,,,,,,,,,,,,,,,,
5fdb8dbac85359924ce3220b,2023-11-24_03h37.13.021,kallum_motion_pilot,2023.1.2,Win32,12.00120012,5fdb8dbac85359924ce3220b,656018846682f3df8008bb8f,656019d00a2237becaca17f0,2,5,329,28,1,threeone,,,,,,,,,,,,,,,,,,,,,,,,,,,,,,,,,,,,,,,,,,,,,,,,,,,,,,,,,,,,,,,,,,,,,,,,,,,,,,,,,,,,,
5fdb8dbac85359924ce3220b,2023-11-24_03h37.13.021,kallum_motion_pilot,2023.1.2,Win32,12.00120012,5fdb8dbac85359924ce3220b,656018846682f3df8008bb8f,656019d00a2237becaca17f0,2,6,330,30,1,fourtwo,,,,,,,,,,,,,,,,,,,,,,,,,,,,,,,,,,,,,,,,,,,,,,,,,,,,,,,,,,,,,,,,,,,,,,,,,,,,,,,,,,,,,
5fdb8dbac85359924ce3220b,2023-11-24_03h37.13.021,kallum_motion_pilot,2023.1.2,Win32,12.00120012,5fdb8dbac85359924ce3220b,656018846682f3df8008bb8f,656019d00a2237becaca17f0,2,7,331,49,1,onethree,,,,,,,,,,,,,,,,,,,,,,,,,,,,,,,,,,,,,,,,,,,,,,,,,,,,,,,,,,,,,,,,,,,,,,,,,,,,,,,,,,,,,
5fdb8dbac85359924ce3220b,2023-11-24_03h37.13.021,kallum_motion_pilot,2023.1.2,Win32,12.00120012,5fdb8dbac85359924ce3220b,656018846682f3df8008bb8f,656019d00a2237becaca17f0,2,8,332,69,1,threefour,,,,,,,,,,,,,,,,,,,,,,,,,,,,,,,,,,,,,,,,,,,,,,,,,,,,,,,,,,,,,,,,,,,,,,,,,,,,,,,,,,,,,
5fdb8dbac85359924ce3220b,2023-11-24_03h37.13.021,kallum_motion_pilot,2023.1.2,Win32,12.00120012,5fdb8dbac85359924ce3220b,656018846682f3df8008bb8f,656019d00a2237becaca17f0,2,9,333,101,1,seveneight,,,,,,,,,,,,,,,,,,,,,,,,,,,,,,,,,,,,,,,,,,,,,,,,,,,,,,,,,,,,,,,,,,,,,,,,,,,,,,,,,,,,,
5fdb8dbac85359924ce3220b,2023-11-24_03h37.13.021,kallum_motion_pilot,2023.1.2,Win32,12.00120012,5fdb8dbac85359924ce3220b,656018846682f3df8008bb8f,656019d00a2237becaca17f0,2,10,334,130,1,sixfive,,,,,,,,,,,,,,,,,,,,,,,,,,,,,,,,,,,,,,,,,,,,,,,,,,,,,,,,,,,,,,,,,,,,,,,,,,,,,,,,,,,,,
5fdb8dbac85359924ce3220b,2023-11-24_03h37.13.021,kallum_motion_pilot,2023.1.2,Win32,12.00120012,5fdb8dbac85359924ce3220b,656018846682f3df8008bb8f,656019d00a2237becaca17f0,2,11,335,81,1,fiveseven,,,,,,,,,,,,,,,,,,,,,,,,,,,,,,,,,,,,,,,,,,,,,,,,,,,,,,,,,,,,,,,,,,,,,,,,,,,,,,,,,,,,,
5fdb8dbac85359924ce3220b,2023-11-24_03h37.13.021,kallum_motion_pilot,2023.1.2,Win32,12.00120012,5fdb8dbac85359924ce3220b,656018846682f3df8008bb8f,656019d00a2237becaca17f0,2,12,336,123,1,sixeight,,,,,,,,,,,,,,,,,,,,,,,,,,,,,,,,,,,,,,,,,,,,,,,,,,,,,,,,,,,,,,,,,,,,,,,,,,,,,,,,,,,,,
5fdb8dbac85359924ce3220b,2023-11-24_03h37.13.021,kallum_motion_pilot,2023.1.2,Win32,12.00120012,5fdb8dbac85359924ce3220b,656018846682f3df8008bb8f,656019d00a2237becaca17f0,2,13,337,157,1,seveneight,,,,,,,,,,,,,,,,,,,,,,,,,,,,,,,,,,,,,,,,,,,,,,,,,,,,,,,,,,,,,,,,,,,,,,,,,,,,,,,,,,,,,
5fdb8dbac85359924ce3220b,2023-11-24_03h37.13.021,kallum_motion_pilot,2023.1.2,Win32,12.00120012,5fdb8dbac85359924ce3220b,656018846682f3df8008bb8f,656019d00a2237becaca17f0,2,14,338,77,1,threefour,,,,,,,,,,,,,,,,,,,,,,,,,,,,,,,,,,,,,,,,,,,,,,,,,,,,,,,,,,,,,,,,,,,,,,,,,,,,,,,,,,,,,
5fdb8dbac85359924ce3220b,2023-11-24_03h37.13.021,kallum_motion_pilot,2023.1.2,Win32,12.00120012,5fdb8dbac85359924ce3220b,656018846682f3df8008bb8f,656019d00a2237becaca17f0,2,15,339,125,1,seveneight,,,,,,,,,,,,,,,,,,,,,,,,,,,,,,,,,,,,,,,,,,,,,,,,,,,,,,,,,,,,,,,,,,,,,,,,,,,,,,,,,,,,,
5fdb8dbac85359924ce3220b,2023-11-24_03h37.13.021,kallum_motion_pilot,2023.1.2,Win32,12.00120012,5fdb8dbac85359924ce3220b,656018846682f3df8008bb8f,656019d00a2237becaca17f0,2,16,340,68,1,threeone,,,,,,,,,,,,,,,,,,,,,,,,,,,,,,,,,,,,,,,,,,,,,,,,,,,,,,,,,,,,,,,,,,,,,,,,,,,,,,,,,,,,,
5fdb8dbac85359924ce3220b,2023-11-24_03h37.13.021,kallum_motion_pilot,2023.1.2,Win32,12.00120012,5fdb8dbac85359924ce3220b,656018846682f3df8008bb8f,656019d00a2237becaca17f0,2,17,341,119,1,eightseven,,,,,,,,,,,,,,,,,,,,,,,,,,,,,,,,,,,,,,,,,,,,,,,,,,,,,,,,,,,,,,,,,,,,,,,,,,,,,,,,,,,,,
5fdb8dbac85359924ce3220b,2023-11-24_03h37.13.021,kallum_motion_pilot,2023.1.2,Win32,12.00120012,5fdb8dbac85359924ce3220b,656018846682f3df8008bb8f,656019d00a2237becaca17f0,2,18,342,4,1,threeone,,,,,,,,,,,,,,,,,,,,,,,,,,,,,,,,,,,,,,,,,,,,,,,,,,,,,,,,,,,,,,,,,,,,,,,,,,,,,,,,,,,,,
5fdb8dbac85359924ce3220b,2023-11-24_03h37.13.021,kallum_motion_pilot,2023.1.2,Win32,12.00120012,5fdb8dbac85359924ce3220b,656018846682f3df8008bb8f,656019d00a2237becaca17f0,2,19,343,93,1,seveneight,,,,,,,,,,,,,,,,,,,,,,,,,,,,,,,,,,,,,,,,,,,,,,,,,,,,,,,,,,,,,,,,,,,,,,,,,,,,,,,,,,,,,
5fdb8dbac85359924ce3220b,2023-11-24_03h37.13.021,kallum_motion_pilot,2023.1.2,Win32,12.00120012,5fdb8dbac85359924ce3220b,656018846682f3df8008bb8f,656019d00a2237becaca17f0,2,20,344,26,1,twoone,,,,,,,,,,,,,,,,,,,,,,,,,,,,,,,,,,,,,,,,,,,,,,,,,,,,,,,,,,,,,,,,,,,,,,,,,,,,,,,,,,,,,
5fdb8dbac85359924ce3220b,2023-11-24_03h37.13.021,kallum_motion_pilot,2023.1.2,Win32,12.00120012,5fdb8dbac85359924ce3220b,656018846682f3df8008bb8f,656019d00a2237becaca17f0,2,21,345,50,1,twoone,,,,,,,,,,,,,,,,,,,,,,,,,,,,,,,,,,,,,,,,,,,,,,,,,,,,,,,,,,,,,,,,,,,,,,,,,,,,,,,,,,,,,
5fdb8dbac85359924ce3220b,2023-11-24_03h37.13.021,kallum_motion_pilot,2023.1.2,Win32,12.00120012,5fdb8dbac85359924ce3220b,656018846682f3df8008bb8f,656019d00a2237becaca17f0,2,22,346,116,1,sevenfive,,,,,,,,,,,,,,,,,,,,,,,,,,,,,,,,,,,,,,,,,,,,,,,,,,,,,,,,,,,,,,,,,,,,,,,,,,,,,,,,,,,,,
5fdb8dbac85359924ce3220b,2023-11-24_03h37.13.021,kallum_motion_pilot,2023.1.2,Win32,12.00120012,5fdb8dbac85359924ce3220b,656018846682f3df8008bb8f,656019d00a2237becaca17f0,2,23,347,18,1,twoone,,,,,,,,,,,,,,,,,,,,,,,,,,,,,,,,,,,,,,,,,,,,,,,,,,,,,,,,,,,,,,,,,,,,,,,,,,,,,,,,,,,,,
5fdb8dbac85359924ce3220b,2023-11-24_03h37.13.021,kallum_motion_pilot,2023.1.2,Win32,12.00120012,5fdb8dbac85359924ce3220b,656018846682f3df8008bb8f,656019d00a2237becaca17f0,2,24,348,150,1,eightsix,,,,,,,,,,,,,,,,,,,,,,,,,,,,,,,,,,,,,,,,,,,,,,,,,,,,,,,,,,,,,,,,,,,,,,,,,,,,,,,,,,,,,
5fdb8dbac85359924ce3220b,2023-11-24_03h37.13.021,kallum_motion_pilot,2023.1.2,Win32,12.00120012,5fdb8dbac85359924ce3220b,656018846682f3df8008bb8f,656019d00a2237becaca17f0,2,25,349,31,1,fourthree,,,,,,,,,,,,,,,,,,,,,,,,,,,,,,,,,,,,,,,,,,,,,,,,,,,,,,,,,,,,,,,,,,,,,,,,,,,,,,,,,,,,,
