Prolific_ID*,date,expName,psychopyVersion,OS,frameRate,PROLIFIC_PID,STUDY_ID,SESSION_ID,hardcoded_stimulus_positions.thisRepN,hardcoded_stimulus_positions.thisTrialN,hardcoded_stimulus_positions.thisN,hardcoded_stimulus_positions.thisIndex,hardcoded_stimulus_positions.ran,StimulusPos,prac_stimorientation_import_loop.thisRepN,prac_stimorientation_import_loop.thisTrialN,prac_stimorientation_import_loop.thisN,prac_stimorientation_import_loop.thisIndex,prac_stimorientation_import_loop.ran,Stimorientation,key_resp.keys,key_resp.rt,key_resp_20.keys,key_resp_20.rt,key_resp_19.keys,key_resp_19.rt,key_resp_15.keys,key_resp_15.rt,key_resp_9.keys,key_resp_9.rt,key_resp_10.keys,key_resp_10.rt,Ecc,Circle1_ori,Circle2_ori,similarity,response_time,mouse_5.x,mouse_5.y,mouse_5.leftButton,mouse_5.midButton,mouse_5.rightButton,mouse_5.clicked_name,mouse_6.x,mouse_6.y,mouse_6.leftButton,mouse_6.midButton,mouse_6.rightButton,mouse_6.clicked_name,duringprac.thisRepN,duringprac.thisTrialN,duringprac.thisN,duringprac.thisIndex,duringprac.ran,key_resp_22.keys,key_resp_22.rt,circle1_ori,circle2_ori,mouse.x,mouse.y,mouse.leftButton,mouse.midButton,mouse.rightButton,mouse.clicked_name,mouse_2.x,mouse_2.y,mouse_2.leftButton,mouse_2.midButton,mouse_2.rightButton,mouse_2.clicked_name,mouse_3.x,mouse_3.y,mouse_3.leftButton,mouse_3.midButton,mouse_3.rightButton,catchresponse,catchnumber,response_time_catch,Catch,mouse_11.x,mouse_11.y,mouse_11.leftButton,mouse_11.midButton,mouse_11.rightButton,main_trial.thisRepN,main_trial.thisTrialN,main_trial.thisN,main_trial.thisIndex,main_trial.ran,Orientationtrialno,xcircle1_ori,xcircle2_ori,double_pass.thisRepN,double_pass.thisTrialN,double_pass.thisN,double_pass.thisIndex,double_pass.ran,key_resp_3.keys,key_resp_3.rt
61365f766033bc62f92053dc,2023-11-23_22h35.13.957,kallum_motion_pilot,2023.1.2,Win32,39.88354006,61365f766033bc62f92053dc,656018846682f3df8008bb8f,656019d2b3b58299df4cb086,,,,,,,,,,,,,,,,,,,,,,,,,,,,,,,,,,,,,,,,,,,,,,,,,,,,,,,,,,,,,,,,,,,,,,,,,,,,,,,,,,,,,,,,,,,
61365f766033bc62f92053dc,2023-11-23_22h35.13.957,kallum_motion_pilot,2023.1.2,Win32,39.88354006,61365f766033bc62f92053dc,656018846682f3df8008bb8f,656019d2b3b58299df4cb086,0,0,0,120,1,fivesix,,,,,,,,,,,,,,,,,,,,,,,,,,,,,,,,,,,,,,,,,,,,,,,,,,,,,,,,,,,,,,,,,,,,,,,,,,,,,,,,,,,,,
61365f766033bc62f92053dc,2023-11-23_22h35.13.957,kallum_motion_pilot,2023.1.2,Win32,39.88354006,61365f766033bc62f92053dc,656018846682f3df8008bb8f,656019d2b3b58299df4cb086,0,1,1,132,1,sevenfive,,,,,,,,,,,,,,,,,,,,,,,,,,,,,,,,,,,,,,,,,,,,,,,,,,,,,,,,,,,,,,,,,,,,,,,,,,,,,,,,,,,,,
61365f766033bc62f92053dc,2023-11-23_22h35.13.957,kallum_motion_pilot,2023.1.2,Win32,39.88354006,61365f766033bc62f92053dc,656018846682f3df8008bb8f,656019d2b3b58299df4cb086,0,2,2,4,1,threeone,,,,,,,,,,,,,,,,,,,,,,,,,,,,,,,,,,,,,,,,,,,,,,,,,,,,,,,,,,,,,,,,,,,,,,,,,,,,,,,,,,,,,
61365f766033bc62f92053dc,2023-11-23_22h35.13.957,kallum_motion_pilot,2023.1.2,Win32,39.88354006,61365f766033bc62f92053dc,656018846682f3df8008bb8f,656019d2b3b58299df4cb086,0,3,3,131,1,sixeight,,,,,,,,,,,,,,,,,,,,,,,,,,,,,,,,,,,,,,,,,,,,,,,,,,,,,,,,,,,,,,,,,,,,,,,,,,,,,,,,,,,,,
61365f766033bc62f92053dc,2023-11-23_22h35.13.957,kallum_motion_pilot,2023.1.2,Win32,39.88354006,61365f766033bc62f92053dc,656018846682f3df8008bb8f,656019d2b3b58299df4cb086,0,4,4,20,1,threeone,,,,,,,,,,,,,,,,,,,,,,,,,,,,,,,,,,,,,,,,,,,,,,,,,,,,,,,,,,,,,,,,,,,,,,,,,,,,,,,,,,,,,
61365f766033bc62f92053dc,2023-11-23_22h35.13.957,kallum_motion_pilot,2023.1.2,Win32,39.88354006,61365f766033bc62f92053dc,656018846682f3df8008bb8f,656019d2b3b58299df4cb086,0,5,5,139,1,sixeight,,,,,,,,,,,,,,,,,,,,,,,,,,,,,,,,,,,,,,,,,,,,,,,,,,,,,,,,,,,,,,,,,,,,,,,,,,,,,,,,,,,,,
61365f766033bc62f92053dc,2023-11-23_22h35.13.957,kallum_motion_pilot,2023.1.2,Win32,39.88354006,61365f766033bc62f92053dc,656018846682f3df8008bb8f,656019d2b3b58299df4cb086,0,6,6,15,1,fourthree,,,,,,,,,,,,,,,,,,,,,,,,,,,,,,,,,,,,,,,,,,,,,,,,,,,,,,,,,,,,,,,,,,,,,,,,,,,,,,,,,,,,,
61365f766033bc62f92053dc,2023-11-23_22h35.13.957,kallum_motion_pilot,2023.1.2,Win32,39.88354006,61365f766033bc62f92053dc,656018846682f3df8008bb8f,656019d2b3b58299df4cb086,0,7,7,5,1,threefour,,,,,,,,,,,,,,,,,,,,,,,,,,,,,,,,,,,,,,,,,,,,,,,,,,,,,,,,,,,,,,,,,,,,,,,,,,,,,,,,,,,,,
61365f766033bc62f92053dc,2023-11-23_22h35.13.957,kallum_motion_pilot,2023.1.2,Win32,39.88354006,61365f766033bc62f92053dc,656018846682f3df8008bb8f,656019d2b3b58299df4cb086,0,8,8,39,1,fourthree,,,,,,,,,,,,,,,,,,,,,,,,,,,,,,,,,,,,,,,,,,,,,,,,,,,,,,,,,,,,,,,,,,,,,,,,,,,,,,,,,,,,,
61365f766033bc62f92053dc,2023-11-23_22h35.13.957,kallum_motion_pilot,2023.1.2,Win32,39.88354006,61365f766033bc62f92053dc,656018846682f3df8008bb8f,656019d2b3b58299df4cb086,0,9,9,143,1,eightseven,,,,,,,,,,,,,,,,,,,,,,,,,,,,,,,,,,,,,,,,,,,,,,,,,,,,,,,,,,,,,,,,,,,,,,,,,,,,,,,,,,,,,
61365f766033bc62f92053dc,2023-11-23_22h35.13.957,kallum_motion_pilot,2023.1.2,Win32,39.88354006,61365f766033bc62f92053dc,656018846682f3df8008bb8f,656019d2b3b58299df4cb086,0,10,10,129,1,fiveseven,,,,,,,,,,,,,,,,,,,,,,,,,,,,,,,,,,,,,,,,,,,,,,,,,,,,,,,,,,,,,,,,,,,,,,,,,,,,,,,,,,,,,
61365f766033bc62f92053dc,2023-11-23_22h35.13.957,kallum_motion_pilot,2023.1.2,Win32,39.88354006,61365f766033bc62f92053dc,656018846682f3df8008bb8f,656019d2b3b58299df4cb086,0,11,11,44,1,threeone,,,,,,,,,,,,,,,,,,,,,,,,,,,,,,,,,,,,,,,,,,,,,,,,,,,,,,,,,,,,,,,,,,,,,,,,,,,,,,,,,,,,,
61365f766033bc62f92053dc,2023-11-23_22h35.13.957,kallum_motion_pilot,2023.1.2,Win32,39.88354006,61365f766033bc62f92053dc,656018846682f3df8008bb8f,656019d2b3b58299df4cb086,0,12,12,53,1,threefour,,,,,,,,,,,,,,,,,,,,,,,,,,,,,,,,,,,,,,,,,,,,,,,,,,,,,,,,,,,,,,,,,,,,,,,,,,,,,,,,,,,,,
61365f766033bc62f92053dc,2023-11-23_22h35.13.957,kallum_motion_pilot,2023.1.2,Win32,39.88354006,61365f766033bc62f92053dc,656018846682f3df8008bb8f,656019d2b3b58299df4cb086,0,13,13,114,1,sixfive,,,,,,,,,,,,,,,,,,,,,,,,,,,,,,,,,,,,,,,,,,,,,,,,,,,,,,,,,,,,,,,,,,,,,,,,,,,,,,,,,,,,,
61365f766033bc62f92053dc,2023-11-23_22h35.13.957,kallum_motion_pilot,2023.1.2,Win32,39.88354006,61365f766033bc62f92053dc,656018846682f3df8008bb8f,656019d2b3b58299df4cb086,0,14,14,93,1,seveneight,,,,,,,,,,,,,,,,,,,,,,,,,,,,,,,,,,,,,,,,,,,,,,,,,,,,,,,,,,,,,,,,,,,,,,,,,,,,,,,,,,,,,
61365f766033bc62f92053dc,2023-11-23_22h35.13.957,kallum_motion_pilot,2023.1.2,Win32,39.88354006,61365f766033bc62f92053dc,656018846682f3df8008bb8f,656019d2b3b58299df4cb086,0,15,15,21,1,threefour,,,,,,,,,,,,,,,,,,,,,,,,,,,,,,,,,,,,,,,,,,,,,,,,,,,,,,,,,,,,,,,,,,,,,,,,,,,,,,,,,,,,,
61365f766033bc62f92053dc,2023-11-23_22h35.13.957,kallum_motion_pilot,2023.1.2,Win32,39.88354006,61365f766033bc62f92053dc,656018846682f3df8008bb8f,656019d2b3b58299df4cb086,0,16,16,52,1,threeone,,,,,,,,,,,,,,,,,,,,,,,,,,,,,,,,,,,,,,,,,,,,,,,,,,,,,,,,,,,,,,,,,,,,,,,,,,,,,,,,,,,,,
61365f766033bc62f92053dc,2023-11-23_22h35.13.957,kallum_motion_pilot,2023.1.2,Win32,39.88354006,61365f766033bc62f92053dc,656018846682f3df8008bb8f,656019d2b3b58299df4cb086,0,17,17,66,1,twoone,,,,,,,,,,,,,,,,,,,,,,,,,,,,,,,,,,,,,,,,,,,,,,,,,,,,,,,,,,,,,,,,,,,,,,,,,,,,,,,,,,,,,
61365f766033bc62f92053dc,2023-11-23_22h35.13.957,kallum_motion_pilot,2023.1.2,Win32,39.88354006,61365f766033bc62f92053dc,656018846682f3df8008bb8f,656019d2b3b58299df4cb086,0,18,18,157,1,seveneight,,,,,,,,,,,,,,,,,,,,,,,,,,,,,,,,,,,,,,,,,,,,,,,,,,,,,,,,,,,,,,,,,,,,,,,,,,,,,,,,,,,,,
61365f766033bc62f92053dc,2023-11-23_22h35.13.957,kallum_motion_pilot,2023.1.2,Win32,39.88354006,61365f766033bc62f92053dc,656018846682f3df8008bb8f,656019d2b3b58299df4cb086,0,19,19,34,1,twoone,,,,,,,,,,,,,,,,,,,,,,,,,,,,,,,,,,,,,,,,,,,,,,,,,,,,,,,,,,,,,,,,,,,,,,,,,,,,,,,,,,,,,
61365f766033bc62f92053dc,2023-11-23_22h35.13.957,kallum_motion_pilot,2023.1.2,Win32,39.88354006,61365f766033bc62f92053dc,656018846682f3df8008bb8f,656019d2b3b58299df4cb086,0,20,20,140,1,sevenfive,,,,,,,,,,,,,,,,,,,,,,,,,,,,,,,,,,,,,,,,,,,,,,,,,,,,,,,,,,,,,,,,,,,,,,,,,,,,,,,,,,,,,
61365f766033bc62f92053dc,2023-11-23_22h35.13.957,kallum_motion_pilot,2023.1.2,Win32,39.88354006,61365f766033bc62f92053dc,656018846682f3df8008bb8f,656019d2b3b58299df4cb086,0,21,21,17,1,onethree,,,,,,,,,,,,,,,,,,,,,,,,,,,,,,,,,,,,,,,,,,,,,,,,,,,,,,,,,,,,,,,,,,,,,,,,,,,,,,,,,,,,,
61365f766033bc62f92053dc,2023-11-23_22h35.13.957,kallum_motion_pilot,2023.1.2,Win32,39.88354006,61365f766033bc62f92053dc,656018846682f3df8008bb8f,656019d2b3b58299df4cb086,0,22,22,74,1,twoone,,,,,,,,,,,,,,,,,,,,,,,,,,,,,,,,,,,,,,,,,,,,,,,,,,,,,,,,,,,,,,,,,,,,,,,,,,,,,,,,,,,,,
61365f766033bc62f92053dc,2023-11-23_22h35.13.957,kallum_motion_pilot,2023.1.2,Win32,39.88354006,61365f766033bc62f92053dc,656018846682f3df8008bb8f,656019d2b3b58299df4cb086,0,23,23,36,1,threeone,,,,,,,,,,,,,,,,,,,,,,,,,,,,,,,,,,,,,,,,,,,,,,,,,,,,,,,,,,,,,,,,,,,,,,,,,,,,,,,,,,,,,
61365f766033bc62f92053dc,2023-11-23_22h35.13.957,kallum_motion_pilot,2023.1.2,Win32,39.88354006,61365f766033bc62f92053dc,656018846682f3df8008bb8f,656019d2b3b58299df4cb086,0,24,24,104,1,fivesix,,,,,,,,,,,,,,,,,,,,,,,,,,,,,,,,,,,,,,,,,,,,,,,,,,,,,,,,,,,,,,,,,,,,,,,,,,,,,,,,,,,,,
61365f766033bc62f92053dc,2023-11-23_22h35.13.957,kallum_motion_pilot,2023.1.2,Win32,39.88354006,61365f766033bc62f92053dc,656018846682f3df8008bb8f,656019d2b3b58299df4cb086,0,25,25,141,1,seveneight,,,,,,,,,,,,,,,,,,,,,,,,,,,,,,,,,,,,,,,,,,,,,,,,,,,,,,,,,,,,,,,,,,,,,,,,,,,,,,,,,,,,,
61365f766033bc62f92053dc,2023-11-23_22h35.13.957,kallum_motion_pilot,2023.1.2,Win32,39.88354006,61365f766033bc62f92053dc,656018846682f3df8008bb8f,656019d2b3b58299df4cb086,0,26,26,11,1,twofour,,,,,,,,,,,,,,,,,,,,,,,,,,,,,,,,,,,,,,,,,,,,,,,,,,,,,,,,,,,,,,,,,,,,,,,,,,,,,,,,,,,,,
61365f766033bc62f92053dc,2023-11-23_22h35.13.957,kallum_motion_pilot,2023.1.2,Win32,39.88354006,61365f766033bc62f92053dc,656018846682f3df8008bb8f,656019d2b3b58299df4cb086,0,27,27,10,1,twoone,,,,,,,,,,,,,,,,,,,,,,,,,,,,,,,,,,,,,,,,,,,,,,,,,,,,,,,,,,,,,,,,,,,,,,,,,,,,,,,,,,,,,
61365f766033bc62f92053dc,2023-11-23_22h35.13.957,kallum_motion_pilot,2023.1.2,Win32,39.88354006,61365f766033bc62f92053dc,656018846682f3df8008bb8f,656019d2b3b58299df4cb086,0,28,28,82,1,sixfive,,,,,,,,,,,,,,,,,,,,,,,,,,,,,,,,,,,,,,,,,,,,,,,,,,,,,,,,,,,,,,,,,,,,,,,,,,,,,,,,,,,,,
61365f766033bc62f92053dc,2023-11-23_22h35.13.957,kallum_motion_pilot,2023.1.2,Win32,39.88354006,61365f766033bc62f92053dc,656018846682f3df8008bb8f,656019d2b3b58299df4cb086,0,29,29,76,1,threeone,,,,,,,,,,,,,,,,,,,,,,,,,,,,,,,,,,,,,,,,,,,,,,,,,,,,,,,,,,,,,,,,,,,,,,,,,,,,,,,,,,,,,
61365f766033bc62f92053dc,2023-11-23_22h35.13.957,kallum_motion_pilot,2023.1.2,Win32,39.88354006,61365f766033bc62f92053dc,656018846682f3df8008bb8f,656019d2b3b58299df4cb086,0,30,30,155,1,sixeight,,,,,,,,,,,,,,,,,,,,,,,,,,,,,,,,,,,,,,,,,,,,,,,,,,,,,,,,,,,,,,,,,,,,,,,,,,,,,,,,,,,,,
61365f766033bc62f92053dc,2023-11-23_22h35.13.957,kallum_motion_pilot,2023.1.2,Win32,39.88354006,61365f766033bc62f92053dc,656018846682f3df8008bb8f,656019d2b3b58299df4cb086,0,31,31,110,1,eightsix,,,,,,,,,,,,,,,,,,,,,,,,,,,,,,,,,,,,,,,,,,,,,,,,,,,,,,,,,,,,,,,,,,,,,,,,,,,,,,,,,,,,,
61365f766033bc62f92053dc,2023-11-23_22h35.13.957,kallum_motion_pilot,2023.1.2,Win32,39.88354006,61365f766033bc62f92053dc,656018846682f3df8008bb8f,656019d2b3b58299df4cb086,0,32,32,43,1,twofour,,,,,,,,,,,,,,,,,,,,,,,,,,,,,,,,,,,,,,,,,,,,,,,,,,,,,,,,,,,,,,,,,,,,,,,,,,,,,,,,,,,,,
61365f766033bc62f92053dc,2023-11-23_22h35.13.957,kallum_motion_pilot,2023.1.2,Win32,39.88354006,61365f766033bc62f92053dc,656018846682f3df8008bb8f,656019d2b3b58299df4cb086,0,33,33,7,1,fourthree,,,,,,,,,,,,,,,,,,,,,,,,,,,,,,,,,,,,,,,,,,,,,,,,,,,,,,,,,,,,,,,,,,,,,,,,,,,,,,,,,,,,,
61365f766033bc62f92053dc,2023-11-23_22h35.13.957,kallum_motion_pilot,2023.1.2,Win32,39.88354006,61365f766033bc62f92053dc,656018846682f3df8008bb8f,656019d2b3b58299df4cb086,0,34,34,16,1,onetwo,,,,,,,,,,,,,,,,,,,,,,,,,,,,,,,,,,,,,,,,,,,,,,,,,,,,,,,,,,,,,,,,,,,,,,,,,,,,,,,,,,,,,
61365f766033bc62f92053dc,2023-11-23_22h35.13.957,kallum_motion_pilot,2023.1.2,Win32,39.88354006,61365f766033bc62f92053dc,656018846682f3df8008bb8f,656019d2b3b58299df4cb086,0,35,35,136,1,fivesix,,,,,,,,,,,,,,,,,,,,,,,,,,,,,,,,,,,,,,,,,,,,,,,,,,,,,,,,,,,,,,,,,,,,,,,,,,,,,,,,,,,,,
61365f766033bc62f92053dc,2023-11-23_22h35.13.957,kallum_motion_pilot,2023.1.2,Win32,39.88354006,61365f766033bc62f92053dc,656018846682f3df8008bb8f,656019d2b3b58299df4cb086,0,36,36,160,1,fivesix,,,,,,,,,,,,,,,,,,,,,,,,,,,,,,,,,,,,,,,,,,,,,,,,,,,,,,,,,,,,,,,,,,,,,,,,,,,,,,,,,,,,,
61365f766033bc62f92053dc,2023-11-23_22h35.13.957,kallum_motion_pilot,2023.1.2,Win32,39.88354006,61365f766033bc62f92053dc,656018846682f3df8008bb8f,656019d2b3b58299df4cb086,0,37,37,101,1,seveneight,,,,,,,,,,,,,,,,,,,,,,,,,,,,,,,,,,,,,,,,,,,,,,,,,,,,,,,,,,,,,,,,,,,,,,,,,,,,,,,,,,,,,
61365f766033bc62f92053dc,2023-11-23_22h35.13.957,kallum_motion_pilot,2023.1.2,Win32,39.88354006,61365f766033bc62f92053dc,656018846682f3df8008bb8f,656019d2b3b58299df4cb086,0,38,38,26,1,twoone,,,,,,,,,,,,,,,,,,,,,,,,,,,,,,,,,,,,,,,,,,,,,,,,,,,,,,,,,,,,,,,,,,,,,,,,,,,,,,,,,,,,,
61365f766033bc62f92053dc,2023-11-23_22h35.13.957,kallum_motion_pilot,2023.1.2,Win32,39.88354006,61365f766033bc62f92053dc,656018846682f3df8008bb8f,656019d2b3b58299df4cb086,0,39,39,67,1,twofour,,,,,,,,,,,,,,,,,,,,,,,,,,,,,,,,,,,,,,,,,,,,,,,,,,,,,,,,,,,,,,,,,,,,,,,,,,,,,,,,,,,,,
61365f766033bc62f92053dc,2023-11-23_22h35.13.957,kallum_motion_pilot,2023.1.2,Win32,39.88354006,61365f766033bc62f92053dc,656018846682f3df8008bb8f,656019d2b3b58299df4cb086,0,40,40,159,1,eightseven,,,,,,,,,,,,,,,,,,,,,,,,,,,,,,,,,,,,,,,,,,,,,,,,,,,,,,,,,,,,,,,,,,,,,,,,,,,,,,,,,,,,,
61365f766033bc62f92053dc,2023-11-23_22h35.13.957,kallum_motion_pilot,2023.1.2,Win32,39.88354006,61365f766033bc62f92053dc,656018846682f3df8008bb8f,656019d2b3b58299df4cb086,0,41,41,130,1,sixfive,,,,,,,,,,,,,,,,,,,,,,,,,,,,,,,,,,,,,,,,,,,,,,,,,,,,,,,,,,,,,,,,,,,,,,,,,,,,,,,,,,,,,
61365f766033bc62f92053dc,2023-11-23_22h35.13.957,kallum_motion_pilot,2023.1.2,Win32,39.88354006,61365f766033bc62f92053dc,656018846682f3df8008bb8f,656019d2b3b58299df4cb086,0,42,42,84,1,sevenfive,,,,,,,,,,,,,,,,,,,,,,,,,,,,,,,,,,,,,,,,,,,,,,,,,,,,,,,,,,,,,,,,,,,,,,,,,,,,,,,,,,,,,
61365f766033bc62f92053dc,2023-11-23_22h35.13.957,kallum_motion_pilot,2023.1.2,Win32,39.88354006,61365f766033bc62f92053dc,656018846682f3df8008bb8f,656019d2b3b58299df4cb086,0,43,43,35,1,twofour,,,,,,,,,,,,,,,,,,,,,,,,,,,,,,,,,,,,,,,,,,,,,,,,,,,,,,,,,,,,,,,,,,,,,,,,,,,,,,,,,,,,,
61365f766033bc62f92053dc,2023-11-23_22h35.13.957,kallum_motion_pilot,2023.1.2,Win32,39.88354006,61365f766033bc62f92053dc,656018846682f3df8008bb8f,656019d2b3b58299df4cb086,0,44,44,6,1,fourtwo,,,,,,,,,,,,,,,,,,,,,,,,,,,,,,,,,,,,,,,,,,,,,,,,,,,,,,,,,,,,,,,,,,,,,,,,,,,,,,,,,,,,,
61365f766033bc62f92053dc,2023-11-23_22h35.13.957,kallum_motion_pilot,2023.1.2,Win32,39.88354006,61365f766033bc62f92053dc,656018846682f3df8008bb8f,656019d2b3b58299df4cb086,0,45,45,88,1,fivesix,,,,,,,,,,,,,,,,,,,,,,,,,,,,,,,,,,,,,,,,,,,,,,,,,,,,,,,,,,,,,,,,,,,,,,,,,,,,,,,,,,,,,
61365f766033bc62f92053dc,2023-11-23_22h35.13.957,kallum_motion_pilot,2023.1.2,Win32,39.88354006,61365f766033bc62f92053dc,656018846682f3df8008bb8f,656019d2b3b58299df4cb086,0,46,46,45,1,threefour,,,,,,,,,,,,,,,,,,,,,,,,,,,,,,,,,,,,,,,,,,,,,,,,,,,,,,,,,,,,,,,,,,,,,,,,,,,,,,,,,,,,,
61365f766033bc62f92053dc,2023-11-23_22h35.13.957,kallum_motion_pilot,2023.1.2,Win32,39.88354006,61365f766033bc62f92053dc,656018846682f3df8008bb8f,656019d2b3b58299df4cb086,0,47,47,19,1,twofour,,,,,,,,,,,,,,,,,,,,,,,,,,,,,,,,,,,,,,,,,,,,,,,,,,,,,,,,,,,,,,,,,,,,,,,,,,,,,,,,,,,,,
61365f766033bc62f92053dc,2023-11-23_22h35.13.957,kallum_motion_pilot,2023.1.2,Win32,39.88354006,61365f766033bc62f92053dc,656018846682f3df8008bb8f,656019d2b3b58299df4cb086,0,48,48,118,1,eightsix,,,,,,,,,,,,,,,,,,,,,,,,,,,,,,,,,,,,,,,,,,,,,,,,,,,,,,,,,,,,,,,,,,,,,,,,,,,,,,,,,,,,,
61365f766033bc62f92053dc,2023-11-23_22h35.13.957,kallum_motion_pilot,2023.1.2,Win32,39.88354006,61365f766033bc62f92053dc,656018846682f3df8008bb8f,656019d2b3b58299df4cb086,0,49,49,50,1,twoone,,,,,,,,,,,,,,,,,,,,,,,,,,,,,,,,,,,,,,,,,,,,,,,,,,,,,,,,,,,,,,,,,,,,,,,,,,,,,,,,,,,,,
61365f766033bc62f92053dc,2023-11-23_22h35.13.957,kallum_motion_pilot,2023.1.2,Win32,39.88354006,61365f766033bc62f92053dc,656018846682f3df8008bb8f,656019d2b3b58299df4cb086,0,50,50,137,1,fiveseven,,,,,,,,,,,,,,,,,,,,,,,,,,,,,,,,,,,,,,,,,,,,,,,,,,,,,,,,,,,,,,,,,,,,,,,,,,,,,,,,,,,,,
61365f766033bc62f92053dc,2023-11-23_22h35.13.957,kallum_motion_pilot,2023.1.2,Win32,39.88354006,61365f766033bc62f92053dc,656018846682f3df8008bb8f,656019d2b3b58299df4cb086,0,51,51,89,1,fiveseven,,,,,,,,,,,,,,,,,,,,,,,,,,,,,,,,,,,,,,,,,,,,,,,,,,,,,,,,,,,,,,,,,,,,,,,,,,,,,,,,,,,,,
61365f766033bc62f92053dc,2023-11-23_22h35.13.957,kallum_motion_pilot,2023.1.2,Win32,39.88354006,61365f766033bc62f92053dc,656018846682f3df8008bb8f,656019d2b3b58299df4cb086,0,52,52,150,1,eightsix,,,,,,,,,,,,,,,,,,,,,,,,,,,,,,,,,,,,,,,,,,,,,,,,,,,,,,,,,,,,,,,,,,,,,,,,,,,,,,,,,,,,,
61365f766033bc62f92053dc,2023-11-23_22h35.13.957,kallum_motion_pilot,2023.1.2,Win32,39.88354006,61365f766033bc62f92053dc,656018846682f3df8008bb8f,656019d2b3b58299df4cb086,0,53,53,112,1,fivesix,,,,,,,,,,,,,,,,,,,,,,,,,,,,,,,,,,,,,,,,,,,,,,,,,,,,,,,,,,,,,,,,,,,,,,,,,,,,,,,,,,,,,
61365f766033bc62f92053dc,2023-11-23_22h35.13.957,kallum_motion_pilot,2023.1.2,Win32,39.88354006,61365f766033bc62f92053dc,656018846682f3df8008bb8f,656019d2b3b58299df4cb086,0,54,54,33,1,onethree,,,,,,,,,,,,,,,,,,,,,,,,,,,,,,,,,,,,,,,,,,,,,,,,,,,,,,,,,,,,,,,,,,,,,,,,,,,,,,,,,,,,,
61365f766033bc62f92053dc,2023-11-23_22h35.13.957,kallum_motion_pilot,2023.1.2,Win32,39.88354006,61365f766033bc62f92053dc,656018846682f3df8008bb8f,656019d2b3b58299df4cb086,0,55,55,9,1,onethree,,,,,,,,,,,,,,,,,,,,,,,,,,,,,,,,,,,,,,,,,,,,,,,,,,,,,,,,,,,,,,,,,,,,,,,,,,,,,,,,,,,,,
61365f766033bc62f92053dc,2023-11-23_22h35.13.957,kallum_motion_pilot,2023.1.2,Win32,39.88354006,61365f766033bc62f92053dc,656018846682f3df8008bb8f,656019d2b3b58299df4cb086,0,56,56,61,1,threefour,,,,,,,,,,,,,,,,,,,,,,,,,,,,,,,,,,,,,,,,,,,,,,,,,,,,,,,,,,,,,,,,,,,,,,,,,,,,,,,,,,,,,
61365f766033bc62f92053dc,2023-11-23_22h35.13.957,kallum_motion_pilot,2023.1.2,Win32,39.88354006,61365f766033bc62f92053dc,656018846682f3df8008bb8f,656019d2b3b58299df4cb086,0,57,57,83,1,sixeight,,,,,,,,,,,,,,,,,,,,,,,,,,,,,,,,,,,,,,,,,,,,,,,,,,,,,,,,,,,,,,,,,,,,,,,,,,,,,,,,,,,,,
61365f766033bc62f92053dc,2023-11-23_22h35.13.957,kallum_motion_pilot,2023.1.2,Win32,39.88354006,61365f766033bc62f92053dc,656018846682f3df8008bb8f,656019d2b3b58299df4cb086,0,58,58,98,1,sixfive,,,,,,,,,,,,,,,,,,,,,,,,,,,,,,,,,,,,,,,,,,,,,,,,,,,,,,,,,,,,,,,,,,,,,,,,,,,,,,,,,,,,,
61365f766033bc62f92053dc,2023-11-23_22h35.13.957,kallum_motion_pilot,2023.1.2,Win32,39.88354006,61365f766033bc62f92053dc,656018846682f3df8008bb8f,656019d2b3b58299df4cb086,0,59,59,103,1,eightseven,,,,,,,,,,,,,,,,,,,,,,,,,,,,,,,,,,,,,,,,,,,,,,,,,,,,,,,,,,,,,,,,,,,,,,,,,,,,,,,,,,,,,
61365f766033bc62f92053dc,2023-11-23_22h35.13.957,kallum_motion_pilot,2023.1.2,Win32,39.88354006,61365f766033bc62f92053dc,656018846682f3df8008bb8f,656019d2b3b58299df4cb086,0,60,60,90,1,sixfive,,,,,,,,,,,,,,,,,,,,,,,,,,,,,,,,,,,,,,,,,,,,,,,,,,,,,,,,,,,,,,,,,,,,,,,,,,,,,,,,,,,,,
61365f766033bc62f92053dc,2023-11-23_22h35.13.957,kallum_motion_pilot,2023.1.2,Win32,39.88354006,61365f766033bc62f92053dc,656018846682f3df8008bb8f,656019d2b3b58299df4cb086,0,61,61,138,1,sixfive,,,,,,,,,,,,,,,,,,,,,,,,,,,,,,,,,,,,,,,,,,,,,,,,,,,,,,,,,,,,,,,,,,,,,,,,,,,,,,,,,,,,,
61365f766033bc62f92053dc,2023-11-23_22h35.13.957,kallum_motion_pilot,2023.1.2,Win32,39.88354006,61365f766033bc62f92053dc,656018846682f3df8008bb8f,656019d2b3b58299df4cb086,0,62,62,152,1,fivesix,,,,,,,,,,,,,,,,,,,,,,,,,,,,,,,,,,,,,,,,,,,,,,,,,,,,,,,,,,,,,,,,,,,,,,,,,,,,,,,,,,,,,
61365f766033bc62f92053dc,2023-11-23_22h35.13.957,kallum_motion_pilot,2023.1.2,Win32,39.88354006,61365f766033bc62f92053dc,656018846682f3df8008bb8f,656019d2b3b58299df4cb086,0,63,63,40,1,onetwo,,,,,,,,,,,,,,,,,,,,,,,,,,,,,,,,,,,,,,,,,,,,,,,,,,,,,,,,,,,,,,,,,,,,,,,,,,,,,,,,,,,,,
61365f766033bc62f92053dc,2023-11-23_22h35.13.957,kallum_motion_pilot,2023.1.2,Win32,39.88354006,61365f766033bc62f92053dc,656018846682f3df8008bb8f,656019d2b3b58299df4cb086,0,64,64,81,1,fiveseven,,,,,,,,,,,,,,,,,,,,,,,,,,,,,,,,,,,,,,,,,,,,,,,,,,,,,,,,,,,,,,,,,,,,,,,,,,,,,,,,,,,,,
61365f766033bc62f92053dc,2023-11-23_22h35.13.957,kallum_motion_pilot,2023.1.2,Win32,39.88354006,61365f766033bc62f92053dc,656018846682f3df8008bb8f,656019d2b3b58299df4cb086,0,65,65,29,1,threefour,,,,,,,,,,,,,,,,,,,,,,,,,,,,,,,,,,,,,,,,,,,,,,,,,,,,,,,,,,,,,,,,,,,,,,,,,,,,,,,,,,,,,
61365f766033bc62f92053dc,2023-11-23_22h35.13.957,kallum_motion_pilot,2023.1.2,Win32,39.88354006,61365f766033bc62f92053dc,656018846682f3df8008bb8f,656019d2b3b58299df4cb086,0,66,66,92,1,sevenfive,,,,,,,,,,,,,,,,,,,,,,,,,,,,,,,,,,,,,,,,,,,,,,,,,,,,,,,,,,,,,,,,,,,,,,,,,,,,,,,,,,,,,
61365f766033bc62f92053dc,2023-11-23_22h35.13.957,kallum_motion_pilot,2023.1.2,Win32,39.88354006,61365f766033bc62f92053dc,656018846682f3df8008bb8f,656019d2b3b58299df4cb086,0,67,67,70,1,fourtwo,,,,,,,,,,,,,,,,,,,,,,,,,,,,,,,,,,,,,,,,,,,,,,,,,,,,,,,,,,,,,,,,,,,,,,,,,,,,,,,,,,,,,
61365f766033bc62f92053dc,2023-11-23_22h35.13.957,kallum_motion_pilot,2023.1.2,Win32,39.88354006,61365f766033bc62f92053dc,656018846682f3df8008bb8f,656019d2b3b58299df4cb086,0,68,68,149,1,seveneight,,,,,,,,,,,,,,,,,,,,,,,,,,,,,,,,,,,,,,,,,,,,,,,,,,,,,,,,,,,,,,,,,,,,,,,,,,,,,,,,,,,,,
61365f766033bc62f92053dc,2023-11-23_22h35.13.957,kallum_motion_pilot,2023.1.2,Win32,39.88354006,61365f766033bc62f92053dc,656018846682f3df8008bb8f,656019d2b3b58299df4cb086,0,69,69,102,1,eightsix,,,,,,,,,,,,,,,,,,,,,,,,,,,,,,,,,,,,,,,,,,,,,,,,,,,,,,,,,,,,,,,,,,,,,,,,,,,,,,,,,,,,,
61365f766033bc62f92053dc,2023-11-23_22h35.13.957,kallum_motion_pilot,2023.1.2,Win32,39.88354006,61365f766033bc62f92053dc,656018846682f3df8008bb8f,656019d2b3b58299df4cb086,0,70,70,158,1,eightsix,,,,,,,,,,,,,,,,,,,,,,,,,,,,,,,,,,,,,,,,,,,,,,,,,,,,,,,,,,,,,,,,,,,,,,,,,,,,,,,,,,,,,
61365f766033bc62f92053dc,2023-11-23_22h35.13.957,kallum_motion_pilot,2023.1.2,Win32,39.88354006,61365f766033bc62f92053dc,656018846682f3df8008bb8f,656019d2b3b58299df4cb086,0,71,71,85,1,seveneight,,,,,,,,,,,,,,,,,,,,,,,,,,,,,,,,,,,,,,,,,,,,,,,,,,,,,,,,,,,,,,,,,,,,,,,,,,,,,,,,,,,,,
61365f766033bc62f92053dc,2023-11-23_22h35.13.957,kallum_motion_pilot,2023.1.2,Win32,39.88354006,61365f766033bc62f92053dc,656018846682f3df8008bb8f,656019d2b3b58299df4cb086,0,72,72,8,1,onetwo,,,,,,,,,,,,,,,,,,,,,,,,,,,,,,,,,,,,,,,,,,,,,,,,,,,,,,,,,,,,,,,,,,,,,,,,,,,,,,,,,,,,,
61365f766033bc62f92053dc,2023-11-23_22h35.13.957,kallum_motion_pilot,2023.1.2,Win32,39.88354006,61365f766033bc62f92053dc,656018846682f3df8008bb8f,656019d2b3b58299df4cb086,0,73,73,18,1,twoone,,,,,,,,,,,,,,,,,,,,,,,,,,,,,,,,,,,,,,,,,,,,,,,,,,,,,,,,,,,,,,,,,,,,,,,,,,,,,,,,,,,,,
61365f766033bc62f92053dc,2023-11-23_22h35.13.957,kallum_motion_pilot,2023.1.2,Win32,39.88354006,61365f766033bc62f92053dc,656018846682f3df8008bb8f,656019d2b3b58299df4cb086,0,74,74,12,1,threeone,,,,,,,,,,,,,,,,,,,,,,,,,,,,,,,,,,,,,,,,,,,,,,,,,,,,,,,,,,,,,,,,,,,,,,,,,,,,,,,,,,,,,
61365f766033bc62f92053dc,2023-11-23_22h35.13.957,kallum_motion_pilot,2023.1.2,Win32,39.88354006,61365f766033bc62f92053dc,656018846682f3df8008bb8f,656019d2b3b58299df4cb086,0,75,75,55,1,fourthree,,,,,,,,,,,,,,,,,,,,,,,,,,,,,,,,,,,,,,,,,,,,,,,,,,,,,,,,,,,,,,,,,,,,,,,,,,,,,,,,,,,,,
61365f766033bc62f92053dc,2023-11-23_22h35.13.957,kallum_motion_pilot,2023.1.2,Win32,39.88354006,61365f766033bc62f92053dc,656018846682f3df8008bb8f,656019d2b3b58299df4cb086,0,76,76,124,1,sevenfive,,,,,,,,,,,,,,,,,,,,,,,,,,,,,,,,,,,,,,,,,,,,,,,,,,,,,,,,,,,,,,,,,,,,,,,,,,,,,,,,,,,,,
61365f766033bc62f92053dc,2023-11-23_22h35.13.957,kallum_motion_pilot,2023.1.2,Win32,39.88354006,61365f766033bc62f92053dc,656018846682f3df8008bb8f,656019d2b3b58299df4cb086,0,77,77,128,1,fivesix,,,,,,,,,,,,,,,,,,,,,,,,,,,,,,,,,,,,,,,,,,,,,,,,,,,,,,,,,,,,,,,,,,,,,,,,,,,,,,,,,,,,,
61365f766033bc62f92053dc,2023-11-23_22h35.13.957,kallum_motion_pilot,2023.1.2,Win32,39.88354006,61365f766033bc62f92053dc,656018846682f3df8008bb8f,656019d2b3b58299df4cb086,0,78,78,75,1,twofour,,,,,,,,,,,,,,,,,,,,,,,,,,,,,,,,,,,,,,,,,,,,,,,,,,,,,,,,,,,,,,,,,,,,,,,,,,,,,,,,,,,,,
61365f766033bc62f92053dc,2023-11-23_22h35.13.957,kallum_motion_pilot,2023.1.2,Win32,39.88354006,61365f766033bc62f92053dc,656018846682f3df8008bb8f,656019d2b3b58299df4cb086,0,79,79,86,1,eightsix,,,,,,,,,,,,,,,,,,,,,,,,,,,,,,,,,,,,,,,,,,,,,,,,,,,,,,,,,,,,,,,,,,,,,,,,,,,,,,,,,,,,,
61365f766033bc62f92053dc,2023-11-23_22h35.13.957,kallum_motion_pilot,2023.1.2,Win32,39.88354006,61365f766033bc62f92053dc,656018846682f3df8008bb8f,656019d2b3b58299df4cb086,0,80,80,156,1,sevenfive,,,,,,,,,,,,,,,,,,,,,,,,,,,,,,,,,,,,,,,,,,,,,,,,,,,,,,,,,,,,,,,,,,,,,,,,,,,,,,,,,,,,,
61365f766033bc62f92053dc,2023-11-23_22h35.13.957,kallum_motion_pilot,2023.1.2,Win32,39.88354006,61365f766033bc62f92053dc,656018846682f3df8008bb8f,656019d2b3b58299df4cb086,0,81,81,144,1,fivesix,,,,,,,,,,,,,,,,,,,,,,,,,,,,,,,,,,,,,,,,,,,,,,,,,,,,,,,,,,,,,,,,,,,,,,,,,,,,,,,,,,,,,
61365f766033bc62f92053dc,2023-11-23_22h35.13.957,kallum_motion_pilot,2023.1.2,Win32,39.88354006,61365f766033bc62f92053dc,656018846682f3df8008bb8f,656019d2b3b58299df4cb086,0,82,82,95,1,eightseven,,,,,,,,,,,,,,,,,,,,,,,,,,,,,,,,,,,,,,,,,,,,,,,,,,,,,,,,,,,,,,,,,,,,,,,,,,,,,,,,,,,,,
61365f766033bc62f92053dc,2023-11-23_22h35.13.957,kallum_motion_pilot,2023.1.2,Win32,39.88354006,61365f766033bc62f92053dc,656018846682f3df8008bb8f,656019d2b3b58299df4cb086,0,83,83,96,1,fivesix,,,,,,,,,,,,,,,,,,,,,,,,,,,,,,,,,,,,,,,,,,,,,,,,,,,,,,,,,,,,,,,,,,,,,,,,,,,,,,,,,,,,,
61365f766033bc62f92053dc,2023-11-23_22h35.13.957,kallum_motion_pilot,2023.1.2,Win32,39.88354006,61365f766033bc62f92053dc,656018846682f3df8008bb8f,656019d2b3b58299df4cb086,0,84,84,151,1,eightseven,,,,,,,,,,,,,,,,,,,,,,,,,,,,,,,,,,,,,,,,,,,,,,,,,,,,,,,,,,,,,,,,,,,,,,,,,,,,,,,,,,,,,
61365f766033bc62f92053dc,2023-11-23_22h35.13.957,kallum_motion_pilot,2023.1.2,Win32,39.88354006,61365f766033bc62f92053dc,656018846682f3df8008bb8f,656019d2b3b58299df4cb086,0,85,85,1,1,onethree,,,,,,,,,,,,,,,,,,,,,,,,,,,,,,,,,,,,,,,,,,,,,,,,,,,,,,,,,,,,,,,,,,,,,,,,,,,,,,,,,,,,,
61365f766033bc62f92053dc,2023-11-23_22h35.13.957,kallum_motion_pilot,2023.1.2,Win32,39.88354006,61365f766033bc62f92053dc,656018846682f3df8008bb8f,656019d2b3b58299df4cb086,0,86,86,64,1,onetwo,,,,,,,,,,,,,,,,,,,,,,,,,,,,,,,,,,,,,,,,,,,,,,,,,,,,,,,,,,,,,,,,,,,,,,,,,,,,,,,,,,,,,
61365f766033bc62f92053dc,2023-11-23_22h35.13.957,kallum_motion_pilot,2023.1.2,Win32,39.88354006,61365f766033bc62f92053dc,656018846682f3df8008bb8f,656019d2b3b58299df4cb086,0,87,87,154,1,sixfive,,,,,,,,,,,,,,,,,,,,,,,,,,,,,,,,,,,,,,,,,,,,,,,,,,,,,,,,,,,,,,,,,,,,,,,,,,,,,,,,,,,,,
61365f766033bc62f92053dc,2023-11-23_22h35.13.957,kallum_motion_pilot,2023.1.2,Win32,39.88354006,61365f766033bc62f92053dc,656018846682f3df8008bb8f,656019d2b3b58299df4cb086,0,88,88,119,1,eightseven,,,,,,,,,,,,,,,,,,,,,,,,,,,,,,,,,,,,,,,,,,,,,,,,,,,,,,,,,,,,,,,,,,,,,,,,,,,,,,,,,,,,,
61365f766033bc62f92053dc,2023-11-23_22h35.13.957,kallum_motion_pilot,2023.1.2,Win32,39.88354006,61365f766033bc62f92053dc,656018846682f3df8008bb8f,656019d2b3b58299df4cb086,0,89,89,73,1,onethree,,,,,,,,,,,,,,,,,,,,,,,,,,,,,,,,,,,,,,,,,,,,,,,,,,,,,,,,,,,,,,,,,,,,,,,,,,,,,,,,,,,,,
61365f766033bc62f92053dc,2023-11-23_22h35.13.957,kallum_motion_pilot,2023.1.2,Win32,39.88354006,61365f766033bc62f92053dc,656018846682f3df8008bb8f,656019d2b3b58299df4cb086,0,90,90,109,1,seveneight,,,,,,,,,,,,,,,,,,,,,,,,,,,,,,,,,,,,,,,,,,,,,,,,,,,,,,,,,,,,,,,,,,,,,,,,,,,,,,,,,,,,,
61365f766033bc62f92053dc,2023-11-23_22h35.13.957,kallum_motion_pilot,2023.1.2,Win32,39.88354006,61365f766033bc62f92053dc,656018846682f3df8008bb8f,656019d2b3b58299df4cb086,0,91,91,57,1,onethree,,,,,,,,,,,,,,,,,,,,,,,,,,,,,,,,,,,,,,,,,,,,,,,,,,,,,,,,,,,,,,,,,,,,,,,,,,,,,,,,,,,,,
61365f766033bc62f92053dc,2023-11-23_22h35.13.957,kallum_motion_pilot,2023.1.2,Win32,39.88354006,61365f766033bc62f92053dc,656018846682f3df8008bb8f,656019d2b3b58299df4cb086,0,92,92,69,1,threefour,,,,,,,,,,,,,,,,,,,,,,,,,,,,,,,,,,,,,,,,,,,,,,,,,,,,,,,,,,,,,,,,,,,,,,,,,,,,,,,,,,,,,
61365f766033bc62f92053dc,2023-11-23_22h35.13.957,kallum_motion_pilot,2023.1.2,Win32,39.88354006,61365f766033bc62f92053dc,656018846682f3df8008bb8f,656019d2b3b58299df4cb086,0,93,93,115,1,sixeight,,,,,,,,,,,,,,,,,,,,,,,,,,,,,,,,,,,,,,,,,,,,,,,,,,,,,,,,,,,,,,,,,,,,,,,,,,,,,,,,,,,,,
61365f766033bc62f92053dc,2023-11-23_22h35.13.957,kallum_motion_pilot,2023.1.2,Win32,39.88354006,61365f766033bc62f92053dc,656018846682f3df8008bb8f,656019d2b3b58299df4cb086,0,94,94,78,1,fourtwo,,,,,,,,,,,,,,,,,,,,,,,,,,,,,,,,,,,,,,,,,,,,,,,,,,,,,,,,,,,,,,,,,,,,,,,,,,,,,,,,,,,,,
61365f766033bc62f92053dc,2023-11-23_22h35.13.957,kallum_motion_pilot,2023.1.2,Win32,39.88354006,61365f766033bc62f92053dc,656018846682f3df8008bb8f,656019d2b3b58299df4cb086,0,95,95,79,1,eightseven,,,,,,,,,,,,,,,,,,,,,,,,,,,,,,,,,,,,,,,,,,,,,,,,,,,,,,,,,,,,,,,,,,,,,,,,,,,,,,,,,,,,,
61365f766033bc62f92053dc,2023-11-23_22h35.13.957,kallum_motion_pilot,2023.1.2,Win32,39.88354006,61365f766033bc62f92053dc,656018846682f3df8008bb8f,656019d2b3b58299df4cb086,0,96,96,127,1,eightseven,,,,,,,,,,,,,,,,,,,,,,,,,,,,,,,,,,,,,,,,,,,,,,,,,,,,,,,,,,,,,,,,,,,,,,,,,,,,,,,,,,,,,
61365f766033bc62f92053dc,2023-11-23_22h35.13.957,kallum_motion_pilot,2023.1.2,Win32,39.88354006,61365f766033bc62f92053dc,656018846682f3df8008bb8f,656019d2b3b58299df4cb086,0,97,97,25,1,onethree,,,,,,,,,,,,,,,,,,,,,,,,,,,,,,,,,,,,,,,,,,,,,,,,,,,,,,,,,,,,,,,,,,,,,,,,,,,,,,,,,,,,,
61365f766033bc62f92053dc,2023-11-23_22h35.13.957,kallum_motion_pilot,2023.1.2,Win32,39.88354006,61365f766033bc62f92053dc,656018846682f3df8008bb8f,656019d2b3b58299df4cb086,0,98,98,22,1,fourtwo,,,,,,,,,,,,,,,,,,,,,,,,,,,,,,,,,,,,,,,,,,,,,,,,,,,,,,,,,,,,,,,,,,,,,,,,,,,,,,,,,,,,,
61365f766033bc62f92053dc,2023-11-23_22h35.13.957,kallum_motion_pilot,2023.1.2,Win32,39.88354006,61365f766033bc62f92053dc,656018846682f3df8008bb8f,656019d2b3b58299df4cb086,0,99,99,125,1,seveneight,,,,,,,,,,,,,,,,,,,,,,,,,,,,,,,,,,,,,,,,,,,,,,,,,,,,,,,,,,,,,,,,,,,,,,,,,,,,,,,,,,,,,
61365f766033bc62f92053dc,2023-11-23_22h35.13.957,kallum_motion_pilot,2023.1.2,Win32,39.88354006,61365f766033bc62f92053dc,656018846682f3df8008bb8f,656019d2b3b58299df4cb086,0,100,100,146,1,sixfive,,,,,,,,,,,,,,,,,,,,,,,,,,,,,,,,,,,,,,,,,,,,,,,,,,,,,,,,,,,,,,,,,,,,,,,,,,,,,,,,,,,,,
61365f766033bc62f92053dc,2023-11-23_22h35.13.957,kallum_motion_pilot,2023.1.2,Win32,39.88354006,61365f766033bc62f92053dc,656018846682f3df8008bb8f,656019d2b3b58299df4cb086,0,101,101,54,1,fourtwo,,,,,,,,,,,,,,,,,,,,,,,,,,,,,,,,,,,,,,,,,,,,,,,,,,,,,,,,,,,,,,,,,,,,,,,,,,,,,,,,,,,,,
61365f766033bc62f92053dc,2023-11-23_22h35.13.957,kallum_motion_pilot,2023.1.2,Win32,39.88354006,61365f766033bc62f92053dc,656018846682f3df8008bb8f,656019d2b3b58299df4cb086,0,102,102,113,1,fiveseven,,,,,,,,,,,,,,,,,,,,,,,,,,,,,,,,,,,,,,,,,,,,,,,,,,,,,,,,,,,,,,,,,,,,,,,,,,,,,,,,,,,,,
61365f766033bc62f92053dc,2023-11-23_22h35.13.957,kallum_motion_pilot,2023.1.2,Win32,39.88354006,61365f766033bc62f92053dc,656018846682f3df8008bb8f,656019d2b3b58299df4cb086,0,103,103,41,1,onethree,,,,,,,,,,,,,,,,,,,,,,,,,,,,,,,,,,,,,,,,,,,,,,,,,,,,,,,,,,,,,,,,,,,,,,,,,,,,,,,,,,,,,
61365f766033bc62f92053dc,2023-11-23_22h35.13.957,kallum_motion_pilot,2023.1.2,Win32,39.88354006,61365f766033bc62f92053dc,656018846682f3df8008bb8f,656019d2b3b58299df4cb086,0,104,104,49,1,onethree,,,,,,,,,,,,,,,,,,,,,,,,,,,,,,,,,,,,,,,,,,,,,,,,,,,,,,,,,,,,,,,,,,,,,,,,,,,,,,,,,,,,,
61365f766033bc62f92053dc,2023-11-23_22h35.13.957,kallum_motion_pilot,2023.1.2,Win32,39.88354006,61365f766033bc62f92053dc,656018846682f3df8008bb8f,656019d2b3b58299df4cb086,0,105,105,97,1,fiveseven,,,,,,,,,,,,,,,,,,,,,,,,,,,,,,,,,,,,,,,,,,,,,,,,,,,,,,,,,,,,,,,,,,,,,,,,,,,,,,,,,,,,,
61365f766033bc62f92053dc,2023-11-23_22h35.13.957,kallum_motion_pilot,2023.1.2,Win32,39.88354006,61365f766033bc62f92053dc,656018846682f3df8008bb8f,656019d2b3b58299df4cb086,0,106,106,58,1,twoone,,,,,,,,,,,,,,,,,,,,,,,,,,,,,,,,,,,,,,,,,,,,,,,,,,,,,,,,,,,,,,,,,,,,,,,,,,,,,,,,,,,,,
61365f766033bc62f92053dc,2023-11-23_22h35.13.957,kallum_motion_pilot,2023.1.2,Win32,39.88354006,61365f766033bc62f92053dc,656018846682f3df8008bb8f,656019d2b3b58299df4cb086,0,107,107,142,1,eightsix,,,,,,,,,,,,,,,,,,,,,,,,,,,,,,,,,,,,,,,,,,,,,,,,,,,,,,,,,,,,,,,,,,,,,,,,,,,,,,,,,,,,,
61365f766033bc62f92053dc,2023-11-23_22h35.13.957,kallum_motion_pilot,2023.1.2,Win32,39.88354006,61365f766033bc62f92053dc,656018846682f3df8008bb8f,656019d2b3b58299df4cb086,0,108,108,117,1,seveneight,,,,,,,,,,,,,,,,,,,,,,,,,,,,,,,,,,,,,,,,,,,,,,,,,,,,,,,,,,,,,,,,,,,,,,,,,,,,,,,,,,,,,
61365f766033bc62f92053dc,2023-11-23_22h35.13.957,kallum_motion_pilot,2023.1.2,Win32,39.88354006,61365f766033bc62f92053dc,656018846682f3df8008bb8f,656019d2b3b58299df4cb086,0,109,109,62,1,fourtwo,,,,,,,,,,,,,,,,,,,,,,,,,,,,,,,,,,,,,,,,,,,,,,,,,,,,,,,,,,,,,,,,,,,,,,,,,,,,,,,,,,,,,
61365f766033bc62f92053dc,2023-11-23_22h35.13.957,kallum_motion_pilot,2023.1.2,Win32,39.88354006,61365f766033bc62f92053dc,656018846682f3df8008bb8f,656019d2b3b58299df4cb086,0,110,110,106,1,sixfive,,,,,,,,,,,,,,,,,,,,,,,,,,,,,,,,,,,,,,,,,,,,,,,,,,,,,,,,,,,,,,,,,,,,,,,,,,,,,,,,,,,,,
61365f766033bc62f92053dc,2023-11-23_22h35.13.957,kallum_motion_pilot,2023.1.2,Win32,39.88354006,61365f766033bc62f92053dc,656018846682f3df8008bb8f,656019d2b3b58299df4cb086,0,111,111,13,1,threefour,,,,,,,,,,,,,,,,,,,,,,,,,,,,,,,,,,,,,,,,,,,,,,,,,,,,,,,,,,,,,,,,,,,,,,,,,,,,,,,,,,,,,
61365f766033bc62f92053dc,2023-11-23_22h35.13.957,kallum_motion_pilot,2023.1.2,Win32,39.88354006,61365f766033bc62f92053dc,656018846682f3df8008bb8f,656019d2b3b58299df4cb086,0,112,112,46,1,fourtwo,,,,,,,,,,,,,,,,,,,,,,,,,,,,,,,,,,,,,,,,,,,,,,,,,,,,,,,,,,,,,,,,,,,,,,,,,,,,,,,,,,,,,
61365f766033bc62f92053dc,2023-11-23_22h35.13.957,kallum_motion_pilot,2023.1.2,Win32,39.88354006,61365f766033bc62f92053dc,656018846682f3df8008bb8f,656019d2b3b58299df4cb086,0,113,113,31,1,fourthree,,,,,,,,,,,,,,,,,,,,,,,,,,,,,,,,,,,,,,,,,,,,,,,,,,,,,,,,,,,,,,,,,,,,,,,,,,,,,,,,,,,,,
61365f766033bc62f92053dc,2023-11-23_22h35.13.957,kallum_motion_pilot,2023.1.2,Win32,39.88354006,61365f766033bc62f92053dc,656018846682f3df8008bb8f,656019d2b3b58299df4cb086,0,114,114,147,1,sixeight,,,,,,,,,,,,,,,,,,,,,,,,,,,,,,,,,,,,,,,,,,,,,,,,,,,,,,,,,,,,,,,,,,,,,,,,,,,,,,,,,,,,,
61365f766033bc62f92053dc,2023-11-23_22h35.13.957,kallum_motion_pilot,2023.1.2,Win32,39.88354006,61365f766033bc62f92053dc,656018846682f3df8008bb8f,656019d2b3b58299df4cb086,0,115,115,63,1,fourthree,,,,,,,,,,,,,,,,,,,,,,,,,,,,,,,,,,,,,,,,,,,,,,,,,,,,,,,,,,,,,,,,,,,,,,,,,,,,,,,,,,,,,
61365f766033bc62f92053dc,2023-11-23_22h35.13.957,kallum_motion_pilot,2023.1.2,Win32,39.88354006,61365f766033bc62f92053dc,656018846682f3df8008bb8f,656019d2b3b58299df4cb086,0,116,116,134,1,eightsix,,,,,,,,,,,,,,,,,,,,,,,,,,,,,,,,,,,,,,,,,,,,,,,,,,,,,,,,,,,,,,,,,,,,,,,,,,,,,,,,,,,,,
61365f766033bc62f92053dc,2023-11-23_22h35.13.957,kallum_motion_pilot,2023.1.2,Win32,39.88354006,61365f766033bc62f92053dc,656018846682f3df8008bb8f,656019d2b3b58299df4cb086,0,117,117,56,1,onetwo,,,,,,,,,,,,,,,,,,,,,,,,,,,,,,,,,,,,,,,,,,,,,,,,,,,,,,,,,,,,,,,,,,,,,,,,,,,,,,,,,,,,,
61365f766033bc62f92053dc,2023-11-23_22h35.13.957,kallum_motion_pilot,2023.1.2,Win32,39.88354006,61365f766033bc62f92053dc,656018846682f3df8008bb8f,656019d2b3b58299df4cb086,0,118,118,28,1,threeone,,,,,,,,,,,,,,,,,,,,,,,,,,,,,,,,,,,,,,,,,,,,,,,,,,,,,,,,,,,,,,,,,,,,,,,,,,,,,,,,,,,,,
61365f766033bc62f92053dc,2023-11-23_22h35.13.957,kallum_motion_pilot,2023.1.2,Win32,39.88354006,61365f766033bc62f92053dc,656018846682f3df8008bb8f,656019d2b3b58299df4cb086,0,119,119,47,1,fourthree,,,,,,,,,,,,,,,,,,,,,,,,,,,,,,,,,,,,,,,,,,,,,,,,,,,,,,,,,,,,,,,,,,,,,,,,,,,,,,,,,,,,,
61365f766033bc62f92053dc,2023-11-23_22h35.13.957,kallum_motion_pilot,2023.1.2,Win32,39.88354006,61365f766033bc62f92053dc,656018846682f3df8008bb8f,656019d2b3b58299df4cb086,0,120,120,135,1,eightseven,,,,,,,,,,,,,,,,,,,,,,,,,,,,,,,,,,,,,,,,,,,,,,,,,,,,,,,,,,,,,,,,,,,,,,,,,,,,,,,,,,,,,
61365f766033bc62f92053dc,2023-11-23_22h35.13.957,kallum_motion_pilot,2023.1.2,Win32,39.88354006,61365f766033bc62f92053dc,656018846682f3df8008bb8f,656019d2b3b58299df4cb086,0,121,121,108,1,sevenfive,,,,,,,,,,,,,,,,,,,,,,,,,,,,,,,,,,,,,,,,,,,,,,,,,,,,,,,,,,,,,,,,,,,,,,,,,,,,,,,,,,,,,
61365f766033bc62f92053dc,2023-11-23_22h35.13.957,kallum_motion_pilot,2023.1.2,Win32,39.88354006,61365f766033bc62f92053dc,656018846682f3df8008bb8f,656019d2b3b58299df4cb086,0,122,122,51,1,twofour,,,,,,,,,,,,,,,,,,,,,,,,,,,,,,,,,,,,,,,,,,,,,,,,,,,,,,,,,,,,,,,,,,,,,,,,,,,,,,,,,,,,,
61365f766033bc62f92053dc,2023-11-23_22h35.13.957,kallum_motion_pilot,2023.1.2,Win32,39.88354006,61365f766033bc62f92053dc,656018846682f3df8008bb8f,656019d2b3b58299df4cb086,0,123,123,59,1,twofour,,,,,,,,,,,,,,,,,,,,,,,,,,,,,,,,,,,,,,,,,,,,,,,,,,,,,,,,,,,,,,,,,,,,,,,,,,,,,,,,,,,,,
61365f766033bc62f92053dc,2023-11-23_22h35.13.957,kallum_motion_pilot,2023.1.2,Win32,39.88354006,61365f766033bc62f92053dc,656018846682f3df8008bb8f,656019d2b3b58299df4cb086,0,124,124,32,1,onetwo,,,,,,,,,,,,,,,,,,,,,,,,,,,,,,,,,,,,,,,,,,,,,,,,,,,,,,,,,,,,,,,,,,,,,,,,,,,,,,,,,,,,,
61365f766033bc62f92053dc,2023-11-23_22h35.13.957,kallum_motion_pilot,2023.1.2,Win32,39.88354006,61365f766033bc62f92053dc,656018846682f3df8008bb8f,656019d2b3b58299df4cb086,0,125,125,87,1,eightseven,,,,,,,,,,,,,,,,,,,,,,,,,,,,,,,,,,,,,,,,,,,,,,,,,,,,,,,,,,,,,,,,,,,,,,,,,,,,,,,,,,,,,
61365f766033bc62f92053dc,2023-11-23_22h35.13.957,kallum_motion_pilot,2023.1.2,Win32,39.88354006,61365f766033bc62f92053dc,656018846682f3df8008bb8f,656019d2b3b58299df4cb086,0,126,126,30,1,fourtwo,,,,,,,,,,,,,,,,,,,,,,,,,,,,,,,,,,,,,,,,,,,,,,,,,,,,,,,,,,,,,,,,,,,,,,,,,,,,,,,,,,,,,
61365f766033bc62f92053dc,2023-11-23_22h35.13.957,kallum_motion_pilot,2023.1.2,Win32,39.88354006,61365f766033bc62f92053dc,656018846682f3df8008bb8f,656019d2b3b58299df4cb086,0,127,127,121,1,fiveseven,,,,,,,,,,,,,,,,,,,,,,,,,,,,,,,,,,,,,,,,,,,,,,,,,,,,,,,,,,,,,,,,,,,,,,,,,,,,,,,,,,,,,
61365f766033bc62f92053dc,2023-11-23_22h35.13.957,kallum_motion_pilot,2023.1.2,Win32,39.88354006,61365f766033bc62f92053dc,656018846682f3df8008bb8f,656019d2b3b58299df4cb086,0,128,128,107,1,sixeight,,,,,,,,,,,,,,,,,,,,,,,,,,,,,,,,,,,,,,,,,,,,,,,,,,,,,,,,,,,,,,,,,,,,,,,,,,,,,,,,,,,,,
61365f766033bc62f92053dc,2023-11-23_22h35.13.957,kallum_motion_pilot,2023.1.2,Win32,39.88354006,61365f766033bc62f92053dc,656018846682f3df8008bb8f,656019d2b3b58299df4cb086,0,129,129,42,1,twoone,,,,,,,,,,,,,,,,,,,,,,,,,,,,,,,,,,,,,,,,,,,,,,,,,,,,,,,,,,,,,,,,,,,,,,,,,,,,,,,,,,,,,
61365f766033bc62f92053dc,2023-11-23_22h35.13.957,kallum_motion_pilot,2023.1.2,Win32,39.88354006,61365f766033bc62f92053dc,656018846682f3df8008bb8f,656019d2b3b58299df4cb086,0,130,130,91,1,sixeight,,,,,,,,,,,,,,,,,,,,,,,,,,,,,,,,,,,,,,,,,,,,,,,,,,,,,,,,,,,,,,,,,,,,,,,,,,,,,,,,,,,,,
61365f766033bc62f92053dc,2023-11-23_22h35.13.957,kallum_motion_pilot,2023.1.2,Win32,39.88354006,61365f766033bc62f92053dc,656018846682f3df8008bb8f,656019d2b3b58299df4cb086,0,131,131,60,1,threeone,,,,,,,,,,,,,,,,,,,,,,,,,,,,,,,,,,,,,,,,,,,,,,,,,,,,,,,,,,,,,,,,,,,,,,,,,,,,,,,,,,,,,
61365f766033bc62f92053dc,2023-11-23_22h35.13.957,kallum_motion_pilot,2023.1.2,Win32,39.88354006,61365f766033bc62f92053dc,656018846682f3df8008bb8f,656019d2b3b58299df4cb086,0,132,132,105,1,fiveseven,,,,,,,,,,,,,,,,,,,,,,,,,,,,,,,,,,,,,,,,,,,,,,,,,,,,,,,,,,,,,,,,,,,,,,,,,,,,,,,,,,,,,
61365f766033bc62f92053dc,2023-11-23_22h35.13.957,kallum_motion_pilot,2023.1.2,Win32,39.88354006,61365f766033bc62f92053dc,656018846682f3df8008bb8f,656019d2b3b58299df4cb086,0,133,133,111,1,eightseven,,,,,,,,,,,,,,,,,,,,,,,,,,,,,,,,,,,,,,,,,,,,,,,,,,,,,,,,,,,,,,,,,,,,,,,,,,,,,,,,,,,,,
61365f766033bc62f92053dc,2023-11-23_22h35.13.957,kallum_motion_pilot,2023.1.2,Win32,39.88354006,61365f766033bc62f92053dc,656018846682f3df8008bb8f,656019d2b3b58299df4cb086,0,134,134,68,1,threeone,,,,,,,,,,,,,,,,,,,,,,,,,,,,,,,,,,,,,,,,,,,,,,,,,,,,,,,,,,,,,,,,,,,,,,,,,,,,,,,,,,,,,
61365f766033bc62f92053dc,2023-11-23_22h35.13.957,kallum_motion_pilot,2023.1.2,Win32,39.88354006,61365f766033bc62f92053dc,656018846682f3df8008bb8f,656019d2b3b58299df4cb086,0,135,135,48,1,onetwo,,,,,,,,,,,,,,,,,,,,,,,,,,,,,,,,,,,,,,,,,,,,,,,,,,,,,,,,,,,,,,,,,,,,,,,,,,,,,,,,,,,,,
61365f766033bc62f92053dc,2023-11-23_22h35.13.957,kallum_motion_pilot,2023.1.2,Win32,39.88354006,61365f766033bc62f92053dc,656018846682f3df8008bb8f,656019d2b3b58299df4cb086,0,136,136,3,1,twofour,,,,,,,,,,,,,,,,,,,,,,,,,,,,,,,,,,,,,,,,,,,,,,,,,,,,,,,,,,,,,,,,,,,,,,,,,,,,,,,,,,,,,
61365f766033bc62f92053dc,2023-11-23_22h35.13.957,kallum_motion_pilot,2023.1.2,Win32,39.88354006,61365f766033bc62f92053dc,656018846682f3df8008bb8f,656019d2b3b58299df4cb086,0,137,137,80,1,fivesix,,,,,,,,,,,,,,,,,,,,,,,,,,,,,,,,,,,,,,,,,,,,,,,,,,,,,,,,,,,,,,,,,,,,,,,,,,,,,,,,,,,,,
61365f766033bc62f92053dc,2023-11-23_22h35.13.957,kallum_motion_pilot,2023.1.2,Win32,39.88354006,61365f766033bc62f92053dc,656018846682f3df8008bb8f,656019d2b3b58299df4cb086,0,138,138,153,1,fiveseven,,,,,,,,,,,,,,,,,,,,,,,,,,,,,,,,,,,,,,,,,,,,,,,,,,,,,,,,,,,,,,,,,,,,,,,,,,,,,,,,,,,,,
61365f766033bc62f92053dc,2023-11-23_22h35.13.957,kallum_motion_pilot,2023.1.2,Win32,39.88354006,61365f766033bc62f92053dc,656018846682f3df8008bb8f,656019d2b3b58299df4cb086,0,139,139,24,1,onetwo,,,,,,,,,,,,,,,,,,,,,,,,,,,,,,,,,,,,,,,,,,,,,,,,,,,,,,,,,,,,,,,,,,,,,,,,,,,,,,,,,,,,,
61365f766033bc62f92053dc,2023-11-23_22h35.13.957,kallum_motion_pilot,2023.1.2,Win32,39.88354006,61365f766033bc62f92053dc,656018846682f3df8008bb8f,656019d2b3b58299df4cb086,0,140,140,27,1,twofour,,,,,,,,,,,,,,,,,,,,,,,,,,,,,,,,,,,,,,,,,,,,,,,,,,,,,,,,,,,,,,,,,,,,,,,,,,,,,,,,,,,,,
61365f766033bc62f92053dc,2023-11-23_22h35.13.957,kallum_motion_pilot,2023.1.2,Win32,39.88354006,61365f766033bc62f92053dc,656018846682f3df8008bb8f,656019d2b3b58299df4cb086,0,141,141,65,1,onethree,,,,,,,,,,,,,,,,,,,,,,,,,,,,,,,,,,,,,,,,,,,,,,,,,,,,,,,,,,,,,,,,,,,,,,,,,,,,,,,,,,,,,
61365f766033bc62f92053dc,2023-11-23_22h35.13.957,kallum_motion_pilot,2023.1.2,Win32,39.88354006,61365f766033bc62f92053dc,656018846682f3df8008bb8f,656019d2b3b58299df4cb086,0,142,142,37,1,threefour,,,,,,,,,,,,,,,,,,,,,,,,,,,,,,,,,,,,,,,,,,,,,,,,,,,,,,,,,,,,,,,,,,,,,,,,,,,,,,,,,,,,,
61365f766033bc62f92053dc,2023-11-23_22h35.13.957,kallum_motion_pilot,2023.1.2,Win32,39.88354006,61365f766033bc62f92053dc,656018846682f3df8008bb8f,656019d2b3b58299df4cb086,0,143,143,2,1,twoone,,,,,,,,,,,,,,,,,,,,,,,,,,,,,,,,,,,,,,,,,,,,,,,,,,,,,,,,,,,,,,,,,,,,,,,,,,,,,,,,,,,,,
61365f766033bc62f92053dc,2023-11-23_22h35.13.957,kallum_motion_pilot,2023.1.2,Win32,39.88354006,61365f766033bc62f92053dc,656018846682f3df8008bb8f,656019d2b3b58299df4cb086,0,144,144,148,1,sevenfive,,,,,,,,,,,,,,,,,,,,,,,,,,,,,,,,,,,,,,,,,,,,,,,,,,,,,,,,,,,,,,,,,,,,,,,,,,,,,,,,,,,,,
61365f766033bc62f92053dc,2023-11-23_22h35.13.957,kallum_motion_pilot,2023.1.2,Win32,39.88354006,61365f766033bc62f92053dc,656018846682f3df8008bb8f,656019d2b3b58299df4cb086,0,145,145,123,1,sixeight,,,,,,,,,,,,,,,,,,,,,,,,,,,,,,,,,,,,,,,,,,,,,,,,,,,,,,,,,,,,,,,,,,,,,,,,,,,,,,,,,,,,,
61365f766033bc62f92053dc,2023-11-23_22h35.13.957,kallum_motion_pilot,2023.1.2,Win32,39.88354006,61365f766033bc62f92053dc,656018846682f3df8008bb8f,656019d2b3b58299df4cb086,0,146,146,100,1,sevenfive,,,,,,,,,,,,,,,,,,,,,,,,,,,,,,,,,,,,,,,,,,,,,,,,,,,,,,,,,,,,,,,,,,,,,,,,,,,,,,,,,,,,,
61365f766033bc62f92053dc,2023-11-23_22h35.13.957,kallum_motion_pilot,2023.1.2,Win32,39.88354006,61365f766033bc62f92053dc,656018846682f3df8008bb8f,656019d2b3b58299df4cb086,0,147,147,161,1,fiveseven,,,,,,,,,,,,,,,,,,,,,,,,,,,,,,,,,,,,,,,,,,,,,,,,,,,,,,,,,,,,,,,,,,,,,,,,,,,,,,,,,,,,,
61365f766033bc62f92053dc,2023-11-23_22h35.13.957,kallum_motion_pilot,2023.1.2,Win32,39.88354006,61365f766033bc62f92053dc,656018846682f3df8008bb8f,656019d2b3b58299df4cb086,0,148,148,122,1,sixfive,,,,,,,,,,,,,,,,,,,,,,,,,,,,,,,,,,,,,,,,,,,,,,,,,,,,,,,,,,,,,,,,,,,,,,,,,,,,,,,,,,,,,
61365f766033bc62f92053dc,2023-11-23_22h35.13.957,kallum_motion_pilot,2023.1.2,Win32,39.88354006,61365f766033bc62f92053dc,656018846682f3df8008bb8f,656019d2b3b58299df4cb086,0,149,149,38,1,fourtwo,,,,,,,,,,,,,,,,,,,,,,,,,,,,,,,,,,,,,,,,,,,,,,,,,,,,,,,,,,,,,,,,,,,,,,,,,,,,,,,,,,,,,
61365f766033bc62f92053dc,2023-11-23_22h35.13.957,kallum_motion_pilot,2023.1.2,Win32,39.88354006,61365f766033bc62f92053dc,656018846682f3df8008bb8f,656019d2b3b58299df4cb086,0,150,150,14,1,fourtwo,,,,,,,,,,,,,,,,,,,,,,,,,,,,,,,,,,,,,,,,,,,,,,,,,,,,,,,,,,,,,,,,,,,,,,,,,,,,,,,,,,,,,
61365f766033bc62f92053dc,2023-11-23_22h35.13.957,kallum_motion_pilot,2023.1.2,Win32,39.88354006,61365f766033bc62f92053dc,656018846682f3df8008bb8f,656019d2b3b58299df4cb086,0,151,151,99,1,sixeight,,,,,,,,,,,,,,,,,,,,,,,,,,,,,,,,,,,,,,,,,,,,,,,,,,,,,,,,,,,,,,,,,,,,,,,,,,,,,,,,,,,,,
61365f766033bc62f92053dc,2023-11-23_22h35.13.957,kallum_motion_pilot,2023.1.2,Win32,39.88354006,61365f766033bc62f92053dc,656018846682f3df8008bb8f,656019d2b3b58299df4cb086,0,152,152,72,1,onetwo,,,,,,,,,,,,,,,,,,,,,,,,,,,,,,,,,,,,,,,,,,,,,,,,,,,,,,,,,,,,,,,,,,,,,,,,,,,,,,,,,,,,,
61365f766033bc62f92053dc,2023-11-23_22h35.13.957,kallum_motion_pilot,2023.1.2,Win32,39.88354006,61365f766033bc62f92053dc,656018846682f3df8008bb8f,656019d2b3b58299df4cb086,0,153,153,23,1,fourthree,,,,,,,,,,,,,,,,,,,,,,,,,,,,,,,,,,,,,,,,,,,,,,,,,,,,,,,,,,,,,,,,,,,,,,,,,,,,,,,,,,,,,
61365f766033bc62f92053dc,2023-11-23_22h35.13.957,kallum_motion_pilot,2023.1.2,Win32,39.88354006,61365f766033bc62f92053dc,656018846682f3df8008bb8f,656019d2b3b58299df4cb086,0,154,154,126,1,eightsix,,,,,,,,,,,,,,,,,,,,,,,,,,,,,,,,,,,,,,,,,,,,,,,,,,,,,,,,,,,,,,,,,,,,,,,,,,,,,,,,,,,,,
61365f766033bc62f92053dc,2023-11-23_22h35.13.957,kallum_motion_pilot,2023.1.2,Win32,39.88354006,61365f766033bc62f92053dc,656018846682f3df8008bb8f,656019d2b3b58299df4cb086,0,155,155,94,1,eightsix,,,,,,,,,,,,,,,,,,,,,,,,,,,,,,,,,,,,,,,,,,,,,,,,,,,,,,,,,,,,,,,,,,,,,,,,,,,,,,,,,,,,,
61365f766033bc62f92053dc,2023-11-23_22h35.13.957,kallum_motion_pilot,2023.1.2,Win32,39.88354006,61365f766033bc62f92053dc,656018846682f3df8008bb8f,656019d2b3b58299df4cb086,0,156,156,0,1,onetwo,,,,,,,,,,,,,,,,,,,,,,,,,,,,,,,,,,,,,,,,,,,,,,,,,,,,,,,,,,,,,,,,,,,,,,,,,,,,,,,,,,,,,
61365f766033bc62f92053dc,2023-11-23_22h35.13.957,kallum_motion_pilot,2023.1.2,Win32,39.88354006,61365f766033bc62f92053dc,656018846682f3df8008bb8f,656019d2b3b58299df4cb086,0,157,157,145,1,fiveseven,,,,,,,,,,,,,,,,,,,,,,,,,,,,,,,,,,,,,,,,,,,,,,,,,,,,,,,,,,,,,,,,,,,,,,,,,,,,,,,,,,,,,
61365f766033bc62f92053dc,2023-11-23_22h35.13.957,kallum_motion_pilot,2023.1.2,Win32,39.88354006,61365f766033bc62f92053dc,656018846682f3df8008bb8f,656019d2b3b58299df4cb086,0,158,158,133,1,seveneight,,,,,,,,,,,,,,,,,,,,,,,,,,,,,,,,,,,,,,,,,,,,,,,,,,,,,,,,,,,,,,,,,,,,,,,,,,,,,,,,,,,,,
61365f766033bc62f92053dc,2023-11-23_22h35.13.957,kallum_motion_pilot,2023.1.2,Win32,39.88354006,61365f766033bc62f92053dc,656018846682f3df8008bb8f,656019d2b3b58299df4cb086,0,159,159,116,1,sevenfive,,,,,,,,,,,,,,,,,,,,,,,,,,,,,,,,,,,,,,,,,,,,,,,,,,,,,,,,,,,,,,,,,,,,,,,,,,,,,,,,,,,,,
61365f766033bc62f92053dc,2023-11-23_22h35.13.957,kallum_motion_pilot,2023.1.2,Win32,39.88354006,61365f766033bc62f92053dc,656018846682f3df8008bb8f,656019d2b3b58299df4cb086,0,160,160,77,1,threefour,,,,,,,,,,,,,,,,,,,,,,,,,,,,,,,,,,,,,,,,,,,,,,,,,,,,,,,,,,,,,,,,,,,,,,,,,,,,,,,,,,,,,
61365f766033bc62f92053dc,2023-11-23_22h35.13.957,kallum_motion_pilot,2023.1.2,Win32,39.88354006,61365f766033bc62f92053dc,656018846682f3df8008bb8f,656019d2b3b58299df4cb086,0,161,161,71,1,fourthree,,,,,,,,,,,,,,,,,,,,,,,,,,,,,,,,,,,,,,,,,,,,,,,,,,,,,,,,,,,,,,,,,,,,,,,,,,,,,,,,,,,,,
61365f766033bc62f92053dc,2023-11-23_22h35.13.957,kallum_motion_pilot,2023.1.2,Win32,39.88354006,61365f766033bc62f92053dc,656018846682f3df8008bb8f,656019d2b3b58299df4cb086,1,0,162,112,1,fivesix,,,,,,,,,,,,,,,,,,,,,,,,,,,,,,,,,,,,,,,,,,,,,,,,,,,,,,,,,,,,,,,,,,,,,,,,,,,,,,,,,,,,,
61365f766033bc62f92053dc,2023-11-23_22h35.13.957,kallum_motion_pilot,2023.1.2,Win32,39.88354006,61365f766033bc62f92053dc,656018846682f3df8008bb8f,656019d2b3b58299df4cb086,1,1,163,13,1,threefour,,,,,,,,,,,,,,,,,,,,,,,,,,,,,,,,,,,,,,,,,,,,,,,,,,,,,,,,,,,,,,,,,,,,,,,,,,,,,,,,,,,,,
61365f766033bc62f92053dc,2023-11-23_22h35.13.957,kallum_motion_pilot,2023.1.2,Win32,39.88354006,61365f766033bc62f92053dc,656018846682f3df8008bb8f,656019d2b3b58299df4cb086,1,2,164,131,1,sixeight,,,,,,,,,,,,,,,,,,,,,,,,,,,,,,,,,,,,,,,,,,,,,,,,,,,,,,,,,,,,,,,,,,,,,,,,,,,,,,,,,,,,,
61365f766033bc62f92053dc,2023-11-23_22h35.13.957,kallum_motion_pilot,2023.1.2,Win32,39.88354006,61365f766033bc62f92053dc,656018846682f3df8008bb8f,656019d2b3b58299df4cb086,1,3,165,145,1,fiveseven,,,,,,,,,,,,,,,,,,,,,,,,,,,,,,,,,,,,,,,,,,,,,,,,,,,,,,,,,,,,,,,,,,,,,,,,,,,,,,,,,,,,,
61365f766033bc62f92053dc,2023-11-23_22h35.13.957,kallum_motion_pilot,2023.1.2,Win32,39.88354006,61365f766033bc62f92053dc,656018846682f3df8008bb8f,656019d2b3b58299df4cb086,1,4,166,8,1,onetwo,,,,,,,,,,,,,,,,,,,,,,,,,,,,,,,,,,,,,,,,,,,,,,,,,,,,,,,,,,,,,,,,,,,,,,,,,,,,,,,,,,,,,
61365f766033bc62f92053dc,2023-11-23_22h35.13.957,kallum_motion_pilot,2023.1.2,Win32,39.88354006,61365f766033bc62f92053dc,656018846682f3df8008bb8f,656019d2b3b58299df4cb086,1,5,167,2,1,twoone,,,,,,,,,,,,,,,,,,,,,,,,,,,,,,,,,,,,,,,,,,,,,,,,,,,,,,,,,,,,,,,,,,,,,,,,,,,,,,,,,,,,,
61365f766033bc62f92053dc,2023-11-23_22h35.13.957,kallum_motion_pilot,2023.1.2,Win32,39.88354006,61365f766033bc62f92053dc,656018846682f3df8008bb8f,656019d2b3b58299df4cb086,1,6,168,155,1,sixeight,,,,,,,,,,,,,,,,,,,,,,,,,,,,,,,,,,,,,,,,,,,,,,,,,,,,,,,,,,,,,,,,,,,,,,,,,,,,,,,,,,,,,
61365f766033bc62f92053dc,2023-11-23_22h35.13.957,kallum_motion_pilot,2023.1.2,Win32,39.88354006,61365f766033bc62f92053dc,656018846682f3df8008bb8f,656019d2b3b58299df4cb086,1,7,169,136,1,fivesix,,,,,,,,,,,,,,,,,,,,,,,,,,,,,,,,,,,,,,,,,,,,,,,,,,,,,,,,,,,,,,,,,,,,,,,,,,,,,,,,,,,,,
61365f766033bc62f92053dc,2023-11-23_22h35.13.957,kallum_motion_pilot,2023.1.2,Win32,39.88354006,61365f766033bc62f92053dc,656018846682f3df8008bb8f,656019d2b3b58299df4cb086,1,8,170,61,1,threefour,,,,,,,,,,,,,,,,,,,,,,,,,,,,,,,,,,,,,,,,,,,,,,,,,,,,,,,,,,,,,,,,,,,,,,,,,,,,,,,,,,,,,
61365f766033bc62f92053dc,2023-11-23_22h35.13.957,kallum_motion_pilot,2023.1.2,Win32,39.88354006,61365f766033bc62f92053dc,656018846682f3df8008bb8f,656019d2b3b58299df4cb086,1,9,171,119,1,eightseven,,,,,,,,,,,,,,,,,,,,,,,,,,,,,,,,,,,,,,,,,,,,,,,,,,,,,,,,,,,,,,,,,,,,,,,,,,,,,,,,,,,,,
61365f766033bc62f92053dc,2023-11-23_22h35.13.957,kallum_motion_pilot,2023.1.2,Win32,39.88354006,61365f766033bc62f92053dc,656018846682f3df8008bb8f,656019d2b3b58299df4cb086,1,10,172,63,1,fourthree,,,,,,,,,,,,,,,,,,,,,,,,,,,,,,,,,,,,,,,,,,,,,,,,,,,,,,,,,,,,,,,,,,,,,,,,,,,,,,,,,,,,,
61365f766033bc62f92053dc,2023-11-23_22h35.13.957,kallum_motion_pilot,2023.1.2,Win32,39.88354006,61365f766033bc62f92053dc,656018846682f3df8008bb8f,656019d2b3b58299df4cb086,1,11,173,29,1,threefour,,,,,,,,,,,,,,,,,,,,,,,,,,,,,,,,,,,,,,,,,,,,,,,,,,,,,,,,,,,,,,,,,,,,,,,,,,,,,,,,,,,,,
61365f766033bc62f92053dc,2023-11-23_22h35.13.957,kallum_motion_pilot,2023.1.2,Win32,39.88354006,61365f766033bc62f92053dc,656018846682f3df8008bb8f,656019d2b3b58299df4cb086,1,12,174,38,1,fourtwo,,,,,,,,,,,,,,,,,,,,,,,,,,,,,,,,,,,,,,,,,,,,,,,,,,,,,,,,,,,,,,,,,,,,,,,,,,,,,,,,,,,,,
61365f766033bc62f92053dc,2023-11-23_22h35.13.957,kallum_motion_pilot,2023.1.2,Win32,39.88354006,61365f766033bc62f92053dc,656018846682f3df8008bb8f,656019d2b3b58299df4cb086,1,13,175,50,1,twoone,,,,,,,,,,,,,,,,,,,,,,,,,,,,,,,,,,,,,,,,,,,,,,,,,,,,,,,,,,,,,,,,,,,,,,,,,,,,,,,,,,,,,
61365f766033bc62f92053dc,2023-11-23_22h35.13.957,kallum_motion_pilot,2023.1.2,Win32,39.88354006,61365f766033bc62f92053dc,656018846682f3df8008bb8f,656019d2b3b58299df4cb086,1,14,176,34,1,twoone,,,,,,,,,,,,,,,,,,,,,,,,,,,,,,,,,,,,,,,,,,,,,,,,,,,,,,,,,,,,,,,,,,,,,,,,,,,,,,,,,,,,,
61365f766033bc62f92053dc,2023-11-23_22h35.13.957,kallum_motion_pilot,2023.1.2,Win32,39.88354006,61365f766033bc62f92053dc,656018846682f3df8008bb8f,656019d2b3b58299df4cb086,1,15,177,144,1,fivesix,,,,,,,,,,,,,,,,,,,,,,,,,,,,,,,,,,,,,,,,,,,,,,,,,,,,,,,,,,,,,,,,,,,,,,,,,,,,,,,,,,,,,
61365f766033bc62f92053dc,2023-11-23_22h35.13.957,kallum_motion_pilot,2023.1.2,Win32,39.88354006,61365f766033bc62f92053dc,656018846682f3df8008bb8f,656019d2b3b58299df4cb086,1,16,178,127,1,eightseven,,,,,,,,,,,,,,,,,,,,,,,,,,,,,,,,,,,,,,,,,,,,,,,,,,,,,,,,,,,,,,,,,,,,,,,,,,,,,,,,,,,,,
61365f766033bc62f92053dc,2023-11-23_22h35.13.957,kallum_motion_pilot,2023.1.2,Win32,39.88354006,61365f766033bc62f92053dc,656018846682f3df8008bb8f,656019d2b3b58299df4cb086,1,17,179,23,1,fourthree,,,,,,,,,,,,,,,,,,,,,,,,,,,,,,,,,,,,,,,,,,,,,,,,,,,,,,,,,,,,,,,,,,,,,,,,,,,,,,,,,,,,,
61365f766033bc62f92053dc,2023-11-23_22h35.13.957,kallum_motion_pilot,2023.1.2,Win32,39.88354006,61365f766033bc62f92053dc,656018846682f3df8008bb8f,656019d2b3b58299df4cb086,1,18,180,80,1,fivesix,,,,,,,,,,,,,,,,,,,,,,,,,,,,,,,,,,,,,,,,,,,,,,,,,,,,,,,,,,,,,,,,,,,,,,,,,,,,,,,,,,,,,
61365f766033bc62f92053dc,2023-11-23_22h35.13.957,kallum_motion_pilot,2023.1.2,Win32,39.88354006,61365f766033bc62f92053dc,656018846682f3df8008bb8f,656019d2b3b58299df4cb086,1,19,181,83,1,sixeight,,,,,,,,,,,,,,,,,,,,,,,,,,,,,,,,,,,,,,,,,,,,,,,,,,,,,,,,,,,,,,,,,,,,,,,,,,,,,,,,,,,,,
61365f766033bc62f92053dc,2023-11-23_22h35.13.957,kallum_motion_pilot,2023.1.2,Win32,39.88354006,61365f766033bc62f92053dc,656018846682f3df8008bb8f,656019d2b3b58299df4cb086,1,20,182,140,1,sevenfive,,,,,,,,,,,,,,,,,,,,,,,,,,,,,,,,,,,,,,,,,,,,,,,,,,,,,,,,,,,,,,,,,,,,,,,,,,,,,,,,,,,,,
61365f766033bc62f92053dc,2023-11-23_22h35.13.957,kallum_motion_pilot,2023.1.2,Win32,39.88354006,61365f766033bc62f92053dc,656018846682f3df8008bb8f,656019d2b3b58299df4cb086,1,21,183,93,1,seveneight,,,,,,,,,,,,,,,,,,,,,,,,,,,,,,,,,,,,,,,,,,,,,,,,,,,,,,,,,,,,,,,,,,,,,,,,,,,,,,,,,,,,,
61365f766033bc62f92053dc,2023-11-23_22h35.13.957,kallum_motion_pilot,2023.1.2,Win32,39.88354006,61365f766033bc62f92053dc,656018846682f3df8008bb8f,656019d2b3b58299df4cb086,1,22,184,45,1,threefour,,,,,,,,,,,,,,,,,,,,,,,,,,,,,,,,,,,,,,,,,,,,,,,,,,,,,,,,,,,,,,,,,,,,,,,,,,,,,,,,,,,,,
61365f766033bc62f92053dc,2023-11-23_22h35.13.957,kallum_motion_pilot,2023.1.2,Win32,39.88354006,61365f766033bc62f92053dc,656018846682f3df8008bb8f,656019d2b3b58299df4cb086,1,23,185,121,1,fiveseven,,,,,,,,,,,,,,,,,,,,,,,,,,,,,,,,,,,,,,,,,,,,,,,,,,,,,,,,,,,,,,,,,,,,,,,,,,,,,,,,,,,,,
61365f766033bc62f92053dc,2023-11-23_22h35.13.957,kallum_motion_pilot,2023.1.2,Win32,39.88354006,61365f766033bc62f92053dc,656018846682f3df8008bb8f,656019d2b3b58299df4cb086,1,24,186,42,1,twoone,,,,,,,,,,,,,,,,,,,,,,,,,,,,,,,,,,,,,,,,,,,,,,,,,,,,,,,,,,,,,,,,,,,,,,,,,,,,,,,,,,,,,
61365f766033bc62f92053dc,2023-11-23_22h35.13.957,kallum_motion_pilot,2023.1.2,Win32,39.88354006,61365f766033bc62f92053dc,656018846682f3df8008bb8f,656019d2b3b58299df4cb086,1,25,187,156,1,sevenfive,,,,,,,,,,,,,,,,,,,,,,,,,,,,,,,,,,,,,,,,,,,,,,,,,,,,,,,,,,,,,,,,,,,,,,,,,,,,,,,,,,,,,
61365f766033bc62f92053dc,2023-11-23_22h35.13.957,kallum_motion_pilot,2023.1.2,Win32,39.88354006,61365f766033bc62f92053dc,656018846682f3df8008bb8f,656019d2b3b58299df4cb086,1,26,188,124,1,sevenfive,,,,,,,,,,,,,,,,,,,,,,,,,,,,,,,,,,,,,,,,,,,,,,,,,,,,,,,,,,,,,,,,,,,,,,,,,,,,,,,,,,,,,
61365f766033bc62f92053dc,2023-11-23_22h35.13.957,kallum_motion_pilot,2023.1.2,Win32,39.88354006,61365f766033bc62f92053dc,656018846682f3df8008bb8f,656019d2b3b58299df4cb086,1,27,189,81,1,fiveseven,,,,,,,,,,,,,,,,,,,,,,,,,,,,,,,,,,,,,,,,,,,,,,,,,,,,,,,,,,,,,,,,,,,,,,,,,,,,,,,,,,,,,
61365f766033bc62f92053dc,2023-11-23_22h35.13.957,kallum_motion_pilot,2023.1.2,Win32,39.88354006,61365f766033bc62f92053dc,656018846682f3df8008bb8f,656019d2b3b58299df4cb086,1,28,190,64,1,onetwo,,,,,,,,,,,,,,,,,,,,,,,,,,,,,,,,,,,,,,,,,,,,,,,,,,,,,,,,,,,,,,,,,,,,,,,,,,,,,,,,,,,,,
61365f766033bc62f92053dc,2023-11-23_22h35.13.957,kallum_motion_pilot,2023.1.2,Win32,39.88354006,61365f766033bc62f92053dc,656018846682f3df8008bb8f,656019d2b3b58299df4cb086,1,29,191,48,1,onetwo,,,,,,,,,,,,,,,,,,,,,,,,,,,,,,,,,,,,,,,,,,,,,,,,,,,,,,,,,,,,,,,,,,,,,,,,,,,,,,,,,,,,,
61365f766033bc62f92053dc,2023-11-23_22h35.13.957,kallum_motion_pilot,2023.1.2,Win32,39.88354006,61365f766033bc62f92053dc,656018846682f3df8008bb8f,656019d2b3b58299df4cb086,1,30,192,54,1,fourtwo,,,,,,,,,,,,,,,,,,,,,,,,,,,,,,,,,,,,,,,,,,,,,,,,,,,,,,,,,,,,,,,,,,,,,,,,,,,,,,,,,,,,,
61365f766033bc62f92053dc,2023-11-23_22h35.13.957,kallum_motion_pilot,2023.1.2,Win32,39.88354006,61365f766033bc62f92053dc,656018846682f3df8008bb8f,656019d2b3b58299df4cb086,1,31,193,134,1,eightsix,,,,,,,,,,,,,,,,,,,,,,,,,,,,,,,,,,,,,,,,,,,,,,,,,,,,,,,,,,,,,,,,,,,,,,,,,,,,,,,,,,,,,
61365f766033bc62f92053dc,2023-11-23_22h35.13.957,kallum_motion_pilot,2023.1.2,Win32,39.88354006,61365f766033bc62f92053dc,656018846682f3df8008bb8f,656019d2b3b58299df4cb086,1,32,194,73,1,onethree,,,,,,,,,,,,,,,,,,,,,,,,,,,,,,,,,,,,,,,,,,,,,,,,,,,,,,,,,,,,,,,,,,,,,,,,,,,,,,,,,,,,,
61365f766033bc62f92053dc,2023-11-23_22h35.13.957,kallum_motion_pilot,2023.1.2,Win32,39.88354006,61365f766033bc62f92053dc,656018846682f3df8008bb8f,656019d2b3b58299df4cb086,1,33,195,14,1,fourtwo,,,,,,,,,,,,,,,,,,,,,,,,,,,,,,,,,,,,,,,,,,,,,,,,,,,,,,,,,,,,,,,,,,,,,,,,,,,,,,,,,,,,,
61365f766033bc62f92053dc,2023-11-23_22h35.13.957,kallum_motion_pilot,2023.1.2,Win32,39.88354006,61365f766033bc62f92053dc,656018846682f3df8008bb8f,656019d2b3b58299df4cb086,1,34,196,5,1,threefour,,,,,,,,,,,,,,,,,,,,,,,,,,,,,,,,,,,,,,,,,,,,,,,,,,,,,,,,,,,,,,,,,,,,,,,,,,,,,,,,,,,,,
61365f766033bc62f92053dc,2023-11-23_22h35.13.957,kallum_motion_pilot,2023.1.2,Win32,39.88354006,61365f766033bc62f92053dc,656018846682f3df8008bb8f,656019d2b3b58299df4cb086,1,35,197,130,1,sixfive,,,,,,,,,,,,,,,,,,,,,,,,,,,,,,,,,,,,,,,,,,,,,,,,,,,,,,,,,,,,,,,,,,,,,,,,,,,,,,,,,,,,,
61365f766033bc62f92053dc,2023-11-23_22h35.13.957,kallum_motion_pilot,2023.1.2,Win32,39.88354006,61365f766033bc62f92053dc,656018846682f3df8008bb8f,656019d2b3b58299df4cb086,1,36,198,102,1,eightsix,,,,,,,,,,,,,,,,,,,,,,,,,,,,,,,,,,,,,,,,,,,,,,,,,,,,,,,,,,,,,,,,,,,,,,,,,,,,,,,,,,,,,
61365f766033bc62f92053dc,2023-11-23_22h35.13.957,kallum_motion_pilot,2023.1.2,Win32,39.88354006,61365f766033bc62f92053dc,656018846682f3df8008bb8f,656019d2b3b58299df4cb086,1,37,199,114,1,sixfive,,,,,,,,,,,,,,,,,,,,,,,,,,,,,,,,,,,,,,,,,,,,,,,,,,,,,,,,,,,,,,,,,,,,,,,,,,,,,,,,,,,,,
61365f766033bc62f92053dc,2023-11-23_22h35.13.957,kallum_motion_pilot,2023.1.2,Win32,39.88354006,61365f766033bc62f92053dc,656018846682f3df8008bb8f,656019d2b3b58299df4cb086,1,38,200,85,1,seveneight,,,,,,,,,,,,,,,,,,,,,,,,,,,,,,,,,,,,,,,,,,,,,,,,,,,,,,,,,,,,,,,,,,,,,,,,,,,,,,,,,,,,,
61365f766033bc62f92053dc,2023-11-23_22h35.13.957,kallum_motion_pilot,2023.1.2,Win32,39.88354006,61365f766033bc62f92053dc,656018846682f3df8008bb8f,656019d2b3b58299df4cb086,1,39,201,25,1,onethree,,,,,,,,,,,,,,,,,,,,,,,,,,,,,,,,,,,,,,,,,,,,,,,,,,,,,,,,,,,,,,,,,,,,,,,,,,,,,,,,,,,,,
61365f766033bc62f92053dc,2023-11-23_22h35.13.957,kallum_motion_pilot,2023.1.2,Win32,39.88354006,61365f766033bc62f92053dc,656018846682f3df8008bb8f,656019d2b3b58299df4cb086,1,40,202,47,1,fourthree,,,,,,,,,,,,,,,,,,,,,,,,,,,,,,,,,,,,,,,,,,,,,,,,,,,,,,,,,,,,,,,,,,,,,,,,,,,,,,,,,,,,,
61365f766033bc62f92053dc,2023-11-23_22h35.13.957,kallum_motion_pilot,2023.1.2,Win32,39.88354006,61365f766033bc62f92053dc,656018846682f3df8008bb8f,656019d2b3b58299df4cb086,1,41,203,67,1,twofour,,,,,,,,,,,,,,,,,,,,,,,,,,,,,,,,,,,,,,,,,,,,,,,,,,,,,,,,,,,,,,,,,,,,,,,,,,,,,,,,,,,,,
61365f766033bc62f92053dc,2023-11-23_22h35.13.957,kallum_motion_pilot,2023.1.2,Win32,39.88354006,61365f766033bc62f92053dc,656018846682f3df8008bb8f,656019d2b3b58299df4cb086,1,42,204,147,1,sixeight,,,,,,,,,,,,,,,,,,,,,,,,,,,,,,,,,,,,,,,,,,,,,,,,,,,,,,,,,,,,,,,,,,,,,,,,,,,,,,,,,,,,,
61365f766033bc62f92053dc,2023-11-23_22h35.13.957,kallum_motion_pilot,2023.1.2,Win32,39.88354006,61365f766033bc62f92053dc,656018846682f3df8008bb8f,656019d2b3b58299df4cb086,1,43,205,40,1,onetwo,,,,,,,,,,,,,,,,,,,,,,,,,,,,,,,,,,,,,,,,,,,,,,,,,,,,,,,,,,,,,,,,,,,,,,,,,,,,,,,,,,,,,
61365f766033bc62f92053dc,2023-11-23_22h35.13.957,kallum_motion_pilot,2023.1.2,Win32,39.88354006,61365f766033bc62f92053dc,656018846682f3df8008bb8f,656019d2b3b58299df4cb086,1,44,206,24,1,onetwo,,,,,,,,,,,,,,,,,,,,,,,,,,,,,,,,,,,,,,,,,,,,,,,,,,,,,,,,,,,,,,,,,,,,,,,,,,,,,,,,,,,,,
61365f766033bc62f92053dc,2023-11-23_22h35.13.957,kallum_motion_pilot,2023.1.2,Win32,39.88354006,61365f766033bc62f92053dc,656018846682f3df8008bb8f,656019d2b3b58299df4cb086,1,45,207,75,1,twofour,,,,,,,,,,,,,,,,,,,,,,,,,,,,,,,,,,,,,,,,,,,,,,,,,,,,,,,,,,,,,,,,,,,,,,,,,,,,,,,,,,,,,
61365f766033bc62f92053dc,2023-11-23_22h35.13.957,kallum_motion_pilot,2023.1.2,Win32,39.88354006,61365f766033bc62f92053dc,656018846682f3df8008bb8f,656019d2b3b58299df4cb086,1,46,208,86,1,eightsix,,,,,,,,,,,,,,,,,,,,,,,,,,,,,,,,,,,,,,,,,,,,,,,,,,,,,,,,,,,,,,,,,,,,,,,,,,,,,,,,,,,,,
61365f766033bc62f92053dc,2023-11-23_22h35.13.957,kallum_motion_pilot,2023.1.2,Win32,39.88354006,61365f766033bc62f92053dc,656018846682f3df8008bb8f,656019d2b3b58299df4cb086,1,47,209,10,1,twoone,,,,,,,,,,,,,,,,,,,,,,,,,,,,,,,,,,,,,,,,,,,,,,,,,,,,,,,,,,,,,,,,,,,,,,,,,,,,,,,,,,,,,
61365f766033bc62f92053dc,2023-11-23_22h35.13.957,kallum_motion_pilot,2023.1.2,Win32,39.88354006,61365f766033bc62f92053dc,656018846682f3df8008bb8f,656019d2b3b58299df4cb086,1,48,210,113,1,fiveseven,,,,,,,,,,,,,,,,,,,,,,,,,,,,,,,,,,,,,,,,,,,,,,,,,,,,,,,,,,,,,,,,,,,,,,,,,,,,,,,,,,,,,
61365f766033bc62f92053dc,2023-11-23_22h35.13.957,kallum_motion_pilot,2023.1.2,Win32,39.88354006,61365f766033bc62f92053dc,656018846682f3df8008bb8f,656019d2b3b58299df4cb086,1,49,211,39,1,fourthree,,,,,,,,,,,,,,,,,,,,,,,,,,,,,,,,,,,,,,,,,,,,,,,,,,,,,,,,,,,,,,,,,,,,,,,,,,,,,,,,,,,,,
61365f766033bc62f92053dc,2023-11-23_22h35.13.957,kallum_motion_pilot,2023.1.2,Win32,39.88354006,61365f766033bc62f92053dc,656018846682f3df8008bb8f,656019d2b3b58299df4cb086,1,50,212,68,1,threeone,,,,,,,,,,,,,,,,,,,,,,,,,,,,,,,,,,,,,,,,,,,,,,,,,,,,,,,,,,,,,,,,,,,,,,,,,,,,,,,,,,,,,
61365f766033bc62f92053dc,2023-11-23_22h35.13.957,kallum_motion_pilot,2023.1.2,Win32,39.88354006,61365f766033bc62f92053dc,656018846682f3df8008bb8f,656019d2b3b58299df4cb086,1,51,213,60,1,threeone,,,,,,,,,,,,,,,,,,,,,,,,,,,,,,,,,,,,,,,,,,,,,,,,,,,,,,,,,,,,,,,,,,,,,,,,,,,,,,,,,,,,,
61365f766033bc62f92053dc,2023-11-23_22h35.13.957,kallum_motion_pilot,2023.1.2,Win32,39.88354006,61365f766033bc62f92053dc,656018846682f3df8008bb8f,656019d2b3b58299df4cb086,1,52,214,158,1,eightsix,,,,,,,,,,,,,,,,,,,,,,,,,,,,,,,,,,,,,,,,,,,,,,,,,,,,,,,,,,,,,,,,,,,,,,,,,,,,,,,,,,,,,
61365f766033bc62f92053dc,2023-11-23_22h35.13.957,kallum_motion_pilot,2023.1.2,Win32,39.88354006,61365f766033bc62f92053dc,656018846682f3df8008bb8f,656019d2b3b58299df4cb086,1,53,215,91,1,sixeight,,,,,,,,,,,,,,,,,,,,,,,,,,,,,,,,,,,,,,,,,,,,,,,,,,,,,,,,,,,,,,,,,,,,,,,,,,,,,,,,,,,,,
61365f766033bc62f92053dc,2023-11-23_22h35.13.957,kallum_motion_pilot,2023.1.2,Win32,39.88354006,61365f766033bc62f92053dc,656018846682f3df8008bb8f,656019d2b3b58299df4cb086,1,54,216,88,1,fivesix,,,,,,,,,,,,,,,,,,,,,,,,,,,,,,,,,,,,,,,,,,,,,,,,,,,,,,,,,,,,,,,,,,,,,,,,,,,,,,,,,,,,,
61365f766033bc62f92053dc,2023-11-23_22h35.13.957,kallum_motion_pilot,2023.1.2,Win32,39.88354006,61365f766033bc62f92053dc,656018846682f3df8008bb8f,656019d2b3b58299df4cb086,1,55,217,161,1,fiveseven,,,,,,,,,,,,,,,,,,,,,,,,,,,,,,,,,,,,,,,,,,,,,,,,,,,,,,,,,,,,,,,,,,,,,,,,,,,,,,,,,,,,,
61365f766033bc62f92053dc,2023-11-23_22h35.13.957,kallum_motion_pilot,2023.1.2,Win32,39.88354006,61365f766033bc62f92053dc,656018846682f3df8008bb8f,656019d2b3b58299df4cb086,1,56,218,149,1,seveneight,,,,,,,,,,,,,,,,,,,,,,,,,,,,,,,,,,,,,,,,,,,,,,,,,,,,,,,,,,,,,,,,,,,,,,,,,,,,,,,,,,,,,
61365f766033bc62f92053dc,2023-11-23_22h35.13.957,kallum_motion_pilot,2023.1.2,Win32,39.88354006,61365f766033bc62f92053dc,656018846682f3df8008bb8f,656019d2b3b58299df4cb086,1,57,219,76,1,threeone,,,,,,,,,,,,,,,,,,,,,,,,,,,,,,,,,,,,,,,,,,,,,,,,,,,,,,,,,,,,,,,,,,,,,,,,,,,,,,,,,,,,,
61365f766033bc62f92053dc,2023-11-23_22h35.13.957,kallum_motion_pilot,2023.1.2,Win32,39.88354006,61365f766033bc62f92053dc,656018846682f3df8008bb8f,656019d2b3b58299df4cb086,1,58,220,154,1,sixfive,,,,,,,,,,,,,,,,,,,,,,,,,,,,,,,,,,,,,,,,,,,,,,,,,,,,,,,,,,,,,,,,,,,,,,,,,,,,,,,,,,,,,
61365f766033bc62f92053dc,2023-11-23_22h35.13.957,kallum_motion_pilot,2023.1.2,Win32,39.88354006,61365f766033bc62f92053dc,656018846682f3df8008bb8f,656019d2b3b58299df4cb086,1,59,221,82,1,sixfive,,,,,,,,,,,,,,,,,,,,,,,,,,,,,,,,,,,,,,,,,,,,,,,,,,,,,,,,,,,,,,,,,,,,,,,,,,,,,,,,,,,,,
61365f766033bc62f92053dc,2023-11-23_22h35.13.957,kallum_motion_pilot,2023.1.2,Win32,39.88354006,61365f766033bc62f92053dc,656018846682f3df8008bb8f,656019d2b3b58299df4cb086,1,60,222,108,1,sevenfive,,,,,,,,,,,,,,,,,,,,,,,,,,,,,,,,,,,,,,,,,,,,,,,,,,,,,,,,,,,,,,,,,,,,,,,,,,,,,,,,,,,,,
61365f766033bc62f92053dc,2023-11-23_22h35.13.957,kallum_motion_pilot,2023.1.2,Win32,39.88354006,61365f766033bc62f92053dc,656018846682f3df8008bb8f,656019d2b3b58299df4cb086,1,61,223,141,1,seveneight,,,,,,,,,,,,,,,,,,,,,,,,,,,,,,,,,,,,,,,,,,,,,,,,,,,,,,,,,,,,,,,,,,,,,,,,,,,,,,,,,,,,,
61365f766033bc62f92053dc,2023-11-23_22h35.13.957,kallum_motion_pilot,2023.1.2,Win32,39.88354006,61365f766033bc62f92053dc,656018846682f3df8008bb8f,656019d2b3b58299df4cb086,1,62,224,98,1,sixfive,,,,,,,,,,,,,,,,,,,,,,,,,,,,,,,,,,,,,,,,,,,,,,,,,,,,,,,,,,,,,,,,,,,,,,,,,,,,,,,,,,,,,
61365f766033bc62f92053dc,2023-11-23_22h35.13.957,kallum_motion_pilot,2023.1.2,Win32,39.88354006,61365f766033bc62f92053dc,656018846682f3df8008bb8f,656019d2b3b58299df4cb086,1,63,225,142,1,eightsix,,,,,,,,,,,,,,,,,,,,,,,,,,,,,,,,,,,,,,,,,,,,,,,,,,,,,,,,,,,,,,,,,,,,,,,,,,,,,,,,,,,,,
61365f766033bc62f92053dc,2023-11-23_22h35.13.957,kallum_motion_pilot,2023.1.2,Win32,39.88354006,61365f766033bc62f92053dc,656018846682f3df8008bb8f,656019d2b3b58299df4cb086,1,64,226,92,1,sevenfive,,,,,,,,,,,,,,,,,,,,,,,,,,,,,,,,,,,,,,,,,,,,,,,,,,,,,,,,,,,,,,,,,,,,,,,,,,,,,,,,,,,,,
61365f766033bc62f92053dc,2023-11-23_22h35.13.957,kallum_motion_pilot,2023.1.2,Win32,39.88354006,61365f766033bc62f92053dc,656018846682f3df8008bb8f,656019d2b3b58299df4cb086,1,65,227,53,1,threefour,,,,,,,,,,,,,,,,,,,,,,,,,,,,,,,,,,,,,,,,,,,,,,,,,,,,,,,,,,,,,,,,,,,,,,,,,,,,,,,,,,,,,
61365f766033bc62f92053dc,2023-11-23_22h35.13.957,kallum_motion_pilot,2023.1.2,Win32,39.88354006,61365f766033bc62f92053dc,656018846682f3df8008bb8f,656019d2b3b58299df4cb086,1,66,228,159,1,eightseven,,,,,,,,,,,,,,,,,,,,,,,,,,,,,,,,,,,,,,,,,,,,,,,,,,,,,,,,,,,,,,,,,,,,,,,,,,,,,,,,,,,,,
61365f766033bc62f92053dc,2023-11-23_22h35.13.957,kallum_motion_pilot,2023.1.2,Win32,39.88354006,61365f766033bc62f92053dc,656018846682f3df8008bb8f,656019d2b3b58299df4cb086,1,67,229,35,1,twofour,,,,,,,,,,,,,,,,,,,,,,,,,,,,,,,,,,,,,,,,,,,,,,,,,,,,,,,,,,,,,,,,,,,,,,,,,,,,,,,,,,,,,
61365f766033bc62f92053dc,2023-11-23_22h35.13.957,kallum_motion_pilot,2023.1.2,Win32,39.88354006,61365f766033bc62f92053dc,656018846682f3df8008bb8f,656019d2b3b58299df4cb086,1,68,230,69,1,threefour,,,,,,,,,,,,,,,,,,,,,,,,,,,,,,,,,,,,,,,,,,,,,,,,,,,,,,,,,,,,,,,,,,,,,,,,,,,,,,,,,,,,,
61365f766033bc62f92053dc,2023-11-23_22h35.13.957,kallum_motion_pilot,2023.1.2,Win32,39.88354006,61365f766033bc62f92053dc,656018846682f3df8008bb8f,656019d2b3b58299df4cb086,1,69,231,97,1,fiveseven,,,,,,,,,,,,,,,,,,,,,,,,,,,,,,,,,,,,,,,,,,,,,,,,,,,,,,,,,,,,,,,,,,,,,,,,,,,,,,,,,,,,,
61365f766033bc62f92053dc,2023-11-23_22h35.13.957,kallum_motion_pilot,2023.1.2,Win32,39.88354006,61365f766033bc62f92053dc,656018846682f3df8008bb8f,656019d2b3b58299df4cb086,1,70,232,65,1,onethree,,,,,,,,,,,,,,,,,,,,,,,,,,,,,,,,,,,,,,,,,,,,,,,,,,,,,,,,,,,,,,,,,,,,,,,,,,,,,,,,,,,,,
61365f766033bc62f92053dc,2023-11-23_22h35.13.957,kallum_motion_pilot,2023.1.2,Win32,39.88354006,61365f766033bc62f92053dc,656018846682f3df8008bb8f,656019d2b3b58299df4cb086,1,71,233,37,1,threefour,,,,,,,,,,,,,,,,,,,,,,,,,,,,,,,,,,,,,,,,,,,,,,,,,,,,,,,,,,,,,,,,,,,,,,,,,,,,,,,,,,,,,
61365f766033bc62f92053dc,2023-11-23_22h35.13.957,kallum_motion_pilot,2023.1.2,Win32,39.88354006,61365f766033bc62f92053dc,656018846682f3df8008bb8f,656019d2b3b58299df4cb086,1,72,234,6,1,fourtwo,,,,,,,,,,,,,,,,,,,,,,,,,,,,,,,,,,,,,,,,,,,,,,,,,,,,,,,,,,,,,,,,,,,,,,,,,,,,,,,,,,,,,
61365f766033bc62f92053dc,2023-11-23_22h35.13.957,kallum_motion_pilot,2023.1.2,Win32,39.88354006,61365f766033bc62f92053dc,656018846682f3df8008bb8f,656019d2b3b58299df4cb086,1,73,235,36,1,threeone,,,,,,,,,,,,,,,,,,,,,,,,,,,,,,,,,,,,,,,,,,,,,,,,,,,,,,,,,,,,,,,,,,,,,,,,,,,,,,,,,,,,,
61365f766033bc62f92053dc,2023-11-23_22h35.13.957,kallum_motion_pilot,2023.1.2,Win32,39.88354006,61365f766033bc62f92053dc,656018846682f3df8008bb8f,656019d2b3b58299df4cb086,1,74,236,4,1,threeone,,,,,,,,,,,,,,,,,,,,,,,,,,,,,,,,,,,,,,,,,,,,,,,,,,,,,,,,,,,,,,,,,,,,,,,,,,,,,,,,,,,,,
61365f766033bc62f92053dc,2023-11-23_22h35.13.957,kallum_motion_pilot,2023.1.2,Win32,39.88354006,61365f766033bc62f92053dc,656018846682f3df8008bb8f,656019d2b3b58299df4cb086,1,75,237,101,1,seveneight,,,,,,,,,,,,,,,,,,,,,,,,,,,,,,,,,,,,,,,,,,,,,,,,,,,,,,,,,,,,,,,,,,,,,,,,,,,,,,,,,,,,,
61365f766033bc62f92053dc,2023-11-23_22h35.13.957,kallum_motion_pilot,2023.1.2,Win32,39.88354006,61365f766033bc62f92053dc,656018846682f3df8008bb8f,656019d2b3b58299df4cb086,1,76,238,123,1,sixeight,,,,,,,,,,,,,,,,,,,,,,,,,,,,,,,,,,,,,,,,,,,,,,,,,,,,,,,,,,,,,,,,,,,,,,,,,,,,,,,,,,,,,
61365f766033bc62f92053dc,2023-11-23_22h35.13.957,kallum_motion_pilot,2023.1.2,Win32,39.88354006,61365f766033bc62f92053dc,656018846682f3df8008bb8f,656019d2b3b58299df4cb086,1,77,239,117,1,seveneight,,,,,,,,,,,,,,,,,,,,,,,,,,,,,,,,,,,,,,,,,,,,,,,,,,,,,,,,,,,,,,,,,,,,,,,,,,,,,,,,,,,,,
61365f766033bc62f92053dc,2023-11-23_22h35.13.957,kallum_motion_pilot,2023.1.2,Win32,39.88354006,61365f766033bc62f92053dc,656018846682f3df8008bb8f,656019d2b3b58299df4cb086,1,78,240,74,1,twoone,,,,,,,,,,,,,,,,,,,,,,,,,,,,,,,,,,,,,,,,,,,,,,,,,,,,,,,,,,,,,,,,,,,,,,,,,,,,,,,,,,,,,
61365f766033bc62f92053dc,2023-11-23_22h35.13.957,kallum_motion_pilot,2023.1.2,Win32,39.88354006,61365f766033bc62f92053dc,656018846682f3df8008bb8f,656019d2b3b58299df4cb086,1,79,241,52,1,threeone,,,,,,,,,,,,,,,,,,,,,,,,,,,,,,,,,,,,,,,,,,,,,,,,,,,,,,,,,,,,,,,,,,,,,,,,,,,,,,,,,,,,,
61365f766033bc62f92053dc,2023-11-23_22h35.13.957,kallum_motion_pilot,2023.1.2,Win32,39.88354006,61365f766033bc62f92053dc,656018846682f3df8008bb8f,656019d2b3b58299df4cb086,1,80,242,143,1,eightseven,,,,,,,,,,,,,,,,,,,,,,,,,,,,,,,,,,,,,,,,,,,,,,,,,,,,,,,,,,,,,,,,,,,,,,,,,,,,,,,,,,,,,
61365f766033bc62f92053dc,2023-11-23_22h35.13.957,kallum_motion_pilot,2023.1.2,Win32,39.88354006,61365f766033bc62f92053dc,656018846682f3df8008bb8f,656019d2b3b58299df4cb086,1,81,243,26,1,twoone,,,,,,,,,,,,,,,,,,,,,,,,,,,,,,,,,,,,,,,,,,,,,,,,,,,,,,,,,,,,,,,,,,,,,,,,,,,,,,,,,,,,,
61365f766033bc62f92053dc,2023-11-23_22h35.13.957,kallum_motion_pilot,2023.1.2,Win32,39.88354006,61365f766033bc62f92053dc,656018846682f3df8008bb8f,656019d2b3b58299df4cb086,1,82,244,28,1,threeone,,,,,,,,,,,,,,,,,,,,,,,,,,,,,,,,,,,,,,,,,,,,,,,,,,,,,,,,,,,,,,,,,,,,,,,,,,,,,,,,,,,,,
61365f766033bc62f92053dc,2023-11-23_22h35.13.957,kallum_motion_pilot,2023.1.2,Win32,39.88354006,61365f766033bc62f92053dc,656018846682f3df8008bb8f,656019d2b3b58299df4cb086,1,83,245,139,1,sixeight,,,,,,,,,,,,,,,,,,,,,,,,,,,,,,,,,,,,,,,,,,,,,,,,,,,,,,,,,,,,,,,,,,,,,,,,,,,,,,,,,,,,,
61365f766033bc62f92053dc,2023-11-23_22h35.13.957,kallum_motion_pilot,2023.1.2,Win32,39.88354006,61365f766033bc62f92053dc,656018846682f3df8008bb8f,656019d2b3b58299df4cb086,1,84,246,89,1,fiveseven,,,,,,,,,,,,,,,,,,,,,,,,,,,,,,,,,,,,,,,,,,,,,,,,,,,,,,,,,,,,,,,,,,,,,,,,,,,,,,,,,,,,,
61365f766033bc62f92053dc,2023-11-23_22h35.13.957,kallum_motion_pilot,2023.1.2,Win32,39.88354006,61365f766033bc62f92053dc,656018846682f3df8008bb8f,656019d2b3b58299df4cb086,1,85,247,150,1,eightsix,,,,,,,,,,,,,,,,,,,,,,,,,,,,,,,,,,,,,,,,,,,,,,,,,,,,,,,,,,,,,,,,,,,,,,,,,,,,,,,,,,,,,
61365f766033bc62f92053dc,2023-11-23_22h35.13.957,kallum_motion_pilot,2023.1.2,Win32,39.88354006,61365f766033bc62f92053dc,656018846682f3df8008bb8f,656019d2b3b58299df4cb086,1,86,248,103,1,eightseven,,,,,,,,,,,,,,,,,,,,,,,,,,,,,,,,,,,,,,,,,,,,,,,,,,,,,,,,,,,,,,,,,,,,,,,,,,,,,,,,,,,,,
61365f766033bc62f92053dc,2023-11-23_22h35.13.957,kallum_motion_pilot,2023.1.2,Win32,39.88354006,61365f766033bc62f92053dc,656018846682f3df8008bb8f,656019d2b3b58299df4cb086,1,87,249,17,1,onethree,,,,,,,,,,,,,,,,,,,,,,,,,,,,,,,,,,,,,,,,,,,,,,,,,,,,,,,,,,,,,,,,,,,,,,,,,,,,,,,,,,,,,
61365f766033bc62f92053dc,2023-11-23_22h35.13.957,kallum_motion_pilot,2023.1.2,Win32,39.88354006,61365f766033bc62f92053dc,656018846682f3df8008bb8f,656019d2b3b58299df4cb086,1,88,250,84,1,sevenfive,,,,,,,,,,,,,,,,,,,,,,,,,,,,,,,,,,,,,,,,,,,,,,,,,,,,,,,,,,,,,,,,,,,,,,,,,,,,,,,,,,,,,
61365f766033bc62f92053dc,2023-11-23_22h35.13.957,kallum_motion_pilot,2023.1.2,Win32,39.88354006,61365f766033bc62f92053dc,656018846682f3df8008bb8f,656019d2b3b58299df4cb086,1,89,251,128,1,fivesix,,,,,,,,,,,,,,,,,,,,,,,,,,,,,,,,,,,,,,,,,,,,,,,,,,,,,,,,,,,,,,,,,,,,,,,,,,,,,,,,,,,,,
61365f766033bc62f92053dc,2023-11-23_22h35.13.957,kallum_motion_pilot,2023.1.2,Win32,39.88354006,61365f766033bc62f92053dc,656018846682f3df8008bb8f,656019d2b3b58299df4cb086,1,90,252,94,1,eightsix,,,,,,,,,,,,,,,,,,,,,,,,,,,,,,,,,,,,,,,,,,,,,,,,,,,,,,,,,,,,,,,,,,,,,,,,,,,,,,,,,,,,,
61365f766033bc62f92053dc,2023-11-23_22h35.13.957,kallum_motion_pilot,2023.1.2,Win32,39.88354006,61365f766033bc62f92053dc,656018846682f3df8008bb8f,656019d2b3b58299df4cb086,1,91,253,146,1,sixfive,,,,,,,,,,,,,,,,,,,,,,,,,,,,,,,,,,,,,,,,,,,,,,,,,,,,,,,,,,,,,,,,,,,,,,,,,,,,,,,,,,,,,
61365f766033bc62f92053dc,2023-11-23_22h35.13.957,kallum_motion_pilot,2023.1.2,Win32,39.88354006,61365f766033bc62f92053dc,656018846682f3df8008bb8f,656019d2b3b58299df4cb086,1,92,254,57,1,onethree,,,,,,,,,,,,,,,,,,,,,,,,,,,,,,,,,,,,,,,,,,,,,,,,,,,,,,,,,,,,,,,,,,,,,,,,,,,,,,,,,,,,,
61365f766033bc62f92053dc,2023-11-23_22h35.13.957,kallum_motion_pilot,2023.1.2,Win32,39.88354006,61365f766033bc62f92053dc,656018846682f3df8008bb8f,656019d2b3b58299df4cb086,1,93,255,51,1,twofour,,,,,,,,,,,,,,,,,,,,,,,,,,,,,,,,,,,,,,,,,,,,,,,,,,,,,,,,,,,,,,,,,,,,,,,,,,,,,,,,,,,,,
61365f766033bc62f92053dc,2023-11-23_22h35.13.957,kallum_motion_pilot,2023.1.2,Win32,39.88354006,61365f766033bc62f92053dc,656018846682f3df8008bb8f,656019d2b3b58299df4cb086,1,94,256,100,1,sevenfive,,,,,,,,,,,,,,,,,,,,,,,,,,,,,,,,,,,,,,,,,,,,,,,,,,,,,,,,,,,,,,,,,,,,,,,,,,,,,,,,,,,,,
61365f766033bc62f92053dc,2023-11-23_22h35.13.957,kallum_motion_pilot,2023.1.2,Win32,39.88354006,61365f766033bc62f92053dc,656018846682f3df8008bb8f,656019d2b3b58299df4cb086,1,95,257,109,1,seveneight,,,,,,,,,,,,,,,,,,,,,,,,,,,,,,,,,,,,,,,,,,,,,,,,,,,,,,,,,,,,,,,,,,,,,,,,,,,,,,,,,,,,,
61365f766033bc62f92053dc,2023-11-23_22h35.13.957,kallum_motion_pilot,2023.1.2,Win32,39.88354006,61365f766033bc62f92053dc,656018846682f3df8008bb8f,656019d2b3b58299df4cb086,1,96,258,3,1,twofour,,,,,,,,,,,,,,,,,,,,,,,,,,,,,,,,,,,,,,,,,,,,,,,,,,,,,,,,,,,,,,,,,,,,,,,,,,,,,,,,,,,,,
61365f766033bc62f92053dc,2023-11-23_22h35.13.957,kallum_motion_pilot,2023.1.2,Win32,39.88354006,61365f766033bc62f92053dc,656018846682f3df8008bb8f,656019d2b3b58299df4cb086,1,97,259,79,1,eightseven,,,,,,,,,,,,,,,,,,,,,,,,,,,,,,,,,,,,,,,,,,,,,,,,,,,,,,,,,,,,,,,,,,,,,,,,,,,,,,,,,,,,,
61365f766033bc62f92053dc,2023-11-23_22h35.13.957,kallum_motion_pilot,2023.1.2,Win32,39.88354006,61365f766033bc62f92053dc,656018846682f3df8008bb8f,656019d2b3b58299df4cb086,1,98,260,18,1,twoone,,,,,,,,,,,,,,,,,,,,,,,,,,,,,,,,,,,,,,,,,,,,,,,,,,,,,,,,,,,,,,,,,,,,,,,,,,,,,,,,,,,,,
61365f766033bc62f92053dc,2023-11-23_22h35.13.957,kallum_motion_pilot,2023.1.2,Win32,39.88354006,61365f766033bc62f92053dc,656018846682f3df8008bb8f,656019d2b3b58299df4cb086,1,99,261,90,1,sixfive,,,,,,,,,,,,,,,,,,,,,,,,,,,,,,,,,,,,,,,,,,,,,,,,,,,,,,,,,,,,,,,,,,,,,,,,,,,,,,,,,,,,,
61365f766033bc62f92053dc,2023-11-23_22h35.13.957,kallum_motion_pilot,2023.1.2,Win32,39.88354006,61365f766033bc62f92053dc,656018846682f3df8008bb8f,656019d2b3b58299df4cb086,1,100,262,160,1,fivesix,,,,,,,,,,,,,,,,,,,,,,,,,,,,,,,,,,,,,,,,,,,,,,,,,,,,,,,,,,,,,,,,,,,,,,,,,,,,,,,,,,,,,
61365f766033bc62f92053dc,2023-11-23_22h35.13.957,kallum_motion_pilot,2023.1.2,Win32,39.88354006,61365f766033bc62f92053dc,656018846682f3df8008bb8f,656019d2b3b58299df4cb086,1,101,263,99,1,sixeight,,,,,,,,,,,,,,,,,,,,,,,,,,,,,,,,,,,,,,,,,,,,,,,,,,,,,,,,,,,,,,,,,,,,,,,,,,,,,,,,,,,,,
61365f766033bc62f92053dc,2023-11-23_22h35.13.957,kallum_motion_pilot,2023.1.2,Win32,39.88354006,61365f766033bc62f92053dc,656018846682f3df8008bb8f,656019d2b3b58299df4cb086,1,102,264,21,1,threefour,,,,,,,,,,,,,,,,,,,,,,,,,,,,,,,,,,,,,,,,,,,,,,,,,,,,,,,,,,,,,,,,,,,,,,,,,,,,,,,,,,,,,
61365f766033bc62f92053dc,2023-11-23_22h35.13.957,kallum_motion_pilot,2023.1.2,Win32,39.88354006,61365f766033bc62f92053dc,656018846682f3df8008bb8f,656019d2b3b58299df4cb086,1,103,265,77,1,threefour,,,,,,,,,,,,,,,,,,,,,,,,,,,,,,,,,,,,,,,,,,,,,,,,,,,,,,,,,,,,,,,,,,,,,,,,,,,,,,,,,,,,,
61365f766033bc62f92053dc,2023-11-23_22h35.13.957,kallum_motion_pilot,2023.1.2,Win32,39.88354006,61365f766033bc62f92053dc,656018846682f3df8008bb8f,656019d2b3b58299df4cb086,1,104,266,55,1,fourthree,,,,,,,,,,,,,,,,,,,,,,,,,,,,,,,,,,,,,,,,,,,,,,,,,,,,,,,,,,,,,,,,,,,,,,,,,,,,,,,,,,,,,
61365f766033bc62f92053dc,2023-11-23_22h35.13.957,kallum_motion_pilot,2023.1.2,Win32,39.88354006,61365f766033bc62f92053dc,656018846682f3df8008bb8f,656019d2b3b58299df4cb086,1,105,267,87,1,eightseven,,,,,,,,,,,,,,,,,,,,,,,,,,,,,,,,,,,,,,,,,,,,,,,,,,,,,,,,,,,,,,,,,,,,,,,,,,,,,,,,,,,,,
61365f766033bc62f92053dc,2023-11-23_22h35.13.957,kallum_motion_pilot,2023.1.2,Win32,39.88354006,61365f766033bc62f92053dc,656018846682f3df8008bb8f,656019d2b3b58299df4cb086,1,106,268,22,1,fourtwo,,,,,,,,,,,,,,,,,,,,,,,,,,,,,,,,,,,,,,,,,,,,,,,,,,,,,,,,,,,,,,,,,,,,,,,,,,,,,,,,,,,,,
61365f766033bc62f92053dc,2023-11-23_22h35.13.957,kallum_motion_pilot,2023.1.2,Win32,39.88354006,61365f766033bc62f92053dc,656018846682f3df8008bb8f,656019d2b3b58299df4cb086,1,107,269,31,1,fourthree,,,,,,,,,,,,,,,,,,,,,,,,,,,,,,,,,,,,,,,,,,,,,,,,,,,,,,,,,,,,,,,,,,,,,,,,,,,,,,,,,,,,,
61365f766033bc62f92053dc,2023-11-23_22h35.13.957,kallum_motion_pilot,2023.1.2,Win32,39.88354006,61365f766033bc62f92053dc,656018846682f3df8008bb8f,656019d2b3b58299df4cb086,1,108,270,0,1,onetwo,,,,,,,,,,,,,,,,,,,,,,,,,,,,,,,,,,,,,,,,,,,,,,,,,,,,,,,,,,,,,,,,,,,,,,,,,,,,,,,,,,,,,
61365f766033bc62f92053dc,2023-11-23_22h35.13.957,kallum_motion_pilot,2023.1.2,Win32,39.88354006,61365f766033bc62f92053dc,656018846682f3df8008bb8f,656019d2b3b58299df4cb086,1,109,271,132,1,sevenfive,,,,,,,,,,,,,,,,,,,,,,,,,,,,,,,,,,,,,,,,,,,,,,,,,,,,,,,,,,,,,,,,,,,,,,,,,,,,,,,,,,,,,
61365f766033bc62f92053dc,2023-11-23_22h35.13.957,kallum_motion_pilot,2023.1.2,Win32,39.88354006,61365f766033bc62f92053dc,656018846682f3df8008bb8f,656019d2b3b58299df4cb086,1,110,272,9,1,onethree,,,,,,,,,,,,,,,,,,,,,,,,,,,,,,,,,,,,,,,,,,,,,,,,,,,,,,,,,,,,,,,,,,,,,,,,,,,,,,,,,,,,,
61365f766033bc62f92053dc,2023-11-23_22h35.13.957,kallum_motion_pilot,2023.1.2,Win32,39.88354006,61365f766033bc62f92053dc,656018846682f3df8008bb8f,656019d2b3b58299df4cb086,1,111,273,46,1,fourtwo,,,,,,,,,,,,,,,,,,,,,,,,,,,,,,,,,,,,,,,,,,,,,,,,,,,,,,,,,,,,,,,,,,,,,,,,,,,,,,,,,,,,,
61365f766033bc62f92053dc,2023-11-23_22h35.13.957,kallum_motion_pilot,2023.1.2,Win32,39.88354006,61365f766033bc62f92053dc,656018846682f3df8008bb8f,656019d2b3b58299df4cb086,1,112,274,7,1,fourthree,,,,,,,,,,,,,,,,,,,,,,,,,,,,,,,,,,,,,,,,,,,,,,,,,,,,,,,,,,,,,,,,,,,,,,,,,,,,,,,,,,,,,
61365f766033bc62f92053dc,2023-11-23_22h35.13.957,kallum_motion_pilot,2023.1.2,Win32,39.88354006,61365f766033bc62f92053dc,656018846682f3df8008bb8f,656019d2b3b58299df4cb086,1,113,275,152,1,fivesix,,,,,,,,,,,,,,,,,,,,,,,,,,,,,,,,,,,,,,,,,,,,,,,,,,,,,,,,,,,,,,,,,,,,,,,,,,,,,,,,,,,,,
61365f766033bc62f92053dc,2023-11-23_22h35.13.957,kallum_motion_pilot,2023.1.2,Win32,39.88354006,61365f766033bc62f92053dc,656018846682f3df8008bb8f,656019d2b3b58299df4cb086,1,114,276,12,1,threeone,,,,,,,,,,,,,,,,,,,,,,,,,,,,,,,,,,,,,,,,,,,,,,,,,,,,,,,,,,,,,,,,,,,,,,,,,,,,,,,,,,,,,
61365f766033bc62f92053dc,2023-11-23_22h35.13.957,kallum_motion_pilot,2023.1.2,Win32,39.88354006,61365f766033bc62f92053dc,656018846682f3df8008bb8f,656019d2b3b58299df4cb086,1,115,277,110,1,eightsix,,,,,,,,,,,,,,,,,,,,,,,,,,,,,,,,,,,,,,,,,,,,,,,,,,,,,,,,,,,,,,,,,,,,,,,,,,,,,,,,,,,,,
61365f766033bc62f92053dc,2023-11-23_22h35.13.957,kallum_motion_pilot,2023.1.2,Win32,39.88354006,61365f766033bc62f92053dc,656018846682f3df8008bb8f,656019d2b3b58299df4cb086,1,116,278,111,1,eightseven,,,,,,,,,,,,,,,,,,,,,,,,,,,,,,,,,,,,,,,,,,,,,,,,,,,,,,,,,,,,,,,,,,,,,,,,,,,,,,,,,,,,,
61365f766033bc62f92053dc,2023-11-23_22h35.13.957,kallum_motion_pilot,2023.1.2,Win32,39.88354006,61365f766033bc62f92053dc,656018846682f3df8008bb8f,656019d2b3b58299df4cb086,1,117,279,56,1,onetwo,,,,,,,,,,,,,,,,,,,,,,,,,,,,,,,,,,,,,,,,,,,,,,,,,,,,,,,,,,,,,,,,,,,,,,,,,,,,,,,,,,,,,
61365f766033bc62f92053dc,2023-11-23_22h35.13.957,kallum_motion_pilot,2023.1.2,Win32,39.88354006,61365f766033bc62f92053dc,656018846682f3df8008bb8f,656019d2b3b58299df4cb086,1,118,280,11,1,twofour,,,,,,,,,,,,,,,,,,,,,,,,,,,,,,,,,,,,,,,,,,,,,,,,,,,,,,,,,,,,,,,,,,,,,,,,,,,,,,,,,,,,,
61365f766033bc62f92053dc,2023-11-23_22h35.13.957,kallum_motion_pilot,2023.1.2,Win32,39.88354006,61365f766033bc62f92053dc,656018846682f3df8008bb8f,656019d2b3b58299df4cb086,1,119,281,59,1,twofour,,,,,,,,,,,,,,,,,,,,,,,,,,,,,,,,,,,,,,,,,,,,,,,,,,,,,,,,,,,,,,,,,,,,,,,,,,,,,,,,,,,,,
61365f766033bc62f92053dc,2023-11-23_22h35.13.957,kallum_motion_pilot,2023.1.2,Win32,39.88354006,61365f766033bc62f92053dc,656018846682f3df8008bb8f,656019d2b3b58299df4cb086,1,120,282,44,1,threeone,,,,,,,,,,,,,,,,,,,,,,,,,,,,,,,,,,,,,,,,,,,,,,,,,,,,,,,,,,,,,,,,,,,,,,,,,,,,,,,,,,,,,
61365f766033bc62f92053dc,2023-11-23_22h35.13.957,kallum_motion_pilot,2023.1.2,Win32,39.88354006,61365f766033bc62f92053dc,656018846682f3df8008bb8f,656019d2b3b58299df4cb086,1,121,283,115,1,sixeight,,,,,,,,,,,,,,,,,,,,,,,,,,,,,,,,,,,,,,,,,,,,,,,,,,,,,,,,,,,,,,,,,,,,,,,,,,,,,,,,,,,,,
61365f766033bc62f92053dc,2023-11-23_22h35.13.957,kallum_motion_pilot,2023.1.2,Win32,39.88354006,61365f766033bc62f92053dc,656018846682f3df8008bb8f,656019d2b3b58299df4cb086,1,122,284,148,1,sevenfive,,,,,,,,,,,,,,,,,,,,,,,,,,,,,,,,,,,,,,,,,,,,,,,,,,,,,,,,,,,,,,,,,,,,,,,,,,,,,,,,,,,,,
61365f766033bc62f92053dc,2023-11-23_22h35.13.957,kallum_motion_pilot,2023.1.2,Win32,39.88354006,61365f766033bc62f92053dc,656018846682f3df8008bb8f,656019d2b3b58299df4cb086,1,123,285,120,1,fivesix,,,,,,,,,,,,,,,,,,,,,,,,,,,,,,,,,,,,,,,,,,,,,,,,,,,,,,,,,,,,,,,,,,,,,,,,,,,,,,,,,,,,,
61365f766033bc62f92053dc,2023-11-23_22h35.13.957,kallum_motion_pilot,2023.1.2,Win32,39.88354006,61365f766033bc62f92053dc,656018846682f3df8008bb8f,656019d2b3b58299df4cb086,1,124,286,20,1,threeone,,,,,,,,,,,,,,,,,,,,,,,,,,,,,,,,,,,,,,,,,,,,,,,,,,,,,,,,,,,,,,,,,,,,,,,,,,,,,,,,,,,,,
61365f766033bc62f92053dc,2023-11-23_22h35.13.957,kallum_motion_pilot,2023.1.2,Win32,39.88354006,61365f766033bc62f92053dc,656018846682f3df8008bb8f,656019d2b3b58299df4cb086,1,125,287,157,1,seveneight,,,,,,,,,,,,,,,,,,,,,,,,,,,,,,,,,,,,,,,,,,,,,,,,,,,,,,,,,,,,,,,,,,,,,,,,,,,,,,,,,,,,,
61365f766033bc62f92053dc,2023-11-23_22h35.13.957,kallum_motion_pilot,2023.1.2,Win32,39.88354006,61365f766033bc62f92053dc,656018846682f3df8008bb8f,656019d2b3b58299df4cb086,1,126,288,33,1,onethree,,,,,,,,,,,,,,,,,,,,,,,,,,,,,,,,,,,,,,,,,,,,,,,,,,,,,,,,,,,,,,,,,,,,,,,,,,,,,,,,,,,,,
61365f766033bc62f92053dc,2023-11-23_22h35.13.957,kallum_motion_pilot,2023.1.2,Win32,39.88354006,61365f766033bc62f92053dc,656018846682f3df8008bb8f,656019d2b3b58299df4cb086,1,127,289,30,1,fourtwo,,,,,,,,,,,,,,,,,,,,,,,,,,,,,,,,,,,,,,,,,,,,,,,,,,,,,,,,,,,,,,,,,,,,,,,,,,,,,,,,,,,,,
61365f766033bc62f92053dc,2023-11-23_22h35.13.957,kallum_motion_pilot,2023.1.2,Win32,39.88354006,61365f766033bc62f92053dc,656018846682f3df8008bb8f,656019d2b3b58299df4cb086,1,128,290,15,1,fourthree,,,,,,,,,,,,,,,,,,,,,,,,,,,,,,,,,,,,,,,,,,,,,,,,,,,,,,,,,,,,,,,,,,,,,,,,,,,,,,,,,,,,,
61365f766033bc62f92053dc,2023-11-23_22h35.13.957,kallum_motion_pilot,2023.1.2,Win32,39.88354006,61365f766033bc62f92053dc,656018846682f3df8008bb8f,656019d2b3b58299df4cb086,1,129,291,137,1,fiveseven,,,,,,,,,,,,,,,,,,,,,,,,,,,,,,,,,,,,,,,,,,,,,,,,,,,,,,,,,,,,,,,,,,,,,,,,,,,,,,,,,,,,,
61365f766033bc62f92053dc,2023-11-23_22h35.13.957,kallum_motion_pilot,2023.1.2,Win32,39.88354006,61365f766033bc62f92053dc,656018846682f3df8008bb8f,656019d2b3b58299df4cb086,1,130,292,135,1,eightseven,,,,,,,,,,,,,,,,,,,,,,,,,,,,,,,,,,,,,,,,,,,,,,,,,,,,,,,,,,,,,,,,,,,,,,,,,,,,,,,,,,,,,
61365f766033bc62f92053dc,2023-11-23_22h35.13.957,kallum_motion_pilot,2023.1.2,Win32,39.88354006,61365f766033bc62f92053dc,656018846682f3df8008bb8f,656019d2b3b58299df4cb086,1,131,293,27,1,twofour,,,,,,,,,,,,,,,,,,,,,,,,,,,,,,,,,,,,,,,,,,,,,,,,,,,,,,,,,,,,,,,,,,,,,,,,,,,,,,,,,,,,,
61365f766033bc62f92053dc,2023-11-23_22h35.13.957,kallum_motion_pilot,2023.1.2,Win32,39.88354006,61365f766033bc62f92053dc,656018846682f3df8008bb8f,656019d2b3b58299df4cb086,1,132,294,138,1,sixfive,,,,,,,,,,,,,,,,,,,,,,,,,,,,,,,,,,,,,,,,,,,,,,,,,,,,,,,,,,,,,,,,,,,,,,,,,,,,,,,,,,,,,
61365f766033bc62f92053dc,2023-11-23_22h35.13.957,kallum_motion_pilot,2023.1.2,Win32,39.88354006,61365f766033bc62f92053dc,656018846682f3df8008bb8f,656019d2b3b58299df4cb086,1,133,295,118,1,eightsix,,,,,,,,,,,,,,,,,,,,,,,,,,,,,,,,,,,,,,,,,,,,,,,,,,,,,,,,,,,,,,,,,,,,,,,,,,,,,,,,,,,,,
61365f766033bc62f92053dc,2023-11-23_22h35.13.957,kallum_motion_pilot,2023.1.2,Win32,39.88354006,61365f766033bc62f92053dc,656018846682f3df8008bb8f,656019d2b3b58299df4cb086,1,134,296,1,1,onethree,,,,,,,,,,,,,,,,,,,,,,,,,,,,,,,,,,,,,,,,,,,,,,,,,,,,,,,,,,,,,,,,,,,,,,,,,,,,,,,,,,,,,
61365f766033bc62f92053dc,2023-11-23_22h35.13.957,kallum_motion_pilot,2023.1.2,Win32,39.88354006,61365f766033bc62f92053dc,656018846682f3df8008bb8f,656019d2b3b58299df4cb086,1,135,297,153,1,fiveseven,,,,,,,,,,,,,,,,,,,,,,,,,,,,,,,,,,,,,,,,,,,,,,,,,,,,,,,,,,,,,,,,,,,,,,,,,,,,,,,,,,,,,
61365f766033bc62f92053dc,2023-11-23_22h35.13.957,kallum_motion_pilot,2023.1.2,Win32,39.88354006,61365f766033bc62f92053dc,656018846682f3df8008bb8f,656019d2b3b58299df4cb086,1,136,298,133,1,seveneight,,,,,,,,,,,,,,,,,,,,,,,,,,,,,,,,,,,,,,,,,,,,,,,,,,,,,,,,,,,,,,,,,,,,,,,,,,,,,,,,,,,,,
61365f766033bc62f92053dc,2023-11-23_22h35.13.957,kallum_motion_pilot,2023.1.2,Win32,39.88354006,61365f766033bc62f92053dc,656018846682f3df8008bb8f,656019d2b3b58299df4cb086,1,137,299,96,1,fivesix,,,,,,,,,,,,,,,,,,,,,,,,,,,,,,,,,,,,,,,,,,,,,,,,,,,,,,,,,,,,,,,,,,,,,,,,,,,,,,,,,,,,,
61365f766033bc62f92053dc,2023-11-23_22h35.13.957,kallum_motion_pilot,2023.1.2,Win32,39.88354006,61365f766033bc62f92053dc,656018846682f3df8008bb8f,656019d2b3b58299df4cb086,1,138,300,49,1,onethree,,,,,,,,,,,,,,,,,,,,,,,,,,,,,,,,,,,,,,,,,,,,,,,,,,,,,,,,,,,,,,,,,,,,,,,,,,,,,,,,,,,,,
61365f766033bc62f92053dc,2023-11-23_22h35.13.957,kallum_motion_pilot,2023.1.2,Win32,39.88354006,61365f766033bc62f92053dc,656018846682f3df8008bb8f,656019d2b3b58299df4cb086,1,139,301,71,1,fourthree,,,,,,,,,,,,,,,,,,,,,,,,,,,,,,,,,,,,,,,,,,,,,,,,,,,,,,,,,,,,,,,,,,,,,,,,,,,,,,,,,,,,,
61365f766033bc62f92053dc,2023-11-23_22h35.13.957,kallum_motion_pilot,2023.1.2,Win32,39.88354006,61365f766033bc62f92053dc,656018846682f3df8008bb8f,656019d2b3b58299df4cb086,1,140,302,151,1,eightseven,,,,,,,,,,,,,,,,,,,,,,,,,,,,,,,,,,,,,,,,,,,,,,,,,,,,,,,,,,,,,,,,,,,,,,,,,,,,,,,,,,,,,
61365f766033bc62f92053dc,2023-11-23_22h35.13.957,kallum_motion_pilot,2023.1.2,Win32,39.88354006,61365f766033bc62f92053dc,656018846682f3df8008bb8f,656019d2b3b58299df4cb086,1,141,303,95,1,eightseven,,,,,,,,,,,,,,,,,,,,,,,,,,,,,,,,,,,,,,,,,,,,,,,,,,,,,,,,,,,,,,,,,,,,,,,,,,,,,,,,,,,,,
61365f766033bc62f92053dc,2023-11-23_22h35.13.957,kallum_motion_pilot,2023.1.2,Win32,39.88354006,61365f766033bc62f92053dc,656018846682f3df8008bb8f,656019d2b3b58299df4cb086,1,142,304,116,1,sevenfive,,,,,,,,,,,,,,,,,,,,,,,,,,,,,,,,,,,,,,,,,,,,,,,,,,,,,,,,,,,,,,,,,,,,,,,,,,,,,,,,,,,,,
61365f766033bc62f92053dc,2023-11-23_22h35.13.957,kallum_motion_pilot,2023.1.2,Win32,39.88354006,61365f766033bc62f92053dc,656018846682f3df8008bb8f,656019d2b3b58299df4cb086,1,143,305,32,1,onetwo,,,,,,,,,,,,,,,,,,,,,,,,,,,,,,,,,,,,,,,,,,,,,,,,,,,,,,,,,,,,,,,,,,,,,,,,,,,,,,,,,,,,,
61365f766033bc62f92053dc,2023-11-23_22h35.13.957,kallum_motion_pilot,2023.1.2,Win32,39.88354006,61365f766033bc62f92053dc,656018846682f3df8008bb8f,656019d2b3b58299df4cb086,1,144,306,66,1,twoone,,,,,,,,,,,,,,,,,,,,,,,,,,,,,,,,,,,,,,,,,,,,,,,,,,,,,,,,,,,,,,,,,,,,,,,,,,,,,,,,,,,,,
61365f766033bc62f92053dc,2023-11-23_22h35.13.957,kallum_motion_pilot,2023.1.2,Win32,39.88354006,61365f766033bc62f92053dc,656018846682f3df8008bb8f,656019d2b3b58299df4cb086,1,145,307,70,1,fourtwo,,,,,,,,,,,,,,,,,,,,,,,,,,,,,,,,,,,,,,,,,,,,,,,,,,,,,,,,,,,,,,,,,,,,,,,,,,,,,,,,,,,,,
61365f766033bc62f92053dc,2023-11-23_22h35.13.957,kallum_motion_pilot,2023.1.2,Win32,39.88354006,61365f766033bc62f92053dc,656018846682f3df8008bb8f,656019d2b3b58299df4cb086,1,146,308,122,1,sixfive,,,,,,,,,,,,,,,,,,,,,,,,,,,,,,,,,,,,,,,,,,,,,,,,,,,,,,,,,,,,,,,,,,,,,,,,,,,,,,,,,,,,,
61365f766033bc62f92053dc,2023-11-23_22h35.13.957,kallum_motion_pilot,2023.1.2,Win32,39.88354006,61365f766033bc62f92053dc,656018846682f3df8008bb8f,656019d2b3b58299df4cb086,1,147,309,104,1,fivesix,,,,,,,,,,,,,,,,,,,,,,,,,,,,,,,,,,,,,,,,,,,,,,,,,,,,,,,,,,,,,,,,,,,,,,,,,,,,,,,,,,,,,
61365f766033bc62f92053dc,2023-11-23_22h35.13.957,kallum_motion_pilot,2023.1.2,Win32,39.88354006,61365f766033bc62f92053dc,656018846682f3df8008bb8f,656019d2b3b58299df4cb086,1,148,310,129,1,fiveseven,,,,,,,,,,,,,,,,,,,,,,,,,,,,,,,,,,,,,,,,,,,,,,,,,,,,,,,,,,,,,,,,,,,,,,,,,,,,,,,,,,,,,
61365f766033bc62f92053dc,2023-11-23_22h35.13.957,kallum_motion_pilot,2023.1.2,Win32,39.88354006,61365f766033bc62f92053dc,656018846682f3df8008bb8f,656019d2b3b58299df4cb086,1,149,311,125,1,seveneight,,,,,,,,,,,,,,,,,,,,,,,,,,,,,,,,,,,,,,,,,,,,,,,,,,,,,,,,,,,,,,,,,,,,,,,,,,,,,,,,,,,,,
61365f766033bc62f92053dc,2023-11-23_22h35.13.957,kallum_motion_pilot,2023.1.2,Win32,39.88354006,61365f766033bc62f92053dc,656018846682f3df8008bb8f,656019d2b3b58299df4cb086,1,150,312,106,1,sixfive,,,,,,,,,,,,,,,,,,,,,,,,,,,,,,,,,,,,,,,,,,,,,,,,,,,,,,,,,,,,,,,,,,,,,,,,,,,,,,,,,,,,,
61365f766033bc62f92053dc,2023-11-23_22h35.13.957,kallum_motion_pilot,2023.1.2,Win32,39.88354006,61365f766033bc62f92053dc,656018846682f3df8008bb8f,656019d2b3b58299df4cb086,1,151,313,72,1,onetwo,,,,,,,,,,,,,,,,,,,,,,,,,,,,,,,,,,,,,,,,,,,,,,,,,,,,,,,,,,,,,,,,,,,,,,,,,,,,,,,,,,,,,
61365f766033bc62f92053dc,2023-11-23_22h35.13.957,kallum_motion_pilot,2023.1.2,Win32,39.88354006,61365f766033bc62f92053dc,656018846682f3df8008bb8f,656019d2b3b58299df4cb086,1,152,314,58,1,twoone,,,,,,,,,,,,,,,,,,,,,,,,,,,,,,,,,,,,,,,,,,,,,,,,,,,,,,,,,,,,,,,,,,,,,,,,,,,,,,,,,,,,,
61365f766033bc62f92053dc,2023-11-23_22h35.13.957,kallum_motion_pilot,2023.1.2,Win32,39.88354006,61365f766033bc62f92053dc,656018846682f3df8008bb8f,656019d2b3b58299df4cb086,1,153,315,16,1,onetwo,,,,,,,,,,,,,,,,,,,,,,,,,,,,,,,,,,,,,,,,,,,,,,,,,,,,,,,,,,,,,,,,,,,,,,,,,,,,,,,,,,,,,
61365f766033bc62f92053dc,2023-11-23_22h35.13.957,kallum_motion_pilot,2023.1.2,Win32,39.88354006,61365f766033bc62f92053dc,656018846682f3df8008bb8f,656019d2b3b58299df4cb086,1,154,316,19,1,twofour,,,,,,,,,,,,,,,,,,,,,,,,,,,,,,,,,,,,,,,,,,,,,,,,,,,,,,,,,,,,,,,,,,,,,,,,,,,,,,,,,,,,,
61365f766033bc62f92053dc,2023-11-23_22h35.13.957,kallum_motion_pilot,2023.1.2,Win32,39.88354006,61365f766033bc62f92053dc,656018846682f3df8008bb8f,656019d2b3b58299df4cb086,1,155,317,62,1,fourtwo,,,,,,,,,,,,,,,,,,,,,,,,,,,,,,,,,,,,,,,,,,,,,,,,,,,,,,,,,,,,,,,,,,,,,,,,,,,,,,,,,,,,,
61365f766033bc62f92053dc,2023-11-23_22h35.13.957,kallum_motion_pilot,2023.1.2,Win32,39.88354006,61365f766033bc62f92053dc,656018846682f3df8008bb8f,656019d2b3b58299df4cb086,1,156,318,41,1,onethree,,,,,,,,,,,,,,,,,,,,,,,,,,,,,,,,,,,,,,,,,,,,,,,,,,,,,,,,,,,,,,,,,,,,,,,,,,,,,,,,,,,,,
61365f766033bc62f92053dc,2023-11-23_22h35.13.957,kallum_motion_pilot,2023.1.2,Win32,39.88354006,61365f766033bc62f92053dc,656018846682f3df8008bb8f,656019d2b3b58299df4cb086,1,157,319,126,1,eightsix,,,,,,,,,,,,,,,,,,,,,,,,,,,,,,,,,,,,,,,,,,,,,,,,,,,,,,,,,,,,,,,,,,,,,,,,,,,,,,,,,,,,,
61365f766033bc62f92053dc,2023-11-23_22h35.13.957,kallum_motion_pilot,2023.1.2,Win32,39.88354006,61365f766033bc62f92053dc,656018846682f3df8008bb8f,656019d2b3b58299df4cb086,1,158,320,105,1,fiveseven,,,,,,,,,,,,,,,,,,,,,,,,,,,,,,,,,,,,,,,,,,,,,,,,,,,,,,,,,,,,,,,,,,,,,,,,,,,,,,,,,,,,,
61365f766033bc62f92053dc,2023-11-23_22h35.13.957,kallum_motion_pilot,2023.1.2,Win32,39.88354006,61365f766033bc62f92053dc,656018846682f3df8008bb8f,656019d2b3b58299df4cb086,1,159,321,43,1,twofour,,,,,,,,,,,,,,,,,,,,,,,,,,,,,,,,,,,,,,,,,,,,,,,,,,,,,,,,,,,,,,,,,,,,,,,,,,,,,,,,,,,,,
61365f766033bc62f92053dc,2023-11-23_22h35.13.957,kallum_motion_pilot,2023.1.2,Win32,39.88354006,61365f766033bc62f92053dc,656018846682f3df8008bb8f,656019d2b3b58299df4cb086,1,160,322,107,1,sixeight,,,,,,,,,,,,,,,,,,,,,,,,,,,,,,,,,,,,,,,,,,,,,,,,,,,,,,,,,,,,,,,,,,,,,,,,,,,,,,,,,,,,,
61365f766033bc62f92053dc,2023-11-23_22h35.13.957,kallum_motion_pilot,2023.1.2,Win32,39.88354006,61365f766033bc62f92053dc,656018846682f3df8008bb8f,656019d2b3b58299df4cb086,1,161,323,78,1,fourtwo,,,,,,,,,,,,,,,,,,,,,,,,,,,,,,,,,,,,,,,,,,,,,,,,,,,,,,,,,,,,,,,,,,,,,,,,,,,,,,,,,,,,,
61365f766033bc62f92053dc,2023-11-23_22h35.13.957,kallum_motion_pilot,2023.1.2,Win32,39.88354006,61365f766033bc62f92053dc,656018846682f3df8008bb8f,656019d2b3b58299df4cb086,2,0,324,65,1,onethree,,,,,,,,,,,,,,,,,,,,,,,,,,,,,,,,,,,,,,,,,,,,,,,,,,,,,,,,,,,,,,,,,,,,,,,,,,,,,,,,,,,,,
61365f766033bc62f92053dc,2023-11-23_22h35.13.957,kallum_motion_pilot,2023.1.2,Win32,39.88354006,61365f766033bc62f92053dc,656018846682f3df8008bb8f,656019d2b3b58299df4cb086,2,1,325,20,1,threeone,,,,,,,,,,,,,,,,,,,,,,,,,,,,,,,,,,,,,,,,,,,,,,,,,,,,,,,,,,,,,,,,,,,,,,,,,,,,,,,,,,,,,
61365f766033bc62f92053dc,2023-11-23_22h35.13.957,kallum_motion_pilot,2023.1.2,Win32,39.88354006,61365f766033bc62f92053dc,656018846682f3df8008bb8f,656019d2b3b58299df4cb086,2,2,326,84,1,sevenfive,,,,,,,,,,,,,,,,,,,,,,,,,,,,,,,,,,,,,,,,,,,,,,,,,,,,,,,,,,,,,,,,,,,,,,,,,,,,,,,,,,,,,
61365f766033bc62f92053dc,2023-11-23_22h35.13.957,kallum_motion_pilot,2023.1.2,Win32,39.88354006,61365f766033bc62f92053dc,656018846682f3df8008bb8f,656019d2b3b58299df4cb086,2,3,327,157,1,seveneight,,,,,,,,,,,,,,,,,,,,,,,,,,,,,,,,,,,,,,,,,,,,,,,,,,,,,,,,,,,,,,,,,,,,,,,,,,,,,,,,,,,,,
61365f766033bc62f92053dc,2023-11-23_22h35.13.957,kallum_motion_pilot,2023.1.2,Win32,39.88354006,61365f766033bc62f92053dc,656018846682f3df8008bb8f,656019d2b3b58299df4cb086,2,4,328,95,1,eightseven,,,,,,,,,,,,,,,,,,,,,,,,,,,,,,,,,,,,,,,,,,,,,,,,,,,,,,,,,,,,,,,,,,,,,,,,,,,,,,,,,,,,,
61365f766033bc62f92053dc,2023-11-23_22h35.13.957,kallum_motion_pilot,2023.1.2,Win32,39.88354006,61365f766033bc62f92053dc,656018846682f3df8008bb8f,656019d2b3b58299df4cb086,2,5,329,90,1,sixfive,,,,,,,,,,,,,,,,,,,,,,,,,,,,,,,,,,,,,,,,,,,,,,,,,,,,,,,,,,,,,,,,,,,,,,,,,,,,,,,,,,,,,
61365f766033bc62f92053dc,2023-11-23_22h35.13.957,kallum_motion_pilot,2023.1.2,Win32,39.88354006,61365f766033bc62f92053dc,656018846682f3df8008bb8f,656019d2b3b58299df4cb086,2,6,330,27,1,twofour,,,,,,,,,,,,,,,,,,,,,,,,,,,,,,,,,,,,,,,,,,,,,,,,,,,,,,,,,,,,,,,,,,,,,,,,,,,,,,,,,,,,,
61365f766033bc62f92053dc,2023-11-23_22h35.13.957,kallum_motion_pilot,2023.1.2,Win32,39.88354006,61365f766033bc62f92053dc,656018846682f3df8008bb8f,656019d2b3b58299df4cb086,2,7,331,154,1,sixfive,,,,,,,,,,,,,,,,,,,,,,,,,,,,,,,,,,,,,,,,,,,,,,,,,,,,,,,,,,,,,,,,,,,,,,,,,,,,,,,,,,,,,
61365f766033bc62f92053dc,2023-11-23_22h35.13.957,kallum_motion_pilot,2023.1.2,Win32,39.88354006,61365f766033bc62f92053dc,656018846682f3df8008bb8f,656019d2b3b58299df4cb086,2,8,332,26,1,twoone,,,,,,,,,,,,,,,,,,,,,,,,,,,,,,,,,,,,,,,,,,,,,,,,,,,,,,,,,,,,,,,,,,,,,,,,,,,,,,,,,,,,,
61365f766033bc62f92053dc,2023-11-23_22h35.13.957,kallum_motion_pilot,2023.1.2,Win32,39.88354006,61365f766033bc62f92053dc,656018846682f3df8008bb8f,656019d2b3b58299df4cb086,2,9,333,56,1,onetwo,,,,,,,,,,,,,,,,,,,,,,,,,,,,,,,,,,,,,,,,,,,,,,,,,,,,,,,,,,,,,,,,,,,,,,,,,,,,,,,,,,,,,
61365f766033bc62f92053dc,2023-11-23_22h35.13.957,kallum_motion_pilot,2023.1.2,Win32,39.88354006,61365f766033bc62f92053dc,656018846682f3df8008bb8f,656019d2b3b58299df4cb086,2,10,334,87,1,eightseven,,,,,,,,,,,,,,,,,,,,,,,,,,,,,,,,,,,,,,,,,,,,,,,,,,,,,,,,,,,,,,,,,,,,,,,,,,,,,,,,,,,,,
61365f766033bc62f92053dc,2023-11-23_22h35.13.957,kallum_motion_pilot,2023.1.2,Win32,39.88354006,61365f766033bc62f92053dc,656018846682f3df8008bb8f,656019d2b3b58299df4cb086,2,11,335,41,1,onethree,,,,,,,,,,,,,,,,,,,,,,,,,,,,,,,,,,,,,,,,,,,,,,,,,,,,,,,,,,,,,,,,,,,,,,,,,,,,,,,,,,,,,
61365f766033bc62f92053dc,2023-11-23_22h35.13.957,kallum_motion_pilot,2023.1.2,Win32,39.88354006,61365f766033bc62f92053dc,656018846682f3df8008bb8f,656019d2b3b58299df4cb086,2,12,336,46,1,fourtwo,,,,,,,,,,,,,,,,,,,,,,,,,,,,,,,,,,,,,,,,,,,,,,,,,,,,,,,,,,,,,,,,,,,,,,,,,,,,,,,,,,,,,
61365f766033bc62f92053dc,2023-11-23_22h35.13.957,kallum_motion_pilot,2023.1.2,Win32,39.88354006,61365f766033bc62f92053dc,656018846682f3df8008bb8f,656019d2b3b58299df4cb086,2,13,337,142,1,eightsix,,,,,,,,,,,,,,,,,,,,,,,,,,,,,,,,,,,,,,,,,,,,,,,,,,,,,,,,,,,,,,,,,,,,,,,,,,,,,,,,,,,,,
61365f766033bc62f92053dc,2023-11-23_22h35.13.957,kallum_motion_pilot,2023.1.2,Win32,39.88354006,61365f766033bc62f92053dc,656018846682f3df8008bb8f,656019d2b3b58299df4cb086,2,14,338,143,1,eightseven,,,,,,,,,,,,,,,,,,,,,,,,,,,,,,,,,,,,,,,,,,,,,,,,,,,,,,,,,,,,,,,,,,,,,,,,,,,,,,,,,,,,,
61365f766033bc62f92053dc,2023-11-23_22h35.13.957,kallum_motion_pilot,2023.1.2,Win32,39.88354006,61365f766033bc62f92053dc,656018846682f3df8008bb8f,656019d2b3b58299df4cb086,2,15,339,103,1,eightseven,,,,,,,,,,,,,,,,,,,,,,,,,,,,,,,,,,,,,,,,,,,,,,,,,,,,,,,,,,,,,,,,,,,,,,,,,,,,,,,,,,,,,
61365f766033bc62f92053dc,2023-11-23_22h35.13.957,kallum_motion_pilot,2023.1.2,Win32,39.88354006,61365f766033bc62f92053dc,656018846682f3df8008bb8f,656019d2b3b58299df4cb086,2,16,340,123,1,sixeight,,,,,,,,,,,,,,,,,,,,,,,,,,,,,,,,,,,,,,,,,,,,,,,,,,,,,,,,,,,,,,,,,,,,,,,,,,,,,,,,,,,,,
61365f766033bc62f92053dc,2023-11-23_22h35.13.957,kallum_motion_pilot,2023.1.2,Win32,39.88354006,61365f766033bc62f92053dc,656018846682f3df8008bb8f,656019d2b3b58299df4cb086,2,17,341,33,1,onethree,,,,,,,,,,,,,,,,,,,,,,,,,,,,,,,,,,,,,,,,,,,,,,,,,,,,,,,,,,,,,,,,,,,,,,,,,,,,,,,,,,,,,
61365f766033bc62f92053dc,2023-11-23_22h35.13.957,kallum_motion_pilot,2023.1.2,Win32,39.88354006,61365f766033bc62f92053dc,656018846682f3df8008bb8f,656019d2b3b58299df4cb086,2,18,342,58,1,twoone,,,,,,,,,,,,,,,,,,,,,,,,,,,,,,,,,,,,,,,,,,,,,,,,,,,,,,,,,,,,,,,,,,,,,,,,,,,,,,,,,,,,,
61365f766033bc62f92053dc,2023-11-23_22h35.13.957,kallum_motion_pilot,2023.1.2,Win32,39.88354006,61365f766033bc62f92053dc,656018846682f3df8008bb8f,656019d2b3b58299df4cb086,2,19,343,48,1,onetwo,,,,,,,,,,,,,,,,,,,,,,,,,,,,,,,,,,,,,,,,,,,,,,,,,,,,,,,,,,,,,,,,,,,,,,,,,,,,,,,,,,,,,
61365f766033bc62f92053dc,2023-11-23_22h35.13.957,kallum_motion_pilot,2023.1.2,Win32,39.88354006,61365f766033bc62f92053dc,656018846682f3df8008bb8f,656019d2b3b58299df4cb086,2,20,344,6,1,fourtwo,,,,,,,,,,,,,,,,,,,,,,,,,,,,,,,,,,,,,,,,,,,,,,,,,,,,,,,,,,,,,,,,,,,,,,,,,,,,,,,,,,,,,
61365f766033bc62f92053dc,2023-11-23_22h35.13.957,kallum_motion_pilot,2023.1.2,Win32,39.88354006,61365f766033bc62f92053dc,656018846682f3df8008bb8f,656019d2b3b58299df4cb086,2,21,345,127,1,eightseven,,,,,,,,,,,,,,,,,,,,,,,,,,,,,,,,,,,,,,,,,,,,,,,,,,,,,,,,,,,,,,,,,,,,,,,,,,,,,,,,,,,,,
61365f766033bc62f92053dc,2023-11-23_22h35.13.957,kallum_motion_pilot,2023.1.2,Win32,39.88354006,61365f766033bc62f92053dc,656018846682f3df8008bb8f,656019d2b3b58299df4cb086,2,22,346,117,1,seveneight,,,,,,,,,,,,,,,,,,,,,,,,,,,,,,,,,,,,,,,,,,,,,,,,,,,,,,,,,,,,,,,,,,,,,,,,,,,,,,,,,,,,,
61365f766033bc62f92053dc,2023-11-23_22h35.13.957,kallum_motion_pilot,2023.1.2,Win32,39.88354006,61365f766033bc62f92053dc,656018846682f3df8008bb8f,656019d2b3b58299df4cb086,2,23,347,5,1,threefour,,,,,,,,,,,,,,,,,,,,,,,,,,,,,,,,,,,,,,,,,,,,,,,,,,,,,,,,,,,,,,,,,,,,,,,,,,,,,,,,,,,,,
61365f766033bc62f92053dc,2023-11-23_22h35.13.957,kallum_motion_pilot,2023.1.2,Win32,39.88354006,61365f766033bc62f92053dc,656018846682f3df8008bb8f,656019d2b3b58299df4cb086,2,24,348,77,1,threefour,,,,,,,,,,,,,,,,,,,,,,,,,,,,,,,,,,,,,,,,,,,,,,,,,,,,,,,,,,,,,,,,,,,,,,,,,,,,,,,,,,,,,
61365f766033bc62f92053dc,2023-11-23_22h35.13.957,kallum_motion_pilot,2023.1.2,Win32,39.88354006,61365f766033bc62f92053dc,656018846682f3df8008bb8f,656019d2b3b58299df4cb086,2,25,349,63,1,fourthree,,,,,,,,,,,,,,,,,,,,,,,,,,,,,,,,,,,,,,,,,,,,,,,,,,,,,,,,,,,,,,,,,,,,,,,,,,,,,,,,,,,,,
