Prolific_ID*,date,expName,psychopyVersion,OS,frameRate,PROLIFIC_PID,STUDY_ID,SESSION_ID,hardcoded_stimulus_positions.thisRepN,hardcoded_stimulus_positions.thisTrialN,hardcoded_stimulus_positions.thisN,hardcoded_stimulus_positions.thisIndex,hardcoded_stimulus_positions.ran,StimulusPos,prac_stimorientation_import_loop.thisRepN,prac_stimorientation_import_loop.thisTrialN,prac_stimorientation_import_loop.thisN,prac_stimorientation_import_loop.thisIndex,prac_stimorientation_import_loop.ran,Stimorientation,key_resp.keys,key_resp.rt,key_resp_20.keys,key_resp_20.rt,key_resp_19.keys,key_resp_19.rt,key_resp_15.keys,key_resp_15.rt,key_resp_9.keys,key_resp_9.rt,key_resp_10.keys,key_resp_10.rt,Ecc,Circle1_ori,Circle2_ori,similarity,response_time,mouse_5.x,mouse_5.y,mouse_5.leftButton,mouse_5.midButton,mouse_5.rightButton,mouse_5.clicked_name,mouse_6.x,mouse_6.y,mouse_6.leftButton,mouse_6.midButton,mouse_6.rightButton,mouse_6.clicked_name,duringprac.thisRepN,duringprac.thisTrialN,duringprac.thisN,duringprac.thisIndex,duringprac.ran,key_resp_22.keys,key_resp_22.rt,circle1_ori,circle2_ori,mouse.x,mouse.y,mouse.leftButton,mouse.midButton,mouse.rightButton,mouse.clicked_name,mouse_2.x,mouse_2.y,mouse_2.leftButton,mouse_2.midButton,mouse_2.rightButton,mouse_2.clicked_name,mouse_3.x,mouse_3.y,mouse_3.leftButton,mouse_3.midButton,mouse_3.rightButton,catchresponse,catchnumber,response_time_catch,Catch,mouse_11.x,mouse_11.y,mouse_11.leftButton,mouse_11.midButton,mouse_11.rightButton,main_trial.thisRepN,main_trial.thisTrialN,main_trial.thisN,main_trial.thisIndex,main_trial.ran,Orientationtrialno,xcircle1_ori,xcircle2_ori,double_pass.thisRepN,double_pass.thisTrialN,double_pass.thisN,double_pass.thisIndex,double_pass.ran,key_resp_3.keys,key_resp_3.rt
655652e4d1acd4df9b343078,2023-11-24_13h59.26.250,kallum_motion_pilot,2023.1.2,Win32,59.65519298,655652e4d1acd4df9b343078,656018846682f3df8008bb8f,656019ccf3d4094a03fd6f22,,,,,,,,,,,,,,,,,,,,,,,,,,,,,,,,,,,,,,,,,,,,,,,,,,,,,,,,,,,,,,,,,,,,,,,,,,,,,,,,,,,,,,,,,,,
655652e4d1acd4df9b343078,2023-11-24_13h59.26.250,kallum_motion_pilot,2023.1.2,Win32,59.65519298,655652e4d1acd4df9b343078,656018846682f3df8008bb8f,656019ccf3d4094a03fd6f22,0,0,0,12,1,threeone,,,,,,,,,,,,,,,,,,,,,,,,,,,,,,,,,,,,,,,,,,,,,,,,,,,,,,,,,,,,,,,,,,,,,,,,,,,,,,,,,,,,,
655652e4d1acd4df9b343078,2023-11-24_13h59.26.250,kallum_motion_pilot,2023.1.2,Win32,59.65519298,655652e4d1acd4df9b343078,656018846682f3df8008bb8f,656019ccf3d4094a03fd6f22,0,1,1,6,1,fourtwo,,,,,,,,,,,,,,,,,,,,,,,,,,,,,,,,,,,,,,,,,,,,,,,,,,,,,,,,,,,,,,,,,,,,,,,,,,,,,,,,,,,,,
655652e4d1acd4df9b343078,2023-11-24_13h59.26.250,kallum_motion_pilot,2023.1.2,Win32,59.65519298,655652e4d1acd4df9b343078,656018846682f3df8008bb8f,656019ccf3d4094a03fd6f22,0,2,2,155,1,sixeight,,,,,,,,,,,,,,,,,,,,,,,,,,,,,,,,,,,,,,,,,,,,,,,,,,,,,,,,,,,,,,,,,,,,,,,,,,,,,,,,,,,,,
655652e4d1acd4df9b343078,2023-11-24_13h59.26.250,kallum_motion_pilot,2023.1.2,Win32,59.65519298,655652e4d1acd4df9b343078,656018846682f3df8008bb8f,656019ccf3d4094a03fd6f22,0,3,3,110,1,eightsix,,,,,,,,,,,,,,,,,,,,,,,,,,,,,,,,,,,,,,,,,,,,,,,,,,,,,,,,,,,,,,,,,,,,,,,,,,,,,,,,,,,,,
655652e4d1acd4df9b343078,2023-11-24_13h59.26.250,kallum_motion_pilot,2023.1.2,Win32,59.65519298,655652e4d1acd4df9b343078,656018846682f3df8008bb8f,656019ccf3d4094a03fd6f22,0,4,4,152,1,fivesix,,,,,,,,,,,,,,,,,,,,,,,,,,,,,,,,,,,,,,,,,,,,,,,,,,,,,,,,,,,,,,,,,,,,,,,,,,,,,,,,,,,,,
655652e4d1acd4df9b343078,2023-11-24_13h59.26.250,kallum_motion_pilot,2023.1.2,Win32,59.65519298,655652e4d1acd4df9b343078,656018846682f3df8008bb8f,656019ccf3d4094a03fd6f22,0,5,5,1,1,onethree,,,,,,,,,,,,,,,,,,,,,,,,,,,,,,,,,,,,,,,,,,,,,,,,,,,,,,,,,,,,,,,,,,,,,,,,,,,,,,,,,,,,,
655652e4d1acd4df9b343078,2023-11-24_13h59.26.250,kallum_motion_pilot,2023.1.2,Win32,59.65519298,655652e4d1acd4df9b343078,656018846682f3df8008bb8f,656019ccf3d4094a03fd6f22,0,6,6,87,1,eightseven,,,,,,,,,,,,,,,,,,,,,,,,,,,,,,,,,,,,,,,,,,,,,,,,,,,,,,,,,,,,,,,,,,,,,,,,,,,,,,,,,,,,,
655652e4d1acd4df9b343078,2023-11-24_13h59.26.250,kallum_motion_pilot,2023.1.2,Win32,59.65519298,655652e4d1acd4df9b343078,656018846682f3df8008bb8f,656019ccf3d4094a03fd6f22,0,7,7,128,1,fivesix,,,,,,,,,,,,,,,,,,,,,,,,,,,,,,,,,,,,,,,,,,,,,,,,,,,,,,,,,,,,,,,,,,,,,,,,,,,,,,,,,,,,,
655652e4d1acd4df9b343078,2023-11-24_13h59.26.250,kallum_motion_pilot,2023.1.2,Win32,59.65519298,655652e4d1acd4df9b343078,656018846682f3df8008bb8f,656019ccf3d4094a03fd6f22,0,8,8,81,1,fiveseven,,,,,,,,,,,,,,,,,,,,,,,,,,,,,,,,,,,,,,,,,,,,,,,,,,,,,,,,,,,,,,,,,,,,,,,,,,,,,,,,,,,,,
655652e4d1acd4df9b343078,2023-11-24_13h59.26.250,kallum_motion_pilot,2023.1.2,Win32,59.65519298,655652e4d1acd4df9b343078,656018846682f3df8008bb8f,656019ccf3d4094a03fd6f22,0,9,9,113,1,fiveseven,,,,,,,,,,,,,,,,,,,,,,,,,,,,,,,,,,,,,,,,,,,,,,,,,,,,,,,,,,,,,,,,,,,,,,,,,,,,,,,,,,,,,
655652e4d1acd4df9b343078,2023-11-24_13h59.26.250,kallum_motion_pilot,2023.1.2,Win32,59.65519298,655652e4d1acd4df9b343078,656018846682f3df8008bb8f,656019ccf3d4094a03fd6f22,0,10,10,51,1,twofour,,,,,,,,,,,,,,,,,,,,,,,,,,,,,,,,,,,,,,,,,,,,,,,,,,,,,,,,,,,,,,,,,,,,,,,,,,,,,,,,,,,,,
655652e4d1acd4df9b343078,2023-11-24_13h59.26.250,kallum_motion_pilot,2023.1.2,Win32,59.65519298,655652e4d1acd4df9b343078,656018846682f3df8008bb8f,656019ccf3d4094a03fd6f22,0,11,11,127,1,eightseven,,,,,,,,,,,,,,,,,,,,,,,,,,,,,,,,,,,,,,,,,,,,,,,,,,,,,,,,,,,,,,,,,,,,,,,,,,,,,,,,,,,,,
655652e4d1acd4df9b343078,2023-11-24_13h59.26.250,kallum_motion_pilot,2023.1.2,Win32,59.65519298,655652e4d1acd4df9b343078,656018846682f3df8008bb8f,656019ccf3d4094a03fd6f22,0,12,12,123,1,sixeight,,,,,,,,,,,,,,,,,,,,,,,,,,,,,,,,,,,,,,,,,,,,,,,,,,,,,,,,,,,,,,,,,,,,,,,,,,,,,,,,,,,,,
655652e4d1acd4df9b343078,2023-11-24_13h59.26.250,kallum_motion_pilot,2023.1.2,Win32,59.65519298,655652e4d1acd4df9b343078,656018846682f3df8008bb8f,656019ccf3d4094a03fd6f22,0,13,13,106,1,sixfive,,,,,,,,,,,,,,,,,,,,,,,,,,,,,,,,,,,,,,,,,,,,,,,,,,,,,,,,,,,,,,,,,,,,,,,,,,,,,,,,,,,,,
655652e4d1acd4df9b343078,2023-11-24_13h59.26.250,kallum_motion_pilot,2023.1.2,Win32,59.65519298,655652e4d1acd4df9b343078,656018846682f3df8008bb8f,656019ccf3d4094a03fd6f22,0,14,14,116,1,sevenfive,,,,,,,,,,,,,,,,,,,,,,,,,,,,,,,,,,,,,,,,,,,,,,,,,,,,,,,,,,,,,,,,,,,,,,,,,,,,,,,,,,,,,
655652e4d1acd4df9b343078,2023-11-24_13h59.26.250,kallum_motion_pilot,2023.1.2,Win32,59.65519298,655652e4d1acd4df9b343078,656018846682f3df8008bb8f,656019ccf3d4094a03fd6f22,0,15,15,14,1,fourtwo,,,,,,,,,,,,,,,,,,,,,,,,,,,,,,,,,,,,,,,,,,,,,,,,,,,,,,,,,,,,,,,,,,,,,,,,,,,,,,,,,,,,,
655652e4d1acd4df9b343078,2023-11-24_13h59.26.250,kallum_motion_pilot,2023.1.2,Win32,59.65519298,655652e4d1acd4df9b343078,656018846682f3df8008bb8f,656019ccf3d4094a03fd6f22,0,16,16,156,1,sevenfive,,,,,,,,,,,,,,,,,,,,,,,,,,,,,,,,,,,,,,,,,,,,,,,,,,,,,,,,,,,,,,,,,,,,,,,,,,,,,,,,,,,,,
655652e4d1acd4df9b343078,2023-11-24_13h59.26.250,kallum_motion_pilot,2023.1.2,Win32,59.65519298,655652e4d1acd4df9b343078,656018846682f3df8008bb8f,656019ccf3d4094a03fd6f22,0,17,17,17,1,onethree,,,,,,,,,,,,,,,,,,,,,,,,,,,,,,,,,,,,,,,,,,,,,,,,,,,,,,,,,,,,,,,,,,,,,,,,,,,,,,,,,,,,,
655652e4d1acd4df9b343078,2023-11-24_13h59.26.250,kallum_motion_pilot,2023.1.2,Win32,59.65519298,655652e4d1acd4df9b343078,656018846682f3df8008bb8f,656019ccf3d4094a03fd6f22,0,18,18,134,1,eightsix,,,,,,,,,,,,,,,,,,,,,,,,,,,,,,,,,,,,,,,,,,,,,,,,,,,,,,,,,,,,,,,,,,,,,,,,,,,,,,,,,,,,,
655652e4d1acd4df9b343078,2023-11-24_13h59.26.250,kallum_motion_pilot,2023.1.2,Win32,59.65519298,655652e4d1acd4df9b343078,656018846682f3df8008bb8f,656019ccf3d4094a03fd6f22,0,19,19,86,1,eightsix,,,,,,,,,,,,,,,,,,,,,,,,,,,,,,,,,,,,,,,,,,,,,,,,,,,,,,,,,,,,,,,,,,,,,,,,,,,,,,,,,,,,,
655652e4d1acd4df9b343078,2023-11-24_13h59.26.250,kallum_motion_pilot,2023.1.2,Win32,59.65519298,655652e4d1acd4df9b343078,656018846682f3df8008bb8f,656019ccf3d4094a03fd6f22,0,20,20,40,1,onetwo,,,,,,,,,,,,,,,,,,,,,,,,,,,,,,,,,,,,,,,,,,,,,,,,,,,,,,,,,,,,,,,,,,,,,,,,,,,,,,,,,,,,,
655652e4d1acd4df9b343078,2023-11-24_13h59.26.250,kallum_motion_pilot,2023.1.2,Win32,59.65519298,655652e4d1acd4df9b343078,656018846682f3df8008bb8f,656019ccf3d4094a03fd6f22,0,21,21,0,1,onetwo,,,,,,,,,,,,,,,,,,,,,,,,,,,,,,,,,,,,,,,,,,,,,,,,,,,,,,,,,,,,,,,,,,,,,,,,,,,,,,,,,,,,,
655652e4d1acd4df9b343078,2023-11-24_13h59.26.250,kallum_motion_pilot,2023.1.2,Win32,59.65519298,655652e4d1acd4df9b343078,656018846682f3df8008bb8f,656019ccf3d4094a03fd6f22,0,22,22,119,1,eightseven,,,,,,,,,,,,,,,,,,,,,,,,,,,,,,,,,,,,,,,,,,,,,,,,,,,,,,,,,,,,,,,,,,,,,,,,,,,,,,,,,,,,,
655652e4d1acd4df9b343078,2023-11-24_13h59.26.250,kallum_motion_pilot,2023.1.2,Win32,59.65519298,655652e4d1acd4df9b343078,656018846682f3df8008bb8f,656019ccf3d4094a03fd6f22,0,23,23,97,1,fiveseven,,,,,,,,,,,,,,,,,,,,,,,,,,,,,,,,,,,,,,,,,,,,,,,,,,,,,,,,,,,,,,,,,,,,,,,,,,,,,,,,,,,,,
655652e4d1acd4df9b343078,2023-11-24_13h59.26.250,kallum_motion_pilot,2023.1.2,Win32,59.65519298,655652e4d1acd4df9b343078,656018846682f3df8008bb8f,656019ccf3d4094a03fd6f22,0,24,24,149,1,seveneight,,,,,,,,,,,,,,,,,,,,,,,,,,,,,,,,,,,,,,,,,,,,,,,,,,,,,,,,,,,,,,,,,,,,,,,,,,,,,,,,,,,,,
655652e4d1acd4df9b343078,2023-11-24_13h59.26.250,kallum_motion_pilot,2023.1.2,Win32,59.65519298,655652e4d1acd4df9b343078,656018846682f3df8008bb8f,656019ccf3d4094a03fd6f22,0,25,25,67,1,twofour,,,,,,,,,,,,,,,,,,,,,,,,,,,,,,,,,,,,,,,,,,,,,,,,,,,,,,,,,,,,,,,,,,,,,,,,,,,,,,,,,,,,,
655652e4d1acd4df9b343078,2023-11-24_13h59.26.250,kallum_motion_pilot,2023.1.2,Win32,59.65519298,655652e4d1acd4df9b343078,656018846682f3df8008bb8f,656019ccf3d4094a03fd6f22,0,26,26,125,1,seveneight,,,,,,,,,,,,,,,,,,,,,,,,,,,,,,,,,,,,,,,,,,,,,,,,,,,,,,,,,,,,,,,,,,,,,,,,,,,,,,,,,,,,,
655652e4d1acd4df9b343078,2023-11-24_13h59.26.250,kallum_motion_pilot,2023.1.2,Win32,59.65519298,655652e4d1acd4df9b343078,656018846682f3df8008bb8f,656019ccf3d4094a03fd6f22,0,27,27,68,1,threeone,,,,,,,,,,,,,,,,,,,,,,,,,,,,,,,,,,,,,,,,,,,,,,,,,,,,,,,,,,,,,,,,,,,,,,,,,,,,,,,,,,,,,
655652e4d1acd4df9b343078,2023-11-24_13h59.26.250,kallum_motion_pilot,2023.1.2,Win32,59.65519298,655652e4d1acd4df9b343078,656018846682f3df8008bb8f,656019ccf3d4094a03fd6f22,0,28,28,30,1,fourtwo,,,,,,,,,,,,,,,,,,,,,,,,,,,,,,,,,,,,,,,,,,,,,,,,,,,,,,,,,,,,,,,,,,,,,,,,,,,,,,,,,,,,,
655652e4d1acd4df9b343078,2023-11-24_13h59.26.250,kallum_motion_pilot,2023.1.2,Win32,59.65519298,655652e4d1acd4df9b343078,656018846682f3df8008bb8f,656019ccf3d4094a03fd6f22,0,29,29,124,1,sevenfive,,,,,,,,,,,,,,,,,,,,,,,,,,,,,,,,,,,,,,,,,,,,,,,,,,,,,,,,,,,,,,,,,,,,,,,,,,,,,,,,,,,,,
655652e4d1acd4df9b343078,2023-11-24_13h59.26.250,kallum_motion_pilot,2023.1.2,Win32,59.65519298,655652e4d1acd4df9b343078,656018846682f3df8008bb8f,656019ccf3d4094a03fd6f22,0,30,30,10,1,twoone,,,,,,,,,,,,,,,,,,,,,,,,,,,,,,,,,,,,,,,,,,,,,,,,,,,,,,,,,,,,,,,,,,,,,,,,,,,,,,,,,,,,,
655652e4d1acd4df9b343078,2023-11-24_13h59.26.250,kallum_motion_pilot,2023.1.2,Win32,59.65519298,655652e4d1acd4df9b343078,656018846682f3df8008bb8f,656019ccf3d4094a03fd6f22,0,31,31,25,1,onethree,,,,,,,,,,,,,,,,,,,,,,,,,,,,,,,,,,,,,,,,,,,,,,,,,,,,,,,,,,,,,,,,,,,,,,,,,,,,,,,,,,,,,
655652e4d1acd4df9b343078,2023-11-24_13h59.26.250,kallum_motion_pilot,2023.1.2,Win32,59.65519298,655652e4d1acd4df9b343078,656018846682f3df8008bb8f,656019ccf3d4094a03fd6f22,0,32,32,114,1,sixfive,,,,,,,,,,,,,,,,,,,,,,,,,,,,,,,,,,,,,,,,,,,,,,,,,,,,,,,,,,,,,,,,,,,,,,,,,,,,,,,,,,,,,
655652e4d1acd4df9b343078,2023-11-24_13h59.26.250,kallum_motion_pilot,2023.1.2,Win32,59.65519298,655652e4d1acd4df9b343078,656018846682f3df8008bb8f,656019ccf3d4094a03fd6f22,0,33,33,64,1,onetwo,,,,,,,,,,,,,,,,,,,,,,,,,,,,,,,,,,,,,,,,,,,,,,,,,,,,,,,,,,,,,,,,,,,,,,,,,,,,,,,,,,,,,
655652e4d1acd4df9b343078,2023-11-24_13h59.26.250,kallum_motion_pilot,2023.1.2,Win32,59.65519298,655652e4d1acd4df9b343078,656018846682f3df8008bb8f,656019ccf3d4094a03fd6f22,0,34,34,157,1,seveneight,,,,,,,,,,,,,,,,,,,,,,,,,,,,,,,,,,,,,,,,,,,,,,,,,,,,,,,,,,,,,,,,,,,,,,,,,,,,,,,,,,,,,
655652e4d1acd4df9b343078,2023-11-24_13h59.26.250,kallum_motion_pilot,2023.1.2,Win32,59.65519298,655652e4d1acd4df9b343078,656018846682f3df8008bb8f,656019ccf3d4094a03fd6f22,0,35,35,59,1,twofour,,,,,,,,,,,,,,,,,,,,,,,,,,,,,,,,,,,,,,,,,,,,,,,,,,,,,,,,,,,,,,,,,,,,,,,,,,,,,,,,,,,,,
655652e4d1acd4df9b343078,2023-11-24_13h59.26.250,kallum_motion_pilot,2023.1.2,Win32,59.65519298,655652e4d1acd4df9b343078,656018846682f3df8008bb8f,656019ccf3d4094a03fd6f22,0,36,36,3,1,twofour,,,,,,,,,,,,,,,,,,,,,,,,,,,,,,,,,,,,,,,,,,,,,,,,,,,,,,,,,,,,,,,,,,,,,,,,,,,,,,,,,,,,,
655652e4d1acd4df9b343078,2023-11-24_13h59.26.250,kallum_motion_pilot,2023.1.2,Win32,59.65519298,655652e4d1acd4df9b343078,656018846682f3df8008bb8f,656019ccf3d4094a03fd6f22,0,37,37,54,1,fourtwo,,,,,,,,,,,,,,,,,,,,,,,,,,,,,,,,,,,,,,,,,,,,,,,,,,,,,,,,,,,,,,,,,,,,,,,,,,,,,,,,,,,,,
655652e4d1acd4df9b343078,2023-11-24_13h59.26.250,kallum_motion_pilot,2023.1.2,Win32,59.65519298,655652e4d1acd4df9b343078,656018846682f3df8008bb8f,656019ccf3d4094a03fd6f22,0,38,38,19,1,twofour,,,,,,,,,,,,,,,,,,,,,,,,,,,,,,,,,,,,,,,,,,,,,,,,,,,,,,,,,,,,,,,,,,,,,,,,,,,,,,,,,,,,,
655652e4d1acd4df9b343078,2023-11-24_13h59.26.250,kallum_motion_pilot,2023.1.2,Win32,59.65519298,655652e4d1acd4df9b343078,656018846682f3df8008bb8f,656019ccf3d4094a03fd6f22,0,39,39,136,1,fivesix,,,,,,,,,,,,,,,,,,,,,,,,,,,,,,,,,,,,,,,,,,,,,,,,,,,,,,,,,,,,,,,,,,,,,,,,,,,,,,,,,,,,,
655652e4d1acd4df9b343078,2023-11-24_13h59.26.250,kallum_motion_pilot,2023.1.2,Win32,59.65519298,655652e4d1acd4df9b343078,656018846682f3df8008bb8f,656019ccf3d4094a03fd6f22,0,40,40,41,1,onethree,,,,,,,,,,,,,,,,,,,,,,,,,,,,,,,,,,,,,,,,,,,,,,,,,,,,,,,,,,,,,,,,,,,,,,,,,,,,,,,,,,,,,
655652e4d1acd4df9b343078,2023-11-24_13h59.26.250,kallum_motion_pilot,2023.1.2,Win32,59.65519298,655652e4d1acd4df9b343078,656018846682f3df8008bb8f,656019ccf3d4094a03fd6f22,0,41,41,22,1,fourtwo,,,,,,,,,,,,,,,,,,,,,,,,,,,,,,,,,,,,,,,,,,,,,,,,,,,,,,,,,,,,,,,,,,,,,,,,,,,,,,,,,,,,,
655652e4d1acd4df9b343078,2023-11-24_13h59.26.250,kallum_motion_pilot,2023.1.2,Win32,59.65519298,655652e4d1acd4df9b343078,656018846682f3df8008bb8f,656019ccf3d4094a03fd6f22,0,42,42,31,1,fourthree,,,,,,,,,,,,,,,,,,,,,,,,,,,,,,,,,,,,,,,,,,,,,,,,,,,,,,,,,,,,,,,,,,,,,,,,,,,,,,,,,,,,,
655652e4d1acd4df9b343078,2023-11-24_13h59.26.250,kallum_motion_pilot,2023.1.2,Win32,59.65519298,655652e4d1acd4df9b343078,656018846682f3df8008bb8f,656019ccf3d4094a03fd6f22,0,43,43,65,1,onethree,,,,,,,,,,,,,,,,,,,,,,,,,,,,,,,,,,,,,,,,,,,,,,,,,,,,,,,,,,,,,,,,,,,,,,,,,,,,,,,,,,,,,
655652e4d1acd4df9b343078,2023-11-24_13h59.26.250,kallum_motion_pilot,2023.1.2,Win32,59.65519298,655652e4d1acd4df9b343078,656018846682f3df8008bb8f,656019ccf3d4094a03fd6f22,0,44,44,2,1,twoone,,,,,,,,,,,,,,,,,,,,,,,,,,,,,,,,,,,,,,,,,,,,,,,,,,,,,,,,,,,,,,,,,,,,,,,,,,,,,,,,,,,,,
655652e4d1acd4df9b343078,2023-11-24_13h59.26.250,kallum_motion_pilot,2023.1.2,Win32,59.65519298,655652e4d1acd4df9b343078,656018846682f3df8008bb8f,656019ccf3d4094a03fd6f22,0,45,45,82,1,sixfive,,,,,,,,,,,,,,,,,,,,,,,,,,,,,,,,,,,,,,,,,,,,,,,,,,,,,,,,,,,,,,,,,,,,,,,,,,,,,,,,,,,,,
655652e4d1acd4df9b343078,2023-11-24_13h59.26.250,kallum_motion_pilot,2023.1.2,Win32,59.65519298,655652e4d1acd4df9b343078,656018846682f3df8008bb8f,656019ccf3d4094a03fd6f22,0,46,46,107,1,sixeight,,,,,,,,,,,,,,,,,,,,,,,,,,,,,,,,,,,,,,,,,,,,,,,,,,,,,,,,,,,,,,,,,,,,,,,,,,,,,,,,,,,,,
655652e4d1acd4df9b343078,2023-11-24_13h59.26.250,kallum_motion_pilot,2023.1.2,Win32,59.65519298,655652e4d1acd4df9b343078,656018846682f3df8008bb8f,656019ccf3d4094a03fd6f22,0,47,47,105,1,fiveseven,,,,,,,,,,,,,,,,,,,,,,,,,,,,,,,,,,,,,,,,,,,,,,,,,,,,,,,,,,,,,,,,,,,,,,,,,,,,,,,,,,,,,
655652e4d1acd4df9b343078,2023-11-24_13h59.26.250,kallum_motion_pilot,2023.1.2,Win32,59.65519298,655652e4d1acd4df9b343078,656018846682f3df8008bb8f,656019ccf3d4094a03fd6f22,0,48,48,145,1,fiveseven,,,,,,,,,,,,,,,,,,,,,,,,,,,,,,,,,,,,,,,,,,,,,,,,,,,,,,,,,,,,,,,,,,,,,,,,,,,,,,,,,,,,,
655652e4d1acd4df9b343078,2023-11-24_13h59.26.250,kallum_motion_pilot,2023.1.2,Win32,59.65519298,655652e4d1acd4df9b343078,656018846682f3df8008bb8f,656019ccf3d4094a03fd6f22,0,49,49,118,1,eightsix,,,,,,,,,,,,,,,,,,,,,,,,,,,,,,,,,,,,,,,,,,,,,,,,,,,,,,,,,,,,,,,,,,,,,,,,,,,,,,,,,,,,,
655652e4d1acd4df9b343078,2023-11-24_13h59.26.250,kallum_motion_pilot,2023.1.2,Win32,59.65519298,655652e4d1acd4df9b343078,656018846682f3df8008bb8f,656019ccf3d4094a03fd6f22,0,50,50,143,1,eightseven,,,,,,,,,,,,,,,,,,,,,,,,,,,,,,,,,,,,,,,,,,,,,,,,,,,,,,,,,,,,,,,,,,,,,,,,,,,,,,,,,,,,,
655652e4d1acd4df9b343078,2023-11-24_13h59.26.250,kallum_motion_pilot,2023.1.2,Win32,59.65519298,655652e4d1acd4df9b343078,656018846682f3df8008bb8f,656019ccf3d4094a03fd6f22,0,51,51,115,1,sixeight,,,,,,,,,,,,,,,,,,,,,,,,,,,,,,,,,,,,,,,,,,,,,,,,,,,,,,,,,,,,,,,,,,,,,,,,,,,,,,,,,,,,,
655652e4d1acd4df9b343078,2023-11-24_13h59.26.250,kallum_motion_pilot,2023.1.2,Win32,59.65519298,655652e4d1acd4df9b343078,656018846682f3df8008bb8f,656019ccf3d4094a03fd6f22,0,52,52,76,1,threeone,,,,,,,,,,,,,,,,,,,,,,,,,,,,,,,,,,,,,,,,,,,,,,,,,,,,,,,,,,,,,,,,,,,,,,,,,,,,,,,,,,,,,
655652e4d1acd4df9b343078,2023-11-24_13h59.26.250,kallum_motion_pilot,2023.1.2,Win32,59.65519298,655652e4d1acd4df9b343078,656018846682f3df8008bb8f,656019ccf3d4094a03fd6f22,0,53,53,158,1,eightsix,,,,,,,,,,,,,,,,,,,,,,,,,,,,,,,,,,,,,,,,,,,,,,,,,,,,,,,,,,,,,,,,,,,,,,,,,,,,,,,,,,,,,
655652e4d1acd4df9b343078,2023-11-24_13h59.26.250,kallum_motion_pilot,2023.1.2,Win32,59.65519298,655652e4d1acd4df9b343078,656018846682f3df8008bb8f,656019ccf3d4094a03fd6f22,0,54,54,61,1,threefour,,,,,,,,,,,,,,,,,,,,,,,,,,,,,,,,,,,,,,,,,,,,,,,,,,,,,,,,,,,,,,,,,,,,,,,,,,,,,,,,,,,,,
655652e4d1acd4df9b343078,2023-11-24_13h59.26.250,kallum_motion_pilot,2023.1.2,Win32,59.65519298,655652e4d1acd4df9b343078,656018846682f3df8008bb8f,656019ccf3d4094a03fd6f22,0,55,55,4,1,threeone,,,,,,,,,,,,,,,,,,,,,,,,,,,,,,,,,,,,,,,,,,,,,,,,,,,,,,,,,,,,,,,,,,,,,,,,,,,,,,,,,,,,,
655652e4d1acd4df9b343078,2023-11-24_13h59.26.250,kallum_motion_pilot,2023.1.2,Win32,59.65519298,655652e4d1acd4df9b343078,656018846682f3df8008bb8f,656019ccf3d4094a03fd6f22,0,56,56,21,1,threefour,,,,,,,,,,,,,,,,,,,,,,,,,,,,,,,,,,,,,,,,,,,,,,,,,,,,,,,,,,,,,,,,,,,,,,,,,,,,,,,,,,,,,
655652e4d1acd4df9b343078,2023-11-24_13h59.26.250,kallum_motion_pilot,2023.1.2,Win32,59.65519298,655652e4d1acd4df9b343078,656018846682f3df8008bb8f,656019ccf3d4094a03fd6f22,0,57,57,29,1,threefour,,,,,,,,,,,,,,,,,,,,,,,,,,,,,,,,,,,,,,,,,,,,,,,,,,,,,,,,,,,,,,,,,,,,,,,,,,,,,,,,,,,,,
655652e4d1acd4df9b343078,2023-11-24_13h59.26.250,kallum_motion_pilot,2023.1.2,Win32,59.65519298,655652e4d1acd4df9b343078,656018846682f3df8008bb8f,656019ccf3d4094a03fd6f22,0,58,58,72,1,onetwo,,,,,,,,,,,,,,,,,,,,,,,,,,,,,,,,,,,,,,,,,,,,,,,,,,,,,,,,,,,,,,,,,,,,,,,,,,,,,,,,,,,,,
655652e4d1acd4df9b343078,2023-11-24_13h59.26.250,kallum_motion_pilot,2023.1.2,Win32,59.65519298,655652e4d1acd4df9b343078,656018846682f3df8008bb8f,656019ccf3d4094a03fd6f22,0,59,59,56,1,onetwo,,,,,,,,,,,,,,,,,,,,,,,,,,,,,,,,,,,,,,,,,,,,,,,,,,,,,,,,,,,,,,,,,,,,,,,,,,,,,,,,,,,,,
655652e4d1acd4df9b343078,2023-11-24_13h59.26.250,kallum_motion_pilot,2023.1.2,Win32,59.65519298,655652e4d1acd4df9b343078,656018846682f3df8008bb8f,656019ccf3d4094a03fd6f22,0,60,60,99,1,sixeight,,,,,,,,,,,,,,,,,,,,,,,,,,,,,,,,,,,,,,,,,,,,,,,,,,,,,,,,,,,,,,,,,,,,,,,,,,,,,,,,,,,,,
655652e4d1acd4df9b343078,2023-11-24_13h59.26.250,kallum_motion_pilot,2023.1.2,Win32,59.65519298,655652e4d1acd4df9b343078,656018846682f3df8008bb8f,656019ccf3d4094a03fd6f22,0,61,61,44,1,threeone,,,,,,,,,,,,,,,,,,,,,,,,,,,,,,,,,,,,,,,,,,,,,,,,,,,,,,,,,,,,,,,,,,,,,,,,,,,,,,,,,,,,,
655652e4d1acd4df9b343078,2023-11-24_13h59.26.250,kallum_motion_pilot,2023.1.2,Win32,59.65519298,655652e4d1acd4df9b343078,656018846682f3df8008bb8f,656019ccf3d4094a03fd6f22,0,62,62,159,1,eightseven,,,,,,,,,,,,,,,,,,,,,,,,,,,,,,,,,,,,,,,,,,,,,,,,,,,,,,,,,,,,,,,,,,,,,,,,,,,,,,,,,,,,,
655652e4d1acd4df9b343078,2023-11-24_13h59.26.250,kallum_motion_pilot,2023.1.2,Win32,59.65519298,655652e4d1acd4df9b343078,656018846682f3df8008bb8f,656019ccf3d4094a03fd6f22,0,63,63,74,1,twoone,,,,,,,,,,,,,,,,,,,,,,,,,,,,,,,,,,,,,,,,,,,,,,,,,,,,,,,,,,,,,,,,,,,,,,,,,,,,,,,,,,,,,
655652e4d1acd4df9b343078,2023-11-24_13h59.26.250,kallum_motion_pilot,2023.1.2,Win32,59.65519298,655652e4d1acd4df9b343078,656018846682f3df8008bb8f,656019ccf3d4094a03fd6f22,0,64,64,90,1,sixfive,,,,,,,,,,,,,,,,,,,,,,,,,,,,,,,,,,,,,,,,,,,,,,,,,,,,,,,,,,,,,,,,,,,,,,,,,,,,,,,,,,,,,
655652e4d1acd4df9b343078,2023-11-24_13h59.26.250,kallum_motion_pilot,2023.1.2,Win32,59.65519298,655652e4d1acd4df9b343078,656018846682f3df8008bb8f,656019ccf3d4094a03fd6f22,0,65,65,150,1,eightsix,,,,,,,,,,,,,,,,,,,,,,,,,,,,,,,,,,,,,,,,,,,,,,,,,,,,,,,,,,,,,,,,,,,,,,,,,,,,,,,,,,,,,
655652e4d1acd4df9b343078,2023-11-24_13h59.26.250,kallum_motion_pilot,2023.1.2,Win32,59.65519298,655652e4d1acd4df9b343078,656018846682f3df8008bb8f,656019ccf3d4094a03fd6f22,0,66,66,160,1,fivesix,,,,,,,,,,,,,,,,,,,,,,,,,,,,,,,,,,,,,,,,,,,,,,,,,,,,,,,,,,,,,,,,,,,,,,,,,,,,,,,,,,,,,
655652e4d1acd4df9b343078,2023-11-24_13h59.26.250,kallum_motion_pilot,2023.1.2,Win32,59.65519298,655652e4d1acd4df9b343078,656018846682f3df8008bb8f,656019ccf3d4094a03fd6f22,0,67,67,91,1,sixeight,,,,,,,,,,,,,,,,,,,,,,,,,,,,,,,,,,,,,,,,,,,,,,,,,,,,,,,,,,,,,,,,,,,,,,,,,,,,,,,,,,,,,
655652e4d1acd4df9b343078,2023-11-24_13h59.26.250,kallum_motion_pilot,2023.1.2,Win32,59.65519298,655652e4d1acd4df9b343078,656018846682f3df8008bb8f,656019ccf3d4094a03fd6f22,0,68,68,77,1,threefour,,,,,,,,,,,,,,,,,,,,,,,,,,,,,,,,,,,,,,,,,,,,,,,,,,,,,,,,,,,,,,,,,,,,,,,,,,,,,,,,,,,,,
655652e4d1acd4df9b343078,2023-11-24_13h59.26.250,kallum_motion_pilot,2023.1.2,Win32,59.65519298,655652e4d1acd4df9b343078,656018846682f3df8008bb8f,656019ccf3d4094a03fd6f22,0,69,69,23,1,fourthree,,,,,,,,,,,,,,,,,,,,,,,,,,,,,,,,,,,,,,,,,,,,,,,,,,,,,,,,,,,,,,,,,,,,,,,,,,,,,,,,,,,,,
655652e4d1acd4df9b343078,2023-11-24_13h59.26.250,kallum_motion_pilot,2023.1.2,Win32,59.65519298,655652e4d1acd4df9b343078,656018846682f3df8008bb8f,656019ccf3d4094a03fd6f22,0,70,70,154,1,sixfive,,,,,,,,,,,,,,,,,,,,,,,,,,,,,,,,,,,,,,,,,,,,,,,,,,,,,,,,,,,,,,,,,,,,,,,,,,,,,,,,,,,,,
655652e4d1acd4df9b343078,2023-11-24_13h59.26.250,kallum_motion_pilot,2023.1.2,Win32,59.65519298,655652e4d1acd4df9b343078,656018846682f3df8008bb8f,656019ccf3d4094a03fd6f22,0,71,71,138,1,sixfive,,,,,,,,,,,,,,,,,,,,,,,,,,,,,,,,,,,,,,,,,,,,,,,,,,,,,,,,,,,,,,,,,,,,,,,,,,,,,,,,,,,,,
655652e4d1acd4df9b343078,2023-11-24_13h59.26.250,kallum_motion_pilot,2023.1.2,Win32,59.65519298,655652e4d1acd4df9b343078,656018846682f3df8008bb8f,656019ccf3d4094a03fd6f22,0,72,72,120,1,fivesix,,,,,,,,,,,,,,,,,,,,,,,,,,,,,,,,,,,,,,,,,,,,,,,,,,,,,,,,,,,,,,,,,,,,,,,,,,,,,,,,,,,,,
655652e4d1acd4df9b343078,2023-11-24_13h59.26.250,kallum_motion_pilot,2023.1.2,Win32,59.65519298,655652e4d1acd4df9b343078,656018846682f3df8008bb8f,656019ccf3d4094a03fd6f22,0,73,73,84,1,sevenfive,,,,,,,,,,,,,,,,,,,,,,,,,,,,,,,,,,,,,,,,,,,,,,,,,,,,,,,,,,,,,,,,,,,,,,,,,,,,,,,,,,,,,
655652e4d1acd4df9b343078,2023-11-24_13h59.26.250,kallum_motion_pilot,2023.1.2,Win32,59.65519298,655652e4d1acd4df9b343078,656018846682f3df8008bb8f,656019ccf3d4094a03fd6f22,0,74,74,141,1,seveneight,,,,,,,,,,,,,,,,,,,,,,,,,,,,,,,,,,,,,,,,,,,,,,,,,,,,,,,,,,,,,,,,,,,,,,,,,,,,,,,,,,,,,
655652e4d1acd4df9b343078,2023-11-24_13h59.26.250,kallum_motion_pilot,2023.1.2,Win32,59.65519298,655652e4d1acd4df9b343078,656018846682f3df8008bb8f,656019ccf3d4094a03fd6f22,0,75,75,101,1,seveneight,,,,,,,,,,,,,,,,,,,,,,,,,,,,,,,,,,,,,,,,,,,,,,,,,,,,,,,,,,,,,,,,,,,,,,,,,,,,,,,,,,,,,
655652e4d1acd4df9b343078,2023-11-24_13h59.26.250,kallum_motion_pilot,2023.1.2,Win32,59.65519298,655652e4d1acd4df9b343078,656018846682f3df8008bb8f,656019ccf3d4094a03fd6f22,0,76,76,13,1,threefour,,,,,,,,,,,,,,,,,,,,,,,,,,,,,,,,,,,,,,,,,,,,,,,,,,,,,,,,,,,,,,,,,,,,,,,,,,,,,,,,,,,,,
655652e4d1acd4df9b343078,2023-11-24_13h59.26.250,kallum_motion_pilot,2023.1.2,Win32,59.65519298,655652e4d1acd4df9b343078,656018846682f3df8008bb8f,656019ccf3d4094a03fd6f22,0,77,77,121,1,fiveseven,,,,,,,,,,,,,,,,,,,,,,,,,,,,,,,,,,,,,,,,,,,,,,,,,,,,,,,,,,,,,,,,,,,,,,,,,,,,,,,,,,,,,
655652e4d1acd4df9b343078,2023-11-24_13h59.26.250,kallum_motion_pilot,2023.1.2,Win32,59.65519298,655652e4d1acd4df9b343078,656018846682f3df8008bb8f,656019ccf3d4094a03fd6f22,0,78,78,43,1,twofour,,,,,,,,,,,,,,,,,,,,,,,,,,,,,,,,,,,,,,,,,,,,,,,,,,,,,,,,,,,,,,,,,,,,,,,,,,,,,,,,,,,,,
655652e4d1acd4df9b343078,2023-11-24_13h59.26.250,kallum_motion_pilot,2023.1.2,Win32,59.65519298,655652e4d1acd4df9b343078,656018846682f3df8008bb8f,656019ccf3d4094a03fd6f22,0,79,79,153,1,fiveseven,,,,,,,,,,,,,,,,,,,,,,,,,,,,,,,,,,,,,,,,,,,,,,,,,,,,,,,,,,,,,,,,,,,,,,,,,,,,,,,,,,,,,
655652e4d1acd4df9b343078,2023-11-24_13h59.26.250,kallum_motion_pilot,2023.1.2,Win32,59.65519298,655652e4d1acd4df9b343078,656018846682f3df8008bb8f,656019ccf3d4094a03fd6f22,0,80,80,144,1,fivesix,,,,,,,,,,,,,,,,,,,,,,,,,,,,,,,,,,,,,,,,,,,,,,,,,,,,,,,,,,,,,,,,,,,,,,,,,,,,,,,,,,,,,
655652e4d1acd4df9b343078,2023-11-24_13h59.26.250,kallum_motion_pilot,2023.1.2,Win32,59.65519298,655652e4d1acd4df9b343078,656018846682f3df8008bb8f,656019ccf3d4094a03fd6f22,0,81,81,24,1,onetwo,,,,,,,,,,,,,,,,,,,,,,,,,,,,,,,,,,,,,,,,,,,,,,,,,,,,,,,,,,,,,,,,,,,,,,,,,,,,,,,,,,,,,
655652e4d1acd4df9b343078,2023-11-24_13h59.26.250,kallum_motion_pilot,2023.1.2,Win32,59.65519298,655652e4d1acd4df9b343078,656018846682f3df8008bb8f,656019ccf3d4094a03fd6f22,0,82,82,133,1,seveneight,,,,,,,,,,,,,,,,,,,,,,,,,,,,,,,,,,,,,,,,,,,,,,,,,,,,,,,,,,,,,,,,,,,,,,,,,,,,,,,,,,,,,
655652e4d1acd4df9b343078,2023-11-24_13h59.26.250,kallum_motion_pilot,2023.1.2,Win32,59.65519298,655652e4d1acd4df9b343078,656018846682f3df8008bb8f,656019ccf3d4094a03fd6f22,0,83,83,85,1,seveneight,,,,,,,,,,,,,,,,,,,,,,,,,,,,,,,,,,,,,,,,,,,,,,,,,,,,,,,,,,,,,,,,,,,,,,,,,,,,,,,,,,,,,
655652e4d1acd4df9b343078,2023-11-24_13h59.26.250,kallum_motion_pilot,2023.1.2,Win32,59.65519298,655652e4d1acd4df9b343078,656018846682f3df8008bb8f,656019ccf3d4094a03fd6f22,0,84,84,55,1,fourthree,,,,,,,,,,,,,,,,,,,,,,,,,,,,,,,,,,,,,,,,,,,,,,,,,,,,,,,,,,,,,,,,,,,,,,,,,,,,,,,,,,,,,
655652e4d1acd4df9b343078,2023-11-24_13h59.26.250,kallum_motion_pilot,2023.1.2,Win32,59.65519298,655652e4d1acd4df9b343078,656018846682f3df8008bb8f,656019ccf3d4094a03fd6f22,0,85,85,75,1,twofour,,,,,,,,,,,,,,,,,,,,,,,,,,,,,,,,,,,,,,,,,,,,,,,,,,,,,,,,,,,,,,,,,,,,,,,,,,,,,,,,,,,,,
655652e4d1acd4df9b343078,2023-11-24_13h59.26.250,kallum_motion_pilot,2023.1.2,Win32,59.65519298,655652e4d1acd4df9b343078,656018846682f3df8008bb8f,656019ccf3d4094a03fd6f22,0,86,86,11,1,twofour,,,,,,,,,,,,,,,,,,,,,,,,,,,,,,,,,,,,,,,,,,,,,,,,,,,,,,,,,,,,,,,,,,,,,,,,,,,,,,,,,,,,,
655652e4d1acd4df9b343078,2023-11-24_13h59.26.250,kallum_motion_pilot,2023.1.2,Win32,59.65519298,655652e4d1acd4df9b343078,656018846682f3df8008bb8f,656019ccf3d4094a03fd6f22,0,87,87,140,1,sevenfive,,,,,,,,,,,,,,,,,,,,,,,,,,,,,,,,,,,,,,,,,,,,,,,,,,,,,,,,,,,,,,,,,,,,,,,,,,,,,,,,,,,,,
655652e4d1acd4df9b343078,2023-11-24_13h59.26.250,kallum_motion_pilot,2023.1.2,Win32,59.65519298,655652e4d1acd4df9b343078,656018846682f3df8008bb8f,656019ccf3d4094a03fd6f22,0,88,88,151,1,eightseven,,,,,,,,,,,,,,,,,,,,,,,,,,,,,,,,,,,,,,,,,,,,,,,,,,,,,,,,,,,,,,,,,,,,,,,,,,,,,,,,,,,,,
655652e4d1acd4df9b343078,2023-11-24_13h59.26.250,kallum_motion_pilot,2023.1.2,Win32,59.65519298,655652e4d1acd4df9b343078,656018846682f3df8008bb8f,656019ccf3d4094a03fd6f22,0,89,89,139,1,sixeight,,,,,,,,,,,,,,,,,,,,,,,,,,,,,,,,,,,,,,,,,,,,,,,,,,,,,,,,,,,,,,,,,,,,,,,,,,,,,,,,,,,,,
655652e4d1acd4df9b343078,2023-11-24_13h59.26.250,kallum_motion_pilot,2023.1.2,Win32,59.65519298,655652e4d1acd4df9b343078,656018846682f3df8008bb8f,656019ccf3d4094a03fd6f22,0,90,90,66,1,twoone,,,,,,,,,,,,,,,,,,,,,,,,,,,,,,,,,,,,,,,,,,,,,,,,,,,,,,,,,,,,,,,,,,,,,,,,,,,,,,,,,,,,,
655652e4d1acd4df9b343078,2023-11-24_13h59.26.250,kallum_motion_pilot,2023.1.2,Win32,59.65519298,655652e4d1acd4df9b343078,656018846682f3df8008bb8f,656019ccf3d4094a03fd6f22,0,91,91,8,1,onetwo,,,,,,,,,,,,,,,,,,,,,,,,,,,,,,,,,,,,,,,,,,,,,,,,,,,,,,,,,,,,,,,,,,,,,,,,,,,,,,,,,,,,,
655652e4d1acd4df9b343078,2023-11-24_13h59.26.250,kallum_motion_pilot,2023.1.2,Win32,59.65519298,655652e4d1acd4df9b343078,656018846682f3df8008bb8f,656019ccf3d4094a03fd6f22,0,92,92,26,1,twoone,,,,,,,,,,,,,,,,,,,,,,,,,,,,,,,,,,,,,,,,,,,,,,,,,,,,,,,,,,,,,,,,,,,,,,,,,,,,,,,,,,,,,
655652e4d1acd4df9b343078,2023-11-24_13h59.26.250,kallum_motion_pilot,2023.1.2,Win32,59.65519298,655652e4d1acd4df9b343078,656018846682f3df8008bb8f,656019ccf3d4094a03fd6f22,0,93,93,28,1,threeone,,,,,,,,,,,,,,,,,,,,,,,,,,,,,,,,,,,,,,,,,,,,,,,,,,,,,,,,,,,,,,,,,,,,,,,,,,,,,,,,,,,,,
655652e4d1acd4df9b343078,2023-11-24_13h59.26.250,kallum_motion_pilot,2023.1.2,Win32,59.65519298,655652e4d1acd4df9b343078,656018846682f3df8008bb8f,656019ccf3d4094a03fd6f22,0,94,94,94,1,eightsix,,,,,,,,,,,,,,,,,,,,,,,,,,,,,,,,,,,,,,,,,,,,,,,,,,,,,,,,,,,,,,,,,,,,,,,,,,,,,,,,,,,,,
655652e4d1acd4df9b343078,2023-11-24_13h59.26.250,kallum_motion_pilot,2023.1.2,Win32,59.65519298,655652e4d1acd4df9b343078,656018846682f3df8008bb8f,656019ccf3d4094a03fd6f22,0,95,95,78,1,fourtwo,,,,,,,,,,,,,,,,,,,,,,,,,,,,,,,,,,,,,,,,,,,,,,,,,,,,,,,,,,,,,,,,,,,,,,,,,,,,,,,,,,,,,
655652e4d1acd4df9b343078,2023-11-24_13h59.26.250,kallum_motion_pilot,2023.1.2,Win32,59.65519298,655652e4d1acd4df9b343078,656018846682f3df8008bb8f,656019ccf3d4094a03fd6f22,0,96,96,50,1,twoone,,,,,,,,,,,,,,,,,,,,,,,,,,,,,,,,,,,,,,,,,,,,,,,,,,,,,,,,,,,,,,,,,,,,,,,,,,,,,,,,,,,,,
655652e4d1acd4df9b343078,2023-11-24_13h59.26.250,kallum_motion_pilot,2023.1.2,Win32,59.65519298,655652e4d1acd4df9b343078,656018846682f3df8008bb8f,656019ccf3d4094a03fd6f22,0,97,97,92,1,sevenfive,,,,,,,,,,,,,,,,,,,,,,,,,,,,,,,,,,,,,,,,,,,,,,,,,,,,,,,,,,,,,,,,,,,,,,,,,,,,,,,,,,,,,
655652e4d1acd4df9b343078,2023-11-24_13h59.26.250,kallum_motion_pilot,2023.1.2,Win32,59.65519298,655652e4d1acd4df9b343078,656018846682f3df8008bb8f,656019ccf3d4094a03fd6f22,0,98,98,15,1,fourthree,,,,,,,,,,,,,,,,,,,,,,,,,,,,,,,,,,,,,,,,,,,,,,,,,,,,,,,,,,,,,,,,,,,,,,,,,,,,,,,,,,,,,
655652e4d1acd4df9b343078,2023-11-24_13h59.26.250,kallum_motion_pilot,2023.1.2,Win32,59.65519298,655652e4d1acd4df9b343078,656018846682f3df8008bb8f,656019ccf3d4094a03fd6f22,0,99,99,130,1,sixfive,,,,,,,,,,,,,,,,,,,,,,,,,,,,,,,,,,,,,,,,,,,,,,,,,,,,,,,,,,,,,,,,,,,,,,,,,,,,,,,,,,,,,
655652e4d1acd4df9b343078,2023-11-24_13h59.26.250,kallum_motion_pilot,2023.1.2,Win32,59.65519298,655652e4d1acd4df9b343078,656018846682f3df8008bb8f,656019ccf3d4094a03fd6f22,0,100,100,88,1,fivesix,,,,,,,,,,,,,,,,,,,,,,,,,,,,,,,,,,,,,,,,,,,,,,,,,,,,,,,,,,,,,,,,,,,,,,,,,,,,,,,,,,,,,
655652e4d1acd4df9b343078,2023-11-24_13h59.26.250,kallum_motion_pilot,2023.1.2,Win32,59.65519298,655652e4d1acd4df9b343078,656018846682f3df8008bb8f,656019ccf3d4094a03fd6f22,0,101,101,7,1,fourthree,,,,,,,,,,,,,,,,,,,,,,,,,,,,,,,,,,,,,,,,,,,,,,,,,,,,,,,,,,,,,,,,,,,,,,,,,,,,,,,,,,,,,
655652e4d1acd4df9b343078,2023-11-24_13h59.26.250,kallum_motion_pilot,2023.1.2,Win32,59.65519298,655652e4d1acd4df9b343078,656018846682f3df8008bb8f,656019ccf3d4094a03fd6f22,0,102,102,137,1,fiveseven,,,,,,,,,,,,,,,,,,,,,,,,,,,,,,,,,,,,,,,,,,,,,,,,,,,,,,,,,,,,,,,,,,,,,,,,,,,,,,,,,,,,,
655652e4d1acd4df9b343078,2023-11-24_13h59.26.250,kallum_motion_pilot,2023.1.2,Win32,59.65519298,655652e4d1acd4df9b343078,656018846682f3df8008bb8f,656019ccf3d4094a03fd6f22,0,103,103,135,1,eightseven,,,,,,,,,,,,,,,,,,,,,,,,,,,,,,,,,,,,,,,,,,,,,,,,,,,,,,,,,,,,,,,,,,,,,,,,,,,,,,,,,,,,,
655652e4d1acd4df9b343078,2023-11-24_13h59.26.250,kallum_motion_pilot,2023.1.2,Win32,59.65519298,655652e4d1acd4df9b343078,656018846682f3df8008bb8f,656019ccf3d4094a03fd6f22,0,104,104,71,1,fourthree,,,,,,,,,,,,,,,,,,,,,,,,,,,,,,,,,,,,,,,,,,,,,,,,,,,,,,,,,,,,,,,,,,,,,,,,,,,,,,,,,,,,,
655652e4d1acd4df9b343078,2023-11-24_13h59.26.250,kallum_motion_pilot,2023.1.2,Win32,59.65519298,655652e4d1acd4df9b343078,656018846682f3df8008bb8f,656019ccf3d4094a03fd6f22,0,105,105,45,1,threefour,,,,,,,,,,,,,,,,,,,,,,,,,,,,,,,,,,,,,,,,,,,,,,,,,,,,,,,,,,,,,,,,,,,,,,,,,,,,,,,,,,,,,
655652e4d1acd4df9b343078,2023-11-24_13h59.26.250,kallum_motion_pilot,2023.1.2,Win32,59.65519298,655652e4d1acd4df9b343078,656018846682f3df8008bb8f,656019ccf3d4094a03fd6f22,0,106,106,126,1,eightsix,,,,,,,,,,,,,,,,,,,,,,,,,,,,,,,,,,,,,,,,,,,,,,,,,,,,,,,,,,,,,,,,,,,,,,,,,,,,,,,,,,,,,
655652e4d1acd4df9b343078,2023-11-24_13h59.26.250,kallum_motion_pilot,2023.1.2,Win32,59.65519298,655652e4d1acd4df9b343078,656018846682f3df8008bb8f,656019ccf3d4094a03fd6f22,0,107,107,20,1,threeone,,,,,,,,,,,,,,,,,,,,,,,,,,,,,,,,,,,,,,,,,,,,,,,,,,,,,,,,,,,,,,,,,,,,,,,,,,,,,,,,,,,,,
655652e4d1acd4df9b343078,2023-11-24_13h59.26.250,kallum_motion_pilot,2023.1.2,Win32,59.65519298,655652e4d1acd4df9b343078,656018846682f3df8008bb8f,656019ccf3d4094a03fd6f22,0,108,108,112,1,fivesix,,,,,,,,,,,,,,,,,,,,,,,,,,,,,,,,,,,,,,,,,,,,,,,,,,,,,,,,,,,,,,,,,,,,,,,,,,,,,,,,,,,,,
655652e4d1acd4df9b343078,2023-11-24_13h59.26.250,kallum_motion_pilot,2023.1.2,Win32,59.65519298,655652e4d1acd4df9b343078,656018846682f3df8008bb8f,656019ccf3d4094a03fd6f22,0,109,109,38,1,fourtwo,,,,,,,,,,,,,,,,,,,,,,,,,,,,,,,,,,,,,,,,,,,,,,,,,,,,,,,,,,,,,,,,,,,,,,,,,,,,,,,,,,,,,
655652e4d1acd4df9b343078,2023-11-24_13h59.26.250,kallum_motion_pilot,2023.1.2,Win32,59.65519298,655652e4d1acd4df9b343078,656018846682f3df8008bb8f,656019ccf3d4094a03fd6f22,0,110,110,80,1,fivesix,,,,,,,,,,,,,,,,,,,,,,,,,,,,,,,,,,,,,,,,,,,,,,,,,,,,,,,,,,,,,,,,,,,,,,,,,,,,,,,,,,,,,
655652e4d1acd4df9b343078,2023-11-24_13h59.26.250,kallum_motion_pilot,2023.1.2,Win32,59.65519298,655652e4d1acd4df9b343078,656018846682f3df8008bb8f,656019ccf3d4094a03fd6f22,0,111,111,53,1,threefour,,,,,,,,,,,,,,,,,,,,,,,,,,,,,,,,,,,,,,,,,,,,,,,,,,,,,,,,,,,,,,,,,,,,,,,,,,,,,,,,,,,,,
655652e4d1acd4df9b343078,2023-11-24_13h59.26.250,kallum_motion_pilot,2023.1.2,Win32,59.65519298,655652e4d1acd4df9b343078,656018846682f3df8008bb8f,656019ccf3d4094a03fd6f22,0,112,112,62,1,fourtwo,,,,,,,,,,,,,,,,,,,,,,,,,,,,,,,,,,,,,,,,,,,,,,,,,,,,,,,,,,,,,,,,,,,,,,,,,,,,,,,,,,,,,
655652e4d1acd4df9b343078,2023-11-24_13h59.26.250,kallum_motion_pilot,2023.1.2,Win32,59.65519298,655652e4d1acd4df9b343078,656018846682f3df8008bb8f,656019ccf3d4094a03fd6f22,0,113,113,35,1,twofour,,,,,,,,,,,,,,,,,,,,,,,,,,,,,,,,,,,,,,,,,,,,,,,,,,,,,,,,,,,,,,,,,,,,,,,,,,,,,,,,,,,,,
655652e4d1acd4df9b343078,2023-11-24_13h59.26.250,kallum_motion_pilot,2023.1.2,Win32,59.65519298,655652e4d1acd4df9b343078,656018846682f3df8008bb8f,656019ccf3d4094a03fd6f22,0,114,114,58,1,twoone,,,,,,,,,,,,,,,,,,,,,,,,,,,,,,,,,,,,,,,,,,,,,,,,,,,,,,,,,,,,,,,,,,,,,,,,,,,,,,,,,,,,,
655652e4d1acd4df9b343078,2023-11-24_13h59.26.250,kallum_motion_pilot,2023.1.2,Win32,59.65519298,655652e4d1acd4df9b343078,656018846682f3df8008bb8f,656019ccf3d4094a03fd6f22,0,115,115,102,1,eightsix,,,,,,,,,,,,,,,,,,,,,,,,,,,,,,,,,,,,,,,,,,,,,,,,,,,,,,,,,,,,,,,,,,,,,,,,,,,,,,,,,,,,,
655652e4d1acd4df9b343078,2023-11-24_13h59.26.250,kallum_motion_pilot,2023.1.2,Win32,59.65519298,655652e4d1acd4df9b343078,656018846682f3df8008bb8f,656019ccf3d4094a03fd6f22,0,116,116,161,1,fiveseven,,,,,,,,,,,,,,,,,,,,,,,,,,,,,,,,,,,,,,,,,,,,,,,,,,,,,,,,,,,,,,,,,,,,,,,,,,,,,,,,,,,,,
655652e4d1acd4df9b343078,2023-11-24_13h59.26.250,kallum_motion_pilot,2023.1.2,Win32,59.65519298,655652e4d1acd4df9b343078,656018846682f3df8008bb8f,656019ccf3d4094a03fd6f22,0,117,117,148,1,sevenfive,,,,,,,,,,,,,,,,,,,,,,,,,,,,,,,,,,,,,,,,,,,,,,,,,,,,,,,,,,,,,,,,,,,,,,,,,,,,,,,,,,,,,
655652e4d1acd4df9b343078,2023-11-24_13h59.26.250,kallum_motion_pilot,2023.1.2,Win32,59.65519298,655652e4d1acd4df9b343078,656018846682f3df8008bb8f,656019ccf3d4094a03fd6f22,0,118,118,142,1,eightsix,,,,,,,,,,,,,,,,,,,,,,,,,,,,,,,,,,,,,,,,,,,,,,,,,,,,,,,,,,,,,,,,,,,,,,,,,,,,,,,,,,,,,
655652e4d1acd4df9b343078,2023-11-24_13h59.26.250,kallum_motion_pilot,2023.1.2,Win32,59.65519298,655652e4d1acd4df9b343078,656018846682f3df8008bb8f,656019ccf3d4094a03fd6f22,0,119,119,27,1,twofour,,,,,,,,,,,,,,,,,,,,,,,,,,,,,,,,,,,,,,,,,,,,,,,,,,,,,,,,,,,,,,,,,,,,,,,,,,,,,,,,,,,,,
655652e4d1acd4df9b343078,2023-11-24_13h59.26.250,kallum_motion_pilot,2023.1.2,Win32,59.65519298,655652e4d1acd4df9b343078,656018846682f3df8008bb8f,656019ccf3d4094a03fd6f22,0,120,120,39,1,fourthree,,,,,,,,,,,,,,,,,,,,,,,,,,,,,,,,,,,,,,,,,,,,,,,,,,,,,,,,,,,,,,,,,,,,,,,,,,,,,,,,,,,,,
655652e4d1acd4df9b343078,2023-11-24_13h59.26.250,kallum_motion_pilot,2023.1.2,Win32,59.65519298,655652e4d1acd4df9b343078,656018846682f3df8008bb8f,656019ccf3d4094a03fd6f22,0,121,121,89,1,fiveseven,,,,,,,,,,,,,,,,,,,,,,,,,,,,,,,,,,,,,,,,,,,,,,,,,,,,,,,,,,,,,,,,,,,,,,,,,,,,,,,,,,,,,
655652e4d1acd4df9b343078,2023-11-24_13h59.26.250,kallum_motion_pilot,2023.1.2,Win32,59.65519298,655652e4d1acd4df9b343078,656018846682f3df8008bb8f,656019ccf3d4094a03fd6f22,0,122,122,147,1,sixeight,,,,,,,,,,,,,,,,,,,,,,,,,,,,,,,,,,,,,,,,,,,,,,,,,,,,,,,,,,,,,,,,,,,,,,,,,,,,,,,,,,,,,
655652e4d1acd4df9b343078,2023-11-24_13h59.26.250,kallum_motion_pilot,2023.1.2,Win32,59.65519298,655652e4d1acd4df9b343078,656018846682f3df8008bb8f,656019ccf3d4094a03fd6f22,0,123,123,108,1,sevenfive,,,,,,,,,,,,,,,,,,,,,,,,,,,,,,,,,,,,,,,,,,,,,,,,,,,,,,,,,,,,,,,,,,,,,,,,,,,,,,,,,,,,,
655652e4d1acd4df9b343078,2023-11-24_13h59.26.250,kallum_motion_pilot,2023.1.2,Win32,59.65519298,655652e4d1acd4df9b343078,656018846682f3df8008bb8f,656019ccf3d4094a03fd6f22,0,124,124,132,1,sevenfive,,,,,,,,,,,,,,,,,,,,,,,,,,,,,,,,,,,,,,,,,,,,,,,,,,,,,,,,,,,,,,,,,,,,,,,,,,,,,,,,,,,,,
655652e4d1acd4df9b343078,2023-11-24_13h59.26.250,kallum_motion_pilot,2023.1.2,Win32,59.65519298,655652e4d1acd4df9b343078,656018846682f3df8008bb8f,656019ccf3d4094a03fd6f22,0,125,125,5,1,threefour,,,,,,,,,,,,,,,,,,,,,,,,,,,,,,,,,,,,,,,,,,,,,,,,,,,,,,,,,,,,,,,,,,,,,,,,,,,,,,,,,,,,,
655652e4d1acd4df9b343078,2023-11-24_13h59.26.250,kallum_motion_pilot,2023.1.2,Win32,59.65519298,655652e4d1acd4df9b343078,656018846682f3df8008bb8f,656019ccf3d4094a03fd6f22,0,126,126,52,1,threeone,,,,,,,,,,,,,,,,,,,,,,,,,,,,,,,,,,,,,,,,,,,,,,,,,,,,,,,,,,,,,,,,,,,,,,,,,,,,,,,,,,,,,
655652e4d1acd4df9b343078,2023-11-24_13h59.26.250,kallum_motion_pilot,2023.1.2,Win32,59.65519298,655652e4d1acd4df9b343078,656018846682f3df8008bb8f,656019ccf3d4094a03fd6f22,0,127,127,57,1,onethree,,,,,,,,,,,,,,,,,,,,,,,,,,,,,,,,,,,,,,,,,,,,,,,,,,,,,,,,,,,,,,,,,,,,,,,,,,,,,,,,,,,,,
655652e4d1acd4df9b343078,2023-11-24_13h59.26.250,kallum_motion_pilot,2023.1.2,Win32,59.65519298,655652e4d1acd4df9b343078,656018846682f3df8008bb8f,656019ccf3d4094a03fd6f22,0,128,128,83,1,sixeight,,,,,,,,,,,,,,,,,,,,,,,,,,,,,,,,,,,,,,,,,,,,,,,,,,,,,,,,,,,,,,,,,,,,,,,,,,,,,,,,,,,,,
655652e4d1acd4df9b343078,2023-11-24_13h59.26.250,kallum_motion_pilot,2023.1.2,Win32,59.65519298,655652e4d1acd4df9b343078,656018846682f3df8008bb8f,656019ccf3d4094a03fd6f22,0,129,129,104,1,fivesix,,,,,,,,,,,,,,,,,,,,,,,,,,,,,,,,,,,,,,,,,,,,,,,,,,,,,,,,,,,,,,,,,,,,,,,,,,,,,,,,,,,,,
655652e4d1acd4df9b343078,2023-11-24_13h59.26.250,kallum_motion_pilot,2023.1.2,Win32,59.65519298,655652e4d1acd4df9b343078,656018846682f3df8008bb8f,656019ccf3d4094a03fd6f22,0,130,130,109,1,seveneight,,,,,,,,,,,,,,,,,,,,,,,,,,,,,,,,,,,,,,,,,,,,,,,,,,,,,,,,,,,,,,,,,,,,,,,,,,,,,,,,,,,,,
655652e4d1acd4df9b343078,2023-11-24_13h59.26.250,kallum_motion_pilot,2023.1.2,Win32,59.65519298,655652e4d1acd4df9b343078,656018846682f3df8008bb8f,656019ccf3d4094a03fd6f22,0,131,131,117,1,seveneight,,,,,,,,,,,,,,,,,,,,,,,,,,,,,,,,,,,,,,,,,,,,,,,,,,,,,,,,,,,,,,,,,,,,,,,,,,,,,,,,,,,,,
655652e4d1acd4df9b343078,2023-11-24_13h59.26.250,kallum_motion_pilot,2023.1.2,Win32,59.65519298,655652e4d1acd4df9b343078,656018846682f3df8008bb8f,656019ccf3d4094a03fd6f22,0,132,132,69,1,threefour,,,,,,,,,,,,,,,,,,,,,,,,,,,,,,,,,,,,,,,,,,,,,,,,,,,,,,,,,,,,,,,,,,,,,,,,,,,,,,,,,,,,,
655652e4d1acd4df9b343078,2023-11-24_13h59.26.250,kallum_motion_pilot,2023.1.2,Win32,59.65519298,655652e4d1acd4df9b343078,656018846682f3df8008bb8f,656019ccf3d4094a03fd6f22,0,133,133,47,1,fourthree,,,,,,,,,,,,,,,,,,,,,,,,,,,,,,,,,,,,,,,,,,,,,,,,,,,,,,,,,,,,,,,,,,,,,,,,,,,,,,,,,,,,,
655652e4d1acd4df9b343078,2023-11-24_13h59.26.250,kallum_motion_pilot,2023.1.2,Win32,59.65519298,655652e4d1acd4df9b343078,656018846682f3df8008bb8f,656019ccf3d4094a03fd6f22,0,134,134,18,1,twoone,,,,,,,,,,,,,,,,,,,,,,,,,,,,,,,,,,,,,,,,,,,,,,,,,,,,,,,,,,,,,,,,,,,,,,,,,,,,,,,,,,,,,
655652e4d1acd4df9b343078,2023-11-24_13h59.26.250,kallum_motion_pilot,2023.1.2,Win32,59.65519298,655652e4d1acd4df9b343078,656018846682f3df8008bb8f,656019ccf3d4094a03fd6f22,0,135,135,73,1,onethree,,,,,,,,,,,,,,,,,,,,,,,,,,,,,,,,,,,,,,,,,,,,,,,,,,,,,,,,,,,,,,,,,,,,,,,,,,,,,,,,,,,,,
655652e4d1acd4df9b343078,2023-11-24_13h59.26.250,kallum_motion_pilot,2023.1.2,Win32,59.65519298,655652e4d1acd4df9b343078,656018846682f3df8008bb8f,656019ccf3d4094a03fd6f22,0,136,136,37,1,threefour,,,,,,,,,,,,,,,,,,,,,,,,,,,,,,,,,,,,,,,,,,,,,,,,,,,,,,,,,,,,,,,,,,,,,,,,,,,,,,,,,,,,,
655652e4d1acd4df9b343078,2023-11-24_13h59.26.250,kallum_motion_pilot,2023.1.2,Win32,59.65519298,655652e4d1acd4df9b343078,656018846682f3df8008bb8f,656019ccf3d4094a03fd6f22,0,137,137,33,1,onethree,,,,,,,,,,,,,,,,,,,,,,,,,,,,,,,,,,,,,,,,,,,,,,,,,,,,,,,,,,,,,,,,,,,,,,,,,,,,,,,,,,,,,
655652e4d1acd4df9b343078,2023-11-24_13h59.26.250,kallum_motion_pilot,2023.1.2,Win32,59.65519298,655652e4d1acd4df9b343078,656018846682f3df8008bb8f,656019ccf3d4094a03fd6f22,0,138,138,34,1,twoone,,,,,,,,,,,,,,,,,,,,,,,,,,,,,,,,,,,,,,,,,,,,,,,,,,,,,,,,,,,,,,,,,,,,,,,,,,,,,,,,,,,,,
655652e4d1acd4df9b343078,2023-11-24_13h59.26.250,kallum_motion_pilot,2023.1.2,Win32,59.65519298,655652e4d1acd4df9b343078,656018846682f3df8008bb8f,656019ccf3d4094a03fd6f22,0,139,139,79,1,eightseven,,,,,,,,,,,,,,,,,,,,,,,,,,,,,,,,,,,,,,,,,,,,,,,,,,,,,,,,,,,,,,,,,,,,,,,,,,,,,,,,,,,,,
655652e4d1acd4df9b343078,2023-11-24_13h59.26.250,kallum_motion_pilot,2023.1.2,Win32,59.65519298,655652e4d1acd4df9b343078,656018846682f3df8008bb8f,656019ccf3d4094a03fd6f22,0,140,140,63,1,fourthree,,,,,,,,,,,,,,,,,,,,,,,,,,,,,,,,,,,,,,,,,,,,,,,,,,,,,,,,,,,,,,,,,,,,,,,,,,,,,,,,,,,,,
655652e4d1acd4df9b343078,2023-11-24_13h59.26.250,kallum_motion_pilot,2023.1.2,Win32,59.65519298,655652e4d1acd4df9b343078,656018846682f3df8008bb8f,656019ccf3d4094a03fd6f22,0,141,141,100,1,sevenfive,,,,,,,,,,,,,,,,,,,,,,,,,,,,,,,,,,,,,,,,,,,,,,,,,,,,,,,,,,,,,,,,,,,,,,,,,,,,,,,,,,,,,
655652e4d1acd4df9b343078,2023-11-24_13h59.26.250,kallum_motion_pilot,2023.1.2,Win32,59.65519298,655652e4d1acd4df9b343078,656018846682f3df8008bb8f,656019ccf3d4094a03fd6f22,0,142,142,146,1,sixfive,,,,,,,,,,,,,,,,,,,,,,,,,,,,,,,,,,,,,,,,,,,,,,,,,,,,,,,,,,,,,,,,,,,,,,,,,,,,,,,,,,,,,
655652e4d1acd4df9b343078,2023-11-24_13h59.26.250,kallum_motion_pilot,2023.1.2,Win32,59.65519298,655652e4d1acd4df9b343078,656018846682f3df8008bb8f,656019ccf3d4094a03fd6f22,0,143,143,129,1,fiveseven,,,,,,,,,,,,,,,,,,,,,,,,,,,,,,,,,,,,,,,,,,,,,,,,,,,,,,,,,,,,,,,,,,,,,,,,,,,,,,,,,,,,,
655652e4d1acd4df9b343078,2023-11-24_13h59.26.250,kallum_motion_pilot,2023.1.2,Win32,59.65519298,655652e4d1acd4df9b343078,656018846682f3df8008bb8f,656019ccf3d4094a03fd6f22,0,144,144,131,1,sixeight,,,,,,,,,,,,,,,,,,,,,,,,,,,,,,,,,,,,,,,,,,,,,,,,,,,,,,,,,,,,,,,,,,,,,,,,,,,,,,,,,,,,,
655652e4d1acd4df9b343078,2023-11-24_13h59.26.250,kallum_motion_pilot,2023.1.2,Win32,59.65519298,655652e4d1acd4df9b343078,656018846682f3df8008bb8f,656019ccf3d4094a03fd6f22,0,145,145,93,1,seveneight,,,,,,,,,,,,,,,,,,,,,,,,,,,,,,,,,,,,,,,,,,,,,,,,,,,,,,,,,,,,,,,,,,,,,,,,,,,,,,,,,,,,,
655652e4d1acd4df9b343078,2023-11-24_13h59.26.250,kallum_motion_pilot,2023.1.2,Win32,59.65519298,655652e4d1acd4df9b343078,656018846682f3df8008bb8f,656019ccf3d4094a03fd6f22,0,146,146,32,1,onetwo,,,,,,,,,,,,,,,,,,,,,,,,,,,,,,,,,,,,,,,,,,,,,,,,,,,,,,,,,,,,,,,,,,,,,,,,,,,,,,,,,,,,,
655652e4d1acd4df9b343078,2023-11-24_13h59.26.250,kallum_motion_pilot,2023.1.2,Win32,59.65519298,655652e4d1acd4df9b343078,656018846682f3df8008bb8f,656019ccf3d4094a03fd6f22,0,147,147,98,1,sixfive,,,,,,,,,,,,,,,,,,,,,,,,,,,,,,,,,,,,,,,,,,,,,,,,,,,,,,,,,,,,,,,,,,,,,,,,,,,,,,,,,,,,,
655652e4d1acd4df9b343078,2023-11-24_13h59.26.250,kallum_motion_pilot,2023.1.2,Win32,59.65519298,655652e4d1acd4df9b343078,656018846682f3df8008bb8f,656019ccf3d4094a03fd6f22,0,148,148,36,1,threeone,,,,,,,,,,,,,,,,,,,,,,,,,,,,,,,,,,,,,,,,,,,,,,,,,,,,,,,,,,,,,,,,,,,,,,,,,,,,,,,,,,,,,
655652e4d1acd4df9b343078,2023-11-24_13h59.26.250,kallum_motion_pilot,2023.1.2,Win32,59.65519298,655652e4d1acd4df9b343078,656018846682f3df8008bb8f,656019ccf3d4094a03fd6f22,0,149,149,60,1,threeone,,,,,,,,,,,,,,,,,,,,,,,,,,,,,,,,,,,,,,,,,,,,,,,,,,,,,,,,,,,,,,,,,,,,,,,,,,,,,,,,,,,,,
655652e4d1acd4df9b343078,2023-11-24_13h59.26.250,kallum_motion_pilot,2023.1.2,Win32,59.65519298,655652e4d1acd4df9b343078,656018846682f3df8008bb8f,656019ccf3d4094a03fd6f22,0,150,150,49,1,onethree,,,,,,,,,,,,,,,,,,,,,,,,,,,,,,,,,,,,,,,,,,,,,,,,,,,,,,,,,,,,,,,,,,,,,,,,,,,,,,,,,,,,,
655652e4d1acd4df9b343078,2023-11-24_13h59.26.250,kallum_motion_pilot,2023.1.2,Win32,59.65519298,655652e4d1acd4df9b343078,656018846682f3df8008bb8f,656019ccf3d4094a03fd6f22,0,151,151,122,1,sixfive,,,,,,,,,,,,,,,,,,,,,,,,,,,,,,,,,,,,,,,,,,,,,,,,,,,,,,,,,,,,,,,,,,,,,,,,,,,,,,,,,,,,,
655652e4d1acd4df9b343078,2023-11-24_13h59.26.250,kallum_motion_pilot,2023.1.2,Win32,59.65519298,655652e4d1acd4df9b343078,656018846682f3df8008bb8f,656019ccf3d4094a03fd6f22,0,152,152,70,1,fourtwo,,,,,,,,,,,,,,,,,,,,,,,,,,,,,,,,,,,,,,,,,,,,,,,,,,,,,,,,,,,,,,,,,,,,,,,,,,,,,,,,,,,,,
655652e4d1acd4df9b343078,2023-11-24_13h59.26.250,kallum_motion_pilot,2023.1.2,Win32,59.65519298,655652e4d1acd4df9b343078,656018846682f3df8008bb8f,656019ccf3d4094a03fd6f22,0,153,153,95,1,eightseven,,,,,,,,,,,,,,,,,,,,,,,,,,,,,,,,,,,,,,,,,,,,,,,,,,,,,,,,,,,,,,,,,,,,,,,,,,,,,,,,,,,,,
655652e4d1acd4df9b343078,2023-11-24_13h59.26.250,kallum_motion_pilot,2023.1.2,Win32,59.65519298,655652e4d1acd4df9b343078,656018846682f3df8008bb8f,656019ccf3d4094a03fd6f22,0,154,154,111,1,eightseven,,,,,,,,,,,,,,,,,,,,,,,,,,,,,,,,,,,,,,,,,,,,,,,,,,,,,,,,,,,,,,,,,,,,,,,,,,,,,,,,,,,,,
655652e4d1acd4df9b343078,2023-11-24_13h59.26.250,kallum_motion_pilot,2023.1.2,Win32,59.65519298,655652e4d1acd4df9b343078,656018846682f3df8008bb8f,656019ccf3d4094a03fd6f22,0,155,155,103,1,eightseven,,,,,,,,,,,,,,,,,,,,,,,,,,,,,,,,,,,,,,,,,,,,,,,,,,,,,,,,,,,,,,,,,,,,,,,,,,,,,,,,,,,,,
655652e4d1acd4df9b343078,2023-11-24_13h59.26.250,kallum_motion_pilot,2023.1.2,Win32,59.65519298,655652e4d1acd4df9b343078,656018846682f3df8008bb8f,656019ccf3d4094a03fd6f22,0,156,156,16,1,onetwo,,,,,,,,,,,,,,,,,,,,,,,,,,,,,,,,,,,,,,,,,,,,,,,,,,,,,,,,,,,,,,,,,,,,,,,,,,,,,,,,,,,,,
655652e4d1acd4df9b343078,2023-11-24_13h59.26.250,kallum_motion_pilot,2023.1.2,Win32,59.65519298,655652e4d1acd4df9b343078,656018846682f3df8008bb8f,656019ccf3d4094a03fd6f22,0,157,157,9,1,onethree,,,,,,,,,,,,,,,,,,,,,,,,,,,,,,,,,,,,,,,,,,,,,,,,,,,,,,,,,,,,,,,,,,,,,,,,,,,,,,,,,,,,,
655652e4d1acd4df9b343078,2023-11-24_13h59.26.250,kallum_motion_pilot,2023.1.2,Win32,59.65519298,655652e4d1acd4df9b343078,656018846682f3df8008bb8f,656019ccf3d4094a03fd6f22,0,158,158,96,1,fivesix,,,,,,,,,,,,,,,,,,,,,,,,,,,,,,,,,,,,,,,,,,,,,,,,,,,,,,,,,,,,,,,,,,,,,,,,,,,,,,,,,,,,,
655652e4d1acd4df9b343078,2023-11-24_13h59.26.250,kallum_motion_pilot,2023.1.2,Win32,59.65519298,655652e4d1acd4df9b343078,656018846682f3df8008bb8f,656019ccf3d4094a03fd6f22,0,159,159,46,1,fourtwo,,,,,,,,,,,,,,,,,,,,,,,,,,,,,,,,,,,,,,,,,,,,,,,,,,,,,,,,,,,,,,,,,,,,,,,,,,,,,,,,,,,,,
655652e4d1acd4df9b343078,2023-11-24_13h59.26.250,kallum_motion_pilot,2023.1.2,Win32,59.65519298,655652e4d1acd4df9b343078,656018846682f3df8008bb8f,656019ccf3d4094a03fd6f22,0,160,160,48,1,onetwo,,,,,,,,,,,,,,,,,,,,,,,,,,,,,,,,,,,,,,,,,,,,,,,,,,,,,,,,,,,,,,,,,,,,,,,,,,,,,,,,,,,,,
655652e4d1acd4df9b343078,2023-11-24_13h59.26.250,kallum_motion_pilot,2023.1.2,Win32,59.65519298,655652e4d1acd4df9b343078,656018846682f3df8008bb8f,656019ccf3d4094a03fd6f22,0,161,161,42,1,twoone,,,,,,,,,,,,,,,,,,,,,,,,,,,,,,,,,,,,,,,,,,,,,,,,,,,,,,,,,,,,,,,,,,,,,,,,,,,,,,,,,,,,,
655652e4d1acd4df9b343078,2023-11-24_13h59.26.250,kallum_motion_pilot,2023.1.2,Win32,59.65519298,655652e4d1acd4df9b343078,656018846682f3df8008bb8f,656019ccf3d4094a03fd6f22,1,0,162,31,1,fourthree,,,,,,,,,,,,,,,,,,,,,,,,,,,,,,,,,,,,,,,,,,,,,,,,,,,,,,,,,,,,,,,,,,,,,,,,,,,,,,,,,,,,,
655652e4d1acd4df9b343078,2023-11-24_13h59.26.250,kallum_motion_pilot,2023.1.2,Win32,59.65519298,655652e4d1acd4df9b343078,656018846682f3df8008bb8f,656019ccf3d4094a03fd6f22,1,1,163,87,1,eightseven,,,,,,,,,,,,,,,,,,,,,,,,,,,,,,,,,,,,,,,,,,,,,,,,,,,,,,,,,,,,,,,,,,,,,,,,,,,,,,,,,,,,,
655652e4d1acd4df9b343078,2023-11-24_13h59.26.250,kallum_motion_pilot,2023.1.2,Win32,59.65519298,655652e4d1acd4df9b343078,656018846682f3df8008bb8f,656019ccf3d4094a03fd6f22,1,2,164,19,1,twofour,,,,,,,,,,,,,,,,,,,,,,,,,,,,,,,,,,,,,,,,,,,,,,,,,,,,,,,,,,,,,,,,,,,,,,,,,,,,,,,,,,,,,
655652e4d1acd4df9b343078,2023-11-24_13h59.26.250,kallum_motion_pilot,2023.1.2,Win32,59.65519298,655652e4d1acd4df9b343078,656018846682f3df8008bb8f,656019ccf3d4094a03fd6f22,1,3,165,4,1,threeone,,,,,,,,,,,,,,,,,,,,,,,,,,,,,,,,,,,,,,,,,,,,,,,,,,,,,,,,,,,,,,,,,,,,,,,,,,,,,,,,,,,,,
655652e4d1acd4df9b343078,2023-11-24_13h59.26.250,kallum_motion_pilot,2023.1.2,Win32,59.65519298,655652e4d1acd4df9b343078,656018846682f3df8008bb8f,656019ccf3d4094a03fd6f22,1,4,166,71,1,fourthree,,,,,,,,,,,,,,,,,,,,,,,,,,,,,,,,,,,,,,,,,,,,,,,,,,,,,,,,,,,,,,,,,,,,,,,,,,,,,,,,,,,,,
655652e4d1acd4df9b343078,2023-11-24_13h59.26.250,kallum_motion_pilot,2023.1.2,Win32,59.65519298,655652e4d1acd4df9b343078,656018846682f3df8008bb8f,656019ccf3d4094a03fd6f22,1,5,167,51,1,twofour,,,,,,,,,,,,,,,,,,,,,,,,,,,,,,,,,,,,,,,,,,,,,,,,,,,,,,,,,,,,,,,,,,,,,,,,,,,,,,,,,,,,,
655652e4d1acd4df9b343078,2023-11-24_13h59.26.250,kallum_motion_pilot,2023.1.2,Win32,59.65519298,655652e4d1acd4df9b343078,656018846682f3df8008bb8f,656019ccf3d4094a03fd6f22,1,6,168,147,1,sixeight,,,,,,,,,,,,,,,,,,,,,,,,,,,,,,,,,,,,,,,,,,,,,,,,,,,,,,,,,,,,,,,,,,,,,,,,,,,,,,,,,,,,,
655652e4d1acd4df9b343078,2023-11-24_13h59.26.250,kallum_motion_pilot,2023.1.2,Win32,59.65519298,655652e4d1acd4df9b343078,656018846682f3df8008bb8f,656019ccf3d4094a03fd6f22,1,7,169,96,1,fivesix,,,,,,,,,,,,,,,,,,,,,,,,,,,,,,,,,,,,,,,,,,,,,,,,,,,,,,,,,,,,,,,,,,,,,,,,,,,,,,,,,,,,,
655652e4d1acd4df9b343078,2023-11-24_13h59.26.250,kallum_motion_pilot,2023.1.2,Win32,59.65519298,655652e4d1acd4df9b343078,656018846682f3df8008bb8f,656019ccf3d4094a03fd6f22,1,8,170,144,1,fivesix,,,,,,,,,,,,,,,,,,,,,,,,,,,,,,,,,,,,,,,,,,,,,,,,,,,,,,,,,,,,,,,,,,,,,,,,,,,,,,,,,,,,,
655652e4d1acd4df9b343078,2023-11-24_13h59.26.250,kallum_motion_pilot,2023.1.2,Win32,59.65519298,655652e4d1acd4df9b343078,656018846682f3df8008bb8f,656019ccf3d4094a03fd6f22,1,9,171,158,1,eightsix,,,,,,,,,,,,,,,,,,,,,,,,,,,,,,,,,,,,,,,,,,,,,,,,,,,,,,,,,,,,,,,,,,,,,,,,,,,,,,,,,,,,,
655652e4d1acd4df9b343078,2023-11-24_13h59.26.250,kallum_motion_pilot,2023.1.2,Win32,59.65519298,655652e4d1acd4df9b343078,656018846682f3df8008bb8f,656019ccf3d4094a03fd6f22,1,10,172,117,1,seveneight,,,,,,,,,,,,,,,,,,,,,,,,,,,,,,,,,,,,,,,,,,,,,,,,,,,,,,,,,,,,,,,,,,,,,,,,,,,,,,,,,,,,,
655652e4d1acd4df9b343078,2023-11-24_13h59.26.250,kallum_motion_pilot,2023.1.2,Win32,59.65519298,655652e4d1acd4df9b343078,656018846682f3df8008bb8f,656019ccf3d4094a03fd6f22,1,11,173,134,1,eightsix,,,,,,,,,,,,,,,,,,,,,,,,,,,,,,,,,,,,,,,,,,,,,,,,,,,,,,,,,,,,,,,,,,,,,,,,,,,,,,,,,,,,,
655652e4d1acd4df9b343078,2023-11-24_13h59.26.250,kallum_motion_pilot,2023.1.2,Win32,59.65519298,655652e4d1acd4df9b343078,656018846682f3df8008bb8f,656019ccf3d4094a03fd6f22,1,12,174,34,1,twoone,,,,,,,,,,,,,,,,,,,,,,,,,,,,,,,,,,,,,,,,,,,,,,,,,,,,,,,,,,,,,,,,,,,,,,,,,,,,,,,,,,,,,
655652e4d1acd4df9b343078,2023-11-24_13h59.26.250,kallum_motion_pilot,2023.1.2,Win32,59.65519298,655652e4d1acd4df9b343078,656018846682f3df8008bb8f,656019ccf3d4094a03fd6f22,1,13,175,22,1,fourtwo,,,,,,,,,,,,,,,,,,,,,,,,,,,,,,,,,,,,,,,,,,,,,,,,,,,,,,,,,,,,,,,,,,,,,,,,,,,,,,,,,,,,,
655652e4d1acd4df9b343078,2023-11-24_13h59.26.250,kallum_motion_pilot,2023.1.2,Win32,59.65519298,655652e4d1acd4df9b343078,656018846682f3df8008bb8f,656019ccf3d4094a03fd6f22,1,14,176,65,1,onethree,,,,,,,,,,,,,,,,,,,,,,,,,,,,,,,,,,,,,,,,,,,,,,,,,,,,,,,,,,,,,,,,,,,,,,,,,,,,,,,,,,,,,
655652e4d1acd4df9b343078,2023-11-24_13h59.26.250,kallum_motion_pilot,2023.1.2,Win32,59.65519298,655652e4d1acd4df9b343078,656018846682f3df8008bb8f,656019ccf3d4094a03fd6f22,1,15,177,152,1,fivesix,,,,,,,,,,,,,,,,,,,,,,,,,,,,,,,,,,,,,,,,,,,,,,,,,,,,,,,,,,,,,,,,,,,,,,,,,,,,,,,,,,,,,
655652e4d1acd4df9b343078,2023-11-24_13h59.26.250,kallum_motion_pilot,2023.1.2,Win32,59.65519298,655652e4d1acd4df9b343078,656018846682f3df8008bb8f,656019ccf3d4094a03fd6f22,1,16,178,139,1,sixeight,,,,,,,,,,,,,,,,,,,,,,,,,,,,,,,,,,,,,,,,,,,,,,,,,,,,,,,,,,,,,,,,,,,,,,,,,,,,,,,,,,,,,
655652e4d1acd4df9b343078,2023-11-24_13h59.26.250,kallum_motion_pilot,2023.1.2,Win32,59.65519298,655652e4d1acd4df9b343078,656018846682f3df8008bb8f,656019ccf3d4094a03fd6f22,1,17,179,77,1,threefour,,,,,,,,,,,,,,,,,,,,,,,,,,,,,,,,,,,,,,,,,,,,,,,,,,,,,,,,,,,,,,,,,,,,,,,,,,,,,,,,,,,,,
655652e4d1acd4df9b343078,2023-11-24_13h59.26.250,kallum_motion_pilot,2023.1.2,Win32,59.65519298,655652e4d1acd4df9b343078,656018846682f3df8008bb8f,656019ccf3d4094a03fd6f22,1,18,180,118,1,eightsix,,,,,,,,,,,,,,,,,,,,,,,,,,,,,,,,,,,,,,,,,,,,,,,,,,,,,,,,,,,,,,,,,,,,,,,,,,,,,,,,,,,,,
655652e4d1acd4df9b343078,2023-11-24_13h59.26.250,kallum_motion_pilot,2023.1.2,Win32,59.65519298,655652e4d1acd4df9b343078,656018846682f3df8008bb8f,656019ccf3d4094a03fd6f22,1,19,181,98,1,sixfive,,,,,,,,,,,,,,,,,,,,,,,,,,,,,,,,,,,,,,,,,,,,,,,,,,,,,,,,,,,,,,,,,,,,,,,,,,,,,,,,,,,,,
655652e4d1acd4df9b343078,2023-11-24_13h59.26.250,kallum_motion_pilot,2023.1.2,Win32,59.65519298,655652e4d1acd4df9b343078,656018846682f3df8008bb8f,656019ccf3d4094a03fd6f22,1,20,182,46,1,fourtwo,,,,,,,,,,,,,,,,,,,,,,,,,,,,,,,,,,,,,,,,,,,,,,,,,,,,,,,,,,,,,,,,,,,,,,,,,,,,,,,,,,,,,
655652e4d1acd4df9b343078,2023-11-24_13h59.26.250,kallum_motion_pilot,2023.1.2,Win32,59.65519298,655652e4d1acd4df9b343078,656018846682f3df8008bb8f,656019ccf3d4094a03fd6f22,1,21,183,82,1,sixfive,,,,,,,,,,,,,,,,,,,,,,,,,,,,,,,,,,,,,,,,,,,,,,,,,,,,,,,,,,,,,,,,,,,,,,,,,,,,,,,,,,,,,
655652e4d1acd4df9b343078,2023-11-24_13h59.26.250,kallum_motion_pilot,2023.1.2,Win32,59.65519298,655652e4d1acd4df9b343078,656018846682f3df8008bb8f,656019ccf3d4094a03fd6f22,1,22,184,137,1,fiveseven,,,,,,,,,,,,,,,,,,,,,,,,,,,,,,,,,,,,,,,,,,,,,,,,,,,,,,,,,,,,,,,,,,,,,,,,,,,,,,,,,,,,,
655652e4d1acd4df9b343078,2023-11-24_13h59.26.250,kallum_motion_pilot,2023.1.2,Win32,59.65519298,655652e4d1acd4df9b343078,656018846682f3df8008bb8f,656019ccf3d4094a03fd6f22,1,23,185,36,1,threeone,,,,,,,,,,,,,,,,,,,,,,,,,,,,,,,,,,,,,,,,,,,,,,,,,,,,,,,,,,,,,,,,,,,,,,,,,,,,,,,,,,,,,
655652e4d1acd4df9b343078,2023-11-24_13h59.26.250,kallum_motion_pilot,2023.1.2,Win32,59.65519298,655652e4d1acd4df9b343078,656018846682f3df8008bb8f,656019ccf3d4094a03fd6f22,1,24,186,56,1,onetwo,,,,,,,,,,,,,,,,,,,,,,,,,,,,,,,,,,,,,,,,,,,,,,,,,,,,,,,,,,,,,,,,,,,,,,,,,,,,,,,,,,,,,
655652e4d1acd4df9b343078,2023-11-24_13h59.26.250,kallum_motion_pilot,2023.1.2,Win32,59.65519298,655652e4d1acd4df9b343078,656018846682f3df8008bb8f,656019ccf3d4094a03fd6f22,1,25,187,33,1,onethree,,,,,,,,,,,,,,,,,,,,,,,,,,,,,,,,,,,,,,,,,,,,,,,,,,,,,,,,,,,,,,,,,,,,,,,,,,,,,,,,,,,,,
655652e4d1acd4df9b343078,2023-11-24_13h59.26.250,kallum_motion_pilot,2023.1.2,Win32,59.65519298,655652e4d1acd4df9b343078,656018846682f3df8008bb8f,656019ccf3d4094a03fd6f22,1,26,188,143,1,eightseven,,,,,,,,,,,,,,,,,,,,,,,,,,,,,,,,,,,,,,,,,,,,,,,,,,,,,,,,,,,,,,,,,,,,,,,,,,,,,,,,,,,,,
655652e4d1acd4df9b343078,2023-11-24_13h59.26.250,kallum_motion_pilot,2023.1.2,Win32,59.65519298,655652e4d1acd4df9b343078,656018846682f3df8008bb8f,656019ccf3d4094a03fd6f22,1,27,189,45,1,threefour,,,,,,,,,,,,,,,,,,,,,,,,,,,,,,,,,,,,,,,,,,,,,,,,,,,,,,,,,,,,,,,,,,,,,,,,,,,,,,,,,,,,,
655652e4d1acd4df9b343078,2023-11-24_13h59.26.250,kallum_motion_pilot,2023.1.2,Win32,59.65519298,655652e4d1acd4df9b343078,656018846682f3df8008bb8f,656019ccf3d4094a03fd6f22,1,28,190,59,1,twofour,,,,,,,,,,,,,,,,,,,,,,,,,,,,,,,,,,,,,,,,,,,,,,,,,,,,,,,,,,,,,,,,,,,,,,,,,,,,,,,,,,,,,
655652e4d1acd4df9b343078,2023-11-24_13h59.26.250,kallum_motion_pilot,2023.1.2,Win32,59.65519298,655652e4d1acd4df9b343078,656018846682f3df8008bb8f,656019ccf3d4094a03fd6f22,1,29,191,79,1,eightseven,,,,,,,,,,,,,,,,,,,,,,,,,,,,,,,,,,,,,,,,,,,,,,,,,,,,,,,,,,,,,,,,,,,,,,,,,,,,,,,,,,,,,
655652e4d1acd4df9b343078,2023-11-24_13h59.26.250,kallum_motion_pilot,2023.1.2,Win32,59.65519298,655652e4d1acd4df9b343078,656018846682f3df8008bb8f,656019ccf3d4094a03fd6f22,1,30,192,21,1,threefour,,,,,,,,,,,,,,,,,,,,,,,,,,,,,,,,,,,,,,,,,,,,,,,,,,,,,,,,,,,,,,,,,,,,,,,,,,,,,,,,,,,,,
655652e4d1acd4df9b343078,2023-11-24_13h59.26.250,kallum_motion_pilot,2023.1.2,Win32,59.65519298,655652e4d1acd4df9b343078,656018846682f3df8008bb8f,656019ccf3d4094a03fd6f22,1,31,193,119,1,eightseven,,,,,,,,,,,,,,,,,,,,,,,,,,,,,,,,,,,,,,,,,,,,,,,,,,,,,,,,,,,,,,,,,,,,,,,,,,,,,,,,,,,,,
655652e4d1acd4df9b343078,2023-11-24_13h59.26.250,kallum_motion_pilot,2023.1.2,Win32,59.65519298,655652e4d1acd4df9b343078,656018846682f3df8008bb8f,656019ccf3d4094a03fd6f22,1,32,194,41,1,onethree,,,,,,,,,,,,,,,,,,,,,,,,,,,,,,,,,,,,,,,,,,,,,,,,,,,,,,,,,,,,,,,,,,,,,,,,,,,,,,,,,,,,,
655652e4d1acd4df9b343078,2023-11-24_13h59.26.250,kallum_motion_pilot,2023.1.2,Win32,59.65519298,655652e4d1acd4df9b343078,656018846682f3df8008bb8f,656019ccf3d4094a03fd6f22,1,33,195,70,1,fourtwo,,,,,,,,,,,,,,,,,,,,,,,,,,,,,,,,,,,,,,,,,,,,,,,,,,,,,,,,,,,,,,,,,,,,,,,,,,,,,,,,,,,,,
655652e4d1acd4df9b343078,2023-11-24_13h59.26.250,kallum_motion_pilot,2023.1.2,Win32,59.65519298,655652e4d1acd4df9b343078,656018846682f3df8008bb8f,656019ccf3d4094a03fd6f22,1,34,196,101,1,seveneight,,,,,,,,,,,,,,,,,,,,,,,,,,,,,,,,,,,,,,,,,,,,,,,,,,,,,,,,,,,,,,,,,,,,,,,,,,,,,,,,,,,,,
655652e4d1acd4df9b343078,2023-11-24_13h59.26.250,kallum_motion_pilot,2023.1.2,Win32,59.65519298,655652e4d1acd4df9b343078,656018846682f3df8008bb8f,656019ccf3d4094a03fd6f22,1,35,197,159,1,eightseven,,,,,,,,,,,,,,,,,,,,,,,,,,,,,,,,,,,,,,,,,,,,,,,,,,,,,,,,,,,,,,,,,,,,,,,,,,,,,,,,,,,,,
655652e4d1acd4df9b343078,2023-11-24_13h59.26.250,kallum_motion_pilot,2023.1.2,Win32,59.65519298,655652e4d1acd4df9b343078,656018846682f3df8008bb8f,656019ccf3d4094a03fd6f22,1,36,198,86,1,eightsix,,,,,,,,,,,,,,,,,,,,,,,,,,,,,,,,,,,,,,,,,,,,,,,,,,,,,,,,,,,,,,,,,,,,,,,,,,,,,,,,,,,,,
655652e4d1acd4df9b343078,2023-11-24_13h59.26.250,kallum_motion_pilot,2023.1.2,Win32,59.65519298,655652e4d1acd4df9b343078,656018846682f3df8008bb8f,656019ccf3d4094a03fd6f22,1,37,199,40,1,onetwo,,,,,,,,,,,,,,,,,,,,,,,,,,,,,,,,,,,,,,,,,,,,,,,,,,,,,,,,,,,,,,,,,,,,,,,,,,,,,,,,,,,,,
655652e4d1acd4df9b343078,2023-11-24_13h59.26.250,kallum_motion_pilot,2023.1.2,Win32,59.65519298,655652e4d1acd4df9b343078,656018846682f3df8008bb8f,656019ccf3d4094a03fd6f22,1,38,200,42,1,twoone,,,,,,,,,,,,,,,,,,,,,,,,,,,,,,,,,,,,,,,,,,,,,,,,,,,,,,,,,,,,,,,,,,,,,,,,,,,,,,,,,,,,,
655652e4d1acd4df9b343078,2023-11-24_13h59.26.250,kallum_motion_pilot,2023.1.2,Win32,59.65519298,655652e4d1acd4df9b343078,656018846682f3df8008bb8f,656019ccf3d4094a03fd6f22,1,39,201,135,1,eightseven,,,,,,,,,,,,,,,,,,,,,,,,,,,,,,,,,,,,,,,,,,,,,,,,,,,,,,,,,,,,,,,,,,,,,,,,,,,,,,,,,,,,,
655652e4d1acd4df9b343078,2023-11-24_13h59.26.250,kallum_motion_pilot,2023.1.2,Win32,59.65519298,655652e4d1acd4df9b343078,656018846682f3df8008bb8f,656019ccf3d4094a03fd6f22,1,40,202,67,1,twofour,,,,,,,,,,,,,,,,,,,,,,,,,,,,,,,,,,,,,,,,,,,,,,,,,,,,,,,,,,,,,,,,,,,,,,,,,,,,,,,,,,,,,
655652e4d1acd4df9b343078,2023-11-24_13h59.26.250,kallum_motion_pilot,2023.1.2,Win32,59.65519298,655652e4d1acd4df9b343078,656018846682f3df8008bb8f,656019ccf3d4094a03fd6f22,1,41,203,150,1,eightsix,,,,,,,,,,,,,,,,,,,,,,,,,,,,,,,,,,,,,,,,,,,,,,,,,,,,,,,,,,,,,,,,,,,,,,,,,,,,,,,,,,,,,
655652e4d1acd4df9b343078,2023-11-24_13h59.26.250,kallum_motion_pilot,2023.1.2,Win32,59.65519298,655652e4d1acd4df9b343078,656018846682f3df8008bb8f,656019ccf3d4094a03fd6f22,1,42,204,111,1,eightseven,,,,,,,,,,,,,,,,,,,,,,,,,,,,,,,,,,,,,,,,,,,,,,,,,,,,,,,,,,,,,,,,,,,,,,,,,,,,,,,,,,,,,
655652e4d1acd4df9b343078,2023-11-24_13h59.26.250,kallum_motion_pilot,2023.1.2,Win32,59.65519298,655652e4d1acd4df9b343078,656018846682f3df8008bb8f,656019ccf3d4094a03fd6f22,1,43,205,60,1,threeone,,,,,,,,,,,,,,,,,,,,,,,,,,,,,,,,,,,,,,,,,,,,,,,,,,,,,,,,,,,,,,,,,,,,,,,,,,,,,,,,,,,,,
655652e4d1acd4df9b343078,2023-11-24_13h59.26.250,kallum_motion_pilot,2023.1.2,Win32,59.65519298,655652e4d1acd4df9b343078,656018846682f3df8008bb8f,656019ccf3d4094a03fd6f22,1,44,206,104,1,fivesix,,,,,,,,,,,,,,,,,,,,,,,,,,,,,,,,,,,,,,,,,,,,,,,,,,,,,,,,,,,,,,,,,,,,,,,,,,,,,,,,,,,,,
655652e4d1acd4df9b343078,2023-11-24_13h59.26.250,kallum_motion_pilot,2023.1.2,Win32,59.65519298,655652e4d1acd4df9b343078,656018846682f3df8008bb8f,656019ccf3d4094a03fd6f22,1,45,207,17,1,onethree,,,,,,,,,,,,,,,,,,,,,,,,,,,,,,,,,,,,,,,,,,,,,,,,,,,,,,,,,,,,,,,,,,,,,,,,,,,,,,,,,,,,,
655652e4d1acd4df9b343078,2023-11-24_13h59.26.250,kallum_motion_pilot,2023.1.2,Win32,59.65519298,655652e4d1acd4df9b343078,656018846682f3df8008bb8f,656019ccf3d4094a03fd6f22,1,46,208,12,1,threeone,,,,,,,,,,,,,,,,,,,,,,,,,,,,,,,,,,,,,,,,,,,,,,,,,,,,,,,,,,,,,,,,,,,,,,,,,,,,,,,,,,,,,
655652e4d1acd4df9b343078,2023-11-24_13h59.26.250,kallum_motion_pilot,2023.1.2,Win32,59.65519298,655652e4d1acd4df9b343078,656018846682f3df8008bb8f,656019ccf3d4094a03fd6f22,1,47,209,37,1,threefour,,,,,,,,,,,,,,,,,,,,,,,,,,,,,,,,,,,,,,,,,,,,,,,,,,,,,,,,,,,,,,,,,,,,,,,,,,,,,,,,,,,,,
655652e4d1acd4df9b343078,2023-11-24_13h59.26.250,kallum_motion_pilot,2023.1.2,Win32,59.65519298,655652e4d1acd4df9b343078,656018846682f3df8008bb8f,656019ccf3d4094a03fd6f22,1,48,210,54,1,fourtwo,,,,,,,,,,,,,,,,,,,,,,,,,,,,,,,,,,,,,,,,,,,,,,,,,,,,,,,,,,,,,,,,,,,,,,,,,,,,,,,,,,,,,
655652e4d1acd4df9b343078,2023-11-24_13h59.26.250,kallum_motion_pilot,2023.1.2,Win32,59.65519298,655652e4d1acd4df9b343078,656018846682f3df8008bb8f,656019ccf3d4094a03fd6f22,1,49,211,1,1,onethree,,,,,,,,,,,,,,,,,,,,,,,,,,,,,,,,,,,,,,,,,,,,,,,,,,,,,,,,,,,,,,,,,,,,,,,,,,,,,,,,,,,,,
655652e4d1acd4df9b343078,2023-11-24_13h59.26.250,kallum_motion_pilot,2023.1.2,Win32,59.65519298,655652e4d1acd4df9b343078,656018846682f3df8008bb8f,656019ccf3d4094a03fd6f22,1,50,212,57,1,onethree,,,,,,,,,,,,,,,,,,,,,,,,,,,,,,,,,,,,,,,,,,,,,,,,,,,,,,,,,,,,,,,,,,,,,,,,,,,,,,,,,,,,,
655652e4d1acd4df9b343078,2023-11-24_13h59.26.250,kallum_motion_pilot,2023.1.2,Win32,59.65519298,655652e4d1acd4df9b343078,656018846682f3df8008bb8f,656019ccf3d4094a03fd6f22,1,51,213,0,1,onetwo,,,,,,,,,,,,,,,,,,,,,,,,,,,,,,,,,,,,,,,,,,,,,,,,,,,,,,,,,,,,,,,,,,,,,,,,,,,,,,,,,,,,,
655652e4d1acd4df9b343078,2023-11-24_13h59.26.250,kallum_motion_pilot,2023.1.2,Win32,59.65519298,655652e4d1acd4df9b343078,656018846682f3df8008bb8f,656019ccf3d4094a03fd6f22,1,52,214,83,1,sixeight,,,,,,,,,,,,,,,,,,,,,,,,,,,,,,,,,,,,,,,,,,,,,,,,,,,,,,,,,,,,,,,,,,,,,,,,,,,,,,,,,,,,,
655652e4d1acd4df9b343078,2023-11-24_13h59.26.250,kallum_motion_pilot,2023.1.2,Win32,59.65519298,655652e4d1acd4df9b343078,656018846682f3df8008bb8f,656019ccf3d4094a03fd6f22,1,53,215,73,1,onethree,,,,,,,,,,,,,,,,,,,,,,,,,,,,,,,,,,,,,,,,,,,,,,,,,,,,,,,,,,,,,,,,,,,,,,,,,,,,,,,,,,,,,
655652e4d1acd4df9b343078,2023-11-24_13h59.26.250,kallum_motion_pilot,2023.1.2,Win32,59.65519298,655652e4d1acd4df9b343078,656018846682f3df8008bb8f,656019ccf3d4094a03fd6f22,1,54,216,62,1,fourtwo,,,,,,,,,,,,,,,,,,,,,,,,,,,,,,,,,,,,,,,,,,,,,,,,,,,,,,,,,,,,,,,,,,,,,,,,,,,,,,,,,,,,,
655652e4d1acd4df9b343078,2023-11-24_13h59.26.250,kallum_motion_pilot,2023.1.2,Win32,59.65519298,655652e4d1acd4df9b343078,656018846682f3df8008bb8f,656019ccf3d4094a03fd6f22,1,55,217,125,1,seveneight,,,,,,,,,,,,,,,,,,,,,,,,,,,,,,,,,,,,,,,,,,,,,,,,,,,,,,,,,,,,,,,,,,,,,,,,,,,,,,,,,,,,,
655652e4d1acd4df9b343078,2023-11-24_13h59.26.250,kallum_motion_pilot,2023.1.2,Win32,59.65519298,655652e4d1acd4df9b343078,656018846682f3df8008bb8f,656019ccf3d4094a03fd6f22,1,56,218,103,1,eightseven,,,,,,,,,,,,,,,,,,,,,,,,,,,,,,,,,,,,,,,,,,,,,,,,,,,,,,,,,,,,,,,,,,,,,,,,,,,,,,,,,,,,,
655652e4d1acd4df9b343078,2023-11-24_13h59.26.250,kallum_motion_pilot,2023.1.2,Win32,59.65519298,655652e4d1acd4df9b343078,656018846682f3df8008bb8f,656019ccf3d4094a03fd6f22,1,57,219,15,1,fourthree,,,,,,,,,,,,,,,,,,,,,,,,,,,,,,,,,,,,,,,,,,,,,,,,,,,,,,,,,,,,,,,,,,,,,,,,,,,,,,,,,,,,,
655652e4d1acd4df9b343078,2023-11-24_13h59.26.250,kallum_motion_pilot,2023.1.2,Win32,59.65519298,655652e4d1acd4df9b343078,656018846682f3df8008bb8f,656019ccf3d4094a03fd6f22,1,58,220,2,1,twoone,,,,,,,,,,,,,,,,,,,,,,,,,,,,,,,,,,,,,,,,,,,,,,,,,,,,,,,,,,,,,,,,,,,,,,,,,,,,,,,,,,,,,
655652e4d1acd4df9b343078,2023-11-24_13h59.26.250,kallum_motion_pilot,2023.1.2,Win32,59.65519298,655652e4d1acd4df9b343078,656018846682f3df8008bb8f,656019ccf3d4094a03fd6f22,1,59,221,39,1,fourthree,,,,,,,,,,,,,,,,,,,,,,,,,,,,,,,,,,,,,,,,,,,,,,,,,,,,,,,,,,,,,,,,,,,,,,,,,,,,,,,,,,,,,
655652e4d1acd4df9b343078,2023-11-24_13h59.26.250,kallum_motion_pilot,2023.1.2,Win32,59.65519298,655652e4d1acd4df9b343078,656018846682f3df8008bb8f,656019ccf3d4094a03fd6f22,1,60,222,133,1,seveneight,,,,,,,,,,,,,,,,,,,,,,,,,,,,,,,,,,,,,,,,,,,,,,,,,,,,,,,,,,,,,,,,,,,,,,,,,,,,,,,,,,,,,
655652e4d1acd4df9b343078,2023-11-24_13h59.26.250,kallum_motion_pilot,2023.1.2,Win32,59.65519298,655652e4d1acd4df9b343078,656018846682f3df8008bb8f,656019ccf3d4094a03fd6f22,1,61,223,30,1,fourtwo,,,,,,,,,,,,,,,,,,,,,,,,,,,,,,,,,,,,,,,,,,,,,,,,,,,,,,,,,,,,,,,,,,,,,,,,,,,,,,,,,,,,,
655652e4d1acd4df9b343078,2023-11-24_13h59.26.250,kallum_motion_pilot,2023.1.2,Win32,59.65519298,655652e4d1acd4df9b343078,656018846682f3df8008bb8f,656019ccf3d4094a03fd6f22,1,62,224,58,1,twoone,,,,,,,,,,,,,,,,,,,,,,,,,,,,,,,,,,,,,,,,,,,,,,,,,,,,,,,,,,,,,,,,,,,,,,,,,,,,,,,,,,,,,
655652e4d1acd4df9b343078,2023-11-24_13h59.26.250,kallum_motion_pilot,2023.1.2,Win32,59.65519298,655652e4d1acd4df9b343078,656018846682f3df8008bb8f,656019ccf3d4094a03fd6f22,1,63,225,140,1,sevenfive,,,,,,,,,,,,,,,,,,,,,,,,,,,,,,,,,,,,,,,,,,,,,,,,,,,,,,,,,,,,,,,,,,,,,,,,,,,,,,,,,,,,,
655652e4d1acd4df9b343078,2023-11-24_13h59.26.250,kallum_motion_pilot,2023.1.2,Win32,59.65519298,655652e4d1acd4df9b343078,656018846682f3df8008bb8f,656019ccf3d4094a03fd6f22,1,64,226,124,1,sevenfive,,,,,,,,,,,,,,,,,,,,,,,,,,,,,,,,,,,,,,,,,,,,,,,,,,,,,,,,,,,,,,,,,,,,,,,,,,,,,,,,,,,,,
655652e4d1acd4df9b343078,2023-11-24_13h59.26.250,kallum_motion_pilot,2023.1.2,Win32,59.65519298,655652e4d1acd4df9b343078,656018846682f3df8008bb8f,656019ccf3d4094a03fd6f22,1,65,227,110,1,eightsix,,,,,,,,,,,,,,,,,,,,,,,,,,,,,,,,,,,,,,,,,,,,,,,,,,,,,,,,,,,,,,,,,,,,,,,,,,,,,,,,,,,,,
655652e4d1acd4df9b343078,2023-11-24_13h59.26.250,kallum_motion_pilot,2023.1.2,Win32,59.65519298,655652e4d1acd4df9b343078,656018846682f3df8008bb8f,656019ccf3d4094a03fd6f22,1,66,228,154,1,sixfive,,,,,,,,,,,,,,,,,,,,,,,,,,,,,,,,,,,,,,,,,,,,,,,,,,,,,,,,,,,,,,,,,,,,,,,,,,,,,,,,,,,,,
655652e4d1acd4df9b343078,2023-11-24_13h59.26.250,kallum_motion_pilot,2023.1.2,Win32,59.65519298,655652e4d1acd4df9b343078,656018846682f3df8008bb8f,656019ccf3d4094a03fd6f22,1,67,229,120,1,fivesix,,,,,,,,,,,,,,,,,,,,,,,,,,,,,,,,,,,,,,,,,,,,,,,,,,,,,,,,,,,,,,,,,,,,,,,,,,,,,,,,,,,,,
655652e4d1acd4df9b343078,2023-11-24_13h59.26.250,kallum_motion_pilot,2023.1.2,Win32,59.65519298,655652e4d1acd4df9b343078,656018846682f3df8008bb8f,656019ccf3d4094a03fd6f22,1,68,230,106,1,sixfive,,,,,,,,,,,,,,,,,,,,,,,,,,,,,,,,,,,,,,,,,,,,,,,,,,,,,,,,,,,,,,,,,,,,,,,,,,,,,,,,,,,,,
655652e4d1acd4df9b343078,2023-11-24_13h59.26.250,kallum_motion_pilot,2023.1.2,Win32,59.65519298,655652e4d1acd4df9b343078,656018846682f3df8008bb8f,656019ccf3d4094a03fd6f22,1,69,231,25,1,onethree,,,,,,,,,,,,,,,,,,,,,,,,,,,,,,,,,,,,,,,,,,,,,,,,,,,,,,,,,,,,,,,,,,,,,,,,,,,,,,,,,,,,,
655652e4d1acd4df9b343078,2023-11-24_13h59.26.250,kallum_motion_pilot,2023.1.2,Win32,59.65519298,655652e4d1acd4df9b343078,656018846682f3df8008bb8f,656019ccf3d4094a03fd6f22,1,70,232,97,1,fiveseven,,,,,,,,,,,,,,,,,,,,,,,,,,,,,,,,,,,,,,,,,,,,,,,,,,,,,,,,,,,,,,,,,,,,,,,,,,,,,,,,,,,,,
655652e4d1acd4df9b343078,2023-11-24_13h59.26.250,kallum_motion_pilot,2023.1.2,Win32,59.65519298,655652e4d1acd4df9b343078,656018846682f3df8008bb8f,656019ccf3d4094a03fd6f22,1,71,233,50,1,twoone,,,,,,,,,,,,,,,,,,,,,,,,,,,,,,,,,,,,,,,,,,,,,,,,,,,,,,,,,,,,,,,,,,,,,,,,,,,,,,,,,,,,,
655652e4d1acd4df9b343078,2023-11-24_13h59.26.250,kallum_motion_pilot,2023.1.2,Win32,59.65519298,655652e4d1acd4df9b343078,656018846682f3df8008bb8f,656019ccf3d4094a03fd6f22,1,72,234,85,1,seveneight,,,,,,,,,,,,,,,,,,,,,,,,,,,,,,,,,,,,,,,,,,,,,,,,,,,,,,,,,,,,,,,,,,,,,,,,,,,,,,,,,,,,,
655652e4d1acd4df9b343078,2023-11-24_13h59.26.250,kallum_motion_pilot,2023.1.2,Win32,59.65519298,655652e4d1acd4df9b343078,656018846682f3df8008bb8f,656019ccf3d4094a03fd6f22,1,73,235,84,1,sevenfive,,,,,,,,,,,,,,,,,,,,,,,,,,,,,,,,,,,,,,,,,,,,,,,,,,,,,,,,,,,,,,,,,,,,,,,,,,,,,,,,,,,,,
655652e4d1acd4df9b343078,2023-11-24_13h59.26.250,kallum_motion_pilot,2023.1.2,Win32,59.65519298,655652e4d1acd4df9b343078,656018846682f3df8008bb8f,656019ccf3d4094a03fd6f22,1,74,236,16,1,onetwo,,,,,,,,,,,,,,,,,,,,,,,,,,,,,,,,,,,,,,,,,,,,,,,,,,,,,,,,,,,,,,,,,,,,,,,,,,,,,,,,,,,,,
655652e4d1acd4df9b343078,2023-11-24_13h59.26.250,kallum_motion_pilot,2023.1.2,Win32,59.65519298,655652e4d1acd4df9b343078,656018846682f3df8008bb8f,656019ccf3d4094a03fd6f22,1,75,237,92,1,sevenfive,,,,,,,,,,,,,,,,,,,,,,,,,,,,,,,,,,,,,,,,,,,,,,,,,,,,,,,,,,,,,,,,,,,,,,,,,,,,,,,,,,,,,
655652e4d1acd4df9b343078,2023-11-24_13h59.26.250,kallum_motion_pilot,2023.1.2,Win32,59.65519298,655652e4d1acd4df9b343078,656018846682f3df8008bb8f,656019ccf3d4094a03fd6f22,1,76,238,47,1,fourthree,,,,,,,,,,,,,,,,,,,,,,,,,,,,,,,,,,,,,,,,,,,,,,,,,,,,,,,,,,,,,,,,,,,,,,,,,,,,,,,,,,,,,
655652e4d1acd4df9b343078,2023-11-24_13h59.26.250,kallum_motion_pilot,2023.1.2,Win32,59.65519298,655652e4d1acd4df9b343078,656018846682f3df8008bb8f,656019ccf3d4094a03fd6f22,1,77,239,61,1,threefour,,,,,,,,,,,,,,,,,,,,,,,,,,,,,,,,,,,,,,,,,,,,,,,,,,,,,,,,,,,,,,,,,,,,,,,,,,,,,,,,,,,,,
655652e4d1acd4df9b343078,2023-11-24_13h59.26.250,kallum_motion_pilot,2023.1.2,Win32,59.65519298,655652e4d1acd4df9b343078,656018846682f3df8008bb8f,656019ccf3d4094a03fd6f22,1,78,240,108,1,sevenfive,,,,,,,,,,,,,,,,,,,,,,,,,,,,,,,,,,,,,,,,,,,,,,,,,,,,,,,,,,,,,,,,,,,,,,,,,,,,,,,,,,,,,
655652e4d1acd4df9b343078,2023-11-24_13h59.26.250,kallum_motion_pilot,2023.1.2,Win32,59.65519298,655652e4d1acd4df9b343078,656018846682f3df8008bb8f,656019ccf3d4094a03fd6f22,1,79,241,105,1,fiveseven,,,,,,,,,,,,,,,,,,,,,,,,,,,,,,,,,,,,,,,,,,,,,,,,,,,,,,,,,,,,,,,,,,,,,,,,,,,,,,,,,,,,,
655652e4d1acd4df9b343078,2023-11-24_13h59.26.250,kallum_motion_pilot,2023.1.2,Win32,59.65519298,655652e4d1acd4df9b343078,656018846682f3df8008bb8f,656019ccf3d4094a03fd6f22,1,80,242,26,1,twoone,,,,,,,,,,,,,,,,,,,,,,,,,,,,,,,,,,,,,,,,,,,,,,,,,,,,,,,,,,,,,,,,,,,,,,,,,,,,,,,,,,,,,
655652e4d1acd4df9b343078,2023-11-24_13h59.26.250,kallum_motion_pilot,2023.1.2,Win32,59.65519298,655652e4d1acd4df9b343078,656018846682f3df8008bb8f,656019ccf3d4094a03fd6f22,1,81,243,115,1,sixeight,,,,,,,,,,,,,,,,,,,,,,,,,,,,,,,,,,,,,,,,,,,,,,,,,,,,,,,,,,,,,,,,,,,,,,,,,,,,,,,,,,,,,
655652e4d1acd4df9b343078,2023-11-24_13h59.26.250,kallum_motion_pilot,2023.1.2,Win32,59.65519298,655652e4d1acd4df9b343078,656018846682f3df8008bb8f,656019ccf3d4094a03fd6f22,1,82,244,27,1,twofour,,,,,,,,,,,,,,,,,,,,,,,,,,,,,,,,,,,,,,,,,,,,,,,,,,,,,,,,,,,,,,,,,,,,,,,,,,,,,,,,,,,,,
655652e4d1acd4df9b343078,2023-11-24_13h59.26.250,kallum_motion_pilot,2023.1.2,Win32,59.65519298,655652e4d1acd4df9b343078,656018846682f3df8008bb8f,656019ccf3d4094a03fd6f22,1,83,245,149,1,seveneight,,,,,,,,,,,,,,,,,,,,,,,,,,,,,,,,,,,,,,,,,,,,,,,,,,,,,,,,,,,,,,,,,,,,,,,,,,,,,,,,,,,,,
655652e4d1acd4df9b343078,2023-11-24_13h59.26.250,kallum_motion_pilot,2023.1.2,Win32,59.65519298,655652e4d1acd4df9b343078,656018846682f3df8008bb8f,656019ccf3d4094a03fd6f22,1,84,246,69,1,threefour,,,,,,,,,,,,,,,,,,,,,,,,,,,,,,,,,,,,,,,,,,,,,,,,,,,,,,,,,,,,,,,,,,,,,,,,,,,,,,,,,,,,,
655652e4d1acd4df9b343078,2023-11-24_13h59.26.250,kallum_motion_pilot,2023.1.2,Win32,59.65519298,655652e4d1acd4df9b343078,656018846682f3df8008bb8f,656019ccf3d4094a03fd6f22,1,85,247,127,1,eightseven,,,,,,,,,,,,,,,,,,,,,,,,,,,,,,,,,,,,,,,,,,,,,,,,,,,,,,,,,,,,,,,,,,,,,,,,,,,,,,,,,,,,,
655652e4d1acd4df9b343078,2023-11-24_13h59.26.250,kallum_motion_pilot,2023.1.2,Win32,59.65519298,655652e4d1acd4df9b343078,656018846682f3df8008bb8f,656019ccf3d4094a03fd6f22,1,86,248,151,1,eightseven,,,,,,,,,,,,,,,,,,,,,,,,,,,,,,,,,,,,,,,,,,,,,,,,,,,,,,,,,,,,,,,,,,,,,,,,,,,,,,,,,,,,,
655652e4d1acd4df9b343078,2023-11-24_13h59.26.250,kallum_motion_pilot,2023.1.2,Win32,59.65519298,655652e4d1acd4df9b343078,656018846682f3df8008bb8f,656019ccf3d4094a03fd6f22,1,87,249,113,1,fiveseven,,,,,,,,,,,,,,,,,,,,,,,,,,,,,,,,,,,,,,,,,,,,,,,,,,,,,,,,,,,,,,,,,,,,,,,,,,,,,,,,,,,,,
655652e4d1acd4df9b343078,2023-11-24_13h59.26.250,kallum_motion_pilot,2023.1.2,Win32,59.65519298,655652e4d1acd4df9b343078,656018846682f3df8008bb8f,656019ccf3d4094a03fd6f22,1,88,250,145,1,fiveseven,,,,,,,,,,,,,,,,,,,,,,,,,,,,,,,,,,,,,,,,,,,,,,,,,,,,,,,,,,,,,,,,,,,,,,,,,,,,,,,,,,,,,
655652e4d1acd4df9b343078,2023-11-24_13h59.26.250,kallum_motion_pilot,2023.1.2,Win32,59.65519298,655652e4d1acd4df9b343078,656018846682f3df8008bb8f,656019ccf3d4094a03fd6f22,1,89,251,129,1,fiveseven,,,,,,,,,,,,,,,,,,,,,,,,,,,,,,,,,,,,,,,,,,,,,,,,,,,,,,,,,,,,,,,,,,,,,,,,,,,,,,,,,,,,,
655652e4d1acd4df9b343078,2023-11-24_13h59.26.250,kallum_motion_pilot,2023.1.2,Win32,59.65519298,655652e4d1acd4df9b343078,656018846682f3df8008bb8f,656019ccf3d4094a03fd6f22,1,90,252,109,1,seveneight,,,,,,,,,,,,,,,,,,,,,,,,,,,,,,,,,,,,,,,,,,,,,,,,,,,,,,,,,,,,,,,,,,,,,,,,,,,,,,,,,,,,,
655652e4d1acd4df9b343078,2023-11-24_13h59.26.250,kallum_motion_pilot,2023.1.2,Win32,59.65519298,655652e4d1acd4df9b343078,656018846682f3df8008bb8f,656019ccf3d4094a03fd6f22,1,91,253,148,1,sevenfive,,,,,,,,,,,,,,,,,,,,,,,,,,,,,,,,,,,,,,,,,,,,,,,,,,,,,,,,,,,,,,,,,,,,,,,,,,,,,,,,,,,,,
655652e4d1acd4df9b343078,2023-11-24_13h59.26.250,kallum_motion_pilot,2023.1.2,Win32,59.65519298,655652e4d1acd4df9b343078,656018846682f3df8008bb8f,656019ccf3d4094a03fd6f22,1,92,254,123,1,sixeight,,,,,,,,,,,,,,,,,,,,,,,,,,,,,,,,,,,,,,,,,,,,,,,,,,,,,,,,,,,,,,,,,,,,,,,,,,,,,,,,,,,,,
655652e4d1acd4df9b343078,2023-11-24_13h59.26.250,kallum_motion_pilot,2023.1.2,Win32,59.65519298,655652e4d1acd4df9b343078,656018846682f3df8008bb8f,656019ccf3d4094a03fd6f22,1,93,255,3,1,twofour,,,,,,,,,,,,,,,,,,,,,,,,,,,,,,,,,,,,,,,,,,,,,,,,,,,,,,,,,,,,,,,,,,,,,,,,,,,,,,,,,,,,,
655652e4d1acd4df9b343078,2023-11-24_13h59.26.250,kallum_motion_pilot,2023.1.2,Win32,59.65519298,655652e4d1acd4df9b343078,656018846682f3df8008bb8f,656019ccf3d4094a03fd6f22,1,94,256,18,1,twoone,,,,,,,,,,,,,,,,,,,,,,,,,,,,,,,,,,,,,,,,,,,,,,,,,,,,,,,,,,,,,,,,,,,,,,,,,,,,,,,,,,,,,
655652e4d1acd4df9b343078,2023-11-24_13h59.26.250,kallum_motion_pilot,2023.1.2,Win32,59.65519298,655652e4d1acd4df9b343078,656018846682f3df8008bb8f,656019ccf3d4094a03fd6f22,1,95,257,121,1,fiveseven,,,,,,,,,,,,,,,,,,,,,,,,,,,,,,,,,,,,,,,,,,,,,,,,,,,,,,,,,,,,,,,,,,,,,,,,,,,,,,,,,,,,,
655652e4d1acd4df9b343078,2023-11-24_13h59.26.250,kallum_motion_pilot,2023.1.2,Win32,59.65519298,655652e4d1acd4df9b343078,656018846682f3df8008bb8f,656019ccf3d4094a03fd6f22,1,96,258,160,1,fivesix,,,,,,,,,,,,,,,,,,,,,,,,,,,,,,,,,,,,,,,,,,,,,,,,,,,,,,,,,,,,,,,,,,,,,,,,,,,,,,,,,,,,,
655652e4d1acd4df9b343078,2023-11-24_13h59.26.250,kallum_motion_pilot,2023.1.2,Win32,59.65519298,655652e4d1acd4df9b343078,656018846682f3df8008bb8f,656019ccf3d4094a03fd6f22,1,97,259,88,1,fivesix,,,,,,,,,,,,,,,,,,,,,,,,,,,,,,,,,,,,,,,,,,,,,,,,,,,,,,,,,,,,,,,,,,,,,,,,,,,,,,,,,,,,,
655652e4d1acd4df9b343078,2023-11-24_13h59.26.250,kallum_motion_pilot,2023.1.2,Win32,59.65519298,655652e4d1acd4df9b343078,656018846682f3df8008bb8f,656019ccf3d4094a03fd6f22,1,98,260,76,1,threeone,,,,,,,,,,,,,,,,,,,,,,,,,,,,,,,,,,,,,,,,,,,,,,,,,,,,,,,,,,,,,,,,,,,,,,,,,,,,,,,,,,,,,
655652e4d1acd4df9b343078,2023-11-24_13h59.26.250,kallum_motion_pilot,2023.1.2,Win32,59.65519298,655652e4d1acd4df9b343078,656018846682f3df8008bb8f,656019ccf3d4094a03fd6f22,1,99,261,132,1,sevenfive,,,,,,,,,,,,,,,,,,,,,,,,,,,,,,,,,,,,,,,,,,,,,,,,,,,,,,,,,,,,,,,,,,,,,,,,,,,,,,,,,,,,,
655652e4d1acd4df9b343078,2023-11-24_13h59.26.250,kallum_motion_pilot,2023.1.2,Win32,59.65519298,655652e4d1acd4df9b343078,656018846682f3df8008bb8f,656019ccf3d4094a03fd6f22,1,100,262,126,1,eightsix,,,,,,,,,,,,,,,,,,,,,,,,,,,,,,,,,,,,,,,,,,,,,,,,,,,,,,,,,,,,,,,,,,,,,,,,,,,,,,,,,,,,,
655652e4d1acd4df9b343078,2023-11-24_13h59.26.250,kallum_motion_pilot,2023.1.2,Win32,59.65519298,655652e4d1acd4df9b343078,656018846682f3df8008bb8f,656019ccf3d4094a03fd6f22,1,101,263,48,1,onetwo,,,,,,,,,,,,,,,,,,,,,,,,,,,,,,,,,,,,,,,,,,,,,,,,,,,,,,,,,,,,,,,,,,,,,,,,,,,,,,,,,,,,,
655652e4d1acd4df9b343078,2023-11-24_13h59.26.250,kallum_motion_pilot,2023.1.2,Win32,59.65519298,655652e4d1acd4df9b343078,656018846682f3df8008bb8f,656019ccf3d4094a03fd6f22,1,102,264,8,1,onetwo,,,,,,,,,,,,,,,,,,,,,,,,,,,,,,,,,,,,,,,,,,,,,,,,,,,,,,,,,,,,,,,,,,,,,,,,,,,,,,,,,,,,,
655652e4d1acd4df9b343078,2023-11-24_13h59.26.250,kallum_motion_pilot,2023.1.2,Win32,59.65519298,655652e4d1acd4df9b343078,656018846682f3df8008bb8f,656019ccf3d4094a03fd6f22,1,103,265,23,1,fourthree,,,,,,,,,,,,,,,,,,,,,,,,,,,,,,,,,,,,,,,,,,,,,,,,,,,,,,,,,,,,,,,,,,,,,,,,,,,,,,,,,,,,,
655652e4d1acd4df9b343078,2023-11-24_13h59.26.250,kallum_motion_pilot,2023.1.2,Win32,59.65519298,655652e4d1acd4df9b343078,656018846682f3df8008bb8f,656019ccf3d4094a03fd6f22,1,104,266,80,1,fivesix,,,,,,,,,,,,,,,,,,,,,,,,,,,,,,,,,,,,,,,,,,,,,,,,,,,,,,,,,,,,,,,,,,,,,,,,,,,,,,,,,,,,,
655652e4d1acd4df9b343078,2023-11-24_13h59.26.250,kallum_motion_pilot,2023.1.2,Win32,59.65519298,655652e4d1acd4df9b343078,656018846682f3df8008bb8f,656019ccf3d4094a03fd6f22,1,105,267,9,1,onethree,,,,,,,,,,,,,,,,,,,,,,,,,,,,,,,,,,,,,,,,,,,,,,,,,,,,,,,,,,,,,,,,,,,,,,,,,,,,,,,,,,,,,
655652e4d1acd4df9b343078,2023-11-24_13h59.26.250,kallum_motion_pilot,2023.1.2,Win32,59.65519298,655652e4d1acd4df9b343078,656018846682f3df8008bb8f,656019ccf3d4094a03fd6f22,1,106,268,44,1,threeone,,,,,,,,,,,,,,,,,,,,,,,,,,,,,,,,,,,,,,,,,,,,,,,,,,,,,,,,,,,,,,,,,,,,,,,,,,,,,,,,,,,,,
655652e4d1acd4df9b343078,2023-11-24_13h59.26.250,kallum_motion_pilot,2023.1.2,Win32,59.65519298,655652e4d1acd4df9b343078,656018846682f3df8008bb8f,656019ccf3d4094a03fd6f22,1,107,269,68,1,threeone,,,,,,,,,,,,,,,,,,,,,,,,,,,,,,,,,,,,,,,,,,,,,,,,,,,,,,,,,,,,,,,,,,,,,,,,,,,,,,,,,,,,,
655652e4d1acd4df9b343078,2023-11-24_13h59.26.250,kallum_motion_pilot,2023.1.2,Win32,59.65519298,655652e4d1acd4df9b343078,656018846682f3df8008bb8f,656019ccf3d4094a03fd6f22,1,108,270,63,1,fourthree,,,,,,,,,,,,,,,,,,,,,,,,,,,,,,,,,,,,,,,,,,,,,,,,,,,,,,,,,,,,,,,,,,,,,,,,,,,,,,,,,,,,,
655652e4d1acd4df9b343078,2023-11-24_13h59.26.250,kallum_motion_pilot,2023.1.2,Win32,59.65519298,655652e4d1acd4df9b343078,656018846682f3df8008bb8f,656019ccf3d4094a03fd6f22,1,109,271,122,1,sixfive,,,,,,,,,,,,,,,,,,,,,,,,,,,,,,,,,,,,,,,,,,,,,,,,,,,,,,,,,,,,,,,,,,,,,,,,,,,,,,,,,,,,,
655652e4d1acd4df9b343078,2023-11-24_13h59.26.250,kallum_motion_pilot,2023.1.2,Win32,59.65519298,655652e4d1acd4df9b343078,656018846682f3df8008bb8f,656019ccf3d4094a03fd6f22,1,110,272,49,1,onethree,,,,,,,,,,,,,,,,,,,,,,,,,,,,,,,,,,,,,,,,,,,,,,,,,,,,,,,,,,,,,,,,,,,,,,,,,,,,,,,,,,,,,
655652e4d1acd4df9b343078,2023-11-24_13h59.26.250,kallum_motion_pilot,2023.1.2,Win32,59.65519298,655652e4d1acd4df9b343078,656018846682f3df8008bb8f,656019ccf3d4094a03fd6f22,1,111,273,52,1,threeone,,,,,,,,,,,,,,,,,,,,,,,,,,,,,,,,,,,,,,,,,,,,,,,,,,,,,,,,,,,,,,,,,,,,,,,,,,,,,,,,,,,,,
655652e4d1acd4df9b343078,2023-11-24_13h59.26.250,kallum_motion_pilot,2023.1.2,Win32,59.65519298,655652e4d1acd4df9b343078,656018846682f3df8008bb8f,656019ccf3d4094a03fd6f22,1,112,274,114,1,sixfive,,,,,,,,,,,,,,,,,,,,,,,,,,,,,,,,,,,,,,,,,,,,,,,,,,,,,,,,,,,,,,,,,,,,,,,,,,,,,,,,,,,,,
655652e4d1acd4df9b343078,2023-11-24_13h59.26.250,kallum_motion_pilot,2023.1.2,Win32,59.65519298,655652e4d1acd4df9b343078,656018846682f3df8008bb8f,656019ccf3d4094a03fd6f22,1,113,275,155,1,sixeight,,,,,,,,,,,,,,,,,,,,,,,,,,,,,,,,,,,,,,,,,,,,,,,,,,,,,,,,,,,,,,,,,,,,,,,,,,,,,,,,,,,,,
655652e4d1acd4df9b343078,2023-11-24_13h59.26.250,kallum_motion_pilot,2023.1.2,Win32,59.65519298,655652e4d1acd4df9b343078,656018846682f3df8008bb8f,656019ccf3d4094a03fd6f22,1,114,276,157,1,seveneight,,,,,,,,,,,,,,,,,,,,,,,,,,,,,,,,,,,,,,,,,,,,,,,,,,,,,,,,,,,,,,,,,,,,,,,,,,,,,,,,,,,,,
655652e4d1acd4df9b343078,2023-11-24_13h59.26.250,kallum_motion_pilot,2023.1.2,Win32,59.65519298,655652e4d1acd4df9b343078,656018846682f3df8008bb8f,656019ccf3d4094a03fd6f22,1,115,277,78,1,fourtwo,,,,,,,,,,,,,,,,,,,,,,,,,,,,,,,,,,,,,,,,,,,,,,,,,,,,,,,,,,,,,,,,,,,,,,,,,,,,,,,,,,,,,
655652e4d1acd4df9b343078,2023-11-24_13h59.26.250,kallum_motion_pilot,2023.1.2,Win32,59.65519298,655652e4d1acd4df9b343078,656018846682f3df8008bb8f,656019ccf3d4094a03fd6f22,1,116,278,128,1,fivesix,,,,,,,,,,,,,,,,,,,,,,,,,,,,,,,,,,,,,,,,,,,,,,,,,,,,,,,,,,,,,,,,,,,,,,,,,,,,,,,,,,,,,
655652e4d1acd4df9b343078,2023-11-24_13h59.26.250,kallum_motion_pilot,2023.1.2,Win32,59.65519298,655652e4d1acd4df9b343078,656018846682f3df8008bb8f,656019ccf3d4094a03fd6f22,1,117,279,7,1,fourthree,,,,,,,,,,,,,,,,,,,,,,,,,,,,,,,,,,,,,,,,,,,,,,,,,,,,,,,,,,,,,,,,,,,,,,,,,,,,,,,,,,,,,
655652e4d1acd4df9b343078,2023-11-24_13h59.26.250,kallum_motion_pilot,2023.1.2,Win32,59.65519298,655652e4d1acd4df9b343078,656018846682f3df8008bb8f,656019ccf3d4094a03fd6f22,1,118,280,95,1,eightseven,,,,,,,,,,,,,,,,,,,,,,,,,,,,,,,,,,,,,,,,,,,,,,,,,,,,,,,,,,,,,,,,,,,,,,,,,,,,,,,,,,,,,
655652e4d1acd4df9b343078,2023-11-24_13h59.26.250,kallum_motion_pilot,2023.1.2,Win32,59.65519298,655652e4d1acd4df9b343078,656018846682f3df8008bb8f,656019ccf3d4094a03fd6f22,1,119,281,136,1,fivesix,,,,,,,,,,,,,,,,,,,,,,,,,,,,,,,,,,,,,,,,,,,,,,,,,,,,,,,,,,,,,,,,,,,,,,,,,,,,,,,,,,,,,
655652e4d1acd4df9b343078,2023-11-24_13h59.26.250,kallum_motion_pilot,2023.1.2,Win32,59.65519298,655652e4d1acd4df9b343078,656018846682f3df8008bb8f,656019ccf3d4094a03fd6f22,1,120,282,29,1,threefour,,,,,,,,,,,,,,,,,,,,,,,,,,,,,,,,,,,,,,,,,,,,,,,,,,,,,,,,,,,,,,,,,,,,,,,,,,,,,,,,,,,,,
655652e4d1acd4df9b343078,2023-11-24_13h59.26.250,kallum_motion_pilot,2023.1.2,Win32,59.65519298,655652e4d1acd4df9b343078,656018846682f3df8008bb8f,656019ccf3d4094a03fd6f22,1,121,283,91,1,sixeight,,,,,,,,,,,,,,,,,,,,,,,,,,,,,,,,,,,,,,,,,,,,,,,,,,,,,,,,,,,,,,,,,,,,,,,,,,,,,,,,,,,,,
655652e4d1acd4df9b343078,2023-11-24_13h59.26.250,kallum_motion_pilot,2023.1.2,Win32,59.65519298,655652e4d1acd4df9b343078,656018846682f3df8008bb8f,656019ccf3d4094a03fd6f22,1,122,284,100,1,sevenfive,,,,,,,,,,,,,,,,,,,,,,,,,,,,,,,,,,,,,,,,,,,,,,,,,,,,,,,,,,,,,,,,,,,,,,,,,,,,,,,,,,,,,
655652e4d1acd4df9b343078,2023-11-24_13h59.26.250,kallum_motion_pilot,2023.1.2,Win32,59.65519298,655652e4d1acd4df9b343078,656018846682f3df8008bb8f,656019ccf3d4094a03fd6f22,1,123,285,75,1,twofour,,,,,,,,,,,,,,,,,,,,,,,,,,,,,,,,,,,,,,,,,,,,,,,,,,,,,,,,,,,,,,,,,,,,,,,,,,,,,,,,,,,,,
655652e4d1acd4df9b343078,2023-11-24_13h59.26.250,kallum_motion_pilot,2023.1.2,Win32,59.65519298,655652e4d1acd4df9b343078,656018846682f3df8008bb8f,656019ccf3d4094a03fd6f22,1,124,286,14,1,fourtwo,,,,,,,,,,,,,,,,,,,,,,,,,,,,,,,,,,,,,,,,,,,,,,,,,,,,,,,,,,,,,,,,,,,,,,,,,,,,,,,,,,,,,
655652e4d1acd4df9b343078,2023-11-24_13h59.26.250,kallum_motion_pilot,2023.1.2,Win32,59.65519298,655652e4d1acd4df9b343078,656018846682f3df8008bb8f,656019ccf3d4094a03fd6f22,1,125,287,11,1,twofour,,,,,,,,,,,,,,,,,,,,,,,,,,,,,,,,,,,,,,,,,,,,,,,,,,,,,,,,,,,,,,,,,,,,,,,,,,,,,,,,,,,,,
655652e4d1acd4df9b343078,2023-11-24_13h59.26.250,kallum_motion_pilot,2023.1.2,Win32,59.65519298,655652e4d1acd4df9b343078,656018846682f3df8008bb8f,656019ccf3d4094a03fd6f22,1,126,288,141,1,seveneight,,,,,,,,,,,,,,,,,,,,,,,,,,,,,,,,,,,,,,,,,,,,,,,,,,,,,,,,,,,,,,,,,,,,,,,,,,,,,,,,,,,,,
655652e4d1acd4df9b343078,2023-11-24_13h59.26.250,kallum_motion_pilot,2023.1.2,Win32,59.65519298,655652e4d1acd4df9b343078,656018846682f3df8008bb8f,656019ccf3d4094a03fd6f22,1,127,289,64,1,onetwo,,,,,,,,,,,,,,,,,,,,,,,,,,,,,,,,,,,,,,,,,,,,,,,,,,,,,,,,,,,,,,,,,,,,,,,,,,,,,,,,,,,,,
655652e4d1acd4df9b343078,2023-11-24_13h59.26.250,kallum_motion_pilot,2023.1.2,Win32,59.65519298,655652e4d1acd4df9b343078,656018846682f3df8008bb8f,656019ccf3d4094a03fd6f22,1,128,290,131,1,sixeight,,,,,,,,,,,,,,,,,,,,,,,,,,,,,,,,,,,,,,,,,,,,,,,,,,,,,,,,,,,,,,,,,,,,,,,,,,,,,,,,,,,,,
655652e4d1acd4df9b343078,2023-11-24_13h59.26.250,kallum_motion_pilot,2023.1.2,Win32,59.65519298,655652e4d1acd4df9b343078,656018846682f3df8008bb8f,656019ccf3d4094a03fd6f22,1,129,291,130,1,sixfive,,,,,,,,,,,,,,,,,,,,,,,,,,,,,,,,,,,,,,,,,,,,,,,,,,,,,,,,,,,,,,,,,,,,,,,,,,,,,,,,,,,,,
655652e4d1acd4df9b343078,2023-11-24_13h59.26.250,kallum_motion_pilot,2023.1.2,Win32,59.65519298,655652e4d1acd4df9b343078,656018846682f3df8008bb8f,656019ccf3d4094a03fd6f22,1,130,292,74,1,twoone,,,,,,,,,,,,,,,,,,,,,,,,,,,,,,,,,,,,,,,,,,,,,,,,,,,,,,,,,,,,,,,,,,,,,,,,,,,,,,,,,,,,,
655652e4d1acd4df9b343078,2023-11-24_13h59.26.250,kallum_motion_pilot,2023.1.2,Win32,59.65519298,655652e4d1acd4df9b343078,656018846682f3df8008bb8f,656019ccf3d4094a03fd6f22,1,131,293,53,1,threefour,,,,,,,,,,,,,,,,,,,,,,,,,,,,,,,,,,,,,,,,,,,,,,,,,,,,,,,,,,,,,,,,,,,,,,,,,,,,,,,,,,,,,
655652e4d1acd4df9b343078,2023-11-24_13h59.26.250,kallum_motion_pilot,2023.1.2,Win32,59.65519298,655652e4d1acd4df9b343078,656018846682f3df8008bb8f,656019ccf3d4094a03fd6f22,1,132,294,43,1,twofour,,,,,,,,,,,,,,,,,,,,,,,,,,,,,,,,,,,,,,,,,,,,,,,,,,,,,,,,,,,,,,,,,,,,,,,,,,,,,,,,,,,,,
655652e4d1acd4df9b343078,2023-11-24_13h59.26.250,kallum_motion_pilot,2023.1.2,Win32,59.65519298,655652e4d1acd4df9b343078,656018846682f3df8008bb8f,656019ccf3d4094a03fd6f22,1,133,295,66,1,twoone,,,,,,,,,,,,,,,,,,,,,,,,,,,,,,,,,,,,,,,,,,,,,,,,,,,,,,,,,,,,,,,,,,,,,,,,,,,,,,,,,,,,,
655652e4d1acd4df9b343078,2023-11-24_13h59.26.250,kallum_motion_pilot,2023.1.2,Win32,59.65519298,655652e4d1acd4df9b343078,656018846682f3df8008bb8f,656019ccf3d4094a03fd6f22,1,134,296,13,1,threefour,,,,,,,,,,,,,,,,,,,,,,,,,,,,,,,,,,,,,,,,,,,,,,,,,,,,,,,,,,,,,,,,,,,,,,,,,,,,,,,,,,,,,
655652e4d1acd4df9b343078,2023-11-24_13h59.26.250,kallum_motion_pilot,2023.1.2,Win32,59.65519298,655652e4d1acd4df9b343078,656018846682f3df8008bb8f,656019ccf3d4094a03fd6f22,1,135,297,116,1,sevenfive,,,,,,,,,,,,,,,,,,,,,,,,,,,,,,,,,,,,,,,,,,,,,,,,,,,,,,,,,,,,,,,,,,,,,,,,,,,,,,,,,,,,,
655652e4d1acd4df9b343078,2023-11-24_13h59.26.250,kallum_motion_pilot,2023.1.2,Win32,59.65519298,655652e4d1acd4df9b343078,656018846682f3df8008bb8f,656019ccf3d4094a03fd6f22,1,136,298,81,1,fiveseven,,,,,,,,,,,,,,,,,,,,,,,,,,,,,,,,,,,,,,,,,,,,,,,,,,,,,,,,,,,,,,,,,,,,,,,,,,,,,,,,,,,,,
655652e4d1acd4df9b343078,2023-11-24_13h59.26.250,kallum_motion_pilot,2023.1.2,Win32,59.65519298,655652e4d1acd4df9b343078,656018846682f3df8008bb8f,656019ccf3d4094a03fd6f22,1,137,299,10,1,twoone,,,,,,,,,,,,,,,,,,,,,,,,,,,,,,,,,,,,,,,,,,,,,,,,,,,,,,,,,,,,,,,,,,,,,,,,,,,,,,,,,,,,,
655652e4d1acd4df9b343078,2023-11-24_13h59.26.250,kallum_motion_pilot,2023.1.2,Win32,59.65519298,655652e4d1acd4df9b343078,656018846682f3df8008bb8f,656019ccf3d4094a03fd6f22,1,138,300,20,1,threeone,,,,,,,,,,,,,,,,,,,,,,,,,,,,,,,,,,,,,,,,,,,,,,,,,,,,,,,,,,,,,,,,,,,,,,,,,,,,,,,,,,,,,
655652e4d1acd4df9b343078,2023-11-24_13h59.26.250,kallum_motion_pilot,2023.1.2,Win32,59.65519298,655652e4d1acd4df9b343078,656018846682f3df8008bb8f,656019ccf3d4094a03fd6f22,1,139,301,161,1,fiveseven,,,,,,,,,,,,,,,,,,,,,,,,,,,,,,,,,,,,,,,,,,,,,,,,,,,,,,,,,,,,,,,,,,,,,,,,,,,,,,,,,,,,,
655652e4d1acd4df9b343078,2023-11-24_13h59.26.250,kallum_motion_pilot,2023.1.2,Win32,59.65519298,655652e4d1acd4df9b343078,656018846682f3df8008bb8f,656019ccf3d4094a03fd6f22,1,140,302,6,1,fourtwo,,,,,,,,,,,,,,,,,,,,,,,,,,,,,,,,,,,,,,,,,,,,,,,,,,,,,,,,,,,,,,,,,,,,,,,,,,,,,,,,,,,,,
655652e4d1acd4df9b343078,2023-11-24_13h59.26.250,kallum_motion_pilot,2023.1.2,Win32,59.65519298,655652e4d1acd4df9b343078,656018846682f3df8008bb8f,656019ccf3d4094a03fd6f22,1,141,303,90,1,sixfive,,,,,,,,,,,,,,,,,,,,,,,,,,,,,,,,,,,,,,,,,,,,,,,,,,,,,,,,,,,,,,,,,,,,,,,,,,,,,,,,,,,,,
655652e4d1acd4df9b343078,2023-11-24_13h59.26.250,kallum_motion_pilot,2023.1.2,Win32,59.65519298,655652e4d1acd4df9b343078,656018846682f3df8008bb8f,656019ccf3d4094a03fd6f22,1,142,304,24,1,onetwo,,,,,,,,,,,,,,,,,,,,,,,,,,,,,,,,,,,,,,,,,,,,,,,,,,,,,,,,,,,,,,,,,,,,,,,,,,,,,,,,,,,,,
655652e4d1acd4df9b343078,2023-11-24_13h59.26.250,kallum_motion_pilot,2023.1.2,Win32,59.65519298,655652e4d1acd4df9b343078,656018846682f3df8008bb8f,656019ccf3d4094a03fd6f22,1,143,305,112,1,fivesix,,,,,,,,,,,,,,,,,,,,,,,,,,,,,,,,,,,,,,,,,,,,,,,,,,,,,,,,,,,,,,,,,,,,,,,,,,,,,,,,,,,,,
655652e4d1acd4df9b343078,2023-11-24_13h59.26.250,kallum_motion_pilot,2023.1.2,Win32,59.65519298,655652e4d1acd4df9b343078,656018846682f3df8008bb8f,656019ccf3d4094a03fd6f22,1,144,306,55,1,fourthree,,,,,,,,,,,,,,,,,,,,,,,,,,,,,,,,,,,,,,,,,,,,,,,,,,,,,,,,,,,,,,,,,,,,,,,,,,,,,,,,,,,,,
655652e4d1acd4df9b343078,2023-11-24_13h59.26.250,kallum_motion_pilot,2023.1.2,Win32,59.65519298,655652e4d1acd4df9b343078,656018846682f3df8008bb8f,656019ccf3d4094a03fd6f22,1,145,307,89,1,fiveseven,,,,,,,,,,,,,,,,,,,,,,,,,,,,,,,,,,,,,,,,,,,,,,,,,,,,,,,,,,,,,,,,,,,,,,,,,,,,,,,,,,,,,
655652e4d1acd4df9b343078,2023-11-24_13h59.26.250,kallum_motion_pilot,2023.1.2,Win32,59.65519298,655652e4d1acd4df9b343078,656018846682f3df8008bb8f,656019ccf3d4094a03fd6f22,1,146,308,99,1,sixeight,,,,,,,,,,,,,,,,,,,,,,,,,,,,,,,,,,,,,,,,,,,,,,,,,,,,,,,,,,,,,,,,,,,,,,,,,,,,,,,,,,,,,
655652e4d1acd4df9b343078,2023-11-24_13h59.26.250,kallum_motion_pilot,2023.1.2,Win32,59.65519298,655652e4d1acd4df9b343078,656018846682f3df8008bb8f,656019ccf3d4094a03fd6f22,1,147,309,102,1,eightsix,,,,,,,,,,,,,,,,,,,,,,,,,,,,,,,,,,,,,,,,,,,,,,,,,,,,,,,,,,,,,,,,,,,,,,,,,,,,,,,,,,,,,
655652e4d1acd4df9b343078,2023-11-24_13h59.26.250,kallum_motion_pilot,2023.1.2,Win32,59.65519298,655652e4d1acd4df9b343078,656018846682f3df8008bb8f,656019ccf3d4094a03fd6f22,1,148,310,38,1,fourtwo,,,,,,,,,,,,,,,,,,,,,,,,,,,,,,,,,,,,,,,,,,,,,,,,,,,,,,,,,,,,,,,,,,,,,,,,,,,,,,,,,,,,,
655652e4d1acd4df9b343078,2023-11-24_13h59.26.250,kallum_motion_pilot,2023.1.2,Win32,59.65519298,655652e4d1acd4df9b343078,656018846682f3df8008bb8f,656019ccf3d4094a03fd6f22,1,149,311,94,1,eightsix,,,,,,,,,,,,,,,,,,,,,,,,,,,,,,,,,,,,,,,,,,,,,,,,,,,,,,,,,,,,,,,,,,,,,,,,,,,,,,,,,,,,,
655652e4d1acd4df9b343078,2023-11-24_13h59.26.250,kallum_motion_pilot,2023.1.2,Win32,59.65519298,655652e4d1acd4df9b343078,656018846682f3df8008bb8f,656019ccf3d4094a03fd6f22,1,150,312,138,1,sixfive,,,,,,,,,,,,,,,,,,,,,,,,,,,,,,,,,,,,,,,,,,,,,,,,,,,,,,,,,,,,,,,,,,,,,,,,,,,,,,,,,,,,,
655652e4d1acd4df9b343078,2023-11-24_13h59.26.250,kallum_motion_pilot,2023.1.2,Win32,59.65519298,655652e4d1acd4df9b343078,656018846682f3df8008bb8f,656019ccf3d4094a03fd6f22,1,151,313,72,1,onetwo,,,,,,,,,,,,,,,,,,,,,,,,,,,,,,,,,,,,,,,,,,,,,,,,,,,,,,,,,,,,,,,,,,,,,,,,,,,,,,,,,,,,,
655652e4d1acd4df9b343078,2023-11-24_13h59.26.250,kallum_motion_pilot,2023.1.2,Win32,59.65519298,655652e4d1acd4df9b343078,656018846682f3df8008bb8f,656019ccf3d4094a03fd6f22,1,152,314,107,1,sixeight,,,,,,,,,,,,,,,,,,,,,,,,,,,,,,,,,,,,,,,,,,,,,,,,,,,,,,,,,,,,,,,,,,,,,,,,,,,,,,,,,,,,,
655652e4d1acd4df9b343078,2023-11-24_13h59.26.250,kallum_motion_pilot,2023.1.2,Win32,59.65519298,655652e4d1acd4df9b343078,656018846682f3df8008bb8f,656019ccf3d4094a03fd6f22,1,153,315,93,1,seveneight,,,,,,,,,,,,,,,,,,,,,,,,,,,,,,,,,,,,,,,,,,,,,,,,,,,,,,,,,,,,,,,,,,,,,,,,,,,,,,,,,,,,,
655652e4d1acd4df9b343078,2023-11-24_13h59.26.250,kallum_motion_pilot,2023.1.2,Win32,59.65519298,655652e4d1acd4df9b343078,656018846682f3df8008bb8f,656019ccf3d4094a03fd6f22,1,154,316,156,1,sevenfive,,,,,,,,,,,,,,,,,,,,,,,,,,,,,,,,,,,,,,,,,,,,,,,,,,,,,,,,,,,,,,,,,,,,,,,,,,,,,,,,,,,,,
655652e4d1acd4df9b343078,2023-11-24_13h59.26.250,kallum_motion_pilot,2023.1.2,Win32,59.65519298,655652e4d1acd4df9b343078,656018846682f3df8008bb8f,656019ccf3d4094a03fd6f22,1,155,317,153,1,fiveseven,,,,,,,,,,,,,,,,,,,,,,,,,,,,,,,,,,,,,,,,,,,,,,,,,,,,,,,,,,,,,,,,,,,,,,,,,,,,,,,,,,,,,
655652e4d1acd4df9b343078,2023-11-24_13h59.26.250,kallum_motion_pilot,2023.1.2,Win32,59.65519298,655652e4d1acd4df9b343078,656018846682f3df8008bb8f,656019ccf3d4094a03fd6f22,1,156,318,5,1,threefour,,,,,,,,,,,,,,,,,,,,,,,,,,,,,,,,,,,,,,,,,,,,,,,,,,,,,,,,,,,,,,,,,,,,,,,,,,,,,,,,,,,,,
655652e4d1acd4df9b343078,2023-11-24_13h59.26.250,kallum_motion_pilot,2023.1.2,Win32,59.65519298,655652e4d1acd4df9b343078,656018846682f3df8008bb8f,656019ccf3d4094a03fd6f22,1,157,319,28,1,threeone,,,,,,,,,,,,,,,,,,,,,,,,,,,,,,,,,,,,,,,,,,,,,,,,,,,,,,,,,,,,,,,,,,,,,,,,,,,,,,,,,,,,,
655652e4d1acd4df9b343078,2023-11-24_13h59.26.250,kallum_motion_pilot,2023.1.2,Win32,59.65519298,655652e4d1acd4df9b343078,656018846682f3df8008bb8f,656019ccf3d4094a03fd6f22,1,158,320,32,1,onetwo,,,,,,,,,,,,,,,,,,,,,,,,,,,,,,,,,,,,,,,,,,,,,,,,,,,,,,,,,,,,,,,,,,,,,,,,,,,,,,,,,,,,,
655652e4d1acd4df9b343078,2023-11-24_13h59.26.250,kallum_motion_pilot,2023.1.2,Win32,59.65519298,655652e4d1acd4df9b343078,656018846682f3df8008bb8f,656019ccf3d4094a03fd6f22,1,159,321,146,1,sixfive,,,,,,,,,,,,,,,,,,,,,,,,,,,,,,,,,,,,,,,,,,,,,,,,,,,,,,,,,,,,,,,,,,,,,,,,,,,,,,,,,,,,,
655652e4d1acd4df9b343078,2023-11-24_13h59.26.250,kallum_motion_pilot,2023.1.2,Win32,59.65519298,655652e4d1acd4df9b343078,656018846682f3df8008bb8f,656019ccf3d4094a03fd6f22,1,160,322,142,1,eightsix,,,,,,,,,,,,,,,,,,,,,,,,,,,,,,,,,,,,,,,,,,,,,,,,,,,,,,,,,,,,,,,,,,,,,,,,,,,,,,,,,,,,,
655652e4d1acd4df9b343078,2023-11-24_13h59.26.250,kallum_motion_pilot,2023.1.2,Win32,59.65519298,655652e4d1acd4df9b343078,656018846682f3df8008bb8f,656019ccf3d4094a03fd6f22,1,161,323,35,1,twofour,,,,,,,,,,,,,,,,,,,,,,,,,,,,,,,,,,,,,,,,,,,,,,,,,,,,,,,,,,,,,,,,,,,,,,,,,,,,,,,,,,,,,
655652e4d1acd4df9b343078,2023-11-24_13h59.26.250,kallum_motion_pilot,2023.1.2,Win32,59.65519298,655652e4d1acd4df9b343078,656018846682f3df8008bb8f,656019ccf3d4094a03fd6f22,2,0,324,11,1,twofour,,,,,,,,,,,,,,,,,,,,,,,,,,,,,,,,,,,,,,,,,,,,,,,,,,,,,,,,,,,,,,,,,,,,,,,,,,,,,,,,,,,,,
655652e4d1acd4df9b343078,2023-11-24_13h59.26.250,kallum_motion_pilot,2023.1.2,Win32,59.65519298,655652e4d1acd4df9b343078,656018846682f3df8008bb8f,656019ccf3d4094a03fd6f22,2,1,325,110,1,eightsix,,,,,,,,,,,,,,,,,,,,,,,,,,,,,,,,,,,,,,,,,,,,,,,,,,,,,,,,,,,,,,,,,,,,,,,,,,,,,,,,,,,,,
655652e4d1acd4df9b343078,2023-11-24_13h59.26.250,kallum_motion_pilot,2023.1.2,Win32,59.65519298,655652e4d1acd4df9b343078,656018846682f3df8008bb8f,656019ccf3d4094a03fd6f22,2,2,326,62,1,fourtwo,,,,,,,,,,,,,,,,,,,,,,,,,,,,,,,,,,,,,,,,,,,,,,,,,,,,,,,,,,,,,,,,,,,,,,,,,,,,,,,,,,,,,
655652e4d1acd4df9b343078,2023-11-24_13h59.26.250,kallum_motion_pilot,2023.1.2,Win32,59.65519298,655652e4d1acd4df9b343078,656018846682f3df8008bb8f,656019ccf3d4094a03fd6f22,2,3,327,61,1,threefour,,,,,,,,,,,,,,,,,,,,,,,,,,,,,,,,,,,,,,,,,,,,,,,,,,,,,,,,,,,,,,,,,,,,,,,,,,,,,,,,,,,,,
655652e4d1acd4df9b343078,2023-11-24_13h59.26.250,kallum_motion_pilot,2023.1.2,Win32,59.65519298,655652e4d1acd4df9b343078,656018846682f3df8008bb8f,656019ccf3d4094a03fd6f22,2,4,328,88,1,fivesix,,,,,,,,,,,,,,,,,,,,,,,,,,,,,,,,,,,,,,,,,,,,,,,,,,,,,,,,,,,,,,,,,,,,,,,,,,,,,,,,,,,,,
655652e4d1acd4df9b343078,2023-11-24_13h59.26.250,kallum_motion_pilot,2023.1.2,Win32,59.65519298,655652e4d1acd4df9b343078,656018846682f3df8008bb8f,656019ccf3d4094a03fd6f22,2,5,329,141,1,seveneight,,,,,,,,,,,,,,,,,,,,,,,,,,,,,,,,,,,,,,,,,,,,,,,,,,,,,,,,,,,,,,,,,,,,,,,,,,,,,,,,,,,,,
655652e4d1acd4df9b343078,2023-11-24_13h59.26.250,kallum_motion_pilot,2023.1.2,Win32,59.65519298,655652e4d1acd4df9b343078,656018846682f3df8008bb8f,656019ccf3d4094a03fd6f22,2,6,330,13,1,threefour,,,,,,,,,,,,,,,,,,,,,,,,,,,,,,,,,,,,,,,,,,,,,,,,,,,,,,,,,,,,,,,,,,,,,,,,,,,,,,,,,,,,,
655652e4d1acd4df9b343078,2023-11-24_13h59.26.250,kallum_motion_pilot,2023.1.2,Win32,59.65519298,655652e4d1acd4df9b343078,656018846682f3df8008bb8f,656019ccf3d4094a03fd6f22,2,7,331,126,1,eightsix,,,,,,,,,,,,,,,,,,,,,,,,,,,,,,,,,,,,,,,,,,,,,,,,,,,,,,,,,,,,,,,,,,,,,,,,,,,,,,,,,,,,,
655652e4d1acd4df9b343078,2023-11-24_13h59.26.250,kallum_motion_pilot,2023.1.2,Win32,59.65519298,655652e4d1acd4df9b343078,656018846682f3df8008bb8f,656019ccf3d4094a03fd6f22,2,8,332,104,1,fivesix,,,,,,,,,,,,,,,,,,,,,,,,,,,,,,,,,,,,,,,,,,,,,,,,,,,,,,,,,,,,,,,,,,,,,,,,,,,,,,,,,,,,,
655652e4d1acd4df9b343078,2023-11-24_13h59.26.250,kallum_motion_pilot,2023.1.2,Win32,59.65519298,655652e4d1acd4df9b343078,656018846682f3df8008bb8f,656019ccf3d4094a03fd6f22,2,9,333,5,1,threefour,,,,,,,,,,,,,,,,,,,,,,,,,,,,,,,,,,,,,,,,,,,,,,,,,,,,,,,,,,,,,,,,,,,,,,,,,,,,,,,,,,,,,
655652e4d1acd4df9b343078,2023-11-24_13h59.26.250,kallum_motion_pilot,2023.1.2,Win32,59.65519298,655652e4d1acd4df9b343078,656018846682f3df8008bb8f,656019ccf3d4094a03fd6f22,2,10,334,119,1,eightseven,,,,,,,,,,,,,,,,,,,,,,,,,,,,,,,,,,,,,,,,,,,,,,,,,,,,,,,,,,,,,,,,,,,,,,,,,,,,,,,,,,,,,
655652e4d1acd4df9b343078,2023-11-24_13h59.26.250,kallum_motion_pilot,2023.1.2,Win32,59.65519298,655652e4d1acd4df9b343078,656018846682f3df8008bb8f,656019ccf3d4094a03fd6f22,2,11,335,9,1,onethree,,,,,,,,,,,,,,,,,,,,,,,,,,,,,,,,,,,,,,,,,,,,,,,,,,,,,,,,,,,,,,,,,,,,,,,,,,,,,,,,,,,,,
655652e4d1acd4df9b343078,2023-11-24_13h59.26.250,kallum_motion_pilot,2023.1.2,Win32,59.65519298,655652e4d1acd4df9b343078,656018846682f3df8008bb8f,656019ccf3d4094a03fd6f22,2,12,336,127,1,eightseven,,,,,,,,,,,,,,,,,,,,,,,,,,,,,,,,,,,,,,,,,,,,,,,,,,,,,,,,,,,,,,,,,,,,,,,,,,,,,,,,,,,,,
655652e4d1acd4df9b343078,2023-11-24_13h59.26.250,kallum_motion_pilot,2023.1.2,Win32,59.65519298,655652e4d1acd4df9b343078,656018846682f3df8008bb8f,656019ccf3d4094a03fd6f22,2,13,337,87,1,eightseven,,,,,,,,,,,,,,,,,,,,,,,,,,,,,,,,,,,,,,,,,,,,,,,,,,,,,,,,,,,,,,,,,,,,,,,,,,,,,,,,,,,,,
655652e4d1acd4df9b343078,2023-11-24_13h59.26.250,kallum_motion_pilot,2023.1.2,Win32,59.65519298,655652e4d1acd4df9b343078,656018846682f3df8008bb8f,656019ccf3d4094a03fd6f22,2,14,338,116,1,sevenfive,,,,,,,,,,,,,,,,,,,,,,,,,,,,,,,,,,,,,,,,,,,,,,,,,,,,,,,,,,,,,,,,,,,,,,,,,,,,,,,,,,,,,
655652e4d1acd4df9b343078,2023-11-24_13h59.26.250,kallum_motion_pilot,2023.1.2,Win32,59.65519298,655652e4d1acd4df9b343078,656018846682f3df8008bb8f,656019ccf3d4094a03fd6f22,2,15,339,151,1,eightseven,,,,,,,,,,,,,,,,,,,,,,,,,,,,,,,,,,,,,,,,,,,,,,,,,,,,,,,,,,,,,,,,,,,,,,,,,,,,,,,,,,,,,
655652e4d1acd4df9b343078,2023-11-24_13h59.26.250,kallum_motion_pilot,2023.1.2,Win32,59.65519298,655652e4d1acd4df9b343078,656018846682f3df8008bb8f,656019ccf3d4094a03fd6f22,2,16,340,109,1,seveneight,,,,,,,,,,,,,,,,,,,,,,,,,,,,,,,,,,,,,,,,,,,,,,,,,,,,,,,,,,,,,,,,,,,,,,,,,,,,,,,,,,,,,
655652e4d1acd4df9b343078,2023-11-24_13h59.26.250,kallum_motion_pilot,2023.1.2,Win32,59.65519298,655652e4d1acd4df9b343078,656018846682f3df8008bb8f,656019ccf3d4094a03fd6f22,2,17,341,121,1,fiveseven,,,,,,,,,,,,,,,,,,,,,,,,,,,,,,,,,,,,,,,,,,,,,,,,,,,,,,,,,,,,,,,,,,,,,,,,,,,,,,,,,,,,,
655652e4d1acd4df9b343078,2023-11-24_13h59.26.250,kallum_motion_pilot,2023.1.2,Win32,59.65519298,655652e4d1acd4df9b343078,656018846682f3df8008bb8f,656019ccf3d4094a03fd6f22,2,18,342,136,1,fivesix,,,,,,,,,,,,,,,,,,,,,,,,,,,,,,,,,,,,,,,,,,,,,,,,,,,,,,,,,,,,,,,,,,,,,,,,,,,,,,,,,,,,,
655652e4d1acd4df9b343078,2023-11-24_13h59.26.250,kallum_motion_pilot,2023.1.2,Win32,59.65519298,655652e4d1acd4df9b343078,656018846682f3df8008bb8f,656019ccf3d4094a03fd6f22,2,19,343,82,1,sixfive,,,,,,,,,,,,,,,,,,,,,,,,,,,,,,,,,,,,,,,,,,,,,,,,,,,,,,,,,,,,,,,,,,,,,,,,,,,,,,,,,,,,,
655652e4d1acd4df9b343078,2023-11-24_13h59.26.250,kallum_motion_pilot,2023.1.2,Win32,59.65519298,655652e4d1acd4df9b343078,656018846682f3df8008bb8f,656019ccf3d4094a03fd6f22,2,20,344,14,1,fourtwo,,,,,,,,,,,,,,,,,,,,,,,,,,,,,,,,,,,,,,,,,,,,,,,,,,,,,,,,,,,,,,,,,,,,,,,,,,,,,,,,,,,,,
655652e4d1acd4df9b343078,2023-11-24_13h59.26.250,kallum_motion_pilot,2023.1.2,Win32,59.65519298,655652e4d1acd4df9b343078,656018846682f3df8008bb8f,656019ccf3d4094a03fd6f22,2,21,345,95,1,eightseven,,,,,,,,,,,,,,,,,,,,,,,,,,,,,,,,,,,,,,,,,,,,,,,,,,,,,,,,,,,,,,,,,,,,,,,,,,,,,,,,,,,,,
655652e4d1acd4df9b343078,2023-11-24_13h59.26.250,kallum_motion_pilot,2023.1.2,Win32,59.65519298,655652e4d1acd4df9b343078,656018846682f3df8008bb8f,656019ccf3d4094a03fd6f22,2,22,346,128,1,fivesix,,,,,,,,,,,,,,,,,,,,,,,,,,,,,,,,,,,,,,,,,,,,,,,,,,,,,,,,,,,,,,,,,,,,,,,,,,,,,,,,,,,,,
655652e4d1acd4df9b343078,2023-11-24_13h59.26.250,kallum_motion_pilot,2023.1.2,Win32,59.65519298,655652e4d1acd4df9b343078,656018846682f3df8008bb8f,656019ccf3d4094a03fd6f22,2,23,347,93,1,seveneight,,,,,,,,,,,,,,,,,,,,,,,,,,,,,,,,,,,,,,,,,,,,,,,,,,,,,,,,,,,,,,,,,,,,,,,,,,,,,,,,,,,,,
655652e4d1acd4df9b343078,2023-11-24_13h59.26.250,kallum_motion_pilot,2023.1.2,Win32,59.65519298,655652e4d1acd4df9b343078,656018846682f3df8008bb8f,656019ccf3d4094a03fd6f22,2,24,348,59,1,twofour,,,,,,,,,,,,,,,,,,,,,,,,,,,,,,,,,,,,,,,,,,,,,,,,,,,,,,,,,,,,,,,,,,,,,,,,,,,,,,,,,,,,,
655652e4d1acd4df9b343078,2023-11-24_13h59.26.250,kallum_motion_pilot,2023.1.2,Win32,59.65519298,655652e4d1acd4df9b343078,656018846682f3df8008bb8f,656019ccf3d4094a03fd6f22,2,25,349,133,1,seveneight,,,,,,,,,,,,,,,,,,,,,,,,,,,,,,,,,,,,,,,,,,,,,,,,,,,,,,,,,,,,,,,,,,,,,,,,,,,,,,,,,,,,,
