Prolific_ID*,date,expName,psychopyVersion,OS,frameRate,PROLIFIC_PID,STUDY_ID,SESSION_ID,hardcoded_stimulus_positions.thisRepN,hardcoded_stimulus_positions.thisTrialN,hardcoded_stimulus_positions.thisN,hardcoded_stimulus_positions.thisIndex,hardcoded_stimulus_positions.ran,StimulusPos,prac_stimorientation_import_loop.thisRepN,prac_stimorientation_import_loop.thisTrialN,prac_stimorientation_import_loop.thisN,prac_stimorientation_import_loop.thisIndex,prac_stimorientation_import_loop.ran,Stimorientation,key_resp.keys,key_resp.rt,key_resp_20.keys,key_resp_20.rt,key_resp_19.keys,key_resp_19.rt,key_resp_15.keys,key_resp_15.rt,key_resp_9.keys,key_resp_9.rt,key_resp_10.keys,key_resp_10.rt,Ecc,Circle1_ori,Circle2_ori,similarity,response_time,mouse_5.x,mouse_5.y,mouse_5.leftButton,mouse_5.midButton,mouse_5.rightButton,mouse_5.clicked_name,mouse_6.x,mouse_6.y,mouse_6.leftButton,mouse_6.midButton,mouse_6.rightButton,mouse_6.clicked_name,duringprac.thisRepN,duringprac.thisTrialN,duringprac.thisN,duringprac.thisIndex,duringprac.ran,key_resp_22.keys,key_resp_22.rt,circle1_ori,circle2_ori,mouse.x,mouse.y,mouse.leftButton,mouse.midButton,mouse.rightButton,mouse.clicked_name,mouse_2.x,mouse_2.y,mouse_2.leftButton,mouse_2.midButton,mouse_2.rightButton,mouse_2.clicked_name,mouse_3.x,mouse_3.y,mouse_3.leftButton,mouse_3.midButton,mouse_3.rightButton,catchresponse,catchnumber,response_time_catch,Catch,mouse_11.x,mouse_11.y,mouse_11.leftButton,mouse_11.midButton,mouse_11.rightButton,main_trial.thisRepN,main_trial.thisTrialN,main_trial.thisN,main_trial.thisIndex,main_trial.ran,Orientationtrialno,xcircle1_ori,xcircle2_ori,double_pass.thisRepN,double_pass.thisTrialN,double_pass.thisN,double_pass.thisIndex,double_pass.ran,key_resp_3.keys,key_resp_3.rt
5e7a564c3a915c03028714d8,2023-11-23_21h46.06.932,kallum_motion_pilot,2023.1.2,Win32,143.6781609,5e7a564c3a915c03028714d8,656018846682f3df8008bb8f,656019d0e52c55fdec3dc068,,,,,,,,,,,,,,,,,,,,,,,,,,,,,,,,,,,,,,,,,,,,,,,,,,,,,,,,,,,,,,,,,,,,,,,,,,,,,,,,,,,,,,,,,,,
5e7a564c3a915c03028714d8,2023-11-23_21h46.06.932,kallum_motion_pilot,2023.1.2,Win32,143.6781609,5e7a564c3a915c03028714d8,656018846682f3df8008bb8f,656019d0e52c55fdec3dc068,0,0,0,5,1,threefour,,,,,,,,,,,,,,,,,,,,,,,,,,,,,,,,,,,,,,,,,,,,,,,,,,,,,,,,,,,,,,,,,,,,,,,,,,,,,,,,,,,,,
5e7a564c3a915c03028714d8,2023-11-23_21h46.06.932,kallum_motion_pilot,2023.1.2,Win32,143.6781609,5e7a564c3a915c03028714d8,656018846682f3df8008bb8f,656019d0e52c55fdec3dc068,0,1,1,108,1,sevenfive,,,,,,,,,,,,,,,,,,,,,,,,,,,,,,,,,,,,,,,,,,,,,,,,,,,,,,,,,,,,,,,,,,,,,,,,,,,,,,,,,,,,,
5e7a564c3a915c03028714d8,2023-11-23_21h46.06.932,kallum_motion_pilot,2023.1.2,Win32,143.6781609,5e7a564c3a915c03028714d8,656018846682f3df8008bb8f,656019d0e52c55fdec3dc068,0,2,2,71,1,fourthree,,,,,,,,,,,,,,,,,,,,,,,,,,,,,,,,,,,,,,,,,,,,,,,,,,,,,,,,,,,,,,,,,,,,,,,,,,,,,,,,,,,,,
5e7a564c3a915c03028714d8,2023-11-23_21h46.06.932,kallum_motion_pilot,2023.1.2,Win32,143.6781609,5e7a564c3a915c03028714d8,656018846682f3df8008bb8f,656019d0e52c55fdec3dc068,0,3,3,120,1,fivesix,,,,,,,,,,,,,,,,,,,,,,,,,,,,,,,,,,,,,,,,,,,,,,,,,,,,,,,,,,,,,,,,,,,,,,,,,,,,,,,,,,,,,
5e7a564c3a915c03028714d8,2023-11-23_21h46.06.932,kallum_motion_pilot,2023.1.2,Win32,143.6781609,5e7a564c3a915c03028714d8,656018846682f3df8008bb8f,656019d0e52c55fdec3dc068,0,4,4,55,1,fourthree,,,,,,,,,,,,,,,,,,,,,,,,,,,,,,,,,,,,,,,,,,,,,,,,,,,,,,,,,,,,,,,,,,,,,,,,,,,,,,,,,,,,,
5e7a564c3a915c03028714d8,2023-11-23_21h46.06.932,kallum_motion_pilot,2023.1.2,Win32,143.6781609,5e7a564c3a915c03028714d8,656018846682f3df8008bb8f,656019d0e52c55fdec3dc068,0,5,5,50,1,twoone,,,,,,,,,,,,,,,,,,,,,,,,,,,,,,,,,,,,,,,,,,,,,,,,,,,,,,,,,,,,,,,,,,,,,,,,,,,,,,,,,,,,,
5e7a564c3a915c03028714d8,2023-11-23_21h46.06.932,kallum_motion_pilot,2023.1.2,Win32,143.6781609,5e7a564c3a915c03028714d8,656018846682f3df8008bb8f,656019d0e52c55fdec3dc068,0,6,6,97,1,fiveseven,,,,,,,,,,,,,,,,,,,,,,,,,,,,,,,,,,,,,,,,,,,,,,,,,,,,,,,,,,,,,,,,,,,,,,,,,,,,,,,,,,,,,
5e7a564c3a915c03028714d8,2023-11-23_21h46.06.932,kallum_motion_pilot,2023.1.2,Win32,143.6781609,5e7a564c3a915c03028714d8,656018846682f3df8008bb8f,656019d0e52c55fdec3dc068,0,7,7,31,1,fourthree,,,,,,,,,,,,,,,,,,,,,,,,,,,,,,,,,,,,,,,,,,,,,,,,,,,,,,,,,,,,,,,,,,,,,,,,,,,,,,,,,,,,,
5e7a564c3a915c03028714d8,2023-11-23_21h46.06.932,kallum_motion_pilot,2023.1.2,Win32,143.6781609,5e7a564c3a915c03028714d8,656018846682f3df8008bb8f,656019d0e52c55fdec3dc068,0,8,8,68,1,threeone,,,,,,,,,,,,,,,,,,,,,,,,,,,,,,,,,,,,,,,,,,,,,,,,,,,,,,,,,,,,,,,,,,,,,,,,,,,,,,,,,,,,,
5e7a564c3a915c03028714d8,2023-11-23_21h46.06.932,kallum_motion_pilot,2023.1.2,Win32,143.6781609,5e7a564c3a915c03028714d8,656018846682f3df8008bb8f,656019d0e52c55fdec3dc068,0,9,9,150,1,eightsix,,,,,,,,,,,,,,,,,,,,,,,,,,,,,,,,,,,,,,,,,,,,,,,,,,,,,,,,,,,,,,,,,,,,,,,,,,,,,,,,,,,,,
5e7a564c3a915c03028714d8,2023-11-23_21h46.06.932,kallum_motion_pilot,2023.1.2,Win32,143.6781609,5e7a564c3a915c03028714d8,656018846682f3df8008bb8f,656019d0e52c55fdec3dc068,0,10,10,10,1,twoone,,,,,,,,,,,,,,,,,,,,,,,,,,,,,,,,,,,,,,,,,,,,,,,,,,,,,,,,,,,,,,,,,,,,,,,,,,,,,,,,,,,,,
5e7a564c3a915c03028714d8,2023-11-23_21h46.06.932,kallum_motion_pilot,2023.1.2,Win32,143.6781609,5e7a564c3a915c03028714d8,656018846682f3df8008bb8f,656019d0e52c55fdec3dc068,0,11,11,138,1,sixfive,,,,,,,,,,,,,,,,,,,,,,,,,,,,,,,,,,,,,,,,,,,,,,,,,,,,,,,,,,,,,,,,,,,,,,,,,,,,,,,,,,,,,
5e7a564c3a915c03028714d8,2023-11-23_21h46.06.932,kallum_motion_pilot,2023.1.2,Win32,143.6781609,5e7a564c3a915c03028714d8,656018846682f3df8008bb8f,656019d0e52c55fdec3dc068,0,12,12,143,1,eightseven,,,,,,,,,,,,,,,,,,,,,,,,,,,,,,,,,,,,,,,,,,,,,,,,,,,,,,,,,,,,,,,,,,,,,,,,,,,,,,,,,,,,,
5e7a564c3a915c03028714d8,2023-11-23_21h46.06.932,kallum_motion_pilot,2023.1.2,Win32,143.6781609,5e7a564c3a915c03028714d8,656018846682f3df8008bb8f,656019d0e52c55fdec3dc068,0,13,13,72,1,onetwo,,,,,,,,,,,,,,,,,,,,,,,,,,,,,,,,,,,,,,,,,,,,,,,,,,,,,,,,,,,,,,,,,,,,,,,,,,,,,,,,,,,,,
5e7a564c3a915c03028714d8,2023-11-23_21h46.06.932,kallum_motion_pilot,2023.1.2,Win32,143.6781609,5e7a564c3a915c03028714d8,656018846682f3df8008bb8f,656019d0e52c55fdec3dc068,0,14,14,49,1,onethree,,,,,,,,,,,,,,,,,,,,,,,,,,,,,,,,,,,,,,,,,,,,,,,,,,,,,,,,,,,,,,,,,,,,,,,,,,,,,,,,,,,,,
5e7a564c3a915c03028714d8,2023-11-23_21h46.06.932,kallum_motion_pilot,2023.1.2,Win32,143.6781609,5e7a564c3a915c03028714d8,656018846682f3df8008bb8f,656019d0e52c55fdec3dc068,0,15,15,82,1,sixfive,,,,,,,,,,,,,,,,,,,,,,,,,,,,,,,,,,,,,,,,,,,,,,,,,,,,,,,,,,,,,,,,,,,,,,,,,,,,,,,,,,,,,
5e7a564c3a915c03028714d8,2023-11-23_21h46.06.932,kallum_motion_pilot,2023.1.2,Win32,143.6781609,5e7a564c3a915c03028714d8,656018846682f3df8008bb8f,656019d0e52c55fdec3dc068,0,16,16,6,1,fourtwo,,,,,,,,,,,,,,,,,,,,,,,,,,,,,,,,,,,,,,,,,,,,,,,,,,,,,,,,,,,,,,,,,,,,,,,,,,,,,,,,,,,,,
5e7a564c3a915c03028714d8,2023-11-23_21h46.06.932,kallum_motion_pilot,2023.1.2,Win32,143.6781609,5e7a564c3a915c03028714d8,656018846682f3df8008bb8f,656019d0e52c55fdec3dc068,0,17,17,93,1,seveneight,,,,,,,,,,,,,,,,,,,,,,,,,,,,,,,,,,,,,,,,,,,,,,,,,,,,,,,,,,,,,,,,,,,,,,,,,,,,,,,,,,,,,
5e7a564c3a915c03028714d8,2023-11-23_21h46.06.932,kallum_motion_pilot,2023.1.2,Win32,143.6781609,5e7a564c3a915c03028714d8,656018846682f3df8008bb8f,656019d0e52c55fdec3dc068,0,18,18,13,1,threefour,,,,,,,,,,,,,,,,,,,,,,,,,,,,,,,,,,,,,,,,,,,,,,,,,,,,,,,,,,,,,,,,,,,,,,,,,,,,,,,,,,,,,
5e7a564c3a915c03028714d8,2023-11-23_21h46.06.932,kallum_motion_pilot,2023.1.2,Win32,143.6781609,5e7a564c3a915c03028714d8,656018846682f3df8008bb8f,656019d0e52c55fdec3dc068,0,19,19,80,1,fivesix,,,,,,,,,,,,,,,,,,,,,,,,,,,,,,,,,,,,,,,,,,,,,,,,,,,,,,,,,,,,,,,,,,,,,,,,,,,,,,,,,,,,,
5e7a564c3a915c03028714d8,2023-11-23_21h46.06.932,kallum_motion_pilot,2023.1.2,Win32,143.6781609,5e7a564c3a915c03028714d8,656018846682f3df8008bb8f,656019d0e52c55fdec3dc068,0,20,20,17,1,onethree,,,,,,,,,,,,,,,,,,,,,,,,,,,,,,,,,,,,,,,,,,,,,,,,,,,,,,,,,,,,,,,,,,,,,,,,,,,,,,,,,,,,,
5e7a564c3a915c03028714d8,2023-11-23_21h46.06.932,kallum_motion_pilot,2023.1.2,Win32,143.6781609,5e7a564c3a915c03028714d8,656018846682f3df8008bb8f,656019d0e52c55fdec3dc068,0,21,21,46,1,fourtwo,,,,,,,,,,,,,,,,,,,,,,,,,,,,,,,,,,,,,,,,,,,,,,,,,,,,,,,,,,,,,,,,,,,,,,,,,,,,,,,,,,,,,
5e7a564c3a915c03028714d8,2023-11-23_21h46.06.932,kallum_motion_pilot,2023.1.2,Win32,143.6781609,5e7a564c3a915c03028714d8,656018846682f3df8008bb8f,656019d0e52c55fdec3dc068,0,22,22,125,1,seveneight,,,,,,,,,,,,,,,,,,,,,,,,,,,,,,,,,,,,,,,,,,,,,,,,,,,,,,,,,,,,,,,,,,,,,,,,,,,,,,,,,,,,,
5e7a564c3a915c03028714d8,2023-11-23_21h46.06.932,kallum_motion_pilot,2023.1.2,Win32,143.6781609,5e7a564c3a915c03028714d8,656018846682f3df8008bb8f,656019d0e52c55fdec3dc068,0,23,23,91,1,sixeight,,,,,,,,,,,,,,,,,,,,,,,,,,,,,,,,,,,,,,,,,,,,,,,,,,,,,,,,,,,,,,,,,,,,,,,,,,,,,,,,,,,,,
5e7a564c3a915c03028714d8,2023-11-23_21h46.06.932,kallum_motion_pilot,2023.1.2,Win32,143.6781609,5e7a564c3a915c03028714d8,656018846682f3df8008bb8f,656019d0e52c55fdec3dc068,0,24,24,128,1,fivesix,,,,,,,,,,,,,,,,,,,,,,,,,,,,,,,,,,,,,,,,,,,,,,,,,,,,,,,,,,,,,,,,,,,,,,,,,,,,,,,,,,,,,
5e7a564c3a915c03028714d8,2023-11-23_21h46.06.932,kallum_motion_pilot,2023.1.2,Win32,143.6781609,5e7a564c3a915c03028714d8,656018846682f3df8008bb8f,656019d0e52c55fdec3dc068,0,25,25,20,1,threeone,,,,,,,,,,,,,,,,,,,,,,,,,,,,,,,,,,,,,,,,,,,,,,,,,,,,,,,,,,,,,,,,,,,,,,,,,,,,,,,,,,,,,
5e7a564c3a915c03028714d8,2023-11-23_21h46.06.932,kallum_motion_pilot,2023.1.2,Win32,143.6781609,5e7a564c3a915c03028714d8,656018846682f3df8008bb8f,656019d0e52c55fdec3dc068,0,26,26,96,1,fivesix,,,,,,,,,,,,,,,,,,,,,,,,,,,,,,,,,,,,,,,,,,,,,,,,,,,,,,,,,,,,,,,,,,,,,,,,,,,,,,,,,,,,,
5e7a564c3a915c03028714d8,2023-11-23_21h46.06.932,kallum_motion_pilot,2023.1.2,Win32,143.6781609,5e7a564c3a915c03028714d8,656018846682f3df8008bb8f,656019d0e52c55fdec3dc068,0,27,27,35,1,twofour,,,,,,,,,,,,,,,,,,,,,,,,,,,,,,,,,,,,,,,,,,,,,,,,,,,,,,,,,,,,,,,,,,,,,,,,,,,,,,,,,,,,,
5e7a564c3a915c03028714d8,2023-11-23_21h46.06.932,kallum_motion_pilot,2023.1.2,Win32,143.6781609,5e7a564c3a915c03028714d8,656018846682f3df8008bb8f,656019d0e52c55fdec3dc068,0,28,28,41,1,onethree,,,,,,,,,,,,,,,,,,,,,,,,,,,,,,,,,,,,,,,,,,,,,,,,,,,,,,,,,,,,,,,,,,,,,,,,,,,,,,,,,,,,,
5e7a564c3a915c03028714d8,2023-11-23_21h46.06.932,kallum_motion_pilot,2023.1.2,Win32,143.6781609,5e7a564c3a915c03028714d8,656018846682f3df8008bb8f,656019d0e52c55fdec3dc068,0,29,29,69,1,threefour,,,,,,,,,,,,,,,,,,,,,,,,,,,,,,,,,,,,,,,,,,,,,,,,,,,,,,,,,,,,,,,,,,,,,,,,,,,,,,,,,,,,,
5e7a564c3a915c03028714d8,2023-11-23_21h46.06.932,kallum_motion_pilot,2023.1.2,Win32,143.6781609,5e7a564c3a915c03028714d8,656018846682f3df8008bb8f,656019d0e52c55fdec3dc068,0,30,30,4,1,threeone,,,,,,,,,,,,,,,,,,,,,,,,,,,,,,,,,,,,,,,,,,,,,,,,,,,,,,,,,,,,,,,,,,,,,,,,,,,,,,,,,,,,,
5e7a564c3a915c03028714d8,2023-11-23_21h46.06.932,kallum_motion_pilot,2023.1.2,Win32,143.6781609,5e7a564c3a915c03028714d8,656018846682f3df8008bb8f,656019d0e52c55fdec3dc068,0,31,31,12,1,threeone,,,,,,,,,,,,,,,,,,,,,,,,,,,,,,,,,,,,,,,,,,,,,,,,,,,,,,,,,,,,,,,,,,,,,,,,,,,,,,,,,,,,,
5e7a564c3a915c03028714d8,2023-11-23_21h46.06.932,kallum_motion_pilot,2023.1.2,Win32,143.6781609,5e7a564c3a915c03028714d8,656018846682f3df8008bb8f,656019d0e52c55fdec3dc068,0,32,32,92,1,sevenfive,,,,,,,,,,,,,,,,,,,,,,,,,,,,,,,,,,,,,,,,,,,,,,,,,,,,,,,,,,,,,,,,,,,,,,,,,,,,,,,,,,,,,
5e7a564c3a915c03028714d8,2023-11-23_21h46.06.932,kallum_motion_pilot,2023.1.2,Win32,143.6781609,5e7a564c3a915c03028714d8,656018846682f3df8008bb8f,656019d0e52c55fdec3dc068,0,33,33,157,1,seveneight,,,,,,,,,,,,,,,,,,,,,,,,,,,,,,,,,,,,,,,,,,,,,,,,,,,,,,,,,,,,,,,,,,,,,,,,,,,,,,,,,,,,,
5e7a564c3a915c03028714d8,2023-11-23_21h46.06.932,kallum_motion_pilot,2023.1.2,Win32,143.6781609,5e7a564c3a915c03028714d8,656018846682f3df8008bb8f,656019d0e52c55fdec3dc068,0,34,34,130,1,sixfive,,,,,,,,,,,,,,,,,,,,,,,,,,,,,,,,,,,,,,,,,,,,,,,,,,,,,,,,,,,,,,,,,,,,,,,,,,,,,,,,,,,,,
5e7a564c3a915c03028714d8,2023-11-23_21h46.06.932,kallum_motion_pilot,2023.1.2,Win32,143.6781609,5e7a564c3a915c03028714d8,656018846682f3df8008bb8f,656019d0e52c55fdec3dc068,0,35,35,33,1,onethree,,,,,,,,,,,,,,,,,,,,,,,,,,,,,,,,,,,,,,,,,,,,,,,,,,,,,,,,,,,,,,,,,,,,,,,,,,,,,,,,,,,,,
5e7a564c3a915c03028714d8,2023-11-23_21h46.06.932,kallum_motion_pilot,2023.1.2,Win32,143.6781609,5e7a564c3a915c03028714d8,656018846682f3df8008bb8f,656019d0e52c55fdec3dc068,0,36,36,65,1,onethree,,,,,,,,,,,,,,,,,,,,,,,,,,,,,,,,,,,,,,,,,,,,,,,,,,,,,,,,,,,,,,,,,,,,,,,,,,,,,,,,,,,,,
5e7a564c3a915c03028714d8,2023-11-23_21h46.06.932,kallum_motion_pilot,2023.1.2,Win32,143.6781609,5e7a564c3a915c03028714d8,656018846682f3df8008bb8f,656019d0e52c55fdec3dc068,0,37,37,90,1,sixfive,,,,,,,,,,,,,,,,,,,,,,,,,,,,,,,,,,,,,,,,,,,,,,,,,,,,,,,,,,,,,,,,,,,,,,,,,,,,,,,,,,,,,
5e7a564c3a915c03028714d8,2023-11-23_21h46.06.932,kallum_motion_pilot,2023.1.2,Win32,143.6781609,5e7a564c3a915c03028714d8,656018846682f3df8008bb8f,656019d0e52c55fdec3dc068,0,38,38,134,1,eightsix,,,,,,,,,,,,,,,,,,,,,,,,,,,,,,,,,,,,,,,,,,,,,,,,,,,,,,,,,,,,,,,,,,,,,,,,,,,,,,,,,,,,,
5e7a564c3a915c03028714d8,2023-11-23_21h46.06.932,kallum_motion_pilot,2023.1.2,Win32,143.6781609,5e7a564c3a915c03028714d8,656018846682f3df8008bb8f,656019d0e52c55fdec3dc068,0,39,39,23,1,fourthree,,,,,,,,,,,,,,,,,,,,,,,,,,,,,,,,,,,,,,,,,,,,,,,,,,,,,,,,,,,,,,,,,,,,,,,,,,,,,,,,,,,,,
5e7a564c3a915c03028714d8,2023-11-23_21h46.06.932,kallum_motion_pilot,2023.1.2,Win32,143.6781609,5e7a564c3a915c03028714d8,656018846682f3df8008bb8f,656019d0e52c55fdec3dc068,0,40,40,131,1,sixeight,,,,,,,,,,,,,,,,,,,,,,,,,,,,,,,,,,,,,,,,,,,,,,,,,,,,,,,,,,,,,,,,,,,,,,,,,,,,,,,,,,,,,
5e7a564c3a915c03028714d8,2023-11-23_21h46.06.932,kallum_motion_pilot,2023.1.2,Win32,143.6781609,5e7a564c3a915c03028714d8,656018846682f3df8008bb8f,656019d0e52c55fdec3dc068,0,41,41,117,1,seveneight,,,,,,,,,,,,,,,,,,,,,,,,,,,,,,,,,,,,,,,,,,,,,,,,,,,,,,,,,,,,,,,,,,,,,,,,,,,,,,,,,,,,,
5e7a564c3a915c03028714d8,2023-11-23_21h46.06.932,kallum_motion_pilot,2023.1.2,Win32,143.6781609,5e7a564c3a915c03028714d8,656018846682f3df8008bb8f,656019d0e52c55fdec3dc068,0,42,42,119,1,eightseven,,,,,,,,,,,,,,,,,,,,,,,,,,,,,,,,,,,,,,,,,,,,,,,,,,,,,,,,,,,,,,,,,,,,,,,,,,,,,,,,,,,,,
5e7a564c3a915c03028714d8,2023-11-23_21h46.06.932,kallum_motion_pilot,2023.1.2,Win32,143.6781609,5e7a564c3a915c03028714d8,656018846682f3df8008bb8f,656019d0e52c55fdec3dc068,0,43,43,144,1,fivesix,,,,,,,,,,,,,,,,,,,,,,,,,,,,,,,,,,,,,,,,,,,,,,,,,,,,,,,,,,,,,,,,,,,,,,,,,,,,,,,,,,,,,
5e7a564c3a915c03028714d8,2023-11-23_21h46.06.932,kallum_motion_pilot,2023.1.2,Win32,143.6781609,5e7a564c3a915c03028714d8,656018846682f3df8008bb8f,656019d0e52c55fdec3dc068,0,44,44,111,1,eightseven,,,,,,,,,,,,,,,,,,,,,,,,,,,,,,,,,,,,,,,,,,,,,,,,,,,,,,,,,,,,,,,,,,,,,,,,,,,,,,,,,,,,,
5e7a564c3a915c03028714d8,2023-11-23_21h46.06.932,kallum_motion_pilot,2023.1.2,Win32,143.6781609,5e7a564c3a915c03028714d8,656018846682f3df8008bb8f,656019d0e52c55fdec3dc068,0,45,45,136,1,fivesix,,,,,,,,,,,,,,,,,,,,,,,,,,,,,,,,,,,,,,,,,,,,,,,,,,,,,,,,,,,,,,,,,,,,,,,,,,,,,,,,,,,,,
5e7a564c3a915c03028714d8,2023-11-23_21h46.06.932,kallum_motion_pilot,2023.1.2,Win32,143.6781609,5e7a564c3a915c03028714d8,656018846682f3df8008bb8f,656019d0e52c55fdec3dc068,0,46,46,29,1,threefour,,,,,,,,,,,,,,,,,,,,,,,,,,,,,,,,,,,,,,,,,,,,,,,,,,,,,,,,,,,,,,,,,,,,,,,,,,,,,,,,,,,,,
5e7a564c3a915c03028714d8,2023-11-23_21h46.06.932,kallum_motion_pilot,2023.1.2,Win32,143.6781609,5e7a564c3a915c03028714d8,656018846682f3df8008bb8f,656019d0e52c55fdec3dc068,0,47,47,94,1,eightsix,,,,,,,,,,,,,,,,,,,,,,,,,,,,,,,,,,,,,,,,,,,,,,,,,,,,,,,,,,,,,,,,,,,,,,,,,,,,,,,,,,,,,
5e7a564c3a915c03028714d8,2023-11-23_21h46.06.932,kallum_motion_pilot,2023.1.2,Win32,143.6781609,5e7a564c3a915c03028714d8,656018846682f3df8008bb8f,656019d0e52c55fdec3dc068,0,48,48,48,1,onetwo,,,,,,,,,,,,,,,,,,,,,,,,,,,,,,,,,,,,,,,,,,,,,,,,,,,,,,,,,,,,,,,,,,,,,,,,,,,,,,,,,,,,,
5e7a564c3a915c03028714d8,2023-11-23_21h46.06.932,kallum_motion_pilot,2023.1.2,Win32,143.6781609,5e7a564c3a915c03028714d8,656018846682f3df8008bb8f,656019d0e52c55fdec3dc068,0,49,49,15,1,fourthree,,,,,,,,,,,,,,,,,,,,,,,,,,,,,,,,,,,,,,,,,,,,,,,,,,,,,,,,,,,,,,,,,,,,,,,,,,,,,,,,,,,,,
5e7a564c3a915c03028714d8,2023-11-23_21h46.06.932,kallum_motion_pilot,2023.1.2,Win32,143.6781609,5e7a564c3a915c03028714d8,656018846682f3df8008bb8f,656019d0e52c55fdec3dc068,0,50,50,7,1,fourthree,,,,,,,,,,,,,,,,,,,,,,,,,,,,,,,,,,,,,,,,,,,,,,,,,,,,,,,,,,,,,,,,,,,,,,,,,,,,,,,,,,,,,
5e7a564c3a915c03028714d8,2023-11-23_21h46.06.932,kallum_motion_pilot,2023.1.2,Win32,143.6781609,5e7a564c3a915c03028714d8,656018846682f3df8008bb8f,656019d0e52c55fdec3dc068,0,51,51,54,1,fourtwo,,,,,,,,,,,,,,,,,,,,,,,,,,,,,,,,,,,,,,,,,,,,,,,,,,,,,,,,,,,,,,,,,,,,,,,,,,,,,,,,,,,,,
5e7a564c3a915c03028714d8,2023-11-23_21h46.06.932,kallum_motion_pilot,2023.1.2,Win32,143.6781609,5e7a564c3a915c03028714d8,656018846682f3df8008bb8f,656019d0e52c55fdec3dc068,0,52,52,107,1,sixeight,,,,,,,,,,,,,,,,,,,,,,,,,,,,,,,,,,,,,,,,,,,,,,,,,,,,,,,,,,,,,,,,,,,,,,,,,,,,,,,,,,,,,
5e7a564c3a915c03028714d8,2023-11-23_21h46.06.932,kallum_motion_pilot,2023.1.2,Win32,143.6781609,5e7a564c3a915c03028714d8,656018846682f3df8008bb8f,656019d0e52c55fdec3dc068,0,53,53,103,1,eightseven,,,,,,,,,,,,,,,,,,,,,,,,,,,,,,,,,,,,,,,,,,,,,,,,,,,,,,,,,,,,,,,,,,,,,,,,,,,,,,,,,,,,,
5e7a564c3a915c03028714d8,2023-11-23_21h46.06.932,kallum_motion_pilot,2023.1.2,Win32,143.6781609,5e7a564c3a915c03028714d8,656018846682f3df8008bb8f,656019d0e52c55fdec3dc068,0,54,54,85,1,seveneight,,,,,,,,,,,,,,,,,,,,,,,,,,,,,,,,,,,,,,,,,,,,,,,,,,,,,,,,,,,,,,,,,,,,,,,,,,,,,,,,,,,,,
5e7a564c3a915c03028714d8,2023-11-23_21h46.06.932,kallum_motion_pilot,2023.1.2,Win32,143.6781609,5e7a564c3a915c03028714d8,656018846682f3df8008bb8f,656019d0e52c55fdec3dc068,0,55,55,25,1,onethree,,,,,,,,,,,,,,,,,,,,,,,,,,,,,,,,,,,,,,,,,,,,,,,,,,,,,,,,,,,,,,,,,,,,,,,,,,,,,,,,,,,,,
5e7a564c3a915c03028714d8,2023-11-23_21h46.06.932,kallum_motion_pilot,2023.1.2,Win32,143.6781609,5e7a564c3a915c03028714d8,656018846682f3df8008bb8f,656019d0e52c55fdec3dc068,0,56,56,121,1,fiveseven,,,,,,,,,,,,,,,,,,,,,,,,,,,,,,,,,,,,,,,,,,,,,,,,,,,,,,,,,,,,,,,,,,,,,,,,,,,,,,,,,,,,,
5e7a564c3a915c03028714d8,2023-11-23_21h46.06.932,kallum_motion_pilot,2023.1.2,Win32,143.6781609,5e7a564c3a915c03028714d8,656018846682f3df8008bb8f,656019d0e52c55fdec3dc068,0,57,57,27,1,twofour,,,,,,,,,,,,,,,,,,,,,,,,,,,,,,,,,,,,,,,,,,,,,,,,,,,,,,,,,,,,,,,,,,,,,,,,,,,,,,,,,,,,,
5e7a564c3a915c03028714d8,2023-11-23_21h46.06.932,kallum_motion_pilot,2023.1.2,Win32,143.6781609,5e7a564c3a915c03028714d8,656018846682f3df8008bb8f,656019d0e52c55fdec3dc068,0,58,58,139,1,sixeight,,,,,,,,,,,,,,,,,,,,,,,,,,,,,,,,,,,,,,,,,,,,,,,,,,,,,,,,,,,,,,,,,,,,,,,,,,,,,,,,,,,,,
5e7a564c3a915c03028714d8,2023-11-23_21h46.06.932,kallum_motion_pilot,2023.1.2,Win32,143.6781609,5e7a564c3a915c03028714d8,656018846682f3df8008bb8f,656019d0e52c55fdec3dc068,0,59,59,124,1,sevenfive,,,,,,,,,,,,,,,,,,,,,,,,,,,,,,,,,,,,,,,,,,,,,,,,,,,,,,,,,,,,,,,,,,,,,,,,,,,,,,,,,,,,,
5e7a564c3a915c03028714d8,2023-11-23_21h46.06.932,kallum_motion_pilot,2023.1.2,Win32,143.6781609,5e7a564c3a915c03028714d8,656018846682f3df8008bb8f,656019d0e52c55fdec3dc068,0,60,60,3,1,twofour,,,,,,,,,,,,,,,,,,,,,,,,,,,,,,,,,,,,,,,,,,,,,,,,,,,,,,,,,,,,,,,,,,,,,,,,,,,,,,,,,,,,,
5e7a564c3a915c03028714d8,2023-11-23_21h46.06.932,kallum_motion_pilot,2023.1.2,Win32,143.6781609,5e7a564c3a915c03028714d8,656018846682f3df8008bb8f,656019d0e52c55fdec3dc068,0,61,61,22,1,fourtwo,,,,,,,,,,,,,,,,,,,,,,,,,,,,,,,,,,,,,,,,,,,,,,,,,,,,,,,,,,,,,,,,,,,,,,,,,,,,,,,,,,,,,
5e7a564c3a915c03028714d8,2023-11-23_21h46.06.932,kallum_motion_pilot,2023.1.2,Win32,143.6781609,5e7a564c3a915c03028714d8,656018846682f3df8008bb8f,656019d0e52c55fdec3dc068,0,62,62,152,1,fivesix,,,,,,,,,,,,,,,,,,,,,,,,,,,,,,,,,,,,,,,,,,,,,,,,,,,,,,,,,,,,,,,,,,,,,,,,,,,,,,,,,,,,,
5e7a564c3a915c03028714d8,2023-11-23_21h46.06.932,kallum_motion_pilot,2023.1.2,Win32,143.6781609,5e7a564c3a915c03028714d8,656018846682f3df8008bb8f,656019d0e52c55fdec3dc068,0,63,63,51,1,twofour,,,,,,,,,,,,,,,,,,,,,,,,,,,,,,,,,,,,,,,,,,,,,,,,,,,,,,,,,,,,,,,,,,,,,,,,,,,,,,,,,,,,,
5e7a564c3a915c03028714d8,2023-11-23_21h46.06.932,kallum_motion_pilot,2023.1.2,Win32,143.6781609,5e7a564c3a915c03028714d8,656018846682f3df8008bb8f,656019d0e52c55fdec3dc068,0,64,64,78,1,fourtwo,,,,,,,,,,,,,,,,,,,,,,,,,,,,,,,,,,,,,,,,,,,,,,,,,,,,,,,,,,,,,,,,,,,,,,,,,,,,,,,,,,,,,
5e7a564c3a915c03028714d8,2023-11-23_21h46.06.932,kallum_motion_pilot,2023.1.2,Win32,143.6781609,5e7a564c3a915c03028714d8,656018846682f3df8008bb8f,656019d0e52c55fdec3dc068,0,65,65,36,1,threeone,,,,,,,,,,,,,,,,,,,,,,,,,,,,,,,,,,,,,,,,,,,,,,,,,,,,,,,,,,,,,,,,,,,,,,,,,,,,,,,,,,,,,
5e7a564c3a915c03028714d8,2023-11-23_21h46.06.932,kallum_motion_pilot,2023.1.2,Win32,143.6781609,5e7a564c3a915c03028714d8,656018846682f3df8008bb8f,656019d0e52c55fdec3dc068,0,66,66,109,1,seveneight,,,,,,,,,,,,,,,,,,,,,,,,,,,,,,,,,,,,,,,,,,,,,,,,,,,,,,,,,,,,,,,,,,,,,,,,,,,,,,,,,,,,,
5e7a564c3a915c03028714d8,2023-11-23_21h46.06.932,kallum_motion_pilot,2023.1.2,Win32,143.6781609,5e7a564c3a915c03028714d8,656018846682f3df8008bb8f,656019d0e52c55fdec3dc068,0,67,67,56,1,onetwo,,,,,,,,,,,,,,,,,,,,,,,,,,,,,,,,,,,,,,,,,,,,,,,,,,,,,,,,,,,,,,,,,,,,,,,,,,,,,,,,,,,,,
5e7a564c3a915c03028714d8,2023-11-23_21h46.06.932,kallum_motion_pilot,2023.1.2,Win32,143.6781609,5e7a564c3a915c03028714d8,656018846682f3df8008bb8f,656019d0e52c55fdec3dc068,0,68,68,28,1,threeone,,,,,,,,,,,,,,,,,,,,,,,,,,,,,,,,,,,,,,,,,,,,,,,,,,,,,,,,,,,,,,,,,,,,,,,,,,,,,,,,,,,,,
5e7a564c3a915c03028714d8,2023-11-23_21h46.06.932,kallum_motion_pilot,2023.1.2,Win32,143.6781609,5e7a564c3a915c03028714d8,656018846682f3df8008bb8f,656019d0e52c55fdec3dc068,0,69,69,154,1,sixfive,,,,,,,,,,,,,,,,,,,,,,,,,,,,,,,,,,,,,,,,,,,,,,,,,,,,,,,,,,,,,,,,,,,,,,,,,,,,,,,,,,,,,
5e7a564c3a915c03028714d8,2023-11-23_21h46.06.932,kallum_motion_pilot,2023.1.2,Win32,143.6781609,5e7a564c3a915c03028714d8,656018846682f3df8008bb8f,656019d0e52c55fdec3dc068,0,70,70,8,1,onetwo,,,,,,,,,,,,,,,,,,,,,,,,,,,,,,,,,,,,,,,,,,,,,,,,,,,,,,,,,,,,,,,,,,,,,,,,,,,,,,,,,,,,,
5e7a564c3a915c03028714d8,2023-11-23_21h46.06.932,kallum_motion_pilot,2023.1.2,Win32,143.6781609,5e7a564c3a915c03028714d8,656018846682f3df8008bb8f,656019d0e52c55fdec3dc068,0,71,71,122,1,sixfive,,,,,,,,,,,,,,,,,,,,,,,,,,,,,,,,,,,,,,,,,,,,,,,,,,,,,,,,,,,,,,,,,,,,,,,,,,,,,,,,,,,,,
5e7a564c3a915c03028714d8,2023-11-23_21h46.06.932,kallum_motion_pilot,2023.1.2,Win32,143.6781609,5e7a564c3a915c03028714d8,656018846682f3df8008bb8f,656019d0e52c55fdec3dc068,0,72,72,67,1,twofour,,,,,,,,,,,,,,,,,,,,,,,,,,,,,,,,,,,,,,,,,,,,,,,,,,,,,,,,,,,,,,,,,,,,,,,,,,,,,,,,,,,,,
5e7a564c3a915c03028714d8,2023-11-23_21h46.06.932,kallum_motion_pilot,2023.1.2,Win32,143.6781609,5e7a564c3a915c03028714d8,656018846682f3df8008bb8f,656019d0e52c55fdec3dc068,0,73,73,16,1,onetwo,,,,,,,,,,,,,,,,,,,,,,,,,,,,,,,,,,,,,,,,,,,,,,,,,,,,,,,,,,,,,,,,,,,,,,,,,,,,,,,,,,,,,
5e7a564c3a915c03028714d8,2023-11-23_21h46.06.932,kallum_motion_pilot,2023.1.2,Win32,143.6781609,5e7a564c3a915c03028714d8,656018846682f3df8008bb8f,656019d0e52c55fdec3dc068,0,74,74,126,1,eightsix,,,,,,,,,,,,,,,,,,,,,,,,,,,,,,,,,,,,,,,,,,,,,,,,,,,,,,,,,,,,,,,,,,,,,,,,,,,,,,,,,,,,,
5e7a564c3a915c03028714d8,2023-11-23_21h46.06.932,kallum_motion_pilot,2023.1.2,Win32,143.6781609,5e7a564c3a915c03028714d8,656018846682f3df8008bb8f,656019d0e52c55fdec3dc068,0,75,75,32,1,onetwo,,,,,,,,,,,,,,,,,,,,,,,,,,,,,,,,,,,,,,,,,,,,,,,,,,,,,,,,,,,,,,,,,,,,,,,,,,,,,,,,,,,,,
5e7a564c3a915c03028714d8,2023-11-23_21h46.06.932,kallum_motion_pilot,2023.1.2,Win32,143.6781609,5e7a564c3a915c03028714d8,656018846682f3df8008bb8f,656019d0e52c55fdec3dc068,0,76,76,110,1,eightsix,,,,,,,,,,,,,,,,,,,,,,,,,,,,,,,,,,,,,,,,,,,,,,,,,,,,,,,,,,,,,,,,,,,,,,,,,,,,,,,,,,,,,
5e7a564c3a915c03028714d8,2023-11-23_21h46.06.932,kallum_motion_pilot,2023.1.2,Win32,143.6781609,5e7a564c3a915c03028714d8,656018846682f3df8008bb8f,656019d0e52c55fdec3dc068,0,77,77,142,1,eightsix,,,,,,,,,,,,,,,,,,,,,,,,,,,,,,,,,,,,,,,,,,,,,,,,,,,,,,,,,,,,,,,,,,,,,,,,,,,,,,,,,,,,,
5e7a564c3a915c03028714d8,2023-11-23_21h46.06.932,kallum_motion_pilot,2023.1.2,Win32,143.6781609,5e7a564c3a915c03028714d8,656018846682f3df8008bb8f,656019d0e52c55fdec3dc068,0,78,78,66,1,twoone,,,,,,,,,,,,,,,,,,,,,,,,,,,,,,,,,,,,,,,,,,,,,,,,,,,,,,,,,,,,,,,,,,,,,,,,,,,,,,,,,,,,,
5e7a564c3a915c03028714d8,2023-11-23_21h46.06.932,kallum_motion_pilot,2023.1.2,Win32,143.6781609,5e7a564c3a915c03028714d8,656018846682f3df8008bb8f,656019d0e52c55fdec3dc068,0,79,79,87,1,eightseven,,,,,,,,,,,,,,,,,,,,,,,,,,,,,,,,,,,,,,,,,,,,,,,,,,,,,,,,,,,,,,,,,,,,,,,,,,,,,,,,,,,,,
5e7a564c3a915c03028714d8,2023-11-23_21h46.06.932,kallum_motion_pilot,2023.1.2,Win32,143.6781609,5e7a564c3a915c03028714d8,656018846682f3df8008bb8f,656019d0e52c55fdec3dc068,0,80,80,140,1,sevenfive,,,,,,,,,,,,,,,,,,,,,,,,,,,,,,,,,,,,,,,,,,,,,,,,,,,,,,,,,,,,,,,,,,,,,,,,,,,,,,,,,,,,,
5e7a564c3a915c03028714d8,2023-11-23_21h46.06.932,kallum_motion_pilot,2023.1.2,Win32,143.6781609,5e7a564c3a915c03028714d8,656018846682f3df8008bb8f,656019d0e52c55fdec3dc068,0,81,81,38,1,fourtwo,,,,,,,,,,,,,,,,,,,,,,,,,,,,,,,,,,,,,,,,,,,,,,,,,,,,,,,,,,,,,,,,,,,,,,,,,,,,,,,,,,,,,
5e7a564c3a915c03028714d8,2023-11-23_21h46.06.932,kallum_motion_pilot,2023.1.2,Win32,143.6781609,5e7a564c3a915c03028714d8,656018846682f3df8008bb8f,656019d0e52c55fdec3dc068,0,82,82,57,1,onethree,,,,,,,,,,,,,,,,,,,,,,,,,,,,,,,,,,,,,,,,,,,,,,,,,,,,,,,,,,,,,,,,,,,,,,,,,,,,,,,,,,,,,
5e7a564c3a915c03028714d8,2023-11-23_21h46.06.932,kallum_motion_pilot,2023.1.2,Win32,143.6781609,5e7a564c3a915c03028714d8,656018846682f3df8008bb8f,656019d0e52c55fdec3dc068,0,83,83,102,1,eightsix,,,,,,,,,,,,,,,,,,,,,,,,,,,,,,,,,,,,,,,,,,,,,,,,,,,,,,,,,,,,,,,,,,,,,,,,,,,,,,,,,,,,,
5e7a564c3a915c03028714d8,2023-11-23_21h46.06.932,kallum_motion_pilot,2023.1.2,Win32,143.6781609,5e7a564c3a915c03028714d8,656018846682f3df8008bb8f,656019d0e52c55fdec3dc068,0,84,84,155,1,sixeight,,,,,,,,,,,,,,,,,,,,,,,,,,,,,,,,,,,,,,,,,,,,,,,,,,,,,,,,,,,,,,,,,,,,,,,,,,,,,,,,,,,,,
5e7a564c3a915c03028714d8,2023-11-23_21h46.06.932,kallum_motion_pilot,2023.1.2,Win32,143.6781609,5e7a564c3a915c03028714d8,656018846682f3df8008bb8f,656019d0e52c55fdec3dc068,0,85,85,30,1,fourtwo,,,,,,,,,,,,,,,,,,,,,,,,,,,,,,,,,,,,,,,,,,,,,,,,,,,,,,,,,,,,,,,,,,,,,,,,,,,,,,,,,,,,,
5e7a564c3a915c03028714d8,2023-11-23_21h46.06.932,kallum_motion_pilot,2023.1.2,Win32,143.6781609,5e7a564c3a915c03028714d8,656018846682f3df8008bb8f,656019d0e52c55fdec3dc068,0,86,86,18,1,twoone,,,,,,,,,,,,,,,,,,,,,,,,,,,,,,,,,,,,,,,,,,,,,,,,,,,,,,,,,,,,,,,,,,,,,,,,,,,,,,,,,,,,,
5e7a564c3a915c03028714d8,2023-11-23_21h46.06.932,kallum_motion_pilot,2023.1.2,Win32,143.6781609,5e7a564c3a915c03028714d8,656018846682f3df8008bb8f,656019d0e52c55fdec3dc068,0,87,87,53,1,threefour,,,,,,,,,,,,,,,,,,,,,,,,,,,,,,,,,,,,,,,,,,,,,,,,,,,,,,,,,,,,,,,,,,,,,,,,,,,,,,,,,,,,,
5e7a564c3a915c03028714d8,2023-11-23_21h46.06.932,kallum_motion_pilot,2023.1.2,Win32,143.6781609,5e7a564c3a915c03028714d8,656018846682f3df8008bb8f,656019d0e52c55fdec3dc068,0,88,88,118,1,eightsix,,,,,,,,,,,,,,,,,,,,,,,,,,,,,,,,,,,,,,,,,,,,,,,,,,,,,,,,,,,,,,,,,,,,,,,,,,,,,,,,,,,,,
5e7a564c3a915c03028714d8,2023-11-23_21h46.06.932,kallum_motion_pilot,2023.1.2,Win32,143.6781609,5e7a564c3a915c03028714d8,656018846682f3df8008bb8f,656019d0e52c55fdec3dc068,0,89,89,37,1,threefour,,,,,,,,,,,,,,,,,,,,,,,,,,,,,,,,,,,,,,,,,,,,,,,,,,,,,,,,,,,,,,,,,,,,,,,,,,,,,,,,,,,,,
5e7a564c3a915c03028714d8,2023-11-23_21h46.06.932,kallum_motion_pilot,2023.1.2,Win32,143.6781609,5e7a564c3a915c03028714d8,656018846682f3df8008bb8f,656019d0e52c55fdec3dc068,0,90,90,74,1,twoone,,,,,,,,,,,,,,,,,,,,,,,,,,,,,,,,,,,,,,,,,,,,,,,,,,,,,,,,,,,,,,,,,,,,,,,,,,,,,,,,,,,,,
5e7a564c3a915c03028714d8,2023-11-23_21h46.06.932,kallum_motion_pilot,2023.1.2,Win32,143.6781609,5e7a564c3a915c03028714d8,656018846682f3df8008bb8f,656019d0e52c55fdec3dc068,0,91,91,0,1,onetwo,,,,,,,,,,,,,,,,,,,,,,,,,,,,,,,,,,,,,,,,,,,,,,,,,,,,,,,,,,,,,,,,,,,,,,,,,,,,,,,,,,,,,
5e7a564c3a915c03028714d8,2023-11-23_21h46.06.932,kallum_motion_pilot,2023.1.2,Win32,143.6781609,5e7a564c3a915c03028714d8,656018846682f3df8008bb8f,656019d0e52c55fdec3dc068,0,92,92,11,1,twofour,,,,,,,,,,,,,,,,,,,,,,,,,,,,,,,,,,,,,,,,,,,,,,,,,,,,,,,,,,,,,,,,,,,,,,,,,,,,,,,,,,,,,
5e7a564c3a915c03028714d8,2023-11-23_21h46.06.932,kallum_motion_pilot,2023.1.2,Win32,143.6781609,5e7a564c3a915c03028714d8,656018846682f3df8008bb8f,656019d0e52c55fdec3dc068,0,93,93,9,1,onethree,,,,,,,,,,,,,,,,,,,,,,,,,,,,,,,,,,,,,,,,,,,,,,,,,,,,,,,,,,,,,,,,,,,,,,,,,,,,,,,,,,,,,
5e7a564c3a915c03028714d8,2023-11-23_21h46.06.932,kallum_motion_pilot,2023.1.2,Win32,143.6781609,5e7a564c3a915c03028714d8,656018846682f3df8008bb8f,656019d0e52c55fdec3dc068,0,94,94,45,1,threefour,,,,,,,,,,,,,,,,,,,,,,,,,,,,,,,,,,,,,,,,,,,,,,,,,,,,,,,,,,,,,,,,,,,,,,,,,,,,,,,,,,,,,
5e7a564c3a915c03028714d8,2023-11-23_21h46.06.932,kallum_motion_pilot,2023.1.2,Win32,143.6781609,5e7a564c3a915c03028714d8,656018846682f3df8008bb8f,656019d0e52c55fdec3dc068,0,95,95,146,1,sixfive,,,,,,,,,,,,,,,,,,,,,,,,,,,,,,,,,,,,,,,,,,,,,,,,,,,,,,,,,,,,,,,,,,,,,,,,,,,,,,,,,,,,,
5e7a564c3a915c03028714d8,2023-11-23_21h46.06.932,kallum_motion_pilot,2023.1.2,Win32,143.6781609,5e7a564c3a915c03028714d8,656018846682f3df8008bb8f,656019d0e52c55fdec3dc068,0,96,96,95,1,eightseven,,,,,,,,,,,,,,,,,,,,,,,,,,,,,,,,,,,,,,,,,,,,,,,,,,,,,,,,,,,,,,,,,,,,,,,,,,,,,,,,,,,,,
5e7a564c3a915c03028714d8,2023-11-23_21h46.06.932,kallum_motion_pilot,2023.1.2,Win32,143.6781609,5e7a564c3a915c03028714d8,656018846682f3df8008bb8f,656019d0e52c55fdec3dc068,0,97,97,127,1,eightseven,,,,,,,,,,,,,,,,,,,,,,,,,,,,,,,,,,,,,,,,,,,,,,,,,,,,,,,,,,,,,,,,,,,,,,,,,,,,,,,,,,,,,
5e7a564c3a915c03028714d8,2023-11-23_21h46.06.932,kallum_motion_pilot,2023.1.2,Win32,143.6781609,5e7a564c3a915c03028714d8,656018846682f3df8008bb8f,656019d0e52c55fdec3dc068,0,98,98,52,1,threeone,,,,,,,,,,,,,,,,,,,,,,,,,,,,,,,,,,,,,,,,,,,,,,,,,,,,,,,,,,,,,,,,,,,,,,,,,,,,,,,,,,,,,
5e7a564c3a915c03028714d8,2023-11-23_21h46.06.932,kallum_motion_pilot,2023.1.2,Win32,143.6781609,5e7a564c3a915c03028714d8,656018846682f3df8008bb8f,656019d0e52c55fdec3dc068,0,99,99,158,1,eightsix,,,,,,,,,,,,,,,,,,,,,,,,,,,,,,,,,,,,,,,,,,,,,,,,,,,,,,,,,,,,,,,,,,,,,,,,,,,,,,,,,,,,,
5e7a564c3a915c03028714d8,2023-11-23_21h46.06.932,kallum_motion_pilot,2023.1.2,Win32,143.6781609,5e7a564c3a915c03028714d8,656018846682f3df8008bb8f,656019d0e52c55fdec3dc068,0,100,100,43,1,twofour,,,,,,,,,,,,,,,,,,,,,,,,,,,,,,,,,,,,,,,,,,,,,,,,,,,,,,,,,,,,,,,,,,,,,,,,,,,,,,,,,,,,,
5e7a564c3a915c03028714d8,2023-11-23_21h46.06.932,kallum_motion_pilot,2023.1.2,Win32,143.6781609,5e7a564c3a915c03028714d8,656018846682f3df8008bb8f,656019d0e52c55fdec3dc068,0,101,101,129,1,fiveseven,,,,,,,,,,,,,,,,,,,,,,,,,,,,,,,,,,,,,,,,,,,,,,,,,,,,,,,,,,,,,,,,,,,,,,,,,,,,,,,,,,,,,
5e7a564c3a915c03028714d8,2023-11-23_21h46.06.932,kallum_motion_pilot,2023.1.2,Win32,143.6781609,5e7a564c3a915c03028714d8,656018846682f3df8008bb8f,656019d0e52c55fdec3dc068,0,102,102,156,1,sevenfive,,,,,,,,,,,,,,,,,,,,,,,,,,,,,,,,,,,,,,,,,,,,,,,,,,,,,,,,,,,,,,,,,,,,,,,,,,,,,,,,,,,,,
5e7a564c3a915c03028714d8,2023-11-23_21h46.06.932,kallum_motion_pilot,2023.1.2,Win32,143.6781609,5e7a564c3a915c03028714d8,656018846682f3df8008bb8f,656019d0e52c55fdec3dc068,0,103,103,137,1,fiveseven,,,,,,,,,,,,,,,,,,,,,,,,,,,,,,,,,,,,,,,,,,,,,,,,,,,,,,,,,,,,,,,,,,,,,,,,,,,,,,,,,,,,,
5e7a564c3a915c03028714d8,2023-11-23_21h46.06.932,kallum_motion_pilot,2023.1.2,Win32,143.6781609,5e7a564c3a915c03028714d8,656018846682f3df8008bb8f,656019d0e52c55fdec3dc068,0,104,104,75,1,twofour,,,,,,,,,,,,,,,,,,,,,,,,,,,,,,,,,,,,,,,,,,,,,,,,,,,,,,,,,,,,,,,,,,,,,,,,,,,,,,,,,,,,,
5e7a564c3a915c03028714d8,2023-11-23_21h46.06.932,kallum_motion_pilot,2023.1.2,Win32,143.6781609,5e7a564c3a915c03028714d8,656018846682f3df8008bb8f,656019d0e52c55fdec3dc068,0,105,105,83,1,sixeight,,,,,,,,,,,,,,,,,,,,,,,,,,,,,,,,,,,,,,,,,,,,,,,,,,,,,,,,,,,,,,,,,,,,,,,,,,,,,,,,,,,,,
5e7a564c3a915c03028714d8,2023-11-23_21h46.06.932,kallum_motion_pilot,2023.1.2,Win32,143.6781609,5e7a564c3a915c03028714d8,656018846682f3df8008bb8f,656019d0e52c55fdec3dc068,0,106,106,24,1,onetwo,,,,,,,,,,,,,,,,,,,,,,,,,,,,,,,,,,,,,,,,,,,,,,,,,,,,,,,,,,,,,,,,,,,,,,,,,,,,,,,,,,,,,
5e7a564c3a915c03028714d8,2023-11-23_21h46.06.932,kallum_motion_pilot,2023.1.2,Win32,143.6781609,5e7a564c3a915c03028714d8,656018846682f3df8008bb8f,656019d0e52c55fdec3dc068,0,107,107,89,1,fiveseven,,,,,,,,,,,,,,,,,,,,,,,,,,,,,,,,,,,,,,,,,,,,,,,,,,,,,,,,,,,,,,,,,,,,,,,,,,,,,,,,,,,,,
5e7a564c3a915c03028714d8,2023-11-23_21h46.06.932,kallum_motion_pilot,2023.1.2,Win32,143.6781609,5e7a564c3a915c03028714d8,656018846682f3df8008bb8f,656019d0e52c55fdec3dc068,0,108,108,101,1,seveneight,,,,,,,,,,,,,,,,,,,,,,,,,,,,,,,,,,,,,,,,,,,,,,,,,,,,,,,,,,,,,,,,,,,,,,,,,,,,,,,,,,,,,
5e7a564c3a915c03028714d8,2023-11-23_21h46.06.932,kallum_motion_pilot,2023.1.2,Win32,143.6781609,5e7a564c3a915c03028714d8,656018846682f3df8008bb8f,656019d0e52c55fdec3dc068,0,109,109,88,1,fivesix,,,,,,,,,,,,,,,,,,,,,,,,,,,,,,,,,,,,,,,,,,,,,,,,,,,,,,,,,,,,,,,,,,,,,,,,,,,,,,,,,,,,,
5e7a564c3a915c03028714d8,2023-11-23_21h46.06.932,kallum_motion_pilot,2023.1.2,Win32,143.6781609,5e7a564c3a915c03028714d8,656018846682f3df8008bb8f,656019d0e52c55fdec3dc068,0,110,110,133,1,seveneight,,,,,,,,,,,,,,,,,,,,,,,,,,,,,,,,,,,,,,,,,,,,,,,,,,,,,,,,,,,,,,,,,,,,,,,,,,,,,,,,,,,,,
5e7a564c3a915c03028714d8,2023-11-23_21h46.06.932,kallum_motion_pilot,2023.1.2,Win32,143.6781609,5e7a564c3a915c03028714d8,656018846682f3df8008bb8f,656019d0e52c55fdec3dc068,0,111,111,42,1,twoone,,,,,,,,,,,,,,,,,,,,,,,,,,,,,,,,,,,,,,,,,,,,,,,,,,,,,,,,,,,,,,,,,,,,,,,,,,,,,,,,,,,,,
5e7a564c3a915c03028714d8,2023-11-23_21h46.06.932,kallum_motion_pilot,2023.1.2,Win32,143.6781609,5e7a564c3a915c03028714d8,656018846682f3df8008bb8f,656019d0e52c55fdec3dc068,0,112,112,40,1,onetwo,,,,,,,,,,,,,,,,,,,,,,,,,,,,,,,,,,,,,,,,,,,,,,,,,,,,,,,,,,,,,,,,,,,,,,,,,,,,,,,,,,,,,
5e7a564c3a915c03028714d8,2023-11-23_21h46.06.932,kallum_motion_pilot,2023.1.2,Win32,143.6781609,5e7a564c3a915c03028714d8,656018846682f3df8008bb8f,656019d0e52c55fdec3dc068,0,113,113,62,1,fourtwo,,,,,,,,,,,,,,,,,,,,,,,,,,,,,,,,,,,,,,,,,,,,,,,,,,,,,,,,,,,,,,,,,,,,,,,,,,,,,,,,,,,,,
5e7a564c3a915c03028714d8,2023-11-23_21h46.06.932,kallum_motion_pilot,2023.1.2,Win32,143.6781609,5e7a564c3a915c03028714d8,656018846682f3df8008bb8f,656019d0e52c55fdec3dc068,0,114,114,63,1,fourthree,,,,,,,,,,,,,,,,,,,,,,,,,,,,,,,,,,,,,,,,,,,,,,,,,,,,,,,,,,,,,,,,,,,,,,,,,,,,,,,,,,,,,
5e7a564c3a915c03028714d8,2023-11-23_21h46.06.932,kallum_motion_pilot,2023.1.2,Win32,143.6781609,5e7a564c3a915c03028714d8,656018846682f3df8008bb8f,656019d0e52c55fdec3dc068,0,115,115,58,1,twoone,,,,,,,,,,,,,,,,,,,,,,,,,,,,,,,,,,,,,,,,,,,,,,,,,,,,,,,,,,,,,,,,,,,,,,,,,,,,,,,,,,,,,
5e7a564c3a915c03028714d8,2023-11-23_21h46.06.932,kallum_motion_pilot,2023.1.2,Win32,143.6781609,5e7a564c3a915c03028714d8,656018846682f3df8008bb8f,656019d0e52c55fdec3dc068,0,116,116,147,1,sixeight,,,,,,,,,,,,,,,,,,,,,,,,,,,,,,,,,,,,,,,,,,,,,,,,,,,,,,,,,,,,,,,,,,,,,,,,,,,,,,,,,,,,,
5e7a564c3a915c03028714d8,2023-11-23_21h46.06.932,kallum_motion_pilot,2023.1.2,Win32,143.6781609,5e7a564c3a915c03028714d8,656018846682f3df8008bb8f,656019d0e52c55fdec3dc068,0,117,117,98,1,sixfive,,,,,,,,,,,,,,,,,,,,,,,,,,,,,,,,,,,,,,,,,,,,,,,,,,,,,,,,,,,,,,,,,,,,,,,,,,,,,,,,,,,,,
5e7a564c3a915c03028714d8,2023-11-23_21h46.06.932,kallum_motion_pilot,2023.1.2,Win32,143.6781609,5e7a564c3a915c03028714d8,656018846682f3df8008bb8f,656019d0e52c55fdec3dc068,0,118,118,86,1,eightsix,,,,,,,,,,,,,,,,,,,,,,,,,,,,,,,,,,,,,,,,,,,,,,,,,,,,,,,,,,,,,,,,,,,,,,,,,,,,,,,,,,,,,
5e7a564c3a915c03028714d8,2023-11-23_21h46.06.932,kallum_motion_pilot,2023.1.2,Win32,143.6781609,5e7a564c3a915c03028714d8,656018846682f3df8008bb8f,656019d0e52c55fdec3dc068,0,119,119,106,1,sixfive,,,,,,,,,,,,,,,,,,,,,,,,,,,,,,,,,,,,,,,,,,,,,,,,,,,,,,,,,,,,,,,,,,,,,,,,,,,,,,,,,,,,,
5e7a564c3a915c03028714d8,2023-11-23_21h46.06.932,kallum_motion_pilot,2023.1.2,Win32,143.6781609,5e7a564c3a915c03028714d8,656018846682f3df8008bb8f,656019d0e52c55fdec3dc068,0,120,120,100,1,sevenfive,,,,,,,,,,,,,,,,,,,,,,,,,,,,,,,,,,,,,,,,,,,,,,,,,,,,,,,,,,,,,,,,,,,,,,,,,,,,,,,,,,,,,
5e7a564c3a915c03028714d8,2023-11-23_21h46.06.932,kallum_motion_pilot,2023.1.2,Win32,143.6781609,5e7a564c3a915c03028714d8,656018846682f3df8008bb8f,656019d0e52c55fdec3dc068,0,121,121,112,1,fivesix,,,,,,,,,,,,,,,,,,,,,,,,,,,,,,,,,,,,,,,,,,,,,,,,,,,,,,,,,,,,,,,,,,,,,,,,,,,,,,,,,,,,,
5e7a564c3a915c03028714d8,2023-11-23_21h46.06.932,kallum_motion_pilot,2023.1.2,Win32,143.6781609,5e7a564c3a915c03028714d8,656018846682f3df8008bb8f,656019d0e52c55fdec3dc068,0,122,122,79,1,eightseven,,,,,,,,,,,,,,,,,,,,,,,,,,,,,,,,,,,,,,,,,,,,,,,,,,,,,,,,,,,,,,,,,,,,,,,,,,,,,,,,,,,,,
5e7a564c3a915c03028714d8,2023-11-23_21h46.06.932,kallum_motion_pilot,2023.1.2,Win32,143.6781609,5e7a564c3a915c03028714d8,656018846682f3df8008bb8f,656019d0e52c55fdec3dc068,0,123,123,59,1,twofour,,,,,,,,,,,,,,,,,,,,,,,,,,,,,,,,,,,,,,,,,,,,,,,,,,,,,,,,,,,,,,,,,,,,,,,,,,,,,,,,,,,,,
5e7a564c3a915c03028714d8,2023-11-23_21h46.06.932,kallum_motion_pilot,2023.1.2,Win32,143.6781609,5e7a564c3a915c03028714d8,656018846682f3df8008bb8f,656019d0e52c55fdec3dc068,0,124,124,159,1,eightseven,,,,,,,,,,,,,,,,,,,,,,,,,,,,,,,,,,,,,,,,,,,,,,,,,,,,,,,,,,,,,,,,,,,,,,,,,,,,,,,,,,,,,
5e7a564c3a915c03028714d8,2023-11-23_21h46.06.932,kallum_motion_pilot,2023.1.2,Win32,143.6781609,5e7a564c3a915c03028714d8,656018846682f3df8008bb8f,656019d0e52c55fdec3dc068,0,125,125,99,1,sixeight,,,,,,,,,,,,,,,,,,,,,,,,,,,,,,,,,,,,,,,,,,,,,,,,,,,,,,,,,,,,,,,,,,,,,,,,,,,,,,,,,,,,,
5e7a564c3a915c03028714d8,2023-11-23_21h46.06.932,kallum_motion_pilot,2023.1.2,Win32,143.6781609,5e7a564c3a915c03028714d8,656018846682f3df8008bb8f,656019d0e52c55fdec3dc068,0,126,126,116,1,sevenfive,,,,,,,,,,,,,,,,,,,,,,,,,,,,,,,,,,,,,,,,,,,,,,,,,,,,,,,,,,,,,,,,,,,,,,,,,,,,,,,,,,,,,
5e7a564c3a915c03028714d8,2023-11-23_21h46.06.932,kallum_motion_pilot,2023.1.2,Win32,143.6781609,5e7a564c3a915c03028714d8,656018846682f3df8008bb8f,656019d0e52c55fdec3dc068,0,127,127,161,1,fiveseven,,,,,,,,,,,,,,,,,,,,,,,,,,,,,,,,,,,,,,,,,,,,,,,,,,,,,,,,,,,,,,,,,,,,,,,,,,,,,,,,,,,,,
5e7a564c3a915c03028714d8,2023-11-23_21h46.06.932,kallum_motion_pilot,2023.1.2,Win32,143.6781609,5e7a564c3a915c03028714d8,656018846682f3df8008bb8f,656019d0e52c55fdec3dc068,0,128,128,19,1,twofour,,,,,,,,,,,,,,,,,,,,,,,,,,,,,,,,,,,,,,,,,,,,,,,,,,,,,,,,,,,,,,,,,,,,,,,,,,,,,,,,,,,,,
5e7a564c3a915c03028714d8,2023-11-23_21h46.06.932,kallum_motion_pilot,2023.1.2,Win32,143.6781609,5e7a564c3a915c03028714d8,656018846682f3df8008bb8f,656019d0e52c55fdec3dc068,0,129,129,141,1,seveneight,,,,,,,,,,,,,,,,,,,,,,,,,,,,,,,,,,,,,,,,,,,,,,,,,,,,,,,,,,,,,,,,,,,,,,,,,,,,,,,,,,,,,
5e7a564c3a915c03028714d8,2023-11-23_21h46.06.932,kallum_motion_pilot,2023.1.2,Win32,143.6781609,5e7a564c3a915c03028714d8,656018846682f3df8008bb8f,656019d0e52c55fdec3dc068,0,130,130,1,1,onethree,,,,,,,,,,,,,,,,,,,,,,,,,,,,,,,,,,,,,,,,,,,,,,,,,,,,,,,,,,,,,,,,,,,,,,,,,,,,,,,,,,,,,
5e7a564c3a915c03028714d8,2023-11-23_21h46.06.932,kallum_motion_pilot,2023.1.2,Win32,143.6781609,5e7a564c3a915c03028714d8,656018846682f3df8008bb8f,656019d0e52c55fdec3dc068,0,131,131,160,1,fivesix,,,,,,,,,,,,,,,,,,,,,,,,,,,,,,,,,,,,,,,,,,,,,,,,,,,,,,,,,,,,,,,,,,,,,,,,,,,,,,,,,,,,,
5e7a564c3a915c03028714d8,2023-11-23_21h46.06.932,kallum_motion_pilot,2023.1.2,Win32,143.6781609,5e7a564c3a915c03028714d8,656018846682f3df8008bb8f,656019d0e52c55fdec3dc068,0,132,132,145,1,fiveseven,,,,,,,,,,,,,,,,,,,,,,,,,,,,,,,,,,,,,,,,,,,,,,,,,,,,,,,,,,,,,,,,,,,,,,,,,,,,,,,,,,,,,
5e7a564c3a915c03028714d8,2023-11-23_21h46.06.932,kallum_motion_pilot,2023.1.2,Win32,143.6781609,5e7a564c3a915c03028714d8,656018846682f3df8008bb8f,656019d0e52c55fdec3dc068,0,133,133,34,1,twoone,,,,,,,,,,,,,,,,,,,,,,,,,,,,,,,,,,,,,,,,,,,,,,,,,,,,,,,,,,,,,,,,,,,,,,,,,,,,,,,,,,,,,
5e7a564c3a915c03028714d8,2023-11-23_21h46.06.932,kallum_motion_pilot,2023.1.2,Win32,143.6781609,5e7a564c3a915c03028714d8,656018846682f3df8008bb8f,656019d0e52c55fdec3dc068,0,134,134,81,1,fiveseven,,,,,,,,,,,,,,,,,,,,,,,,,,,,,,,,,,,,,,,,,,,,,,,,,,,,,,,,,,,,,,,,,,,,,,,,,,,,,,,,,,,,,
5e7a564c3a915c03028714d8,2023-11-23_21h46.06.932,kallum_motion_pilot,2023.1.2,Win32,143.6781609,5e7a564c3a915c03028714d8,656018846682f3df8008bb8f,656019d0e52c55fdec3dc068,0,135,135,135,1,eightseven,,,,,,,,,,,,,,,,,,,,,,,,,,,,,,,,,,,,,,,,,,,,,,,,,,,,,,,,,,,,,,,,,,,,,,,,,,,,,,,,,,,,,
5e7a564c3a915c03028714d8,2023-11-23_21h46.06.932,kallum_motion_pilot,2023.1.2,Win32,143.6781609,5e7a564c3a915c03028714d8,656018846682f3df8008bb8f,656019d0e52c55fdec3dc068,0,136,136,151,1,eightseven,,,,,,,,,,,,,,,,,,,,,,,,,,,,,,,,,,,,,,,,,,,,,,,,,,,,,,,,,,,,,,,,,,,,,,,,,,,,,,,,,,,,,
5e7a564c3a915c03028714d8,2023-11-23_21h46.06.932,kallum_motion_pilot,2023.1.2,Win32,143.6781609,5e7a564c3a915c03028714d8,656018846682f3df8008bb8f,656019d0e52c55fdec3dc068,0,137,137,64,1,onetwo,,,,,,,,,,,,,,,,,,,,,,,,,,,,,,,,,,,,,,,,,,,,,,,,,,,,,,,,,,,,,,,,,,,,,,,,,,,,,,,,,,,,,
5e7a564c3a915c03028714d8,2023-11-23_21h46.06.932,kallum_motion_pilot,2023.1.2,Win32,143.6781609,5e7a564c3a915c03028714d8,656018846682f3df8008bb8f,656019d0e52c55fdec3dc068,0,138,138,148,1,sevenfive,,,,,,,,,,,,,,,,,,,,,,,,,,,,,,,,,,,,,,,,,,,,,,,,,,,,,,,,,,,,,,,,,,,,,,,,,,,,,,,,,,,,,
5e7a564c3a915c03028714d8,2023-11-23_21h46.06.932,kallum_motion_pilot,2023.1.2,Win32,143.6781609,5e7a564c3a915c03028714d8,656018846682f3df8008bb8f,656019d0e52c55fdec3dc068,0,139,139,115,1,sixeight,,,,,,,,,,,,,,,,,,,,,,,,,,,,,,,,,,,,,,,,,,,,,,,,,,,,,,,,,,,,,,,,,,,,,,,,,,,,,,,,,,,,,
5e7a564c3a915c03028714d8,2023-11-23_21h46.06.932,kallum_motion_pilot,2023.1.2,Win32,143.6781609,5e7a564c3a915c03028714d8,656018846682f3df8008bb8f,656019d0e52c55fdec3dc068,0,140,140,70,1,fourtwo,,,,,,,,,,,,,,,,,,,,,,,,,,,,,,,,,,,,,,,,,,,,,,,,,,,,,,,,,,,,,,,,,,,,,,,,,,,,,,,,,,,,,
5e7a564c3a915c03028714d8,2023-11-23_21h46.06.932,kallum_motion_pilot,2023.1.2,Win32,143.6781609,5e7a564c3a915c03028714d8,656018846682f3df8008bb8f,656019d0e52c55fdec3dc068,0,141,141,153,1,fiveseven,,,,,,,,,,,,,,,,,,,,,,,,,,,,,,,,,,,,,,,,,,,,,,,,,,,,,,,,,,,,,,,,,,,,,,,,,,,,,,,,,,,,,
5e7a564c3a915c03028714d8,2023-11-23_21h46.06.932,kallum_motion_pilot,2023.1.2,Win32,143.6781609,5e7a564c3a915c03028714d8,656018846682f3df8008bb8f,656019d0e52c55fdec3dc068,0,142,142,84,1,sevenfive,,,,,,,,,,,,,,,,,,,,,,,,,,,,,,,,,,,,,,,,,,,,,,,,,,,,,,,,,,,,,,,,,,,,,,,,,,,,,,,,,,,,,
5e7a564c3a915c03028714d8,2023-11-23_21h46.06.932,kallum_motion_pilot,2023.1.2,Win32,143.6781609,5e7a564c3a915c03028714d8,656018846682f3df8008bb8f,656019d0e52c55fdec3dc068,0,143,143,105,1,fiveseven,,,,,,,,,,,,,,,,,,,,,,,,,,,,,,,,,,,,,,,,,,,,,,,,,,,,,,,,,,,,,,,,,,,,,,,,,,,,,,,,,,,,,
5e7a564c3a915c03028714d8,2023-11-23_21h46.06.932,kallum_motion_pilot,2023.1.2,Win32,143.6781609,5e7a564c3a915c03028714d8,656018846682f3df8008bb8f,656019d0e52c55fdec3dc068,0,144,144,14,1,fourtwo,,,,,,,,,,,,,,,,,,,,,,,,,,,,,,,,,,,,,,,,,,,,,,,,,,,,,,,,,,,,,,,,,,,,,,,,,,,,,,,,,,,,,
5e7a564c3a915c03028714d8,2023-11-23_21h46.06.932,kallum_motion_pilot,2023.1.2,Win32,143.6781609,5e7a564c3a915c03028714d8,656018846682f3df8008bb8f,656019d0e52c55fdec3dc068,0,145,145,149,1,seveneight,,,,,,,,,,,,,,,,,,,,,,,,,,,,,,,,,,,,,,,,,,,,,,,,,,,,,,,,,,,,,,,,,,,,,,,,,,,,,,,,,,,,,
5e7a564c3a915c03028714d8,2023-11-23_21h46.06.932,kallum_motion_pilot,2023.1.2,Win32,143.6781609,5e7a564c3a915c03028714d8,656018846682f3df8008bb8f,656019d0e52c55fdec3dc068,0,146,146,73,1,onethree,,,,,,,,,,,,,,,,,,,,,,,,,,,,,,,,,,,,,,,,,,,,,,,,,,,,,,,,,,,,,,,,,,,,,,,,,,,,,,,,,,,,,
5e7a564c3a915c03028714d8,2023-11-23_21h46.06.932,kallum_motion_pilot,2023.1.2,Win32,143.6781609,5e7a564c3a915c03028714d8,656018846682f3df8008bb8f,656019d0e52c55fdec3dc068,0,147,147,44,1,threeone,,,,,,,,,,,,,,,,,,,,,,,,,,,,,,,,,,,,,,,,,,,,,,,,,,,,,,,,,,,,,,,,,,,,,,,,,,,,,,,,,,,,,
5e7a564c3a915c03028714d8,2023-11-23_21h46.06.932,kallum_motion_pilot,2023.1.2,Win32,143.6781609,5e7a564c3a915c03028714d8,656018846682f3df8008bb8f,656019d0e52c55fdec3dc068,0,148,148,104,1,fivesix,,,,,,,,,,,,,,,,,,,,,,,,,,,,,,,,,,,,,,,,,,,,,,,,,,,,,,,,,,,,,,,,,,,,,,,,,,,,,,,,,,,,,
5e7a564c3a915c03028714d8,2023-11-23_21h46.06.932,kallum_motion_pilot,2023.1.2,Win32,143.6781609,5e7a564c3a915c03028714d8,656018846682f3df8008bb8f,656019d0e52c55fdec3dc068,0,149,149,2,1,twoone,,,,,,,,,,,,,,,,,,,,,,,,,,,,,,,,,,,,,,,,,,,,,,,,,,,,,,,,,,,,,,,,,,,,,,,,,,,,,,,,,,,,,
5e7a564c3a915c03028714d8,2023-11-23_21h46.06.932,kallum_motion_pilot,2023.1.2,Win32,143.6781609,5e7a564c3a915c03028714d8,656018846682f3df8008bb8f,656019d0e52c55fdec3dc068,0,150,150,21,1,threefour,,,,,,,,,,,,,,,,,,,,,,,,,,,,,,,,,,,,,,,,,,,,,,,,,,,,,,,,,,,,,,,,,,,,,,,,,,,,,,,,,,,,,
5e7a564c3a915c03028714d8,2023-11-23_21h46.06.932,kallum_motion_pilot,2023.1.2,Win32,143.6781609,5e7a564c3a915c03028714d8,656018846682f3df8008bb8f,656019d0e52c55fdec3dc068,0,151,151,76,1,threeone,,,,,,,,,,,,,,,,,,,,,,,,,,,,,,,,,,,,,,,,,,,,,,,,,,,,,,,,,,,,,,,,,,,,,,,,,,,,,,,,,,,,,
5e7a564c3a915c03028714d8,2023-11-23_21h46.06.932,kallum_motion_pilot,2023.1.2,Win32,143.6781609,5e7a564c3a915c03028714d8,656018846682f3df8008bb8f,656019d0e52c55fdec3dc068,0,152,152,60,1,threeone,,,,,,,,,,,,,,,,,,,,,,,,,,,,,,,,,,,,,,,,,,,,,,,,,,,,,,,,,,,,,,,,,,,,,,,,,,,,,,,,,,,,,
5e7a564c3a915c03028714d8,2023-11-23_21h46.06.932,kallum_motion_pilot,2023.1.2,Win32,143.6781609,5e7a564c3a915c03028714d8,656018846682f3df8008bb8f,656019d0e52c55fdec3dc068,0,153,153,132,1,sevenfive,,,,,,,,,,,,,,,,,,,,,,,,,,,,,,,,,,,,,,,,,,,,,,,,,,,,,,,,,,,,,,,,,,,,,,,,,,,,,,,,,,,,,
5e7a564c3a915c03028714d8,2023-11-23_21h46.06.932,kallum_motion_pilot,2023.1.2,Win32,143.6781609,5e7a564c3a915c03028714d8,656018846682f3df8008bb8f,656019d0e52c55fdec3dc068,0,154,154,39,1,fourthree,,,,,,,,,,,,,,,,,,,,,,,,,,,,,,,,,,,,,,,,,,,,,,,,,,,,,,,,,,,,,,,,,,,,,,,,,,,,,,,,,,,,,
5e7a564c3a915c03028714d8,2023-11-23_21h46.06.932,kallum_motion_pilot,2023.1.2,Win32,143.6781609,5e7a564c3a915c03028714d8,656018846682f3df8008bb8f,656019d0e52c55fdec3dc068,0,155,155,123,1,sixeight,,,,,,,,,,,,,,,,,,,,,,,,,,,,,,,,,,,,,,,,,,,,,,,,,,,,,,,,,,,,,,,,,,,,,,,,,,,,,,,,,,,,,
5e7a564c3a915c03028714d8,2023-11-23_21h46.06.932,kallum_motion_pilot,2023.1.2,Win32,143.6781609,5e7a564c3a915c03028714d8,656018846682f3df8008bb8f,656019d0e52c55fdec3dc068,0,156,156,77,1,threefour,,,,,,,,,,,,,,,,,,,,,,,,,,,,,,,,,,,,,,,,,,,,,,,,,,,,,,,,,,,,,,,,,,,,,,,,,,,,,,,,,,,,,
5e7a564c3a915c03028714d8,2023-11-23_21h46.06.932,kallum_motion_pilot,2023.1.2,Win32,143.6781609,5e7a564c3a915c03028714d8,656018846682f3df8008bb8f,656019d0e52c55fdec3dc068,0,157,157,61,1,threefour,,,,,,,,,,,,,,,,,,,,,,,,,,,,,,,,,,,,,,,,,,,,,,,,,,,,,,,,,,,,,,,,,,,,,,,,,,,,,,,,,,,,,
5e7a564c3a915c03028714d8,2023-11-23_21h46.06.932,kallum_motion_pilot,2023.1.2,Win32,143.6781609,5e7a564c3a915c03028714d8,656018846682f3df8008bb8f,656019d0e52c55fdec3dc068,0,158,158,26,1,twoone,,,,,,,,,,,,,,,,,,,,,,,,,,,,,,,,,,,,,,,,,,,,,,,,,,,,,,,,,,,,,,,,,,,,,,,,,,,,,,,,,,,,,
5e7a564c3a915c03028714d8,2023-11-23_21h46.06.932,kallum_motion_pilot,2023.1.2,Win32,143.6781609,5e7a564c3a915c03028714d8,656018846682f3df8008bb8f,656019d0e52c55fdec3dc068,0,159,159,47,1,fourthree,,,,,,,,,,,,,,,,,,,,,,,,,,,,,,,,,,,,,,,,,,,,,,,,,,,,,,,,,,,,,,,,,,,,,,,,,,,,,,,,,,,,,
5e7a564c3a915c03028714d8,2023-11-23_21h46.06.932,kallum_motion_pilot,2023.1.2,Win32,143.6781609,5e7a564c3a915c03028714d8,656018846682f3df8008bb8f,656019d0e52c55fdec3dc068,0,160,160,114,1,sixfive,,,,,,,,,,,,,,,,,,,,,,,,,,,,,,,,,,,,,,,,,,,,,,,,,,,,,,,,,,,,,,,,,,,,,,,,,,,,,,,,,,,,,
5e7a564c3a915c03028714d8,2023-11-23_21h46.06.932,kallum_motion_pilot,2023.1.2,Win32,143.6781609,5e7a564c3a915c03028714d8,656018846682f3df8008bb8f,656019d0e52c55fdec3dc068,0,161,161,113,1,fiveseven,,,,,,,,,,,,,,,,,,,,,,,,,,,,,,,,,,,,,,,,,,,,,,,,,,,,,,,,,,,,,,,,,,,,,,,,,,,,,,,,,,,,,
5e7a564c3a915c03028714d8,2023-11-23_21h46.06.932,kallum_motion_pilot,2023.1.2,Win32,143.6781609,5e7a564c3a915c03028714d8,656018846682f3df8008bb8f,656019d0e52c55fdec3dc068,1,0,162,80,1,fivesix,,,,,,,,,,,,,,,,,,,,,,,,,,,,,,,,,,,,,,,,,,,,,,,,,,,,,,,,,,,,,,,,,,,,,,,,,,,,,,,,,,,,,
5e7a564c3a915c03028714d8,2023-11-23_21h46.06.932,kallum_motion_pilot,2023.1.2,Win32,143.6781609,5e7a564c3a915c03028714d8,656018846682f3df8008bb8f,656019d0e52c55fdec3dc068,1,1,163,1,1,onethree,,,,,,,,,,,,,,,,,,,,,,,,,,,,,,,,,,,,,,,,,,,,,,,,,,,,,,,,,,,,,,,,,,,,,,,,,,,,,,,,,,,,,
5e7a564c3a915c03028714d8,2023-11-23_21h46.06.932,kallum_motion_pilot,2023.1.2,Win32,143.6781609,5e7a564c3a915c03028714d8,656018846682f3df8008bb8f,656019d0e52c55fdec3dc068,1,2,164,42,1,twoone,,,,,,,,,,,,,,,,,,,,,,,,,,,,,,,,,,,,,,,,,,,,,,,,,,,,,,,,,,,,,,,,,,,,,,,,,,,,,,,,,,,,,
5e7a564c3a915c03028714d8,2023-11-23_21h46.06.932,kallum_motion_pilot,2023.1.2,Win32,143.6781609,5e7a564c3a915c03028714d8,656018846682f3df8008bb8f,656019d0e52c55fdec3dc068,1,3,165,106,1,sixfive,,,,,,,,,,,,,,,,,,,,,,,,,,,,,,,,,,,,,,,,,,,,,,,,,,,,,,,,,,,,,,,,,,,,,,,,,,,,,,,,,,,,,
5e7a564c3a915c03028714d8,2023-11-23_21h46.06.932,kallum_motion_pilot,2023.1.2,Win32,143.6781609,5e7a564c3a915c03028714d8,656018846682f3df8008bb8f,656019d0e52c55fdec3dc068,1,4,166,17,1,onethree,,,,,,,,,,,,,,,,,,,,,,,,,,,,,,,,,,,,,,,,,,,,,,,,,,,,,,,,,,,,,,,,,,,,,,,,,,,,,,,,,,,,,
5e7a564c3a915c03028714d8,2023-11-23_21h46.06.932,kallum_motion_pilot,2023.1.2,Win32,143.6781609,5e7a564c3a915c03028714d8,656018846682f3df8008bb8f,656019d0e52c55fdec3dc068,1,5,167,94,1,eightsix,,,,,,,,,,,,,,,,,,,,,,,,,,,,,,,,,,,,,,,,,,,,,,,,,,,,,,,,,,,,,,,,,,,,,,,,,,,,,,,,,,,,,
5e7a564c3a915c03028714d8,2023-11-23_21h46.06.932,kallum_motion_pilot,2023.1.2,Win32,143.6781609,5e7a564c3a915c03028714d8,656018846682f3df8008bb8f,656019d0e52c55fdec3dc068,1,6,168,47,1,fourthree,,,,,,,,,,,,,,,,,,,,,,,,,,,,,,,,,,,,,,,,,,,,,,,,,,,,,,,,,,,,,,,,,,,,,,,,,,,,,,,,,,,,,
5e7a564c3a915c03028714d8,2023-11-23_21h46.06.932,kallum_motion_pilot,2023.1.2,Win32,143.6781609,5e7a564c3a915c03028714d8,656018846682f3df8008bb8f,656019d0e52c55fdec3dc068,1,7,169,36,1,threeone,,,,,,,,,,,,,,,,,,,,,,,,,,,,,,,,,,,,,,,,,,,,,,,,,,,,,,,,,,,,,,,,,,,,,,,,,,,,,,,,,,,,,
5e7a564c3a915c03028714d8,2023-11-23_21h46.06.932,kallum_motion_pilot,2023.1.2,Win32,143.6781609,5e7a564c3a915c03028714d8,656018846682f3df8008bb8f,656019d0e52c55fdec3dc068,1,8,170,115,1,sixeight,,,,,,,,,,,,,,,,,,,,,,,,,,,,,,,,,,,,,,,,,,,,,,,,,,,,,,,,,,,,,,,,,,,,,,,,,,,,,,,,,,,,,
5e7a564c3a915c03028714d8,2023-11-23_21h46.06.932,kallum_motion_pilot,2023.1.2,Win32,143.6781609,5e7a564c3a915c03028714d8,656018846682f3df8008bb8f,656019d0e52c55fdec3dc068,1,9,171,122,1,sixfive,,,,,,,,,,,,,,,,,,,,,,,,,,,,,,,,,,,,,,,,,,,,,,,,,,,,,,,,,,,,,,,,,,,,,,,,,,,,,,,,,,,,,
5e7a564c3a915c03028714d8,2023-11-23_21h46.06.932,kallum_motion_pilot,2023.1.2,Win32,143.6781609,5e7a564c3a915c03028714d8,656018846682f3df8008bb8f,656019d0e52c55fdec3dc068,1,10,172,81,1,fiveseven,,,,,,,,,,,,,,,,,,,,,,,,,,,,,,,,,,,,,,,,,,,,,,,,,,,,,,,,,,,,,,,,,,,,,,,,,,,,,,,,,,,,,
5e7a564c3a915c03028714d8,2023-11-23_21h46.06.932,kallum_motion_pilot,2023.1.2,Win32,143.6781609,5e7a564c3a915c03028714d8,656018846682f3df8008bb8f,656019d0e52c55fdec3dc068,1,11,173,103,1,eightseven,,,,,,,,,,,,,,,,,,,,,,,,,,,,,,,,,,,,,,,,,,,,,,,,,,,,,,,,,,,,,,,,,,,,,,,,,,,,,,,,,,,,,
5e7a564c3a915c03028714d8,2023-11-23_21h46.06.932,kallum_motion_pilot,2023.1.2,Win32,143.6781609,5e7a564c3a915c03028714d8,656018846682f3df8008bb8f,656019d0e52c55fdec3dc068,1,12,174,0,1,onetwo,,,,,,,,,,,,,,,,,,,,,,,,,,,,,,,,,,,,,,,,,,,,,,,,,,,,,,,,,,,,,,,,,,,,,,,,,,,,,,,,,,,,,
5e7a564c3a915c03028714d8,2023-11-23_21h46.06.932,kallum_motion_pilot,2023.1.2,Win32,143.6781609,5e7a564c3a915c03028714d8,656018846682f3df8008bb8f,656019d0e52c55fdec3dc068,1,13,175,143,1,eightseven,,,,,,,,,,,,,,,,,,,,,,,,,,,,,,,,,,,,,,,,,,,,,,,,,,,,,,,,,,,,,,,,,,,,,,,,,,,,,,,,,,,,,
5e7a564c3a915c03028714d8,2023-11-23_21h46.06.932,kallum_motion_pilot,2023.1.2,Win32,143.6781609,5e7a564c3a915c03028714d8,656018846682f3df8008bb8f,656019d0e52c55fdec3dc068,1,14,176,145,1,fiveseven,,,,,,,,,,,,,,,,,,,,,,,,,,,,,,,,,,,,,,,,,,,,,,,,,,,,,,,,,,,,,,,,,,,,,,,,,,,,,,,,,,,,,
5e7a564c3a915c03028714d8,2023-11-23_21h46.06.932,kallum_motion_pilot,2023.1.2,Win32,143.6781609,5e7a564c3a915c03028714d8,656018846682f3df8008bb8f,656019d0e52c55fdec3dc068,1,15,177,86,1,eightsix,,,,,,,,,,,,,,,,,,,,,,,,,,,,,,,,,,,,,,,,,,,,,,,,,,,,,,,,,,,,,,,,,,,,,,,,,,,,,,,,,,,,,
5e7a564c3a915c03028714d8,2023-11-23_21h46.06.932,kallum_motion_pilot,2023.1.2,Win32,143.6781609,5e7a564c3a915c03028714d8,656018846682f3df8008bb8f,656019d0e52c55fdec3dc068,1,16,178,101,1,seveneight,,,,,,,,,,,,,,,,,,,,,,,,,,,,,,,,,,,,,,,,,,,,,,,,,,,,,,,,,,,,,,,,,,,,,,,,,,,,,,,,,,,,,
5e7a564c3a915c03028714d8,2023-11-23_21h46.06.932,kallum_motion_pilot,2023.1.2,Win32,143.6781609,5e7a564c3a915c03028714d8,656018846682f3df8008bb8f,656019d0e52c55fdec3dc068,1,17,179,153,1,fiveseven,,,,,,,,,,,,,,,,,,,,,,,,,,,,,,,,,,,,,,,,,,,,,,,,,,,,,,,,,,,,,,,,,,,,,,,,,,,,,,,,,,,,,
5e7a564c3a915c03028714d8,2023-11-23_21h46.06.932,kallum_motion_pilot,2023.1.2,Win32,143.6781609,5e7a564c3a915c03028714d8,656018846682f3df8008bb8f,656019d0e52c55fdec3dc068,1,18,180,155,1,sixeight,,,,,,,,,,,,,,,,,,,,,,,,,,,,,,,,,,,,,,,,,,,,,,,,,,,,,,,,,,,,,,,,,,,,,,,,,,,,,,,,,,,,,
5e7a564c3a915c03028714d8,2023-11-23_21h46.06.932,kallum_motion_pilot,2023.1.2,Win32,143.6781609,5e7a564c3a915c03028714d8,656018846682f3df8008bb8f,656019d0e52c55fdec3dc068,1,19,181,55,1,fourthree,,,,,,,,,,,,,,,,,,,,,,,,,,,,,,,,,,,,,,,,,,,,,,,,,,,,,,,,,,,,,,,,,,,,,,,,,,,,,,,,,,,,,
5e7a564c3a915c03028714d8,2023-11-23_21h46.06.932,kallum_motion_pilot,2023.1.2,Win32,143.6781609,5e7a564c3a915c03028714d8,656018846682f3df8008bb8f,656019d0e52c55fdec3dc068,1,20,182,44,1,threeone,,,,,,,,,,,,,,,,,,,,,,,,,,,,,,,,,,,,,,,,,,,,,,,,,,,,,,,,,,,,,,,,,,,,,,,,,,,,,,,,,,,,,
5e7a564c3a915c03028714d8,2023-11-23_21h46.06.932,kallum_motion_pilot,2023.1.2,Win32,143.6781609,5e7a564c3a915c03028714d8,656018846682f3df8008bb8f,656019d0e52c55fdec3dc068,1,21,183,68,1,threeone,,,,,,,,,,,,,,,,,,,,,,,,,,,,,,,,,,,,,,,,,,,,,,,,,,,,,,,,,,,,,,,,,,,,,,,,,,,,,,,,,,,,,
5e7a564c3a915c03028714d8,2023-11-23_21h46.06.932,kallum_motion_pilot,2023.1.2,Win32,143.6781609,5e7a564c3a915c03028714d8,656018846682f3df8008bb8f,656019d0e52c55fdec3dc068,1,22,184,100,1,sevenfive,,,,,,,,,,,,,,,,,,,,,,,,,,,,,,,,,,,,,,,,,,,,,,,,,,,,,,,,,,,,,,,,,,,,,,,,,,,,,,,,,,,,,
5e7a564c3a915c03028714d8,2023-11-23_21h46.06.932,kallum_motion_pilot,2023.1.2,Win32,143.6781609,5e7a564c3a915c03028714d8,656018846682f3df8008bb8f,656019d0e52c55fdec3dc068,1,23,185,129,1,fiveseven,,,,,,,,,,,,,,,,,,,,,,,,,,,,,,,,,,,,,,,,,,,,,,,,,,,,,,,,,,,,,,,,,,,,,,,,,,,,,,,,,,,,,
5e7a564c3a915c03028714d8,2023-11-23_21h46.06.932,kallum_motion_pilot,2023.1.2,Win32,143.6781609,5e7a564c3a915c03028714d8,656018846682f3df8008bb8f,656019d0e52c55fdec3dc068,1,24,186,8,1,onetwo,,,,,,,,,,,,,,,,,,,,,,,,,,,,,,,,,,,,,,,,,,,,,,,,,,,,,,,,,,,,,,,,,,,,,,,,,,,,,,,,,,,,,
5e7a564c3a915c03028714d8,2023-11-23_21h46.06.932,kallum_motion_pilot,2023.1.2,Win32,143.6781609,5e7a564c3a915c03028714d8,656018846682f3df8008bb8f,656019d0e52c55fdec3dc068,1,25,187,27,1,twofour,,,,,,,,,,,,,,,,,,,,,,,,,,,,,,,,,,,,,,,,,,,,,,,,,,,,,,,,,,,,,,,,,,,,,,,,,,,,,,,,,,,,,
5e7a564c3a915c03028714d8,2023-11-23_21h46.06.932,kallum_motion_pilot,2023.1.2,Win32,143.6781609,5e7a564c3a915c03028714d8,656018846682f3df8008bb8f,656019d0e52c55fdec3dc068,1,26,188,104,1,fivesix,,,,,,,,,,,,,,,,,,,,,,,,,,,,,,,,,,,,,,,,,,,,,,,,,,,,,,,,,,,,,,,,,,,,,,,,,,,,,,,,,,,,,
5e7a564c3a915c03028714d8,2023-11-23_21h46.06.932,kallum_motion_pilot,2023.1.2,Win32,143.6781609,5e7a564c3a915c03028714d8,656018846682f3df8008bb8f,656019d0e52c55fdec3dc068,1,27,189,57,1,onethree,,,,,,,,,,,,,,,,,,,,,,,,,,,,,,,,,,,,,,,,,,,,,,,,,,,,,,,,,,,,,,,,,,,,,,,,,,,,,,,,,,,,,
5e7a564c3a915c03028714d8,2023-11-23_21h46.06.932,kallum_motion_pilot,2023.1.2,Win32,143.6781609,5e7a564c3a915c03028714d8,656018846682f3df8008bb8f,656019d0e52c55fdec3dc068,1,28,190,58,1,twoone,,,,,,,,,,,,,,,,,,,,,,,,,,,,,,,,,,,,,,,,,,,,,,,,,,,,,,,,,,,,,,,,,,,,,,,,,,,,,,,,,,,,,
5e7a564c3a915c03028714d8,2023-11-23_21h46.06.932,kallum_motion_pilot,2023.1.2,Win32,143.6781609,5e7a564c3a915c03028714d8,656018846682f3df8008bb8f,656019d0e52c55fdec3dc068,1,29,191,99,1,sixeight,,,,,,,,,,,,,,,,,,,,,,,,,,,,,,,,,,,,,,,,,,,,,,,,,,,,,,,,,,,,,,,,,,,,,,,,,,,,,,,,,,,,,
5e7a564c3a915c03028714d8,2023-11-23_21h46.06.932,kallum_motion_pilot,2023.1.2,Win32,143.6781609,5e7a564c3a915c03028714d8,656018846682f3df8008bb8f,656019d0e52c55fdec3dc068,1,30,192,102,1,eightsix,,,,,,,,,,,,,,,,,,,,,,,,,,,,,,,,,,,,,,,,,,,,,,,,,,,,,,,,,,,,,,,,,,,,,,,,,,,,,,,,,,,,,
5e7a564c3a915c03028714d8,2023-11-23_21h46.06.932,kallum_motion_pilot,2023.1.2,Win32,143.6781609,5e7a564c3a915c03028714d8,656018846682f3df8008bb8f,656019d0e52c55fdec3dc068,1,31,193,98,1,sixfive,,,,,,,,,,,,,,,,,,,,,,,,,,,,,,,,,,,,,,,,,,,,,,,,,,,,,,,,,,,,,,,,,,,,,,,,,,,,,,,,,,,,,
5e7a564c3a915c03028714d8,2023-11-23_21h46.06.932,kallum_motion_pilot,2023.1.2,Win32,143.6781609,5e7a564c3a915c03028714d8,656018846682f3df8008bb8f,656019d0e52c55fdec3dc068,1,32,194,73,1,onethree,,,,,,,,,,,,,,,,,,,,,,,,,,,,,,,,,,,,,,,,,,,,,,,,,,,,,,,,,,,,,,,,,,,,,,,,,,,,,,,,,,,,,
5e7a564c3a915c03028714d8,2023-11-23_21h46.06.932,kallum_motion_pilot,2023.1.2,Win32,143.6781609,5e7a564c3a915c03028714d8,656018846682f3df8008bb8f,656019d0e52c55fdec3dc068,1,33,195,35,1,twofour,,,,,,,,,,,,,,,,,,,,,,,,,,,,,,,,,,,,,,,,,,,,,,,,,,,,,,,,,,,,,,,,,,,,,,,,,,,,,,,,,,,,,
5e7a564c3a915c03028714d8,2023-11-23_21h46.06.932,kallum_motion_pilot,2023.1.2,Win32,143.6781609,5e7a564c3a915c03028714d8,656018846682f3df8008bb8f,656019d0e52c55fdec3dc068,1,34,196,140,1,sevenfive,,,,,,,,,,,,,,,,,,,,,,,,,,,,,,,,,,,,,,,,,,,,,,,,,,,,,,,,,,,,,,,,,,,,,,,,,,,,,,,,,,,,,
5e7a564c3a915c03028714d8,2023-11-23_21h46.06.932,kallum_motion_pilot,2023.1.2,Win32,143.6781609,5e7a564c3a915c03028714d8,656018846682f3df8008bb8f,656019d0e52c55fdec3dc068,1,35,197,137,1,fiveseven,,,,,,,,,,,,,,,,,,,,,,,,,,,,,,,,,,,,,,,,,,,,,,,,,,,,,,,,,,,,,,,,,,,,,,,,,,,,,,,,,,,,,
5e7a564c3a915c03028714d8,2023-11-23_21h46.06.932,kallum_motion_pilot,2023.1.2,Win32,143.6781609,5e7a564c3a915c03028714d8,656018846682f3df8008bb8f,656019d0e52c55fdec3dc068,1,36,198,20,1,threeone,,,,,,,,,,,,,,,,,,,,,,,,,,,,,,,,,,,,,,,,,,,,,,,,,,,,,,,,,,,,,,,,,,,,,,,,,,,,,,,,,,,,,
5e7a564c3a915c03028714d8,2023-11-23_21h46.06.932,kallum_motion_pilot,2023.1.2,Win32,143.6781609,5e7a564c3a915c03028714d8,656018846682f3df8008bb8f,656019d0e52c55fdec3dc068,1,37,199,60,1,threeone,,,,,,,,,,,,,,,,,,,,,,,,,,,,,,,,,,,,,,,,,,,,,,,,,,,,,,,,,,,,,,,,,,,,,,,,,,,,,,,,,,,,,
5e7a564c3a915c03028714d8,2023-11-23_21h46.06.932,kallum_motion_pilot,2023.1.2,Win32,143.6781609,5e7a564c3a915c03028714d8,656018846682f3df8008bb8f,656019d0e52c55fdec3dc068,1,38,200,114,1,sixfive,,,,,,,,,,,,,,,,,,,,,,,,,,,,,,,,,,,,,,,,,,,,,,,,,,,,,,,,,,,,,,,,,,,,,,,,,,,,,,,,,,,,,
5e7a564c3a915c03028714d8,2023-11-23_21h46.06.932,kallum_motion_pilot,2023.1.2,Win32,143.6781609,5e7a564c3a915c03028714d8,656018846682f3df8008bb8f,656019d0e52c55fdec3dc068,1,39,201,29,1,threefour,,,,,,,,,,,,,,,,,,,,,,,,,,,,,,,,,,,,,,,,,,,,,,,,,,,,,,,,,,,,,,,,,,,,,,,,,,,,,,,,,,,,,
5e7a564c3a915c03028714d8,2023-11-23_21h46.06.932,kallum_motion_pilot,2023.1.2,Win32,143.6781609,5e7a564c3a915c03028714d8,656018846682f3df8008bb8f,656019d0e52c55fdec3dc068,1,40,202,138,1,sixfive,,,,,,,,,,,,,,,,,,,,,,,,,,,,,,,,,,,,,,,,,,,,,,,,,,,,,,,,,,,,,,,,,,,,,,,,,,,,,,,,,,,,,
5e7a564c3a915c03028714d8,2023-11-23_21h46.06.932,kallum_motion_pilot,2023.1.2,Win32,143.6781609,5e7a564c3a915c03028714d8,656018846682f3df8008bb8f,656019d0e52c55fdec3dc068,1,41,203,22,1,fourtwo,,,,,,,,,,,,,,,,,,,,,,,,,,,,,,,,,,,,,,,,,,,,,,,,,,,,,,,,,,,,,,,,,,,,,,,,,,,,,,,,,,,,,
5e7a564c3a915c03028714d8,2023-11-23_21h46.06.932,kallum_motion_pilot,2023.1.2,Win32,143.6781609,5e7a564c3a915c03028714d8,656018846682f3df8008bb8f,656019d0e52c55fdec3dc068,1,42,204,130,1,sixfive,,,,,,,,,,,,,,,,,,,,,,,,,,,,,,,,,,,,,,,,,,,,,,,,,,,,,,,,,,,,,,,,,,,,,,,,,,,,,,,,,,,,,
5e7a564c3a915c03028714d8,2023-11-23_21h46.06.932,kallum_motion_pilot,2023.1.2,Win32,143.6781609,5e7a564c3a915c03028714d8,656018846682f3df8008bb8f,656019d0e52c55fdec3dc068,1,43,205,105,1,fiveseven,,,,,,,,,,,,,,,,,,,,,,,,,,,,,,,,,,,,,,,,,,,,,,,,,,,,,,,,,,,,,,,,,,,,,,,,,,,,,,,,,,,,,
5e7a564c3a915c03028714d8,2023-11-23_21h46.06.932,kallum_motion_pilot,2023.1.2,Win32,143.6781609,5e7a564c3a915c03028714d8,656018846682f3df8008bb8f,656019d0e52c55fdec3dc068,1,44,206,121,1,fiveseven,,,,,,,,,,,,,,,,,,,,,,,,,,,,,,,,,,,,,,,,,,,,,,,,,,,,,,,,,,,,,,,,,,,,,,,,,,,,,,,,,,,,,
5e7a564c3a915c03028714d8,2023-11-23_21h46.06.932,kallum_motion_pilot,2023.1.2,Win32,143.6781609,5e7a564c3a915c03028714d8,656018846682f3df8008bb8f,656019d0e52c55fdec3dc068,1,45,207,126,1,eightsix,,,,,,,,,,,,,,,,,,,,,,,,,,,,,,,,,,,,,,,,,,,,,,,,,,,,,,,,,,,,,,,,,,,,,,,,,,,,,,,,,,,,,
5e7a564c3a915c03028714d8,2023-11-23_21h46.06.932,kallum_motion_pilot,2023.1.2,Win32,143.6781609,5e7a564c3a915c03028714d8,656018846682f3df8008bb8f,656019d0e52c55fdec3dc068,1,46,208,147,1,sixeight,,,,,,,,,,,,,,,,,,,,,,,,,,,,,,,,,,,,,,,,,,,,,,,,,,,,,,,,,,,,,,,,,,,,,,,,,,,,,,,,,,,,,
5e7a564c3a915c03028714d8,2023-11-23_21h46.06.932,kallum_motion_pilot,2023.1.2,Win32,143.6781609,5e7a564c3a915c03028714d8,656018846682f3df8008bb8f,656019d0e52c55fdec3dc068,1,47,209,97,1,fiveseven,,,,,,,,,,,,,,,,,,,,,,,,,,,,,,,,,,,,,,,,,,,,,,,,,,,,,,,,,,,,,,,,,,,,,,,,,,,,,,,,,,,,,
5e7a564c3a915c03028714d8,2023-11-23_21h46.06.932,kallum_motion_pilot,2023.1.2,Win32,143.6781609,5e7a564c3a915c03028714d8,656018846682f3df8008bb8f,656019d0e52c55fdec3dc068,1,48,210,79,1,eightseven,,,,,,,,,,,,,,,,,,,,,,,,,,,,,,,,,,,,,,,,,,,,,,,,,,,,,,,,,,,,,,,,,,,,,,,,,,,,,,,,,,,,,
5e7a564c3a915c03028714d8,2023-11-23_21h46.06.932,kallum_motion_pilot,2023.1.2,Win32,143.6781609,5e7a564c3a915c03028714d8,656018846682f3df8008bb8f,656019d0e52c55fdec3dc068,1,49,211,150,1,eightsix,,,,,,,,,,,,,,,,,,,,,,,,,,,,,,,,,,,,,,,,,,,,,,,,,,,,,,,,,,,,,,,,,,,,,,,,,,,,,,,,,,,,,
5e7a564c3a915c03028714d8,2023-11-23_21h46.06.932,kallum_motion_pilot,2023.1.2,Win32,143.6781609,5e7a564c3a915c03028714d8,656018846682f3df8008bb8f,656019d0e52c55fdec3dc068,1,50,212,70,1,fourtwo,,,,,,,,,,,,,,,,,,,,,,,,,,,,,,,,,,,,,,,,,,,,,,,,,,,,,,,,,,,,,,,,,,,,,,,,,,,,,,,,,,,,,
5e7a564c3a915c03028714d8,2023-11-23_21h46.06.932,kallum_motion_pilot,2023.1.2,Win32,143.6781609,5e7a564c3a915c03028714d8,656018846682f3df8008bb8f,656019d0e52c55fdec3dc068,1,51,213,5,1,threefour,,,,,,,,,,,,,,,,,,,,,,,,,,,,,,,,,,,,,,,,,,,,,,,,,,,,,,,,,,,,,,,,,,,,,,,,,,,,,,,,,,,,,
5e7a564c3a915c03028714d8,2023-11-23_21h46.06.932,kallum_motion_pilot,2023.1.2,Win32,143.6781609,5e7a564c3a915c03028714d8,656018846682f3df8008bb8f,656019d0e52c55fdec3dc068,1,52,214,110,1,eightsix,,,,,,,,,,,,,,,,,,,,,,,,,,,,,,,,,,,,,,,,,,,,,,,,,,,,,,,,,,,,,,,,,,,,,,,,,,,,,,,,,,,,,
5e7a564c3a915c03028714d8,2023-11-23_21h46.06.932,kallum_motion_pilot,2023.1.2,Win32,143.6781609,5e7a564c3a915c03028714d8,656018846682f3df8008bb8f,656019d0e52c55fdec3dc068,1,53,215,89,1,fiveseven,,,,,,,,,,,,,,,,,,,,,,,,,,,,,,,,,,,,,,,,,,,,,,,,,,,,,,,,,,,,,,,,,,,,,,,,,,,,,,,,,,,,,
5e7a564c3a915c03028714d8,2023-11-23_21h46.06.932,kallum_motion_pilot,2023.1.2,Win32,143.6781609,5e7a564c3a915c03028714d8,656018846682f3df8008bb8f,656019d0e52c55fdec3dc068,1,54,216,144,1,fivesix,,,,,,,,,,,,,,,,,,,,,,,,,,,,,,,,,,,,,,,,,,,,,,,,,,,,,,,,,,,,,,,,,,,,,,,,,,,,,,,,,,,,,
5e7a564c3a915c03028714d8,2023-11-23_21h46.06.932,kallum_motion_pilot,2023.1.2,Win32,143.6781609,5e7a564c3a915c03028714d8,656018846682f3df8008bb8f,656019d0e52c55fdec3dc068,1,55,217,52,1,threeone,,,,,,,,,,,,,,,,,,,,,,,,,,,,,,,,,,,,,,,,,,,,,,,,,,,,,,,,,,,,,,,,,,,,,,,,,,,,,,,,,,,,,
5e7a564c3a915c03028714d8,2023-11-23_21h46.06.932,kallum_motion_pilot,2023.1.2,Win32,143.6781609,5e7a564c3a915c03028714d8,656018846682f3df8008bb8f,656019d0e52c55fdec3dc068,1,56,218,113,1,fiveseven,,,,,,,,,,,,,,,,,,,,,,,,,,,,,,,,,,,,,,,,,,,,,,,,,,,,,,,,,,,,,,,,,,,,,,,,,,,,,,,,,,,,,
5e7a564c3a915c03028714d8,2023-11-23_21h46.06.932,kallum_motion_pilot,2023.1.2,Win32,143.6781609,5e7a564c3a915c03028714d8,656018846682f3df8008bb8f,656019d0e52c55fdec3dc068,1,57,219,161,1,fiveseven,,,,,,,,,,,,,,,,,,,,,,,,,,,,,,,,,,,,,,,,,,,,,,,,,,,,,,,,,,,,,,,,,,,,,,,,,,,,,,,,,,,,,
5e7a564c3a915c03028714d8,2023-11-23_21h46.06.932,kallum_motion_pilot,2023.1.2,Win32,143.6781609,5e7a564c3a915c03028714d8,656018846682f3df8008bb8f,656019d0e52c55fdec3dc068,1,58,220,7,1,fourthree,,,,,,,,,,,,,,,,,,,,,,,,,,,,,,,,,,,,,,,,,,,,,,,,,,,,,,,,,,,,,,,,,,,,,,,,,,,,,,,,,,,,,
5e7a564c3a915c03028714d8,2023-11-23_21h46.06.932,kallum_motion_pilot,2023.1.2,Win32,143.6781609,5e7a564c3a915c03028714d8,656018846682f3df8008bb8f,656019d0e52c55fdec3dc068,1,59,221,118,1,eightsix,,,,,,,,,,,,,,,,,,,,,,,,,,,,,,,,,,,,,,,,,,,,,,,,,,,,,,,,,,,,,,,,,,,,,,,,,,,,,,,,,,,,,
5e7a564c3a915c03028714d8,2023-11-23_21h46.06.932,kallum_motion_pilot,2023.1.2,Win32,143.6781609,5e7a564c3a915c03028714d8,656018846682f3df8008bb8f,656019d0e52c55fdec3dc068,1,60,222,95,1,eightseven,,,,,,,,,,,,,,,,,,,,,,,,,,,,,,,,,,,,,,,,,,,,,,,,,,,,,,,,,,,,,,,,,,,,,,,,,,,,,,,,,,,,,
5e7a564c3a915c03028714d8,2023-11-23_21h46.06.932,kallum_motion_pilot,2023.1.2,Win32,143.6781609,5e7a564c3a915c03028714d8,656018846682f3df8008bb8f,656019d0e52c55fdec3dc068,1,61,223,65,1,onethree,,,,,,,,,,,,,,,,,,,,,,,,,,,,,,,,,,,,,,,,,,,,,,,,,,,,,,,,,,,,,,,,,,,,,,,,,,,,,,,,,,,,,
5e7a564c3a915c03028714d8,2023-11-23_21h46.06.932,kallum_motion_pilot,2023.1.2,Win32,143.6781609,5e7a564c3a915c03028714d8,656018846682f3df8008bb8f,656019d0e52c55fdec3dc068,1,62,224,85,1,seveneight,,,,,,,,,,,,,,,,,,,,,,,,,,,,,,,,,,,,,,,,,,,,,,,,,,,,,,,,,,,,,,,,,,,,,,,,,,,,,,,,,,,,,
5e7a564c3a915c03028714d8,2023-11-23_21h46.06.932,kallum_motion_pilot,2023.1.2,Win32,143.6781609,5e7a564c3a915c03028714d8,656018846682f3df8008bb8f,656019d0e52c55fdec3dc068,1,63,225,108,1,sevenfive,,,,,,,,,,,,,,,,,,,,,,,,,,,,,,,,,,,,,,,,,,,,,,,,,,,,,,,,,,,,,,,,,,,,,,,,,,,,,,,,,,,,,
5e7a564c3a915c03028714d8,2023-11-23_21h46.06.932,kallum_motion_pilot,2023.1.2,Win32,143.6781609,5e7a564c3a915c03028714d8,656018846682f3df8008bb8f,656019d0e52c55fdec3dc068,1,64,226,33,1,onethree,,,,,,,,,,,,,,,,,,,,,,,,,,,,,,,,,,,,,,,,,,,,,,,,,,,,,,,,,,,,,,,,,,,,,,,,,,,,,,,,,,,,,
5e7a564c3a915c03028714d8,2023-11-23_21h46.06.932,kallum_motion_pilot,2023.1.2,Win32,143.6781609,5e7a564c3a915c03028714d8,656018846682f3df8008bb8f,656019d0e52c55fdec3dc068,1,65,227,133,1,seveneight,,,,,,,,,,,,,,,,,,,,,,,,,,,,,,,,,,,,,,,,,,,,,,,,,,,,,,,,,,,,,,,,,,,,,,,,,,,,,,,,,,,,,
5e7a564c3a915c03028714d8,2023-11-23_21h46.06.932,kallum_motion_pilot,2023.1.2,Win32,143.6781609,5e7a564c3a915c03028714d8,656018846682f3df8008bb8f,656019d0e52c55fdec3dc068,1,66,228,23,1,fourthree,,,,,,,,,,,,,,,,,,,,,,,,,,,,,,,,,,,,,,,,,,,,,,,,,,,,,,,,,,,,,,,,,,,,,,,,,,,,,,,,,,,,,
5e7a564c3a915c03028714d8,2023-11-23_21h46.06.932,kallum_motion_pilot,2023.1.2,Win32,143.6781609,5e7a564c3a915c03028714d8,656018846682f3df8008bb8f,656019d0e52c55fdec3dc068,1,67,229,30,1,fourtwo,,,,,,,,,,,,,,,,,,,,,,,,,,,,,,,,,,,,,,,,,,,,,,,,,,,,,,,,,,,,,,,,,,,,,,,,,,,,,,,,,,,,,
5e7a564c3a915c03028714d8,2023-11-23_21h46.06.932,kallum_motion_pilot,2023.1.2,Win32,143.6781609,5e7a564c3a915c03028714d8,656018846682f3df8008bb8f,656019d0e52c55fdec3dc068,1,68,230,61,1,threefour,,,,,,,,,,,,,,,,,,,,,,,,,,,,,,,,,,,,,,,,,,,,,,,,,,,,,,,,,,,,,,,,,,,,,,,,,,,,,,,,,,,,,
5e7a564c3a915c03028714d8,2023-11-23_21h46.06.932,kallum_motion_pilot,2023.1.2,Win32,143.6781609,5e7a564c3a915c03028714d8,656018846682f3df8008bb8f,656019d0e52c55fdec3dc068,1,69,231,107,1,sixeight,,,,,,,,,,,,,,,,,,,,,,,,,,,,,,,,,,,,,,,,,,,,,,,,,,,,,,,,,,,,,,,,,,,,,,,,,,,,,,,,,,,,,
5e7a564c3a915c03028714d8,2023-11-23_21h46.06.932,kallum_motion_pilot,2023.1.2,Win32,143.6781609,5e7a564c3a915c03028714d8,656018846682f3df8008bb8f,656019d0e52c55fdec3dc068,1,70,232,149,1,seveneight,,,,,,,,,,,,,,,,,,,,,,,,,,,,,,,,,,,,,,,,,,,,,,,,,,,,,,,,,,,,,,,,,,,,,,,,,,,,,,,,,,,,,
5e7a564c3a915c03028714d8,2023-11-23_21h46.06.932,kallum_motion_pilot,2023.1.2,Win32,143.6781609,5e7a564c3a915c03028714d8,656018846682f3df8008bb8f,656019d0e52c55fdec3dc068,1,71,233,24,1,onetwo,,,,,,,,,,,,,,,,,,,,,,,,,,,,,,,,,,,,,,,,,,,,,,,,,,,,,,,,,,,,,,,,,,,,,,,,,,,,,,,,,,,,,
5e7a564c3a915c03028714d8,2023-11-23_21h46.06.932,kallum_motion_pilot,2023.1.2,Win32,143.6781609,5e7a564c3a915c03028714d8,656018846682f3df8008bb8f,656019d0e52c55fdec3dc068,1,72,234,50,1,twoone,,,,,,,,,,,,,,,,,,,,,,,,,,,,,,,,,,,,,,,,,,,,,,,,,,,,,,,,,,,,,,,,,,,,,,,,,,,,,,,,,,,,,
5e7a564c3a915c03028714d8,2023-11-23_21h46.06.932,kallum_motion_pilot,2023.1.2,Win32,143.6781609,5e7a564c3a915c03028714d8,656018846682f3df8008bb8f,656019d0e52c55fdec3dc068,1,73,235,125,1,seveneight,,,,,,,,,,,,,,,,,,,,,,,,,,,,,,,,,,,,,,,,,,,,,,,,,,,,,,,,,,,,,,,,,,,,,,,,,,,,,,,,,,,,,
5e7a564c3a915c03028714d8,2023-11-23_21h46.06.932,kallum_motion_pilot,2023.1.2,Win32,143.6781609,5e7a564c3a915c03028714d8,656018846682f3df8008bb8f,656019d0e52c55fdec3dc068,1,74,236,123,1,sixeight,,,,,,,,,,,,,,,,,,,,,,,,,,,,,,,,,,,,,,,,,,,,,,,,,,,,,,,,,,,,,,,,,,,,,,,,,,,,,,,,,,,,,
5e7a564c3a915c03028714d8,2023-11-23_21h46.06.932,kallum_motion_pilot,2023.1.2,Win32,143.6781609,5e7a564c3a915c03028714d8,656018846682f3df8008bb8f,656019d0e52c55fdec3dc068,1,75,237,25,1,onethree,,,,,,,,,,,,,,,,,,,,,,,,,,,,,,,,,,,,,,,,,,,,,,,,,,,,,,,,,,,,,,,,,,,,,,,,,,,,,,,,,,,,,
5e7a564c3a915c03028714d8,2023-11-23_21h46.06.932,kallum_motion_pilot,2023.1.2,Win32,143.6781609,5e7a564c3a915c03028714d8,656018846682f3df8008bb8f,656019d0e52c55fdec3dc068,1,76,238,74,1,twoone,,,,,,,,,,,,,,,,,,,,,,,,,,,,,,,,,,,,,,,,,,,,,,,,,,,,,,,,,,,,,,,,,,,,,,,,,,,,,,,,,,,,,
5e7a564c3a915c03028714d8,2023-11-23_21h46.06.932,kallum_motion_pilot,2023.1.2,Win32,143.6781609,5e7a564c3a915c03028714d8,656018846682f3df8008bb8f,656019d0e52c55fdec3dc068,1,77,239,77,1,threefour,,,,,,,,,,,,,,,,,,,,,,,,,,,,,,,,,,,,,,,,,,,,,,,,,,,,,,,,,,,,,,,,,,,,,,,,,,,,,,,,,,,,,
5e7a564c3a915c03028714d8,2023-11-23_21h46.06.932,kallum_motion_pilot,2023.1.2,Win32,143.6781609,5e7a564c3a915c03028714d8,656018846682f3df8008bb8f,656019d0e52c55fdec3dc068,1,78,240,45,1,threefour,,,,,,,,,,,,,,,,,,,,,,,,,,,,,,,,,,,,,,,,,,,,,,,,,,,,,,,,,,,,,,,,,,,,,,,,,,,,,,,,,,,,,
5e7a564c3a915c03028714d8,2023-11-23_21h46.06.932,kallum_motion_pilot,2023.1.2,Win32,143.6781609,5e7a564c3a915c03028714d8,656018846682f3df8008bb8f,656019d0e52c55fdec3dc068,1,79,241,13,1,threefour,,,,,,,,,,,,,,,,,,,,,,,,,,,,,,,,,,,,,,,,,,,,,,,,,,,,,,,,,,,,,,,,,,,,,,,,,,,,,,,,,,,,,
5e7a564c3a915c03028714d8,2023-11-23_21h46.06.932,kallum_motion_pilot,2023.1.2,Win32,143.6781609,5e7a564c3a915c03028714d8,656018846682f3df8008bb8f,656019d0e52c55fdec3dc068,1,80,242,19,1,twofour,,,,,,,,,,,,,,,,,,,,,,,,,,,,,,,,,,,,,,,,,,,,,,,,,,,,,,,,,,,,,,,,,,,,,,,,,,,,,,,,,,,,,
5e7a564c3a915c03028714d8,2023-11-23_21h46.06.932,kallum_motion_pilot,2023.1.2,Win32,143.6781609,5e7a564c3a915c03028714d8,656018846682f3df8008bb8f,656019d0e52c55fdec3dc068,1,81,243,62,1,fourtwo,,,,,,,,,,,,,,,,,,,,,,,,,,,,,,,,,,,,,,,,,,,,,,,,,,,,,,,,,,,,,,,,,,,,,,,,,,,,,,,,,,,,,
5e7a564c3a915c03028714d8,2023-11-23_21h46.06.932,kallum_motion_pilot,2023.1.2,Win32,143.6781609,5e7a564c3a915c03028714d8,656018846682f3df8008bb8f,656019d0e52c55fdec3dc068,1,82,244,37,1,threefour,,,,,,,,,,,,,,,,,,,,,,,,,,,,,,,,,,,,,,,,,,,,,,,,,,,,,,,,,,,,,,,,,,,,,,,,,,,,,,,,,,,,,
5e7a564c3a915c03028714d8,2023-11-23_21h46.06.932,kallum_motion_pilot,2023.1.2,Win32,143.6781609,5e7a564c3a915c03028714d8,656018846682f3df8008bb8f,656019d0e52c55fdec3dc068,1,83,245,16,1,onetwo,,,,,,,,,,,,,,,,,,,,,,,,,,,,,,,,,,,,,,,,,,,,,,,,,,,,,,,,,,,,,,,,,,,,,,,,,,,,,,,,,,,,,
5e7a564c3a915c03028714d8,2023-11-23_21h46.06.932,kallum_motion_pilot,2023.1.2,Win32,143.6781609,5e7a564c3a915c03028714d8,656018846682f3df8008bb8f,656019d0e52c55fdec3dc068,1,84,246,40,1,onetwo,,,,,,,,,,,,,,,,,,,,,,,,,,,,,,,,,,,,,,,,,,,,,,,,,,,,,,,,,,,,,,,,,,,,,,,,,,,,,,,,,,,,,
5e7a564c3a915c03028714d8,2023-11-23_21h46.06.932,kallum_motion_pilot,2023.1.2,Win32,143.6781609,5e7a564c3a915c03028714d8,656018846682f3df8008bb8f,656019d0e52c55fdec3dc068,1,85,247,32,1,onetwo,,,,,,,,,,,,,,,,,,,,,,,,,,,,,,,,,,,,,,,,,,,,,,,,,,,,,,,,,,,,,,,,,,,,,,,,,,,,,,,,,,,,,
5e7a564c3a915c03028714d8,2023-11-23_21h46.06.932,kallum_motion_pilot,2023.1.2,Win32,143.6781609,5e7a564c3a915c03028714d8,656018846682f3df8008bb8f,656019d0e52c55fdec3dc068,1,86,248,14,1,fourtwo,,,,,,,,,,,,,,,,,,,,,,,,,,,,,,,,,,,,,,,,,,,,,,,,,,,,,,,,,,,,,,,,,,,,,,,,,,,,,,,,,,,,,
5e7a564c3a915c03028714d8,2023-11-23_21h46.06.932,kallum_motion_pilot,2023.1.2,Win32,143.6781609,5e7a564c3a915c03028714d8,656018846682f3df8008bb8f,656019d0e52c55fdec3dc068,1,87,249,93,1,seveneight,,,,,,,,,,,,,,,,,,,,,,,,,,,,,,,,,,,,,,,,,,,,,,,,,,,,,,,,,,,,,,,,,,,,,,,,,,,,,,,,,,,,,
5e7a564c3a915c03028714d8,2023-11-23_21h46.06.932,kallum_motion_pilot,2023.1.2,Win32,143.6781609,5e7a564c3a915c03028714d8,656018846682f3df8008bb8f,656019d0e52c55fdec3dc068,1,88,250,26,1,twoone,,,,,,,,,,,,,,,,,,,,,,,,,,,,,,,,,,,,,,,,,,,,,,,,,,,,,,,,,,,,,,,,,,,,,,,,,,,,,,,,,,,,,
5e7a564c3a915c03028714d8,2023-11-23_21h46.06.932,kallum_motion_pilot,2023.1.2,Win32,143.6781609,5e7a564c3a915c03028714d8,656018846682f3df8008bb8f,656019d0e52c55fdec3dc068,1,89,251,91,1,sixeight,,,,,,,,,,,,,,,,,,,,,,,,,,,,,,,,,,,,,,,,,,,,,,,,,,,,,,,,,,,,,,,,,,,,,,,,,,,,,,,,,,,,,
5e7a564c3a915c03028714d8,2023-11-23_21h46.06.932,kallum_motion_pilot,2023.1.2,Win32,143.6781609,5e7a564c3a915c03028714d8,656018846682f3df8008bb8f,656019d0e52c55fdec3dc068,1,90,252,88,1,fivesix,,,,,,,,,,,,,,,,,,,,,,,,,,,,,,,,,,,,,,,,,,,,,,,,,,,,,,,,,,,,,,,,,,,,,,,,,,,,,,,,,,,,,
5e7a564c3a915c03028714d8,2023-11-23_21h46.06.932,kallum_motion_pilot,2023.1.2,Win32,143.6781609,5e7a564c3a915c03028714d8,656018846682f3df8008bb8f,656019d0e52c55fdec3dc068,1,91,253,39,1,fourthree,,,,,,,,,,,,,,,,,,,,,,,,,,,,,,,,,,,,,,,,,,,,,,,,,,,,,,,,,,,,,,,,,,,,,,,,,,,,,,,,,,,,,
5e7a564c3a915c03028714d8,2023-11-23_21h46.06.932,kallum_motion_pilot,2023.1.2,Win32,143.6781609,5e7a564c3a915c03028714d8,656018846682f3df8008bb8f,656019d0e52c55fdec3dc068,1,92,254,112,1,fivesix,,,,,,,,,,,,,,,,,,,,,,,,,,,,,,,,,,,,,,,,,,,,,,,,,,,,,,,,,,,,,,,,,,,,,,,,,,,,,,,,,,,,,
5e7a564c3a915c03028714d8,2023-11-23_21h46.06.932,kallum_motion_pilot,2023.1.2,Win32,143.6781609,5e7a564c3a915c03028714d8,656018846682f3df8008bb8f,656019d0e52c55fdec3dc068,1,93,255,119,1,eightseven,,,,,,,,,,,,,,,,,,,,,,,,,,,,,,,,,,,,,,,,,,,,,,,,,,,,,,,,,,,,,,,,,,,,,,,,,,,,,,,,,,,,,
5e7a564c3a915c03028714d8,2023-11-23_21h46.06.932,kallum_motion_pilot,2023.1.2,Win32,143.6781609,5e7a564c3a915c03028714d8,656018846682f3df8008bb8f,656019d0e52c55fdec3dc068,1,94,256,6,1,fourtwo,,,,,,,,,,,,,,,,,,,,,,,,,,,,,,,,,,,,,,,,,,,,,,,,,,,,,,,,,,,,,,,,,,,,,,,,,,,,,,,,,,,,,
5e7a564c3a915c03028714d8,2023-11-23_21h46.06.932,kallum_motion_pilot,2023.1.2,Win32,143.6781609,5e7a564c3a915c03028714d8,656018846682f3df8008bb8f,656019d0e52c55fdec3dc068,1,95,257,128,1,fivesix,,,,,,,,,,,,,,,,,,,,,,,,,,,,,,,,,,,,,,,,,,,,,,,,,,,,,,,,,,,,,,,,,,,,,,,,,,,,,,,,,,,,,
5e7a564c3a915c03028714d8,2023-11-23_21h46.06.932,kallum_motion_pilot,2023.1.2,Win32,143.6781609,5e7a564c3a915c03028714d8,656018846682f3df8008bb8f,656019d0e52c55fdec3dc068,1,96,258,76,1,threeone,,,,,,,,,,,,,,,,,,,,,,,,,,,,,,,,,,,,,,,,,,,,,,,,,,,,,,,,,,,,,,,,,,,,,,,,,,,,,,,,,,,,,
5e7a564c3a915c03028714d8,2023-11-23_21h46.06.932,kallum_motion_pilot,2023.1.2,Win32,143.6781609,5e7a564c3a915c03028714d8,656018846682f3df8008bb8f,656019d0e52c55fdec3dc068,1,97,259,87,1,eightseven,,,,,,,,,,,,,,,,,,,,,,,,,,,,,,,,,,,,,,,,,,,,,,,,,,,,,,,,,,,,,,,,,,,,,,,,,,,,,,,,,,,,,
5e7a564c3a915c03028714d8,2023-11-23_21h46.06.932,kallum_motion_pilot,2023.1.2,Win32,143.6781609,5e7a564c3a915c03028714d8,656018846682f3df8008bb8f,656019d0e52c55fdec3dc068,1,98,260,64,1,onetwo,,,,,,,,,,,,,,,,,,,,,,,,,,,,,,,,,,,,,,,,,,,,,,,,,,,,,,,,,,,,,,,,,,,,,,,,,,,,,,,,,,,,,
5e7a564c3a915c03028714d8,2023-11-23_21h46.06.932,kallum_motion_pilot,2023.1.2,Win32,143.6781609,5e7a564c3a915c03028714d8,656018846682f3df8008bb8f,656019d0e52c55fdec3dc068,1,99,261,142,1,eightsix,,,,,,,,,,,,,,,,,,,,,,,,,,,,,,,,,,,,,,,,,,,,,,,,,,,,,,,,,,,,,,,,,,,,,,,,,,,,,,,,,,,,,
5e7a564c3a915c03028714d8,2023-11-23_21h46.06.932,kallum_motion_pilot,2023.1.2,Win32,143.6781609,5e7a564c3a915c03028714d8,656018846682f3df8008bb8f,656019d0e52c55fdec3dc068,1,100,262,31,1,fourthree,,,,,,,,,,,,,,,,,,,,,,,,,,,,,,,,,,,,,,,,,,,,,,,,,,,,,,,,,,,,,,,,,,,,,,,,,,,,,,,,,,,,,
5e7a564c3a915c03028714d8,2023-11-23_21h46.06.932,kallum_motion_pilot,2023.1.2,Win32,143.6781609,5e7a564c3a915c03028714d8,656018846682f3df8008bb8f,656019d0e52c55fdec3dc068,1,101,263,154,1,sixfive,,,,,,,,,,,,,,,,,,,,,,,,,,,,,,,,,,,,,,,,,,,,,,,,,,,,,,,,,,,,,,,,,,,,,,,,,,,,,,,,,,,,,
5e7a564c3a915c03028714d8,2023-11-23_21h46.06.932,kallum_motion_pilot,2023.1.2,Win32,143.6781609,5e7a564c3a915c03028714d8,656018846682f3df8008bb8f,656019d0e52c55fdec3dc068,1,102,264,56,1,onetwo,,,,,,,,,,,,,,,,,,,,,,,,,,,,,,,,,,,,,,,,,,,,,,,,,,,,,,,,,,,,,,,,,,,,,,,,,,,,,,,,,,,,,
5e7a564c3a915c03028714d8,2023-11-23_21h46.06.932,kallum_motion_pilot,2023.1.2,Win32,143.6781609,5e7a564c3a915c03028714d8,656018846682f3df8008bb8f,656019d0e52c55fdec3dc068,1,103,265,69,1,threefour,,,,,,,,,,,,,,,,,,,,,,,,,,,,,,,,,,,,,,,,,,,,,,,,,,,,,,,,,,,,,,,,,,,,,,,,,,,,,,,,,,,,,
5e7a564c3a915c03028714d8,2023-11-23_21h46.06.932,kallum_motion_pilot,2023.1.2,Win32,143.6781609,5e7a564c3a915c03028714d8,656018846682f3df8008bb8f,656019d0e52c55fdec3dc068,1,104,266,46,1,fourtwo,,,,,,,,,,,,,,,,,,,,,,,,,,,,,,,,,,,,,,,,,,,,,,,,,,,,,,,,,,,,,,,,,,,,,,,,,,,,,,,,,,,,,
5e7a564c3a915c03028714d8,2023-11-23_21h46.06.932,kallum_motion_pilot,2023.1.2,Win32,143.6781609,5e7a564c3a915c03028714d8,656018846682f3df8008bb8f,656019d0e52c55fdec3dc068,1,105,267,28,1,threeone,,,,,,,,,,,,,,,,,,,,,,,,,,,,,,,,,,,,,,,,,,,,,,,,,,,,,,,,,,,,,,,,,,,,,,,,,,,,,,,,,,,,,
5e7a564c3a915c03028714d8,2023-11-23_21h46.06.932,kallum_motion_pilot,2023.1.2,Win32,143.6781609,5e7a564c3a915c03028714d8,656018846682f3df8008bb8f,656019d0e52c55fdec3dc068,1,106,268,12,1,threeone,,,,,,,,,,,,,,,,,,,,,,,,,,,,,,,,,,,,,,,,,,,,,,,,,,,,,,,,,,,,,,,,,,,,,,,,,,,,,,,,,,,,,
5e7a564c3a915c03028714d8,2023-11-23_21h46.06.932,kallum_motion_pilot,2023.1.2,Win32,143.6781609,5e7a564c3a915c03028714d8,656018846682f3df8008bb8f,656019d0e52c55fdec3dc068,1,107,269,48,1,onetwo,,,,,,,,,,,,,,,,,,,,,,,,,,,,,,,,,,,,,,,,,,,,,,,,,,,,,,,,,,,,,,,,,,,,,,,,,,,,,,,,,,,,,
5e7a564c3a915c03028714d8,2023-11-23_21h46.06.932,kallum_motion_pilot,2023.1.2,Win32,143.6781609,5e7a564c3a915c03028714d8,656018846682f3df8008bb8f,656019d0e52c55fdec3dc068,1,108,270,90,1,sixfive,,,,,,,,,,,,,,,,,,,,,,,,,,,,,,,,,,,,,,,,,,,,,,,,,,,,,,,,,,,,,,,,,,,,,,,,,,,,,,,,,,,,,
5e7a564c3a915c03028714d8,2023-11-23_21h46.06.932,kallum_motion_pilot,2023.1.2,Win32,143.6781609,5e7a564c3a915c03028714d8,656018846682f3df8008bb8f,656019d0e52c55fdec3dc068,1,109,271,124,1,sevenfive,,,,,,,,,,,,,,,,,,,,,,,,,,,,,,,,,,,,,,,,,,,,,,,,,,,,,,,,,,,,,,,,,,,,,,,,,,,,,,,,,,,,,
5e7a564c3a915c03028714d8,2023-11-23_21h46.06.932,kallum_motion_pilot,2023.1.2,Win32,143.6781609,5e7a564c3a915c03028714d8,656018846682f3df8008bb8f,656019d0e52c55fdec3dc068,1,110,272,135,1,eightseven,,,,,,,,,,,,,,,,,,,,,,,,,,,,,,,,,,,,,,,,,,,,,,,,,,,,,,,,,,,,,,,,,,,,,,,,,,,,,,,,,,,,,
5e7a564c3a915c03028714d8,2023-11-23_21h46.06.932,kallum_motion_pilot,2023.1.2,Win32,143.6781609,5e7a564c3a915c03028714d8,656018846682f3df8008bb8f,656019d0e52c55fdec3dc068,1,111,273,136,1,fivesix,,,,,,,,,,,,,,,,,,,,,,,,,,,,,,,,,,,,,,,,,,,,,,,,,,,,,,,,,,,,,,,,,,,,,,,,,,,,,,,,,,,,,
5e7a564c3a915c03028714d8,2023-11-23_21h46.06.932,kallum_motion_pilot,2023.1.2,Win32,143.6781609,5e7a564c3a915c03028714d8,656018846682f3df8008bb8f,656019d0e52c55fdec3dc068,1,112,274,75,1,twofour,,,,,,,,,,,,,,,,,,,,,,,,,,,,,,,,,,,,,,,,,,,,,,,,,,,,,,,,,,,,,,,,,,,,,,,,,,,,,,,,,,,,,
5e7a564c3a915c03028714d8,2023-11-23_21h46.06.932,kallum_motion_pilot,2023.1.2,Win32,143.6781609,5e7a564c3a915c03028714d8,656018846682f3df8008bb8f,656019d0e52c55fdec3dc068,1,113,275,131,1,sixeight,,,,,,,,,,,,,,,,,,,,,,,,,,,,,,,,,,,,,,,,,,,,,,,,,,,,,,,,,,,,,,,,,,,,,,,,,,,,,,,,,,,,,
5e7a564c3a915c03028714d8,2023-11-23_21h46.06.932,kallum_motion_pilot,2023.1.2,Win32,143.6781609,5e7a564c3a915c03028714d8,656018846682f3df8008bb8f,656019d0e52c55fdec3dc068,1,114,276,2,1,twoone,,,,,,,,,,,,,,,,,,,,,,,,,,,,,,,,,,,,,,,,,,,,,,,,,,,,,,,,,,,,,,,,,,,,,,,,,,,,,,,,,,,,,
5e7a564c3a915c03028714d8,2023-11-23_21h46.06.932,kallum_motion_pilot,2023.1.2,Win32,143.6781609,5e7a564c3a915c03028714d8,656018846682f3df8008bb8f,656019d0e52c55fdec3dc068,1,115,277,15,1,fourthree,,,,,,,,,,,,,,,,,,,,,,,,,,,,,,,,,,,,,,,,,,,,,,,,,,,,,,,,,,,,,,,,,,,,,,,,,,,,,,,,,,,,,
5e7a564c3a915c03028714d8,2023-11-23_21h46.06.932,kallum_motion_pilot,2023.1.2,Win32,143.6781609,5e7a564c3a915c03028714d8,656018846682f3df8008bb8f,656019d0e52c55fdec3dc068,1,116,278,158,1,eightsix,,,,,,,,,,,,,,,,,,,,,,,,,,,,,,,,,,,,,,,,,,,,,,,,,,,,,,,,,,,,,,,,,,,,,,,,,,,,,,,,,,,,,
5e7a564c3a915c03028714d8,2023-11-23_21h46.06.932,kallum_motion_pilot,2023.1.2,Win32,143.6781609,5e7a564c3a915c03028714d8,656018846682f3df8008bb8f,656019d0e52c55fdec3dc068,1,117,279,4,1,threeone,,,,,,,,,,,,,,,,,,,,,,,,,,,,,,,,,,,,,,,,,,,,,,,,,,,,,,,,,,,,,,,,,,,,,,,,,,,,,,,,,,,,,
5e7a564c3a915c03028714d8,2023-11-23_21h46.06.932,kallum_motion_pilot,2023.1.2,Win32,143.6781609,5e7a564c3a915c03028714d8,656018846682f3df8008bb8f,656019d0e52c55fdec3dc068,1,118,280,18,1,twoone,,,,,,,,,,,,,,,,,,,,,,,,,,,,,,,,,,,,,,,,,,,,,,,,,,,,,,,,,,,,,,,,,,,,,,,,,,,,,,,,,,,,,
5e7a564c3a915c03028714d8,2023-11-23_21h46.06.932,kallum_motion_pilot,2023.1.2,Win32,143.6781609,5e7a564c3a915c03028714d8,656018846682f3df8008bb8f,656019d0e52c55fdec3dc068,1,119,281,53,1,threefour,,,,,,,,,,,,,,,,,,,,,,,,,,,,,,,,,,,,,,,,,,,,,,,,,,,,,,,,,,,,,,,,,,,,,,,,,,,,,,,,,,,,,
5e7a564c3a915c03028714d8,2023-11-23_21h46.06.932,kallum_motion_pilot,2023.1.2,Win32,143.6781609,5e7a564c3a915c03028714d8,656018846682f3df8008bb8f,656019d0e52c55fdec3dc068,1,120,282,82,1,sixfive,,,,,,,,,,,,,,,,,,,,,,,,,,,,,,,,,,,,,,,,,,,,,,,,,,,,,,,,,,,,,,,,,,,,,,,,,,,,,,,,,,,,,
5e7a564c3a915c03028714d8,2023-11-23_21h46.06.932,kallum_motion_pilot,2023.1.2,Win32,143.6781609,5e7a564c3a915c03028714d8,656018846682f3df8008bb8f,656019d0e52c55fdec3dc068,1,121,283,66,1,twoone,,,,,,,,,,,,,,,,,,,,,,,,,,,,,,,,,,,,,,,,,,,,,,,,,,,,,,,,,,,,,,,,,,,,,,,,,,,,,,,,,,,,,
5e7a564c3a915c03028714d8,2023-11-23_21h46.06.932,kallum_motion_pilot,2023.1.2,Win32,143.6781609,5e7a564c3a915c03028714d8,656018846682f3df8008bb8f,656019d0e52c55fdec3dc068,1,122,284,111,1,eightseven,,,,,,,,,,,,,,,,,,,,,,,,,,,,,,,,,,,,,,,,,,,,,,,,,,,,,,,,,,,,,,,,,,,,,,,,,,,,,,,,,,,,,
5e7a564c3a915c03028714d8,2023-11-23_21h46.06.932,kallum_motion_pilot,2023.1.2,Win32,143.6781609,5e7a564c3a915c03028714d8,656018846682f3df8008bb8f,656019d0e52c55fdec3dc068,1,123,285,34,1,twoone,,,,,,,,,,,,,,,,,,,,,,,,,,,,,,,,,,,,,,,,,,,,,,,,,,,,,,,,,,,,,,,,,,,,,,,,,,,,,,,,,,,,,
5e7a564c3a915c03028714d8,2023-11-23_21h46.06.932,kallum_motion_pilot,2023.1.2,Win32,143.6781609,5e7a564c3a915c03028714d8,656018846682f3df8008bb8f,656019d0e52c55fdec3dc068,1,124,286,71,1,fourthree,,,,,,,,,,,,,,,,,,,,,,,,,,,,,,,,,,,,,,,,,,,,,,,,,,,,,,,,,,,,,,,,,,,,,,,,,,,,,,,,,,,,,
5e7a564c3a915c03028714d8,2023-11-23_21h46.06.932,kallum_motion_pilot,2023.1.2,Win32,143.6781609,5e7a564c3a915c03028714d8,656018846682f3df8008bb8f,656019d0e52c55fdec3dc068,1,125,287,63,1,fourthree,,,,,,,,,,,,,,,,,,,,,,,,,,,,,,,,,,,,,,,,,,,,,,,,,,,,,,,,,,,,,,,,,,,,,,,,,,,,,,,,,,,,,
5e7a564c3a915c03028714d8,2023-11-23_21h46.06.932,kallum_motion_pilot,2023.1.2,Win32,143.6781609,5e7a564c3a915c03028714d8,656018846682f3df8008bb8f,656019d0e52c55fdec3dc068,1,126,288,146,1,sixfive,,,,,,,,,,,,,,,,,,,,,,,,,,,,,,,,,,,,,,,,,,,,,,,,,,,,,,,,,,,,,,,,,,,,,,,,,,,,,,,,,,,,,
5e7a564c3a915c03028714d8,2023-11-23_21h46.06.932,kallum_motion_pilot,2023.1.2,Win32,143.6781609,5e7a564c3a915c03028714d8,656018846682f3df8008bb8f,656019d0e52c55fdec3dc068,1,127,289,134,1,eightsix,,,,,,,,,,,,,,,,,,,,,,,,,,,,,,,,,,,,,,,,,,,,,,,,,,,,,,,,,,,,,,,,,,,,,,,,,,,,,,,,,,,,,
5e7a564c3a915c03028714d8,2023-11-23_21h46.06.932,kallum_motion_pilot,2023.1.2,Win32,143.6781609,5e7a564c3a915c03028714d8,656018846682f3df8008bb8f,656019d0e52c55fdec3dc068,1,128,290,43,1,twofour,,,,,,,,,,,,,,,,,,,,,,,,,,,,,,,,,,,,,,,,,,,,,,,,,,,,,,,,,,,,,,,,,,,,,,,,,,,,,,,,,,,,,
5e7a564c3a915c03028714d8,2023-11-23_21h46.06.932,kallum_motion_pilot,2023.1.2,Win32,143.6781609,5e7a564c3a915c03028714d8,656018846682f3df8008bb8f,656019d0e52c55fdec3dc068,1,129,291,141,1,seveneight,,,,,,,,,,,,,,,,,,,,,,,,,,,,,,,,,,,,,,,,,,,,,,,,,,,,,,,,,,,,,,,,,,,,,,,,,,,,,,,,,,,,,
5e7a564c3a915c03028714d8,2023-11-23_21h46.06.932,kallum_motion_pilot,2023.1.2,Win32,143.6781609,5e7a564c3a915c03028714d8,656018846682f3df8008bb8f,656019d0e52c55fdec3dc068,1,130,292,84,1,sevenfive,,,,,,,,,,,,,,,,,,,,,,,,,,,,,,,,,,,,,,,,,,,,,,,,,,,,,,,,,,,,,,,,,,,,,,,,,,,,,,,,,,,,,
5e7a564c3a915c03028714d8,2023-11-23_21h46.06.932,kallum_motion_pilot,2023.1.2,Win32,143.6781609,5e7a564c3a915c03028714d8,656018846682f3df8008bb8f,656019d0e52c55fdec3dc068,1,131,293,132,1,sevenfive,,,,,,,,,,,,,,,,,,,,,,,,,,,,,,,,,,,,,,,,,,,,,,,,,,,,,,,,,,,,,,,,,,,,,,,,,,,,,,,,,,,,,
5e7a564c3a915c03028714d8,2023-11-23_21h46.06.932,kallum_motion_pilot,2023.1.2,Win32,143.6781609,5e7a564c3a915c03028714d8,656018846682f3df8008bb8f,656019d0e52c55fdec3dc068,1,132,294,116,1,sevenfive,,,,,,,,,,,,,,,,,,,,,,,,,,,,,,,,,,,,,,,,,,,,,,,,,,,,,,,,,,,,,,,,,,,,,,,,,,,,,,,,,,,,,
5e7a564c3a915c03028714d8,2023-11-23_21h46.06.932,kallum_motion_pilot,2023.1.2,Win32,143.6781609,5e7a564c3a915c03028714d8,656018846682f3df8008bb8f,656019d0e52c55fdec3dc068,1,133,295,78,1,fourtwo,,,,,,,,,,,,,,,,,,,,,,,,,,,,,,,,,,,,,,,,,,,,,,,,,,,,,,,,,,,,,,,,,,,,,,,,,,,,,,,,,,,,,
5e7a564c3a915c03028714d8,2023-11-23_21h46.06.932,kallum_motion_pilot,2023.1.2,Win32,143.6781609,5e7a564c3a915c03028714d8,656018846682f3df8008bb8f,656019d0e52c55fdec3dc068,1,134,296,160,1,fivesix,,,,,,,,,,,,,,,,,,,,,,,,,,,,,,,,,,,,,,,,,,,,,,,,,,,,,,,,,,,,,,,,,,,,,,,,,,,,,,,,,,,,,
5e7a564c3a915c03028714d8,2023-11-23_21h46.06.932,kallum_motion_pilot,2023.1.2,Win32,143.6781609,5e7a564c3a915c03028714d8,656018846682f3df8008bb8f,656019d0e52c55fdec3dc068,1,135,297,11,1,twofour,,,,,,,,,,,,,,,,,,,,,,,,,,,,,,,,,,,,,,,,,,,,,,,,,,,,,,,,,,,,,,,,,,,,,,,,,,,,,,,,,,,,,
5e7a564c3a915c03028714d8,2023-11-23_21h46.06.932,kallum_motion_pilot,2023.1.2,Win32,143.6781609,5e7a564c3a915c03028714d8,656018846682f3df8008bb8f,656019d0e52c55fdec3dc068,1,136,298,38,1,fourtwo,,,,,,,,,,,,,,,,,,,,,,,,,,,,,,,,,,,,,,,,,,,,,,,,,,,,,,,,,,,,,,,,,,,,,,,,,,,,,,,,,,,,,
5e7a564c3a915c03028714d8,2023-11-23_21h46.06.932,kallum_motion_pilot,2023.1.2,Win32,143.6781609,5e7a564c3a915c03028714d8,656018846682f3df8008bb8f,656019d0e52c55fdec3dc068,1,137,299,3,1,twofour,,,,,,,,,,,,,,,,,,,,,,,,,,,,,,,,,,,,,,,,,,,,,,,,,,,,,,,,,,,,,,,,,,,,,,,,,,,,,,,,,,,,,
5e7a564c3a915c03028714d8,2023-11-23_21h46.06.932,kallum_motion_pilot,2023.1.2,Win32,143.6781609,5e7a564c3a915c03028714d8,656018846682f3df8008bb8f,656019d0e52c55fdec3dc068,1,138,300,72,1,onetwo,,,,,,,,,,,,,,,,,,,,,,,,,,,,,,,,,,,,,,,,,,,,,,,,,,,,,,,,,,,,,,,,,,,,,,,,,,,,,,,,,,,,,
5e7a564c3a915c03028714d8,2023-11-23_21h46.06.932,kallum_motion_pilot,2023.1.2,Win32,143.6781609,5e7a564c3a915c03028714d8,656018846682f3df8008bb8f,656019d0e52c55fdec3dc068,1,139,301,152,1,fivesix,,,,,,,,,,,,,,,,,,,,,,,,,,,,,,,,,,,,,,,,,,,,,,,,,,,,,,,,,,,,,,,,,,,,,,,,,,,,,,,,,,,,,
5e7a564c3a915c03028714d8,2023-11-23_21h46.06.932,kallum_motion_pilot,2023.1.2,Win32,143.6781609,5e7a564c3a915c03028714d8,656018846682f3df8008bb8f,656019d0e52c55fdec3dc068,1,140,302,139,1,sixeight,,,,,,,,,,,,,,,,,,,,,,,,,,,,,,,,,,,,,,,,,,,,,,,,,,,,,,,,,,,,,,,,,,,,,,,,,,,,,,,,,,,,,
5e7a564c3a915c03028714d8,2023-11-23_21h46.06.932,kallum_motion_pilot,2023.1.2,Win32,143.6781609,5e7a564c3a915c03028714d8,656018846682f3df8008bb8f,656019d0e52c55fdec3dc068,1,141,303,51,1,twofour,,,,,,,,,,,,,,,,,,,,,,,,,,,,,,,,,,,,,,,,,,,,,,,,,,,,,,,,,,,,,,,,,,,,,,,,,,,,,,,,,,,,,
5e7a564c3a915c03028714d8,2023-11-23_21h46.06.932,kallum_motion_pilot,2023.1.2,Win32,143.6781609,5e7a564c3a915c03028714d8,656018846682f3df8008bb8f,656019d0e52c55fdec3dc068,1,142,304,49,1,onethree,,,,,,,,,,,,,,,,,,,,,,,,,,,,,,,,,,,,,,,,,,,,,,,,,,,,,,,,,,,,,,,,,,,,,,,,,,,,,,,,,,,,,
5e7a564c3a915c03028714d8,2023-11-23_21h46.06.932,kallum_motion_pilot,2023.1.2,Win32,143.6781609,5e7a564c3a915c03028714d8,656018846682f3df8008bb8f,656019d0e52c55fdec3dc068,1,143,305,59,1,twofour,,,,,,,,,,,,,,,,,,,,,,,,,,,,,,,,,,,,,,,,,,,,,,,,,,,,,,,,,,,,,,,,,,,,,,,,,,,,,,,,,,,,,
5e7a564c3a915c03028714d8,2023-11-23_21h46.06.932,kallum_motion_pilot,2023.1.2,Win32,143.6781609,5e7a564c3a915c03028714d8,656018846682f3df8008bb8f,656019d0e52c55fdec3dc068,1,144,306,109,1,seveneight,,,,,,,,,,,,,,,,,,,,,,,,,,,,,,,,,,,,,,,,,,,,,,,,,,,,,,,,,,,,,,,,,,,,,,,,,,,,,,,,,,,,,
5e7a564c3a915c03028714d8,2023-11-23_21h46.06.932,kallum_motion_pilot,2023.1.2,Win32,143.6781609,5e7a564c3a915c03028714d8,656018846682f3df8008bb8f,656019d0e52c55fdec3dc068,1,145,307,41,1,onethree,,,,,,,,,,,,,,,,,,,,,,,,,,,,,,,,,,,,,,,,,,,,,,,,,,,,,,,,,,,,,,,,,,,,,,,,,,,,,,,,,,,,,
5e7a564c3a915c03028714d8,2023-11-23_21h46.06.932,kallum_motion_pilot,2023.1.2,Win32,143.6781609,5e7a564c3a915c03028714d8,656018846682f3df8008bb8f,656019d0e52c55fdec3dc068,1,146,308,9,1,onethree,,,,,,,,,,,,,,,,,,,,,,,,,,,,,,,,,,,,,,,,,,,,,,,,,,,,,,,,,,,,,,,,,,,,,,,,,,,,,,,,,,,,,
5e7a564c3a915c03028714d8,2023-11-23_21h46.06.932,kallum_motion_pilot,2023.1.2,Win32,143.6781609,5e7a564c3a915c03028714d8,656018846682f3df8008bb8f,656019d0e52c55fdec3dc068,1,147,309,96,1,fivesix,,,,,,,,,,,,,,,,,,,,,,,,,,,,,,,,,,,,,,,,,,,,,,,,,,,,,,,,,,,,,,,,,,,,,,,,,,,,,,,,,,,,,
5e7a564c3a915c03028714d8,2023-11-23_21h46.06.932,kallum_motion_pilot,2023.1.2,Win32,143.6781609,5e7a564c3a915c03028714d8,656018846682f3df8008bb8f,656019d0e52c55fdec3dc068,1,148,310,156,1,sevenfive,,,,,,,,,,,,,,,,,,,,,,,,,,,,,,,,,,,,,,,,,,,,,,,,,,,,,,,,,,,,,,,,,,,,,,,,,,,,,,,,,,,,,
5e7a564c3a915c03028714d8,2023-11-23_21h46.06.932,kallum_motion_pilot,2023.1.2,Win32,143.6781609,5e7a564c3a915c03028714d8,656018846682f3df8008bb8f,656019d0e52c55fdec3dc068,1,149,311,151,1,eightseven,,,,,,,,,,,,,,,,,,,,,,,,,,,,,,,,,,,,,,,,,,,,,,,,,,,,,,,,,,,,,,,,,,,,,,,,,,,,,,,,,,,,,
5e7a564c3a915c03028714d8,2023-11-23_21h46.06.932,kallum_motion_pilot,2023.1.2,Win32,143.6781609,5e7a564c3a915c03028714d8,656018846682f3df8008bb8f,656019d0e52c55fdec3dc068,1,150,312,10,1,twoone,,,,,,,,,,,,,,,,,,,,,,,,,,,,,,,,,,,,,,,,,,,,,,,,,,,,,,,,,,,,,,,,,,,,,,,,,,,,,,,,,,,,,
5e7a564c3a915c03028714d8,2023-11-23_21h46.06.932,kallum_motion_pilot,2023.1.2,Win32,143.6781609,5e7a564c3a915c03028714d8,656018846682f3df8008bb8f,656019d0e52c55fdec3dc068,1,151,313,159,1,eightseven,,,,,,,,,,,,,,,,,,,,,,,,,,,,,,,,,,,,,,,,,,,,,,,,,,,,,,,,,,,,,,,,,,,,,,,,,,,,,,,,,,,,,
5e7a564c3a915c03028714d8,2023-11-23_21h46.06.932,kallum_motion_pilot,2023.1.2,Win32,143.6781609,5e7a564c3a915c03028714d8,656018846682f3df8008bb8f,656019d0e52c55fdec3dc068,1,152,314,92,1,sevenfive,,,,,,,,,,,,,,,,,,,,,,,,,,,,,,,,,,,,,,,,,,,,,,,,,,,,,,,,,,,,,,,,,,,,,,,,,,,,,,,,,,,,,
5e7a564c3a915c03028714d8,2023-11-23_21h46.06.932,kallum_motion_pilot,2023.1.2,Win32,143.6781609,5e7a564c3a915c03028714d8,656018846682f3df8008bb8f,656019d0e52c55fdec3dc068,1,153,315,120,1,fivesix,,,,,,,,,,,,,,,,,,,,,,,,,,,,,,,,,,,,,,,,,,,,,,,,,,,,,,,,,,,,,,,,,,,,,,,,,,,,,,,,,,,,,
5e7a564c3a915c03028714d8,2023-11-23_21h46.06.932,kallum_motion_pilot,2023.1.2,Win32,143.6781609,5e7a564c3a915c03028714d8,656018846682f3df8008bb8f,656019d0e52c55fdec3dc068,1,154,316,157,1,seveneight,,,,,,,,,,,,,,,,,,,,,,,,,,,,,,,,,,,,,,,,,,,,,,,,,,,,,,,,,,,,,,,,,,,,,,,,,,,,,,,,,,,,,
5e7a564c3a915c03028714d8,2023-11-23_21h46.06.932,kallum_motion_pilot,2023.1.2,Win32,143.6781609,5e7a564c3a915c03028714d8,656018846682f3df8008bb8f,656019d0e52c55fdec3dc068,1,155,317,127,1,eightseven,,,,,,,,,,,,,,,,,,,,,,,,,,,,,,,,,,,,,,,,,,,,,,,,,,,,,,,,,,,,,,,,,,,,,,,,,,,,,,,,,,,,,
5e7a564c3a915c03028714d8,2023-11-23_21h46.06.932,kallum_motion_pilot,2023.1.2,Win32,143.6781609,5e7a564c3a915c03028714d8,656018846682f3df8008bb8f,656019d0e52c55fdec3dc068,1,156,318,21,1,threefour,,,,,,,,,,,,,,,,,,,,,,,,,,,,,,,,,,,,,,,,,,,,,,,,,,,,,,,,,,,,,,,,,,,,,,,,,,,,,,,,,,,,,
5e7a564c3a915c03028714d8,2023-11-23_21h46.06.932,kallum_motion_pilot,2023.1.2,Win32,143.6781609,5e7a564c3a915c03028714d8,656018846682f3df8008bb8f,656019d0e52c55fdec3dc068,1,157,319,83,1,sixeight,,,,,,,,,,,,,,,,,,,,,,,,,,,,,,,,,,,,,,,,,,,,,,,,,,,,,,,,,,,,,,,,,,,,,,,,,,,,,,,,,,,,,
5e7a564c3a915c03028714d8,2023-11-23_21h46.06.932,kallum_motion_pilot,2023.1.2,Win32,143.6781609,5e7a564c3a915c03028714d8,656018846682f3df8008bb8f,656019d0e52c55fdec3dc068,1,158,320,117,1,seveneight,,,,,,,,,,,,,,,,,,,,,,,,,,,,,,,,,,,,,,,,,,,,,,,,,,,,,,,,,,,,,,,,,,,,,,,,,,,,,,,,,,,,,
5e7a564c3a915c03028714d8,2023-11-23_21h46.06.932,kallum_motion_pilot,2023.1.2,Win32,143.6781609,5e7a564c3a915c03028714d8,656018846682f3df8008bb8f,656019d0e52c55fdec3dc068,1,159,321,54,1,fourtwo,,,,,,,,,,,,,,,,,,,,,,,,,,,,,,,,,,,,,,,,,,,,,,,,,,,,,,,,,,,,,,,,,,,,,,,,,,,,,,,,,,,,,
5e7a564c3a915c03028714d8,2023-11-23_21h46.06.932,kallum_motion_pilot,2023.1.2,Win32,143.6781609,5e7a564c3a915c03028714d8,656018846682f3df8008bb8f,656019d0e52c55fdec3dc068,1,160,322,67,1,twofour,,,,,,,,,,,,,,,,,,,,,,,,,,,,,,,,,,,,,,,,,,,,,,,,,,,,,,,,,,,,,,,,,,,,,,,,,,,,,,,,,,,,,
5e7a564c3a915c03028714d8,2023-11-23_21h46.06.932,kallum_motion_pilot,2023.1.2,Win32,143.6781609,5e7a564c3a915c03028714d8,656018846682f3df8008bb8f,656019d0e52c55fdec3dc068,1,161,323,148,1,sevenfive,,,,,,,,,,,,,,,,,,,,,,,,,,,,,,,,,,,,,,,,,,,,,,,,,,,,,,,,,,,,,,,,,,,,,,,,,,,,,,,,,,,,,
5e7a564c3a915c03028714d8,2023-11-23_21h46.06.932,kallum_motion_pilot,2023.1.2,Win32,143.6781609,5e7a564c3a915c03028714d8,656018846682f3df8008bb8f,656019d0e52c55fdec3dc068,2,0,324,85,1,seveneight,,,,,,,,,,,,,,,,,,,,,,,,,,,,,,,,,,,,,,,,,,,,,,,,,,,,,,,,,,,,,,,,,,,,,,,,,,,,,,,,,,,,,
5e7a564c3a915c03028714d8,2023-11-23_21h46.06.932,kallum_motion_pilot,2023.1.2,Win32,143.6781609,5e7a564c3a915c03028714d8,656018846682f3df8008bb8f,656019d0e52c55fdec3dc068,2,1,325,141,1,seveneight,,,,,,,,,,,,,,,,,,,,,,,,,,,,,,,,,,,,,,,,,,,,,,,,,,,,,,,,,,,,,,,,,,,,,,,,,,,,,,,,,,,,,
5e7a564c3a915c03028714d8,2023-11-23_21h46.06.932,kallum_motion_pilot,2023.1.2,Win32,143.6781609,5e7a564c3a915c03028714d8,656018846682f3df8008bb8f,656019d0e52c55fdec3dc068,2,2,326,16,1,onetwo,,,,,,,,,,,,,,,,,,,,,,,,,,,,,,,,,,,,,,,,,,,,,,,,,,,,,,,,,,,,,,,,,,,,,,,,,,,,,,,,,,,,,
5e7a564c3a915c03028714d8,2023-11-23_21h46.06.932,kallum_motion_pilot,2023.1.2,Win32,143.6781609,5e7a564c3a915c03028714d8,656018846682f3df8008bb8f,656019d0e52c55fdec3dc068,2,3,327,95,1,eightseven,,,,,,,,,,,,,,,,,,,,,,,,,,,,,,,,,,,,,,,,,,,,,,,,,,,,,,,,,,,,,,,,,,,,,,,,,,,,,,,,,,,,,
5e7a564c3a915c03028714d8,2023-11-23_21h46.06.932,kallum_motion_pilot,2023.1.2,Win32,143.6781609,5e7a564c3a915c03028714d8,656018846682f3df8008bb8f,656019d0e52c55fdec3dc068,2,4,328,68,1,threeone,,,,,,,,,,,,,,,,,,,,,,,,,,,,,,,,,,,,,,,,,,,,,,,,,,,,,,,,,,,,,,,,,,,,,,,,,,,,,,,,,,,,,
5e7a564c3a915c03028714d8,2023-11-23_21h46.06.932,kallum_motion_pilot,2023.1.2,Win32,143.6781609,5e7a564c3a915c03028714d8,656018846682f3df8008bb8f,656019d0e52c55fdec3dc068,2,5,329,153,1,fiveseven,,,,,,,,,,,,,,,,,,,,,,,,,,,,,,,,,,,,,,,,,,,,,,,,,,,,,,,,,,,,,,,,,,,,,,,,,,,,,,,,,,,,,
5e7a564c3a915c03028714d8,2023-11-23_21h46.06.932,kallum_motion_pilot,2023.1.2,Win32,143.6781609,5e7a564c3a915c03028714d8,656018846682f3df8008bb8f,656019d0e52c55fdec3dc068,2,6,330,113,1,fiveseven,,,,,,,,,,,,,,,,,,,,,,,,,,,,,,,,,,,,,,,,,,,,,,,,,,,,,,,,,,,,,,,,,,,,,,,,,,,,,,,,,,,,,
5e7a564c3a915c03028714d8,2023-11-23_21h46.06.932,kallum_motion_pilot,2023.1.2,Win32,143.6781609,5e7a564c3a915c03028714d8,656018846682f3df8008bb8f,656019d0e52c55fdec3dc068,2,7,331,83,1,sixeight,,,,,,,,,,,,,,,,,,,,,,,,,,,,,,,,,,,,,,,,,,,,,,,,,,,,,,,,,,,,,,,,,,,,,,,,,,,,,,,,,,,,,
5e7a564c3a915c03028714d8,2023-11-23_21h46.06.932,kallum_motion_pilot,2023.1.2,Win32,143.6781609,5e7a564c3a915c03028714d8,656018846682f3df8008bb8f,656019d0e52c55fdec3dc068,2,8,332,1,1,onethree,,,,,,,,,,,,,,,,,,,,,,,,,,,,,,,,,,,,,,,,,,,,,,,,,,,,,,,,,,,,,,,,,,,,,,,,,,,,,,,,,,,,,
5e7a564c3a915c03028714d8,2023-11-23_21h46.06.932,kallum_motion_pilot,2023.1.2,Win32,143.6781609,5e7a564c3a915c03028714d8,656018846682f3df8008bb8f,656019d0e52c55fdec3dc068,2,9,333,114,1,sixfive,,,,,,,,,,,,,,,,,,,,,,,,,,,,,,,,,,,,,,,,,,,,,,,,,,,,,,,,,,,,,,,,,,,,,,,,,,,,,,,,,,,,,
5e7a564c3a915c03028714d8,2023-11-23_21h46.06.932,kallum_motion_pilot,2023.1.2,Win32,143.6781609,5e7a564c3a915c03028714d8,656018846682f3df8008bb8f,656019d0e52c55fdec3dc068,2,10,334,148,1,sevenfive,,,,,,,,,,,,,,,,,,,,,,,,,,,,,,,,,,,,,,,,,,,,,,,,,,,,,,,,,,,,,,,,,,,,,,,,,,,,,,,,,,,,,
5e7a564c3a915c03028714d8,2023-11-23_21h46.06.932,kallum_motion_pilot,2023.1.2,Win32,143.6781609,5e7a564c3a915c03028714d8,656018846682f3df8008bb8f,656019d0e52c55fdec3dc068,2,11,335,92,1,sevenfive,,,,,,,,,,,,,,,,,,,,,,,,,,,,,,,,,,,,,,,,,,,,,,,,,,,,,,,,,,,,,,,,,,,,,,,,,,,,,,,,,,,,,
5e7a564c3a915c03028714d8,2023-11-23_21h46.06.932,kallum_motion_pilot,2023.1.2,Win32,143.6781609,5e7a564c3a915c03028714d8,656018846682f3df8008bb8f,656019d0e52c55fdec3dc068,2,12,336,21,1,threefour,,,,,,,,,,,,,,,,,,,,,,,,,,,,,,,,,,,,,,,,,,,,,,,,,,,,,,,,,,,,,,,,,,,,,,,,,,,,,,,,,,,,,
5e7a564c3a915c03028714d8,2023-11-23_21h46.06.932,kallum_motion_pilot,2023.1.2,Win32,143.6781609,5e7a564c3a915c03028714d8,656018846682f3df8008bb8f,656019d0e52c55fdec3dc068,2,13,337,149,1,seveneight,,,,,,,,,,,,,,,,,,,,,,,,,,,,,,,,,,,,,,,,,,,,,,,,,,,,,,,,,,,,,,,,,,,,,,,,,,,,,,,,,,,,,
5e7a564c3a915c03028714d8,2023-11-23_21h46.06.932,kallum_motion_pilot,2023.1.2,Win32,143.6781609,5e7a564c3a915c03028714d8,656018846682f3df8008bb8f,656019d0e52c55fdec3dc068,2,14,338,76,1,threeone,,,,,,,,,,,,,,,,,,,,,,,,,,,,,,,,,,,,,,,,,,,,,,,,,,,,,,,,,,,,,,,,,,,,,,,,,,,,,,,,,,,,,
5e7a564c3a915c03028714d8,2023-11-23_21h46.06.932,kallum_motion_pilot,2023.1.2,Win32,143.6781609,5e7a564c3a915c03028714d8,656018846682f3df8008bb8f,656019d0e52c55fdec3dc068,2,15,339,14,1,fourtwo,,,,,,,,,,,,,,,,,,,,,,,,,,,,,,,,,,,,,,,,,,,,,,,,,,,,,,,,,,,,,,,,,,,,,,,,,,,,,,,,,,,,,
5e7a564c3a915c03028714d8,2023-11-23_21h46.06.932,kallum_motion_pilot,2023.1.2,Win32,143.6781609,5e7a564c3a915c03028714d8,656018846682f3df8008bb8f,656019d0e52c55fdec3dc068,2,16,340,18,1,twoone,,,,,,,,,,,,,,,,,,,,,,,,,,,,,,,,,,,,,,,,,,,,,,,,,,,,,,,,,,,,,,,,,,,,,,,,,,,,,,,,,,,,,
5e7a564c3a915c03028714d8,2023-11-23_21h46.06.932,kallum_motion_pilot,2023.1.2,Win32,143.6781609,5e7a564c3a915c03028714d8,656018846682f3df8008bb8f,656019d0e52c55fdec3dc068,2,17,341,151,1,eightseven,,,,,,,,,,,,,,,,,,,,,,,,,,,,,,,,,,,,,,,,,,,,,,,,,,,,,,,,,,,,,,,,,,,,,,,,,,,,,,,,,,,,,
5e7a564c3a915c03028714d8,2023-11-23_21h46.06.932,kallum_motion_pilot,2023.1.2,Win32,143.6781609,5e7a564c3a915c03028714d8,656018846682f3df8008bb8f,656019d0e52c55fdec3dc068,2,18,342,98,1,sixfive,,,,,,,,,,,,,,,,,,,,,,,,,,,,,,,,,,,,,,,,,,,,,,,,,,,,,,,,,,,,,,,,,,,,,,,,,,,,,,,,,,,,,
5e7a564c3a915c03028714d8,2023-11-23_21h46.06.932,kallum_motion_pilot,2023.1.2,Win32,143.6781609,5e7a564c3a915c03028714d8,656018846682f3df8008bb8f,656019d0e52c55fdec3dc068,2,19,343,123,1,sixeight,,,,,,,,,,,,,,,,,,,,,,,,,,,,,,,,,,,,,,,,,,,,,,,,,,,,,,,,,,,,,,,,,,,,,,,,,,,,,,,,,,,,,
5e7a564c3a915c03028714d8,2023-11-23_21h46.06.932,kallum_motion_pilot,2023.1.2,Win32,143.6781609,5e7a564c3a915c03028714d8,656018846682f3df8008bb8f,656019d0e52c55fdec3dc068,2,20,344,112,1,fivesix,,,,,,,,,,,,,,,,,,,,,,,,,,,,,,,,,,,,,,,,,,,,,,,,,,,,,,,,,,,,,,,,,,,,,,,,,,,,,,,,,,,,,
5e7a564c3a915c03028714d8,2023-11-23_21h46.06.932,kallum_motion_pilot,2023.1.2,Win32,143.6781609,5e7a564c3a915c03028714d8,656018846682f3df8008bb8f,656019d0e52c55fdec3dc068,2,21,345,48,1,onetwo,,,,,,,,,,,,,,,,,,,,,,,,,,,,,,,,,,,,,,,,,,,,,,,,,,,,,,,,,,,,,,,,,,,,,,,,,,,,,,,,,,,,,
5e7a564c3a915c03028714d8,2023-11-23_21h46.06.932,kallum_motion_pilot,2023.1.2,Win32,143.6781609,5e7a564c3a915c03028714d8,656018846682f3df8008bb8f,656019d0e52c55fdec3dc068,2,22,346,156,1,sevenfive,,,,,,,,,,,,,,,,,,,,,,,,,,,,,,,,,,,,,,,,,,,,,,,,,,,,,,,,,,,,,,,,,,,,,,,,,,,,,,,,,,,,,
5e7a564c3a915c03028714d8,2023-11-23_21h46.06.932,kallum_motion_pilot,2023.1.2,Win32,143.6781609,5e7a564c3a915c03028714d8,656018846682f3df8008bb8f,656019d0e52c55fdec3dc068,2,23,347,8,1,onetwo,,,,,,,,,,,,,,,,,,,,,,,,,,,,,,,,,,,,,,,,,,,,,,,,,,,,,,,,,,,,,,,,,,,,,,,,,,,,,,,,,,,,,
5e7a564c3a915c03028714d8,2023-11-23_21h46.06.932,kallum_motion_pilot,2023.1.2,Win32,143.6781609,5e7a564c3a915c03028714d8,656018846682f3df8008bb8f,656019d0e52c55fdec3dc068,2,24,348,25,1,onethree,,,,,,,,,,,,,,,,,,,,,,,,,,,,,,,,,,,,,,,,,,,,,,,,,,,,,,,,,,,,,,,,,,,,,,,,,,,,,,,,,,,,,
5e7a564c3a915c03028714d8,2023-11-23_21h46.06.932,kallum_motion_pilot,2023.1.2,Win32,143.6781609,5e7a564c3a915c03028714d8,656018846682f3df8008bb8f,656019d0e52c55fdec3dc068,2,25,349,82,1,sixfive,,,,,,,,,,,,,,,,,,,,,,,,,,,,,,,,,,,,,,,,,,,,,,,,,,,,,,,,,,,,,,,,,,,,,,,,,,,,,,,,,,,,,
