Prolific_ID*,date,expName,psychopyVersion,OS,frameRate,PROLIFIC_PID,STUDY_ID,SESSION_ID,hardcoded_stimulus_positions.thisRepN,hardcoded_stimulus_positions.thisTrialN,hardcoded_stimulus_positions.thisN,hardcoded_stimulus_positions.thisIndex,hardcoded_stimulus_positions.ran,StimulusPos,prac_stimorientation_import_loop.thisRepN,prac_stimorientation_import_loop.thisTrialN,prac_stimorientation_import_loop.thisN,prac_stimorientation_import_loop.thisIndex,prac_stimorientation_import_loop.ran,Stimorientation,key_resp.keys,key_resp.rt,key_resp_20.keys,key_resp_20.rt,key_resp_19.keys,key_resp_19.rt,key_resp_15.keys,key_resp_15.rt,key_resp_9.keys,key_resp_9.rt,key_resp_10.keys,key_resp_10.rt,Ecc,Circle1_ori,Circle2_ori,similarity,response_time,mouse_5.x,mouse_5.y,mouse_5.leftButton,mouse_5.midButton,mouse_5.rightButton,mouse_5.clicked_name,mouse_6.x,mouse_6.y,mouse_6.leftButton,mouse_6.midButton,mouse_6.rightButton,mouse_6.clicked_name,duringprac.thisRepN,duringprac.thisTrialN,duringprac.thisN,duringprac.thisIndex,duringprac.ran,key_resp_22.keys,key_resp_22.rt,circle1_ori,circle2_ori,mouse.x,mouse.y,mouse.leftButton,mouse.midButton,mouse.rightButton,mouse.clicked_name,mouse_2.x,mouse_2.y,mouse_2.leftButton,mouse_2.midButton,mouse_2.rightButton,mouse_2.clicked_name,mouse_3.x,mouse_3.y,mouse_3.leftButton,mouse_3.midButton,mouse_3.rightButton,catchresponse,catchnumber,response_time_catch,Catch,mouse_11.x,mouse_11.y,mouse_11.leftButton,mouse_11.midButton,mouse_11.rightButton,main_trial.thisRepN,main_trial.thisTrialN,main_trial.thisN,main_trial.thisIndex,main_trial.ran,Orientationtrialno,xcircle1_ori,xcircle2_ori,double_pass.thisRepN,double_pass.thisTrialN,double_pass.thisN,double_pass.thisIndex,double_pass.ran,key_resp_3.keys,key_resp_3.rt
5e9b0ac83abad80009e61116,2023-11-24_04h33.54.180,kallum_motion_pilot,2023.1.2,Win32,74.95128167,5e9b0ac83abad80009e61116,656018846682f3df8008bb8f,6560197580e5660b5d4cb1ed,,,,,,,,,,,,,,,,,,,,,,,,,,,,,,,,,,,,,,,,,,,,,,,,,,,,,,,,,,,,,,,,,,,,,,,,,,,,,,,,,,,,,,,,,,,
5e9b0ac83abad80009e61116,2023-11-24_04h33.54.180,kallum_motion_pilot,2023.1.2,Win32,74.95128167,5e9b0ac83abad80009e61116,656018846682f3df8008bb8f,6560197580e5660b5d4cb1ed,0,0,0,139,1,sixeight,,,,,,,,,,,,,,,,,,,,,,,,,,,,,,,,,,,,,,,,,,,,,,,,,,,,,,,,,,,,,,,,,,,,,,,,,,,,,,,,,,,,,
5e9b0ac83abad80009e61116,2023-11-24_04h33.54.180,kallum_motion_pilot,2023.1.2,Win32,74.95128167,5e9b0ac83abad80009e61116,656018846682f3df8008bb8f,6560197580e5660b5d4cb1ed,0,1,1,89,1,fiveseven,,,,,,,,,,,,,,,,,,,,,,,,,,,,,,,,,,,,,,,,,,,,,,,,,,,,,,,,,,,,,,,,,,,,,,,,,,,,,,,,,,,,,
5e9b0ac83abad80009e61116,2023-11-24_04h33.54.180,kallum_motion_pilot,2023.1.2,Win32,74.95128167,5e9b0ac83abad80009e61116,656018846682f3df8008bb8f,6560197580e5660b5d4cb1ed,0,2,2,66,1,twoone,,,,,,,,,,,,,,,,,,,,,,,,,,,,,,,,,,,,,,,,,,,,,,,,,,,,,,,,,,,,,,,,,,,,,,,,,,,,,,,,,,,,,
5e9b0ac83abad80009e61116,2023-11-24_04h33.54.180,kallum_motion_pilot,2023.1.2,Win32,74.95128167,5e9b0ac83abad80009e61116,656018846682f3df8008bb8f,6560197580e5660b5d4cb1ed,0,3,3,46,1,fourtwo,,,,,,,,,,,,,,,,,,,,,,,,,,,,,,,,,,,,,,,,,,,,,,,,,,,,,,,,,,,,,,,,,,,,,,,,,,,,,,,,,,,,,
5e9b0ac83abad80009e61116,2023-11-24_04h33.54.180,kallum_motion_pilot,2023.1.2,Win32,74.95128167,5e9b0ac83abad80009e61116,656018846682f3df8008bb8f,6560197580e5660b5d4cb1ed,0,4,4,21,1,threefour,,,,,,,,,,,,,,,,,,,,,,,,,,,,,,,,,,,,,,,,,,,,,,,,,,,,,,,,,,,,,,,,,,,,,,,,,,,,,,,,,,,,,
5e9b0ac83abad80009e61116,2023-11-24_04h33.54.180,kallum_motion_pilot,2023.1.2,Win32,74.95128167,5e9b0ac83abad80009e61116,656018846682f3df8008bb8f,6560197580e5660b5d4cb1ed,0,5,5,45,1,threefour,,,,,,,,,,,,,,,,,,,,,,,,,,,,,,,,,,,,,,,,,,,,,,,,,,,,,,,,,,,,,,,,,,,,,,,,,,,,,,,,,,,,,
5e9b0ac83abad80009e61116,2023-11-24_04h33.54.180,kallum_motion_pilot,2023.1.2,Win32,74.95128167,5e9b0ac83abad80009e61116,656018846682f3df8008bb8f,6560197580e5660b5d4cb1ed,0,6,6,39,1,fourthree,,,,,,,,,,,,,,,,,,,,,,,,,,,,,,,,,,,,,,,,,,,,,,,,,,,,,,,,,,,,,,,,,,,,,,,,,,,,,,,,,,,,,
5e9b0ac83abad80009e61116,2023-11-24_04h33.54.180,kallum_motion_pilot,2023.1.2,Win32,74.95128167,5e9b0ac83abad80009e61116,656018846682f3df8008bb8f,6560197580e5660b5d4cb1ed,0,7,7,27,1,twofour,,,,,,,,,,,,,,,,,,,,,,,,,,,,,,,,,,,,,,,,,,,,,,,,,,,,,,,,,,,,,,,,,,,,,,,,,,,,,,,,,,,,,
5e9b0ac83abad80009e61116,2023-11-24_04h33.54.180,kallum_motion_pilot,2023.1.2,Win32,74.95128167,5e9b0ac83abad80009e61116,656018846682f3df8008bb8f,6560197580e5660b5d4cb1ed,0,8,8,78,1,fourtwo,,,,,,,,,,,,,,,,,,,,,,,,,,,,,,,,,,,,,,,,,,,,,,,,,,,,,,,,,,,,,,,,,,,,,,,,,,,,,,,,,,,,,
5e9b0ac83abad80009e61116,2023-11-24_04h33.54.180,kallum_motion_pilot,2023.1.2,Win32,74.95128167,5e9b0ac83abad80009e61116,656018846682f3df8008bb8f,6560197580e5660b5d4cb1ed,0,9,9,140,1,sevenfive,,,,,,,,,,,,,,,,,,,,,,,,,,,,,,,,,,,,,,,,,,,,,,,,,,,,,,,,,,,,,,,,,,,,,,,,,,,,,,,,,,,,,
5e9b0ac83abad80009e61116,2023-11-24_04h33.54.180,kallum_motion_pilot,2023.1.2,Win32,74.95128167,5e9b0ac83abad80009e61116,656018846682f3df8008bb8f,6560197580e5660b5d4cb1ed,0,10,10,32,1,onetwo,,,,,,,,,,,,,,,,,,,,,,,,,,,,,,,,,,,,,,,,,,,,,,,,,,,,,,,,,,,,,,,,,,,,,,,,,,,,,,,,,,,,,
5e9b0ac83abad80009e61116,2023-11-24_04h33.54.180,kallum_motion_pilot,2023.1.2,Win32,74.95128167,5e9b0ac83abad80009e61116,656018846682f3df8008bb8f,6560197580e5660b5d4cb1ed,0,11,11,94,1,eightsix,,,,,,,,,,,,,,,,,,,,,,,,,,,,,,,,,,,,,,,,,,,,,,,,,,,,,,,,,,,,,,,,,,,,,,,,,,,,,,,,,,,,,
5e9b0ac83abad80009e61116,2023-11-24_04h33.54.180,kallum_motion_pilot,2023.1.2,Win32,74.95128167,5e9b0ac83abad80009e61116,656018846682f3df8008bb8f,6560197580e5660b5d4cb1ed,0,12,12,109,1,seveneight,,,,,,,,,,,,,,,,,,,,,,,,,,,,,,,,,,,,,,,,,,,,,,,,,,,,,,,,,,,,,,,,,,,,,,,,,,,,,,,,,,,,,
5e9b0ac83abad80009e61116,2023-11-24_04h33.54.180,kallum_motion_pilot,2023.1.2,Win32,74.95128167,5e9b0ac83abad80009e61116,656018846682f3df8008bb8f,6560197580e5660b5d4cb1ed,0,13,13,97,1,fiveseven,,,,,,,,,,,,,,,,,,,,,,,,,,,,,,,,,,,,,,,,,,,,,,,,,,,,,,,,,,,,,,,,,,,,,,,,,,,,,,,,,,,,,
5e9b0ac83abad80009e61116,2023-11-24_04h33.54.180,kallum_motion_pilot,2023.1.2,Win32,74.95128167,5e9b0ac83abad80009e61116,656018846682f3df8008bb8f,6560197580e5660b5d4cb1ed,0,14,14,122,1,sixfive,,,,,,,,,,,,,,,,,,,,,,,,,,,,,,,,,,,,,,,,,,,,,,,,,,,,,,,,,,,,,,,,,,,,,,,,,,,,,,,,,,,,,
5e9b0ac83abad80009e61116,2023-11-24_04h33.54.180,kallum_motion_pilot,2023.1.2,Win32,74.95128167,5e9b0ac83abad80009e61116,656018846682f3df8008bb8f,6560197580e5660b5d4cb1ed,0,15,15,92,1,sevenfive,,,,,,,,,,,,,,,,,,,,,,,,,,,,,,,,,,,,,,,,,,,,,,,,,,,,,,,,,,,,,,,,,,,,,,,,,,,,,,,,,,,,,
5e9b0ac83abad80009e61116,2023-11-24_04h33.54.180,kallum_motion_pilot,2023.1.2,Win32,74.95128167,5e9b0ac83abad80009e61116,656018846682f3df8008bb8f,6560197580e5660b5d4cb1ed,0,16,16,137,1,fiveseven,,,,,,,,,,,,,,,,,,,,,,,,,,,,,,,,,,,,,,,,,,,,,,,,,,,,,,,,,,,,,,,,,,,,,,,,,,,,,,,,,,,,,
5e9b0ac83abad80009e61116,2023-11-24_04h33.54.180,kallum_motion_pilot,2023.1.2,Win32,74.95128167,5e9b0ac83abad80009e61116,656018846682f3df8008bb8f,6560197580e5660b5d4cb1ed,0,17,17,147,1,sixeight,,,,,,,,,,,,,,,,,,,,,,,,,,,,,,,,,,,,,,,,,,,,,,,,,,,,,,,,,,,,,,,,,,,,,,,,,,,,,,,,,,,,,
5e9b0ac83abad80009e61116,2023-11-24_04h33.54.180,kallum_motion_pilot,2023.1.2,Win32,74.95128167,5e9b0ac83abad80009e61116,656018846682f3df8008bb8f,6560197580e5660b5d4cb1ed,0,18,18,24,1,onetwo,,,,,,,,,,,,,,,,,,,,,,,,,,,,,,,,,,,,,,,,,,,,,,,,,,,,,,,,,,,,,,,,,,,,,,,,,,,,,,,,,,,,,
5e9b0ac83abad80009e61116,2023-11-24_04h33.54.180,kallum_motion_pilot,2023.1.2,Win32,74.95128167,5e9b0ac83abad80009e61116,656018846682f3df8008bb8f,6560197580e5660b5d4cb1ed,0,19,19,135,1,eightseven,,,,,,,,,,,,,,,,,,,,,,,,,,,,,,,,,,,,,,,,,,,,,,,,,,,,,,,,,,,,,,,,,,,,,,,,,,,,,,,,,,,,,
5e9b0ac83abad80009e61116,2023-11-24_04h33.54.180,kallum_motion_pilot,2023.1.2,Win32,74.95128167,5e9b0ac83abad80009e61116,656018846682f3df8008bb8f,6560197580e5660b5d4cb1ed,0,20,20,79,1,eightseven,,,,,,,,,,,,,,,,,,,,,,,,,,,,,,,,,,,,,,,,,,,,,,,,,,,,,,,,,,,,,,,,,,,,,,,,,,,,,,,,,,,,,
5e9b0ac83abad80009e61116,2023-11-24_04h33.54.180,kallum_motion_pilot,2023.1.2,Win32,74.95128167,5e9b0ac83abad80009e61116,656018846682f3df8008bb8f,6560197580e5660b5d4cb1ed,0,21,21,129,1,fiveseven,,,,,,,,,,,,,,,,,,,,,,,,,,,,,,,,,,,,,,,,,,,,,,,,,,,,,,,,,,,,,,,,,,,,,,,,,,,,,,,,,,,,,
5e9b0ac83abad80009e61116,2023-11-24_04h33.54.180,kallum_motion_pilot,2023.1.2,Win32,74.95128167,5e9b0ac83abad80009e61116,656018846682f3df8008bb8f,6560197580e5660b5d4cb1ed,0,22,22,121,1,fiveseven,,,,,,,,,,,,,,,,,,,,,,,,,,,,,,,,,,,,,,,,,,,,,,,,,,,,,,,,,,,,,,,,,,,,,,,,,,,,,,,,,,,,,
5e9b0ac83abad80009e61116,2023-11-24_04h33.54.180,kallum_motion_pilot,2023.1.2,Win32,74.95128167,5e9b0ac83abad80009e61116,656018846682f3df8008bb8f,6560197580e5660b5d4cb1ed,0,23,23,100,1,sevenfive,,,,,,,,,,,,,,,,,,,,,,,,,,,,,,,,,,,,,,,,,,,,,,,,,,,,,,,,,,,,,,,,,,,,,,,,,,,,,,,,,,,,,
5e9b0ac83abad80009e61116,2023-11-24_04h33.54.180,kallum_motion_pilot,2023.1.2,Win32,74.95128167,5e9b0ac83abad80009e61116,656018846682f3df8008bb8f,6560197580e5660b5d4cb1ed,0,24,24,20,1,threeone,,,,,,,,,,,,,,,,,,,,,,,,,,,,,,,,,,,,,,,,,,,,,,,,,,,,,,,,,,,,,,,,,,,,,,,,,,,,,,,,,,,,,
5e9b0ac83abad80009e61116,2023-11-24_04h33.54.180,kallum_motion_pilot,2023.1.2,Win32,74.95128167,5e9b0ac83abad80009e61116,656018846682f3df8008bb8f,6560197580e5660b5d4cb1ed,0,25,25,104,1,fivesix,,,,,,,,,,,,,,,,,,,,,,,,,,,,,,,,,,,,,,,,,,,,,,,,,,,,,,,,,,,,,,,,,,,,,,,,,,,,,,,,,,,,,
5e9b0ac83abad80009e61116,2023-11-24_04h33.54.180,kallum_motion_pilot,2023.1.2,Win32,74.95128167,5e9b0ac83abad80009e61116,656018846682f3df8008bb8f,6560197580e5660b5d4cb1ed,0,26,26,151,1,eightseven,,,,,,,,,,,,,,,,,,,,,,,,,,,,,,,,,,,,,,,,,,,,,,,,,,,,,,,,,,,,,,,,,,,,,,,,,,,,,,,,,,,,,
5e9b0ac83abad80009e61116,2023-11-24_04h33.54.180,kallum_motion_pilot,2023.1.2,Win32,74.95128167,5e9b0ac83abad80009e61116,656018846682f3df8008bb8f,6560197580e5660b5d4cb1ed,0,27,27,106,1,sixfive,,,,,,,,,,,,,,,,,,,,,,,,,,,,,,,,,,,,,,,,,,,,,,,,,,,,,,,,,,,,,,,,,,,,,,,,,,,,,,,,,,,,,
5e9b0ac83abad80009e61116,2023-11-24_04h33.54.180,kallum_motion_pilot,2023.1.2,Win32,74.95128167,5e9b0ac83abad80009e61116,656018846682f3df8008bb8f,6560197580e5660b5d4cb1ed,0,28,28,112,1,fivesix,,,,,,,,,,,,,,,,,,,,,,,,,,,,,,,,,,,,,,,,,,,,,,,,,,,,,,,,,,,,,,,,,,,,,,,,,,,,,,,,,,,,,
5e9b0ac83abad80009e61116,2023-11-24_04h33.54.180,kallum_motion_pilot,2023.1.2,Win32,74.95128167,5e9b0ac83abad80009e61116,656018846682f3df8008bb8f,6560197580e5660b5d4cb1ed,0,29,29,38,1,fourtwo,,,,,,,,,,,,,,,,,,,,,,,,,,,,,,,,,,,,,,,,,,,,,,,,,,,,,,,,,,,,,,,,,,,,,,,,,,,,,,,,,,,,,
5e9b0ac83abad80009e61116,2023-11-24_04h33.54.180,kallum_motion_pilot,2023.1.2,Win32,74.95128167,5e9b0ac83abad80009e61116,656018846682f3df8008bb8f,6560197580e5660b5d4cb1ed,0,30,30,77,1,threefour,,,,,,,,,,,,,,,,,,,,,,,,,,,,,,,,,,,,,,,,,,,,,,,,,,,,,,,,,,,,,,,,,,,,,,,,,,,,,,,,,,,,,
5e9b0ac83abad80009e61116,2023-11-24_04h33.54.180,kallum_motion_pilot,2023.1.2,Win32,74.95128167,5e9b0ac83abad80009e61116,656018846682f3df8008bb8f,6560197580e5660b5d4cb1ed,0,31,31,127,1,eightseven,,,,,,,,,,,,,,,,,,,,,,,,,,,,,,,,,,,,,,,,,,,,,,,,,,,,,,,,,,,,,,,,,,,,,,,,,,,,,,,,,,,,,
5e9b0ac83abad80009e61116,2023-11-24_04h33.54.180,kallum_motion_pilot,2023.1.2,Win32,74.95128167,5e9b0ac83abad80009e61116,656018846682f3df8008bb8f,6560197580e5660b5d4cb1ed,0,32,32,124,1,sevenfive,,,,,,,,,,,,,,,,,,,,,,,,,,,,,,,,,,,,,,,,,,,,,,,,,,,,,,,,,,,,,,,,,,,,,,,,,,,,,,,,,,,,,
5e9b0ac83abad80009e61116,2023-11-24_04h33.54.180,kallum_motion_pilot,2023.1.2,Win32,74.95128167,5e9b0ac83abad80009e61116,656018846682f3df8008bb8f,6560197580e5660b5d4cb1ed,0,33,33,57,1,onethree,,,,,,,,,,,,,,,,,,,,,,,,,,,,,,,,,,,,,,,,,,,,,,,,,,,,,,,,,,,,,,,,,,,,,,,,,,,,,,,,,,,,,
5e9b0ac83abad80009e61116,2023-11-24_04h33.54.180,kallum_motion_pilot,2023.1.2,Win32,74.95128167,5e9b0ac83abad80009e61116,656018846682f3df8008bb8f,6560197580e5660b5d4cb1ed,0,34,34,110,1,eightsix,,,,,,,,,,,,,,,,,,,,,,,,,,,,,,,,,,,,,,,,,,,,,,,,,,,,,,,,,,,,,,,,,,,,,,,,,,,,,,,,,,,,,
5e9b0ac83abad80009e61116,2023-11-24_04h33.54.180,kallum_motion_pilot,2023.1.2,Win32,74.95128167,5e9b0ac83abad80009e61116,656018846682f3df8008bb8f,6560197580e5660b5d4cb1ed,0,35,35,41,1,onethree,,,,,,,,,,,,,,,,,,,,,,,,,,,,,,,,,,,,,,,,,,,,,,,,,,,,,,,,,,,,,,,,,,,,,,,,,,,,,,,,,,,,,
5e9b0ac83abad80009e61116,2023-11-24_04h33.54.180,kallum_motion_pilot,2023.1.2,Win32,74.95128167,5e9b0ac83abad80009e61116,656018846682f3df8008bb8f,6560197580e5660b5d4cb1ed,0,36,36,51,1,twofour,,,,,,,,,,,,,,,,,,,,,,,,,,,,,,,,,,,,,,,,,,,,,,,,,,,,,,,,,,,,,,,,,,,,,,,,,,,,,,,,,,,,,
5e9b0ac83abad80009e61116,2023-11-24_04h33.54.180,kallum_motion_pilot,2023.1.2,Win32,74.95128167,5e9b0ac83abad80009e61116,656018846682f3df8008bb8f,6560197580e5660b5d4cb1ed,0,37,37,61,1,threefour,,,,,,,,,,,,,,,,,,,,,,,,,,,,,,,,,,,,,,,,,,,,,,,,,,,,,,,,,,,,,,,,,,,,,,,,,,,,,,,,,,,,,
5e9b0ac83abad80009e61116,2023-11-24_04h33.54.180,kallum_motion_pilot,2023.1.2,Win32,74.95128167,5e9b0ac83abad80009e61116,656018846682f3df8008bb8f,6560197580e5660b5d4cb1ed,0,38,38,74,1,twoone,,,,,,,,,,,,,,,,,,,,,,,,,,,,,,,,,,,,,,,,,,,,,,,,,,,,,,,,,,,,,,,,,,,,,,,,,,,,,,,,,,,,,
5e9b0ac83abad80009e61116,2023-11-24_04h33.54.180,kallum_motion_pilot,2023.1.2,Win32,74.95128167,5e9b0ac83abad80009e61116,656018846682f3df8008bb8f,6560197580e5660b5d4cb1ed,0,39,39,55,1,fourthree,,,,,,,,,,,,,,,,,,,,,,,,,,,,,,,,,,,,,,,,,,,,,,,,,,,,,,,,,,,,,,,,,,,,,,,,,,,,,,,,,,,,,
5e9b0ac83abad80009e61116,2023-11-24_04h33.54.180,kallum_motion_pilot,2023.1.2,Win32,74.95128167,5e9b0ac83abad80009e61116,656018846682f3df8008bb8f,6560197580e5660b5d4cb1ed,0,40,40,26,1,twoone,,,,,,,,,,,,,,,,,,,,,,,,,,,,,,,,,,,,,,,,,,,,,,,,,,,,,,,,,,,,,,,,,,,,,,,,,,,,,,,,,,,,,
5e9b0ac83abad80009e61116,2023-11-24_04h33.54.180,kallum_motion_pilot,2023.1.2,Win32,74.95128167,5e9b0ac83abad80009e61116,656018846682f3df8008bb8f,6560197580e5660b5d4cb1ed,0,41,41,5,1,threefour,,,,,,,,,,,,,,,,,,,,,,,,,,,,,,,,,,,,,,,,,,,,,,,,,,,,,,,,,,,,,,,,,,,,,,,,,,,,,,,,,,,,,
5e9b0ac83abad80009e61116,2023-11-24_04h33.54.180,kallum_motion_pilot,2023.1.2,Win32,74.95128167,5e9b0ac83abad80009e61116,656018846682f3df8008bb8f,6560197580e5660b5d4cb1ed,0,42,42,160,1,fivesix,,,,,,,,,,,,,,,,,,,,,,,,,,,,,,,,,,,,,,,,,,,,,,,,,,,,,,,,,,,,,,,,,,,,,,,,,,,,,,,,,,,,,
5e9b0ac83abad80009e61116,2023-11-24_04h33.54.180,kallum_motion_pilot,2023.1.2,Win32,74.95128167,5e9b0ac83abad80009e61116,656018846682f3df8008bb8f,6560197580e5660b5d4cb1ed,0,43,43,47,1,fourthree,,,,,,,,,,,,,,,,,,,,,,,,,,,,,,,,,,,,,,,,,,,,,,,,,,,,,,,,,,,,,,,,,,,,,,,,,,,,,,,,,,,,,
5e9b0ac83abad80009e61116,2023-11-24_04h33.54.180,kallum_motion_pilot,2023.1.2,Win32,74.95128167,5e9b0ac83abad80009e61116,656018846682f3df8008bb8f,6560197580e5660b5d4cb1ed,0,44,44,23,1,fourthree,,,,,,,,,,,,,,,,,,,,,,,,,,,,,,,,,,,,,,,,,,,,,,,,,,,,,,,,,,,,,,,,,,,,,,,,,,,,,,,,,,,,,
5e9b0ac83abad80009e61116,2023-11-24_04h33.54.180,kallum_motion_pilot,2023.1.2,Win32,74.95128167,5e9b0ac83abad80009e61116,656018846682f3df8008bb8f,6560197580e5660b5d4cb1ed,0,45,45,101,1,seveneight,,,,,,,,,,,,,,,,,,,,,,,,,,,,,,,,,,,,,,,,,,,,,,,,,,,,,,,,,,,,,,,,,,,,,,,,,,,,,,,,,,,,,
5e9b0ac83abad80009e61116,2023-11-24_04h33.54.180,kallum_motion_pilot,2023.1.2,Win32,74.95128167,5e9b0ac83abad80009e61116,656018846682f3df8008bb8f,6560197580e5660b5d4cb1ed,0,46,46,152,1,fivesix,,,,,,,,,,,,,,,,,,,,,,,,,,,,,,,,,,,,,,,,,,,,,,,,,,,,,,,,,,,,,,,,,,,,,,,,,,,,,,,,,,,,,
5e9b0ac83abad80009e61116,2023-11-24_04h33.54.180,kallum_motion_pilot,2023.1.2,Win32,74.95128167,5e9b0ac83abad80009e61116,656018846682f3df8008bb8f,6560197580e5660b5d4cb1ed,0,47,47,16,1,onetwo,,,,,,,,,,,,,,,,,,,,,,,,,,,,,,,,,,,,,,,,,,,,,,,,,,,,,,,,,,,,,,,,,,,,,,,,,,,,,,,,,,,,,
5e9b0ac83abad80009e61116,2023-11-24_04h33.54.180,kallum_motion_pilot,2023.1.2,Win32,74.95128167,5e9b0ac83abad80009e61116,656018846682f3df8008bb8f,6560197580e5660b5d4cb1ed,0,48,48,98,1,sixfive,,,,,,,,,,,,,,,,,,,,,,,,,,,,,,,,,,,,,,,,,,,,,,,,,,,,,,,,,,,,,,,,,,,,,,,,,,,,,,,,,,,,,
5e9b0ac83abad80009e61116,2023-11-24_04h33.54.180,kallum_motion_pilot,2023.1.2,Win32,74.95128167,5e9b0ac83abad80009e61116,656018846682f3df8008bb8f,6560197580e5660b5d4cb1ed,0,49,49,30,1,fourtwo,,,,,,,,,,,,,,,,,,,,,,,,,,,,,,,,,,,,,,,,,,,,,,,,,,,,,,,,,,,,,,,,,,,,,,,,,,,,,,,,,,,,,
5e9b0ac83abad80009e61116,2023-11-24_04h33.54.180,kallum_motion_pilot,2023.1.2,Win32,74.95128167,5e9b0ac83abad80009e61116,656018846682f3df8008bb8f,6560197580e5660b5d4cb1ed,0,50,50,82,1,sixfive,,,,,,,,,,,,,,,,,,,,,,,,,,,,,,,,,,,,,,,,,,,,,,,,,,,,,,,,,,,,,,,,,,,,,,,,,,,,,,,,,,,,,
5e9b0ac83abad80009e61116,2023-11-24_04h33.54.180,kallum_motion_pilot,2023.1.2,Win32,74.95128167,5e9b0ac83abad80009e61116,656018846682f3df8008bb8f,6560197580e5660b5d4cb1ed,0,51,51,113,1,fiveseven,,,,,,,,,,,,,,,,,,,,,,,,,,,,,,,,,,,,,,,,,,,,,,,,,,,,,,,,,,,,,,,,,,,,,,,,,,,,,,,,,,,,,
5e9b0ac83abad80009e61116,2023-11-24_04h33.54.180,kallum_motion_pilot,2023.1.2,Win32,74.95128167,5e9b0ac83abad80009e61116,656018846682f3df8008bb8f,6560197580e5660b5d4cb1ed,0,52,52,31,1,fourthree,,,,,,,,,,,,,,,,,,,,,,,,,,,,,,,,,,,,,,,,,,,,,,,,,,,,,,,,,,,,,,,,,,,,,,,,,,,,,,,,,,,,,
5e9b0ac83abad80009e61116,2023-11-24_04h33.54.180,kallum_motion_pilot,2023.1.2,Win32,74.95128167,5e9b0ac83abad80009e61116,656018846682f3df8008bb8f,6560197580e5660b5d4cb1ed,0,53,53,8,1,onetwo,,,,,,,,,,,,,,,,,,,,,,,,,,,,,,,,,,,,,,,,,,,,,,,,,,,,,,,,,,,,,,,,,,,,,,,,,,,,,,,,,,,,,
5e9b0ac83abad80009e61116,2023-11-24_04h33.54.180,kallum_motion_pilot,2023.1.2,Win32,74.95128167,5e9b0ac83abad80009e61116,656018846682f3df8008bb8f,6560197580e5660b5d4cb1ed,0,54,54,73,1,onethree,,,,,,,,,,,,,,,,,,,,,,,,,,,,,,,,,,,,,,,,,,,,,,,,,,,,,,,,,,,,,,,,,,,,,,,,,,,,,,,,,,,,,
5e9b0ac83abad80009e61116,2023-11-24_04h33.54.180,kallum_motion_pilot,2023.1.2,Win32,74.95128167,5e9b0ac83abad80009e61116,656018846682f3df8008bb8f,6560197580e5660b5d4cb1ed,0,55,55,96,1,fivesix,,,,,,,,,,,,,,,,,,,,,,,,,,,,,,,,,,,,,,,,,,,,,,,,,,,,,,,,,,,,,,,,,,,,,,,,,,,,,,,,,,,,,
5e9b0ac83abad80009e61116,2023-11-24_04h33.54.180,kallum_motion_pilot,2023.1.2,Win32,74.95128167,5e9b0ac83abad80009e61116,656018846682f3df8008bb8f,6560197580e5660b5d4cb1ed,0,56,56,134,1,eightsix,,,,,,,,,,,,,,,,,,,,,,,,,,,,,,,,,,,,,,,,,,,,,,,,,,,,,,,,,,,,,,,,,,,,,,,,,,,,,,,,,,,,,
5e9b0ac83abad80009e61116,2023-11-24_04h33.54.180,kallum_motion_pilot,2023.1.2,Win32,74.95128167,5e9b0ac83abad80009e61116,656018846682f3df8008bb8f,6560197580e5660b5d4cb1ed,0,57,57,144,1,fivesix,,,,,,,,,,,,,,,,,,,,,,,,,,,,,,,,,,,,,,,,,,,,,,,,,,,,,,,,,,,,,,,,,,,,,,,,,,,,,,,,,,,,,
5e9b0ac83abad80009e61116,2023-11-24_04h33.54.180,kallum_motion_pilot,2023.1.2,Win32,74.95128167,5e9b0ac83abad80009e61116,656018846682f3df8008bb8f,6560197580e5660b5d4cb1ed,0,58,58,50,1,twoone,,,,,,,,,,,,,,,,,,,,,,,,,,,,,,,,,,,,,,,,,,,,,,,,,,,,,,,,,,,,,,,,,,,,,,,,,,,,,,,,,,,,,
5e9b0ac83abad80009e61116,2023-11-24_04h33.54.180,kallum_motion_pilot,2023.1.2,Win32,74.95128167,5e9b0ac83abad80009e61116,656018846682f3df8008bb8f,6560197580e5660b5d4cb1ed,0,59,59,99,1,sixeight,,,,,,,,,,,,,,,,,,,,,,,,,,,,,,,,,,,,,,,,,,,,,,,,,,,,,,,,,,,,,,,,,,,,,,,,,,,,,,,,,,,,,
5e9b0ac83abad80009e61116,2023-11-24_04h33.54.180,kallum_motion_pilot,2023.1.2,Win32,74.95128167,5e9b0ac83abad80009e61116,656018846682f3df8008bb8f,6560197580e5660b5d4cb1ed,0,60,60,111,1,eightseven,,,,,,,,,,,,,,,,,,,,,,,,,,,,,,,,,,,,,,,,,,,,,,,,,,,,,,,,,,,,,,,,,,,,,,,,,,,,,,,,,,,,,
5e9b0ac83abad80009e61116,2023-11-24_04h33.54.180,kallum_motion_pilot,2023.1.2,Win32,74.95128167,5e9b0ac83abad80009e61116,656018846682f3df8008bb8f,6560197580e5660b5d4cb1ed,0,61,61,93,1,seveneight,,,,,,,,,,,,,,,,,,,,,,,,,,,,,,,,,,,,,,,,,,,,,,,,,,,,,,,,,,,,,,,,,,,,,,,,,,,,,,,,,,,,,
5e9b0ac83abad80009e61116,2023-11-24_04h33.54.180,kallum_motion_pilot,2023.1.2,Win32,74.95128167,5e9b0ac83abad80009e61116,656018846682f3df8008bb8f,6560197580e5660b5d4cb1ed,0,62,62,120,1,fivesix,,,,,,,,,,,,,,,,,,,,,,,,,,,,,,,,,,,,,,,,,,,,,,,,,,,,,,,,,,,,,,,,,,,,,,,,,,,,,,,,,,,,,
5e9b0ac83abad80009e61116,2023-11-24_04h33.54.180,kallum_motion_pilot,2023.1.2,Win32,74.95128167,5e9b0ac83abad80009e61116,656018846682f3df8008bb8f,6560197580e5660b5d4cb1ed,0,63,63,85,1,seveneight,,,,,,,,,,,,,,,,,,,,,,,,,,,,,,,,,,,,,,,,,,,,,,,,,,,,,,,,,,,,,,,,,,,,,,,,,,,,,,,,,,,,,
5e9b0ac83abad80009e61116,2023-11-24_04h33.54.180,kallum_motion_pilot,2023.1.2,Win32,74.95128167,5e9b0ac83abad80009e61116,656018846682f3df8008bb8f,6560197580e5660b5d4cb1ed,0,64,64,22,1,fourtwo,,,,,,,,,,,,,,,,,,,,,,,,,,,,,,,,,,,,,,,,,,,,,,,,,,,,,,,,,,,,,,,,,,,,,,,,,,,,,,,,,,,,,
5e9b0ac83abad80009e61116,2023-11-24_04h33.54.180,kallum_motion_pilot,2023.1.2,Win32,74.95128167,5e9b0ac83abad80009e61116,656018846682f3df8008bb8f,6560197580e5660b5d4cb1ed,0,65,65,25,1,onethree,,,,,,,,,,,,,,,,,,,,,,,,,,,,,,,,,,,,,,,,,,,,,,,,,,,,,,,,,,,,,,,,,,,,,,,,,,,,,,,,,,,,,
5e9b0ac83abad80009e61116,2023-11-24_04h33.54.180,kallum_motion_pilot,2023.1.2,Win32,74.95128167,5e9b0ac83abad80009e61116,656018846682f3df8008bb8f,6560197580e5660b5d4cb1ed,0,66,66,59,1,twofour,,,,,,,,,,,,,,,,,,,,,,,,,,,,,,,,,,,,,,,,,,,,,,,,,,,,,,,,,,,,,,,,,,,,,,,,,,,,,,,,,,,,,
5e9b0ac83abad80009e61116,2023-11-24_04h33.54.180,kallum_motion_pilot,2023.1.2,Win32,74.95128167,5e9b0ac83abad80009e61116,656018846682f3df8008bb8f,6560197580e5660b5d4cb1ed,0,67,67,103,1,eightseven,,,,,,,,,,,,,,,,,,,,,,,,,,,,,,,,,,,,,,,,,,,,,,,,,,,,,,,,,,,,,,,,,,,,,,,,,,,,,,,,,,,,,
5e9b0ac83abad80009e61116,2023-11-24_04h33.54.180,kallum_motion_pilot,2023.1.2,Win32,74.95128167,5e9b0ac83abad80009e61116,656018846682f3df8008bb8f,6560197580e5660b5d4cb1ed,0,68,68,84,1,sevenfive,,,,,,,,,,,,,,,,,,,,,,,,,,,,,,,,,,,,,,,,,,,,,,,,,,,,,,,,,,,,,,,,,,,,,,,,,,,,,,,,,,,,,
5e9b0ac83abad80009e61116,2023-11-24_04h33.54.180,kallum_motion_pilot,2023.1.2,Win32,74.95128167,5e9b0ac83abad80009e61116,656018846682f3df8008bb8f,6560197580e5660b5d4cb1ed,0,69,69,118,1,eightsix,,,,,,,,,,,,,,,,,,,,,,,,,,,,,,,,,,,,,,,,,,,,,,,,,,,,,,,,,,,,,,,,,,,,,,,,,,,,,,,,,,,,,
5e9b0ac83abad80009e61116,2023-11-24_04h33.54.180,kallum_motion_pilot,2023.1.2,Win32,74.95128167,5e9b0ac83abad80009e61116,656018846682f3df8008bb8f,6560197580e5660b5d4cb1ed,0,70,70,69,1,threefour,,,,,,,,,,,,,,,,,,,,,,,,,,,,,,,,,,,,,,,,,,,,,,,,,,,,,,,,,,,,,,,,,,,,,,,,,,,,,,,,,,,,,
5e9b0ac83abad80009e61116,2023-11-24_04h33.54.180,kallum_motion_pilot,2023.1.2,Win32,74.95128167,5e9b0ac83abad80009e61116,656018846682f3df8008bb8f,6560197580e5660b5d4cb1ed,0,71,71,161,1,fiveseven,,,,,,,,,,,,,,,,,,,,,,,,,,,,,,,,,,,,,,,,,,,,,,,,,,,,,,,,,,,,,,,,,,,,,,,,,,,,,,,,,,,,,
5e9b0ac83abad80009e61116,2023-11-24_04h33.54.180,kallum_motion_pilot,2023.1.2,Win32,74.95128167,5e9b0ac83abad80009e61116,656018846682f3df8008bb8f,6560197580e5660b5d4cb1ed,0,72,72,145,1,fiveseven,,,,,,,,,,,,,,,,,,,,,,,,,,,,,,,,,,,,,,,,,,,,,,,,,,,,,,,,,,,,,,,,,,,,,,,,,,,,,,,,,,,,,
5e9b0ac83abad80009e61116,2023-11-24_04h33.54.180,kallum_motion_pilot,2023.1.2,Win32,74.95128167,5e9b0ac83abad80009e61116,656018846682f3df8008bb8f,6560197580e5660b5d4cb1ed,0,73,73,87,1,eightseven,,,,,,,,,,,,,,,,,,,,,,,,,,,,,,,,,,,,,,,,,,,,,,,,,,,,,,,,,,,,,,,,,,,,,,,,,,,,,,,,,,,,,
5e9b0ac83abad80009e61116,2023-11-24_04h33.54.180,kallum_motion_pilot,2023.1.2,Win32,74.95128167,5e9b0ac83abad80009e61116,656018846682f3df8008bb8f,6560197580e5660b5d4cb1ed,0,74,74,48,1,onetwo,,,,,,,,,,,,,,,,,,,,,,,,,,,,,,,,,,,,,,,,,,,,,,,,,,,,,,,,,,,,,,,,,,,,,,,,,,,,,,,,,,,,,
5e9b0ac83abad80009e61116,2023-11-24_04h33.54.180,kallum_motion_pilot,2023.1.2,Win32,74.95128167,5e9b0ac83abad80009e61116,656018846682f3df8008bb8f,6560197580e5660b5d4cb1ed,0,75,75,17,1,onethree,,,,,,,,,,,,,,,,,,,,,,,,,,,,,,,,,,,,,,,,,,,,,,,,,,,,,,,,,,,,,,,,,,,,,,,,,,,,,,,,,,,,,
5e9b0ac83abad80009e61116,2023-11-24_04h33.54.180,kallum_motion_pilot,2023.1.2,Win32,74.95128167,5e9b0ac83abad80009e61116,656018846682f3df8008bb8f,6560197580e5660b5d4cb1ed,0,76,76,132,1,sevenfive,,,,,,,,,,,,,,,,,,,,,,,,,,,,,,,,,,,,,,,,,,,,,,,,,,,,,,,,,,,,,,,,,,,,,,,,,,,,,,,,,,,,,
5e9b0ac83abad80009e61116,2023-11-24_04h33.54.180,kallum_motion_pilot,2023.1.2,Win32,74.95128167,5e9b0ac83abad80009e61116,656018846682f3df8008bb8f,6560197580e5660b5d4cb1ed,0,77,77,29,1,threefour,,,,,,,,,,,,,,,,,,,,,,,,,,,,,,,,,,,,,,,,,,,,,,,,,,,,,,,,,,,,,,,,,,,,,,,,,,,,,,,,,,,,,
5e9b0ac83abad80009e61116,2023-11-24_04h33.54.180,kallum_motion_pilot,2023.1.2,Win32,74.95128167,5e9b0ac83abad80009e61116,656018846682f3df8008bb8f,6560197580e5660b5d4cb1ed,0,78,78,65,1,onethree,,,,,,,,,,,,,,,,,,,,,,,,,,,,,,,,,,,,,,,,,,,,,,,,,,,,,,,,,,,,,,,,,,,,,,,,,,,,,,,,,,,,,
5e9b0ac83abad80009e61116,2023-11-24_04h33.54.180,kallum_motion_pilot,2023.1.2,Win32,74.95128167,5e9b0ac83abad80009e61116,656018846682f3df8008bb8f,6560197580e5660b5d4cb1ed,0,79,79,80,1,fivesix,,,,,,,,,,,,,,,,,,,,,,,,,,,,,,,,,,,,,,,,,,,,,,,,,,,,,,,,,,,,,,,,,,,,,,,,,,,,,,,,,,,,,
5e9b0ac83abad80009e61116,2023-11-24_04h33.54.180,kallum_motion_pilot,2023.1.2,Win32,74.95128167,5e9b0ac83abad80009e61116,656018846682f3df8008bb8f,6560197580e5660b5d4cb1ed,0,80,80,49,1,onethree,,,,,,,,,,,,,,,,,,,,,,,,,,,,,,,,,,,,,,,,,,,,,,,,,,,,,,,,,,,,,,,,,,,,,,,,,,,,,,,,,,,,,
5e9b0ac83abad80009e61116,2023-11-24_04h33.54.180,kallum_motion_pilot,2023.1.2,Win32,74.95128167,5e9b0ac83abad80009e61116,656018846682f3df8008bb8f,6560197580e5660b5d4cb1ed,0,81,81,83,1,sixeight,,,,,,,,,,,,,,,,,,,,,,,,,,,,,,,,,,,,,,,,,,,,,,,,,,,,,,,,,,,,,,,,,,,,,,,,,,,,,,,,,,,,,
5e9b0ac83abad80009e61116,2023-11-24_04h33.54.180,kallum_motion_pilot,2023.1.2,Win32,74.95128167,5e9b0ac83abad80009e61116,656018846682f3df8008bb8f,6560197580e5660b5d4cb1ed,0,82,82,149,1,seveneight,,,,,,,,,,,,,,,,,,,,,,,,,,,,,,,,,,,,,,,,,,,,,,,,,,,,,,,,,,,,,,,,,,,,,,,,,,,,,,,,,,,,,
5e9b0ac83abad80009e61116,2023-11-24_04h33.54.180,kallum_motion_pilot,2023.1.2,Win32,74.95128167,5e9b0ac83abad80009e61116,656018846682f3df8008bb8f,6560197580e5660b5d4cb1ed,0,83,83,18,1,twoone,,,,,,,,,,,,,,,,,,,,,,,,,,,,,,,,,,,,,,,,,,,,,,,,,,,,,,,,,,,,,,,,,,,,,,,,,,,,,,,,,,,,,
5e9b0ac83abad80009e61116,2023-11-24_04h33.54.180,kallum_motion_pilot,2023.1.2,Win32,74.95128167,5e9b0ac83abad80009e61116,656018846682f3df8008bb8f,6560197580e5660b5d4cb1ed,0,84,84,40,1,onetwo,,,,,,,,,,,,,,,,,,,,,,,,,,,,,,,,,,,,,,,,,,,,,,,,,,,,,,,,,,,,,,,,,,,,,,,,,,,,,,,,,,,,,
5e9b0ac83abad80009e61116,2023-11-24_04h33.54.180,kallum_motion_pilot,2023.1.2,Win32,74.95128167,5e9b0ac83abad80009e61116,656018846682f3df8008bb8f,6560197580e5660b5d4cb1ed,0,85,85,157,1,seveneight,,,,,,,,,,,,,,,,,,,,,,,,,,,,,,,,,,,,,,,,,,,,,,,,,,,,,,,,,,,,,,,,,,,,,,,,,,,,,,,,,,,,,
5e9b0ac83abad80009e61116,2023-11-24_04h33.54.180,kallum_motion_pilot,2023.1.2,Win32,74.95128167,5e9b0ac83abad80009e61116,656018846682f3df8008bb8f,6560197580e5660b5d4cb1ed,0,86,86,148,1,sevenfive,,,,,,,,,,,,,,,,,,,,,,,,,,,,,,,,,,,,,,,,,,,,,,,,,,,,,,,,,,,,,,,,,,,,,,,,,,,,,,,,,,,,,
5e9b0ac83abad80009e61116,2023-11-24_04h33.54.180,kallum_motion_pilot,2023.1.2,Win32,74.95128167,5e9b0ac83abad80009e61116,656018846682f3df8008bb8f,6560197580e5660b5d4cb1ed,0,87,87,62,1,fourtwo,,,,,,,,,,,,,,,,,,,,,,,,,,,,,,,,,,,,,,,,,,,,,,,,,,,,,,,,,,,,,,,,,,,,,,,,,,,,,,,,,,,,,
5e9b0ac83abad80009e61116,2023-11-24_04h33.54.180,kallum_motion_pilot,2023.1.2,Win32,74.95128167,5e9b0ac83abad80009e61116,656018846682f3df8008bb8f,6560197580e5660b5d4cb1ed,0,88,88,0,1,onetwo,,,,,,,,,,,,,,,,,,,,,,,,,,,,,,,,,,,,,,,,,,,,,,,,,,,,,,,,,,,,,,,,,,,,,,,,,,,,,,,,,,,,,
5e9b0ac83abad80009e61116,2023-11-24_04h33.54.180,kallum_motion_pilot,2023.1.2,Win32,74.95128167,5e9b0ac83abad80009e61116,656018846682f3df8008bb8f,6560197580e5660b5d4cb1ed,0,89,89,10,1,twoone,,,,,,,,,,,,,,,,,,,,,,,,,,,,,,,,,,,,,,,,,,,,,,,,,,,,,,,,,,,,,,,,,,,,,,,,,,,,,,,,,,,,,
5e9b0ac83abad80009e61116,2023-11-24_04h33.54.180,kallum_motion_pilot,2023.1.2,Win32,74.95128167,5e9b0ac83abad80009e61116,656018846682f3df8008bb8f,6560197580e5660b5d4cb1ed,0,90,90,107,1,sixeight,,,,,,,,,,,,,,,,,,,,,,,,,,,,,,,,,,,,,,,,,,,,,,,,,,,,,,,,,,,,,,,,,,,,,,,,,,,,,,,,,,,,,
5e9b0ac83abad80009e61116,2023-11-24_04h33.54.180,kallum_motion_pilot,2023.1.2,Win32,74.95128167,5e9b0ac83abad80009e61116,656018846682f3df8008bb8f,6560197580e5660b5d4cb1ed,0,91,91,9,1,onethree,,,,,,,,,,,,,,,,,,,,,,,,,,,,,,,,,,,,,,,,,,,,,,,,,,,,,,,,,,,,,,,,,,,,,,,,,,,,,,,,,,,,,
5e9b0ac83abad80009e61116,2023-11-24_04h33.54.180,kallum_motion_pilot,2023.1.2,Win32,74.95128167,5e9b0ac83abad80009e61116,656018846682f3df8008bb8f,6560197580e5660b5d4cb1ed,0,92,92,146,1,sixfive,,,,,,,,,,,,,,,,,,,,,,,,,,,,,,,,,,,,,,,,,,,,,,,,,,,,,,,,,,,,,,,,,,,,,,,,,,,,,,,,,,,,,
5e9b0ac83abad80009e61116,2023-11-24_04h33.54.180,kallum_motion_pilot,2023.1.2,Win32,74.95128167,5e9b0ac83abad80009e61116,656018846682f3df8008bb8f,6560197580e5660b5d4cb1ed,0,93,93,11,1,twofour,,,,,,,,,,,,,,,,,,,,,,,,,,,,,,,,,,,,,,,,,,,,,,,,,,,,,,,,,,,,,,,,,,,,,,,,,,,,,,,,,,,,,
5e9b0ac83abad80009e61116,2023-11-24_04h33.54.180,kallum_motion_pilot,2023.1.2,Win32,74.95128167,5e9b0ac83abad80009e61116,656018846682f3df8008bb8f,6560197580e5660b5d4cb1ed,0,94,94,108,1,sevenfive,,,,,,,,,,,,,,,,,,,,,,,,,,,,,,,,,,,,,,,,,,,,,,,,,,,,,,,,,,,,,,,,,,,,,,,,,,,,,,,,,,,,,
5e9b0ac83abad80009e61116,2023-11-24_04h33.54.180,kallum_motion_pilot,2023.1.2,Win32,74.95128167,5e9b0ac83abad80009e61116,656018846682f3df8008bb8f,6560197580e5660b5d4cb1ed,0,95,95,6,1,fourtwo,,,,,,,,,,,,,,,,,,,,,,,,,,,,,,,,,,,,,,,,,,,,,,,,,,,,,,,,,,,,,,,,,,,,,,,,,,,,,,,,,,,,,
5e9b0ac83abad80009e61116,2023-11-24_04h33.54.180,kallum_motion_pilot,2023.1.2,Win32,74.95128167,5e9b0ac83abad80009e61116,656018846682f3df8008bb8f,6560197580e5660b5d4cb1ed,0,96,96,2,1,twoone,,,,,,,,,,,,,,,,,,,,,,,,,,,,,,,,,,,,,,,,,,,,,,,,,,,,,,,,,,,,,,,,,,,,,,,,,,,,,,,,,,,,,
5e9b0ac83abad80009e61116,2023-11-24_04h33.54.180,kallum_motion_pilot,2023.1.2,Win32,74.95128167,5e9b0ac83abad80009e61116,656018846682f3df8008bb8f,6560197580e5660b5d4cb1ed,0,97,97,54,1,fourtwo,,,,,,,,,,,,,,,,,,,,,,,,,,,,,,,,,,,,,,,,,,,,,,,,,,,,,,,,,,,,,,,,,,,,,,,,,,,,,,,,,,,,,
5e9b0ac83abad80009e61116,2023-11-24_04h33.54.180,kallum_motion_pilot,2023.1.2,Win32,74.95128167,5e9b0ac83abad80009e61116,656018846682f3df8008bb8f,6560197580e5660b5d4cb1ed,0,98,98,53,1,threefour,,,,,,,,,,,,,,,,,,,,,,,,,,,,,,,,,,,,,,,,,,,,,,,,,,,,,,,,,,,,,,,,,,,,,,,,,,,,,,,,,,,,,
5e9b0ac83abad80009e61116,2023-11-24_04h33.54.180,kallum_motion_pilot,2023.1.2,Win32,74.95128167,5e9b0ac83abad80009e61116,656018846682f3df8008bb8f,6560197580e5660b5d4cb1ed,0,99,99,33,1,onethree,,,,,,,,,,,,,,,,,,,,,,,,,,,,,,,,,,,,,,,,,,,,,,,,,,,,,,,,,,,,,,,,,,,,,,,,,,,,,,,,,,,,,
5e9b0ac83abad80009e61116,2023-11-24_04h33.54.180,kallum_motion_pilot,2023.1.2,Win32,74.95128167,5e9b0ac83abad80009e61116,656018846682f3df8008bb8f,6560197580e5660b5d4cb1ed,0,100,100,131,1,sixeight,,,,,,,,,,,,,,,,,,,,,,,,,,,,,,,,,,,,,,,,,,,,,,,,,,,,,,,,,,,,,,,,,,,,,,,,,,,,,,,,,,,,,
5e9b0ac83abad80009e61116,2023-11-24_04h33.54.180,kallum_motion_pilot,2023.1.2,Win32,74.95128167,5e9b0ac83abad80009e61116,656018846682f3df8008bb8f,6560197580e5660b5d4cb1ed,0,101,101,70,1,fourtwo,,,,,,,,,,,,,,,,,,,,,,,,,,,,,,,,,,,,,,,,,,,,,,,,,,,,,,,,,,,,,,,,,,,,,,,,,,,,,,,,,,,,,
5e9b0ac83abad80009e61116,2023-11-24_04h33.54.180,kallum_motion_pilot,2023.1.2,Win32,74.95128167,5e9b0ac83abad80009e61116,656018846682f3df8008bb8f,6560197580e5660b5d4cb1ed,0,102,102,34,1,twoone,,,,,,,,,,,,,,,,,,,,,,,,,,,,,,,,,,,,,,,,,,,,,,,,,,,,,,,,,,,,,,,,,,,,,,,,,,,,,,,,,,,,,
5e9b0ac83abad80009e61116,2023-11-24_04h33.54.180,kallum_motion_pilot,2023.1.2,Win32,74.95128167,5e9b0ac83abad80009e61116,656018846682f3df8008bb8f,6560197580e5660b5d4cb1ed,0,103,103,1,1,onethree,,,,,,,,,,,,,,,,,,,,,,,,,,,,,,,,,,,,,,,,,,,,,,,,,,,,,,,,,,,,,,,,,,,,,,,,,,,,,,,,,,,,,
5e9b0ac83abad80009e61116,2023-11-24_04h33.54.180,kallum_motion_pilot,2023.1.2,Win32,74.95128167,5e9b0ac83abad80009e61116,656018846682f3df8008bb8f,6560197580e5660b5d4cb1ed,0,104,104,133,1,seveneight,,,,,,,,,,,,,,,,,,,,,,,,,,,,,,,,,,,,,,,,,,,,,,,,,,,,,,,,,,,,,,,,,,,,,,,,,,,,,,,,,,,,,
5e9b0ac83abad80009e61116,2023-11-24_04h33.54.180,kallum_motion_pilot,2023.1.2,Win32,74.95128167,5e9b0ac83abad80009e61116,656018846682f3df8008bb8f,6560197580e5660b5d4cb1ed,0,105,105,138,1,sixfive,,,,,,,,,,,,,,,,,,,,,,,,,,,,,,,,,,,,,,,,,,,,,,,,,,,,,,,,,,,,,,,,,,,,,,,,,,,,,,,,,,,,,
5e9b0ac83abad80009e61116,2023-11-24_04h33.54.180,kallum_motion_pilot,2023.1.2,Win32,74.95128167,5e9b0ac83abad80009e61116,656018846682f3df8008bb8f,6560197580e5660b5d4cb1ed,0,106,106,12,1,threeone,,,,,,,,,,,,,,,,,,,,,,,,,,,,,,,,,,,,,,,,,,,,,,,,,,,,,,,,,,,,,,,,,,,,,,,,,,,,,,,,,,,,,
5e9b0ac83abad80009e61116,2023-11-24_04h33.54.180,kallum_motion_pilot,2023.1.2,Win32,74.95128167,5e9b0ac83abad80009e61116,656018846682f3df8008bb8f,6560197580e5660b5d4cb1ed,0,107,107,43,1,twofour,,,,,,,,,,,,,,,,,,,,,,,,,,,,,,,,,,,,,,,,,,,,,,,,,,,,,,,,,,,,,,,,,,,,,,,,,,,,,,,,,,,,,
5e9b0ac83abad80009e61116,2023-11-24_04h33.54.180,kallum_motion_pilot,2023.1.2,Win32,74.95128167,5e9b0ac83abad80009e61116,656018846682f3df8008bb8f,6560197580e5660b5d4cb1ed,0,108,108,153,1,fiveseven,,,,,,,,,,,,,,,,,,,,,,,,,,,,,,,,,,,,,,,,,,,,,,,,,,,,,,,,,,,,,,,,,,,,,,,,,,,,,,,,,,,,,
5e9b0ac83abad80009e61116,2023-11-24_04h33.54.180,kallum_motion_pilot,2023.1.2,Win32,74.95128167,5e9b0ac83abad80009e61116,656018846682f3df8008bb8f,6560197580e5660b5d4cb1ed,0,109,109,36,1,threeone,,,,,,,,,,,,,,,,,,,,,,,,,,,,,,,,,,,,,,,,,,,,,,,,,,,,,,,,,,,,,,,,,,,,,,,,,,,,,,,,,,,,,
5e9b0ac83abad80009e61116,2023-11-24_04h33.54.180,kallum_motion_pilot,2023.1.2,Win32,74.95128167,5e9b0ac83abad80009e61116,656018846682f3df8008bb8f,6560197580e5660b5d4cb1ed,0,110,110,156,1,sevenfive,,,,,,,,,,,,,,,,,,,,,,,,,,,,,,,,,,,,,,,,,,,,,,,,,,,,,,,,,,,,,,,,,,,,,,,,,,,,,,,,,,,,,
5e9b0ac83abad80009e61116,2023-11-24_04h33.54.180,kallum_motion_pilot,2023.1.2,Win32,74.95128167,5e9b0ac83abad80009e61116,656018846682f3df8008bb8f,6560197580e5660b5d4cb1ed,0,111,111,88,1,fivesix,,,,,,,,,,,,,,,,,,,,,,,,,,,,,,,,,,,,,,,,,,,,,,,,,,,,,,,,,,,,,,,,,,,,,,,,,,,,,,,,,,,,,
5e9b0ac83abad80009e61116,2023-11-24_04h33.54.180,kallum_motion_pilot,2023.1.2,Win32,74.95128167,5e9b0ac83abad80009e61116,656018846682f3df8008bb8f,6560197580e5660b5d4cb1ed,0,112,112,116,1,sevenfive,,,,,,,,,,,,,,,,,,,,,,,,,,,,,,,,,,,,,,,,,,,,,,,,,,,,,,,,,,,,,,,,,,,,,,,,,,,,,,,,,,,,,
5e9b0ac83abad80009e61116,2023-11-24_04h33.54.180,kallum_motion_pilot,2023.1.2,Win32,74.95128167,5e9b0ac83abad80009e61116,656018846682f3df8008bb8f,6560197580e5660b5d4cb1ed,0,113,113,114,1,sixfive,,,,,,,,,,,,,,,,,,,,,,,,,,,,,,,,,,,,,,,,,,,,,,,,,,,,,,,,,,,,,,,,,,,,,,,,,,,,,,,,,,,,,
5e9b0ac83abad80009e61116,2023-11-24_04h33.54.180,kallum_motion_pilot,2023.1.2,Win32,74.95128167,5e9b0ac83abad80009e61116,656018846682f3df8008bb8f,6560197580e5660b5d4cb1ed,0,114,114,90,1,sixfive,,,,,,,,,,,,,,,,,,,,,,,,,,,,,,,,,,,,,,,,,,,,,,,,,,,,,,,,,,,,,,,,,,,,,,,,,,,,,,,,,,,,,
5e9b0ac83abad80009e61116,2023-11-24_04h33.54.180,kallum_motion_pilot,2023.1.2,Win32,74.95128167,5e9b0ac83abad80009e61116,656018846682f3df8008bb8f,6560197580e5660b5d4cb1ed,0,115,115,35,1,twofour,,,,,,,,,,,,,,,,,,,,,,,,,,,,,,,,,,,,,,,,,,,,,,,,,,,,,,,,,,,,,,,,,,,,,,,,,,,,,,,,,,,,,
5e9b0ac83abad80009e61116,2023-11-24_04h33.54.180,kallum_motion_pilot,2023.1.2,Win32,74.95128167,5e9b0ac83abad80009e61116,656018846682f3df8008bb8f,6560197580e5660b5d4cb1ed,0,116,116,119,1,eightseven,,,,,,,,,,,,,,,,,,,,,,,,,,,,,,,,,,,,,,,,,,,,,,,,,,,,,,,,,,,,,,,,,,,,,,,,,,,,,,,,,,,,,
5e9b0ac83abad80009e61116,2023-11-24_04h33.54.180,kallum_motion_pilot,2023.1.2,Win32,74.95128167,5e9b0ac83abad80009e61116,656018846682f3df8008bb8f,6560197580e5660b5d4cb1ed,0,117,117,28,1,threeone,,,,,,,,,,,,,,,,,,,,,,,,,,,,,,,,,,,,,,,,,,,,,,,,,,,,,,,,,,,,,,,,,,,,,,,,,,,,,,,,,,,,,
5e9b0ac83abad80009e61116,2023-11-24_04h33.54.180,kallum_motion_pilot,2023.1.2,Win32,74.95128167,5e9b0ac83abad80009e61116,656018846682f3df8008bb8f,6560197580e5660b5d4cb1ed,0,118,118,68,1,threeone,,,,,,,,,,,,,,,,,,,,,,,,,,,,,,,,,,,,,,,,,,,,,,,,,,,,,,,,,,,,,,,,,,,,,,,,,,,,,,,,,,,,,
5e9b0ac83abad80009e61116,2023-11-24_04h33.54.180,kallum_motion_pilot,2023.1.2,Win32,74.95128167,5e9b0ac83abad80009e61116,656018846682f3df8008bb8f,6560197580e5660b5d4cb1ed,0,119,119,130,1,sixfive,,,,,,,,,,,,,,,,,,,,,,,,,,,,,,,,,,,,,,,,,,,,,,,,,,,,,,,,,,,,,,,,,,,,,,,,,,,,,,,,,,,,,
5e9b0ac83abad80009e61116,2023-11-24_04h33.54.180,kallum_motion_pilot,2023.1.2,Win32,74.95128167,5e9b0ac83abad80009e61116,656018846682f3df8008bb8f,6560197580e5660b5d4cb1ed,0,120,120,58,1,twoone,,,,,,,,,,,,,,,,,,,,,,,,,,,,,,,,,,,,,,,,,,,,,,,,,,,,,,,,,,,,,,,,,,,,,,,,,,,,,,,,,,,,,
5e9b0ac83abad80009e61116,2023-11-24_04h33.54.180,kallum_motion_pilot,2023.1.2,Win32,74.95128167,5e9b0ac83abad80009e61116,656018846682f3df8008bb8f,6560197580e5660b5d4cb1ed,0,121,121,75,1,twofour,,,,,,,,,,,,,,,,,,,,,,,,,,,,,,,,,,,,,,,,,,,,,,,,,,,,,,,,,,,,,,,,,,,,,,,,,,,,,,,,,,,,,
5e9b0ac83abad80009e61116,2023-11-24_04h33.54.180,kallum_motion_pilot,2023.1.2,Win32,74.95128167,5e9b0ac83abad80009e61116,656018846682f3df8008bb8f,6560197580e5660b5d4cb1ed,0,122,122,159,1,eightseven,,,,,,,,,,,,,,,,,,,,,,,,,,,,,,,,,,,,,,,,,,,,,,,,,,,,,,,,,,,,,,,,,,,,,,,,,,,,,,,,,,,,,
5e9b0ac83abad80009e61116,2023-11-24_04h33.54.180,kallum_motion_pilot,2023.1.2,Win32,74.95128167,5e9b0ac83abad80009e61116,656018846682f3df8008bb8f,6560197580e5660b5d4cb1ed,0,123,123,19,1,twofour,,,,,,,,,,,,,,,,,,,,,,,,,,,,,,,,,,,,,,,,,,,,,,,,,,,,,,,,,,,,,,,,,,,,,,,,,,,,,,,,,,,,,
5e9b0ac83abad80009e61116,2023-11-24_04h33.54.180,kallum_motion_pilot,2023.1.2,Win32,74.95128167,5e9b0ac83abad80009e61116,656018846682f3df8008bb8f,6560197580e5660b5d4cb1ed,0,124,124,42,1,twoone,,,,,,,,,,,,,,,,,,,,,,,,,,,,,,,,,,,,,,,,,,,,,,,,,,,,,,,,,,,,,,,,,,,,,,,,,,,,,,,,,,,,,
5e9b0ac83abad80009e61116,2023-11-24_04h33.54.180,kallum_motion_pilot,2023.1.2,Win32,74.95128167,5e9b0ac83abad80009e61116,656018846682f3df8008bb8f,6560197580e5660b5d4cb1ed,0,125,125,158,1,eightsix,,,,,,,,,,,,,,,,,,,,,,,,,,,,,,,,,,,,,,,,,,,,,,,,,,,,,,,,,,,,,,,,,,,,,,,,,,,,,,,,,,,,,
5e9b0ac83abad80009e61116,2023-11-24_04h33.54.180,kallum_motion_pilot,2023.1.2,Win32,74.95128167,5e9b0ac83abad80009e61116,656018846682f3df8008bb8f,6560197580e5660b5d4cb1ed,0,126,126,154,1,sixfive,,,,,,,,,,,,,,,,,,,,,,,,,,,,,,,,,,,,,,,,,,,,,,,,,,,,,,,,,,,,,,,,,,,,,,,,,,,,,,,,,,,,,
5e9b0ac83abad80009e61116,2023-11-24_04h33.54.180,kallum_motion_pilot,2023.1.2,Win32,74.95128167,5e9b0ac83abad80009e61116,656018846682f3df8008bb8f,6560197580e5660b5d4cb1ed,0,127,127,76,1,threeone,,,,,,,,,,,,,,,,,,,,,,,,,,,,,,,,,,,,,,,,,,,,,,,,,,,,,,,,,,,,,,,,,,,,,,,,,,,,,,,,,,,,,
5e9b0ac83abad80009e61116,2023-11-24_04h33.54.180,kallum_motion_pilot,2023.1.2,Win32,74.95128167,5e9b0ac83abad80009e61116,656018846682f3df8008bb8f,6560197580e5660b5d4cb1ed,0,128,128,72,1,onetwo,,,,,,,,,,,,,,,,,,,,,,,,,,,,,,,,,,,,,,,,,,,,,,,,,,,,,,,,,,,,,,,,,,,,,,,,,,,,,,,,,,,,,
5e9b0ac83abad80009e61116,2023-11-24_04h33.54.180,kallum_motion_pilot,2023.1.2,Win32,74.95128167,5e9b0ac83abad80009e61116,656018846682f3df8008bb8f,6560197580e5660b5d4cb1ed,0,129,129,13,1,threefour,,,,,,,,,,,,,,,,,,,,,,,,,,,,,,,,,,,,,,,,,,,,,,,,,,,,,,,,,,,,,,,,,,,,,,,,,,,,,,,,,,,,,
5e9b0ac83abad80009e61116,2023-11-24_04h33.54.180,kallum_motion_pilot,2023.1.2,Win32,74.95128167,5e9b0ac83abad80009e61116,656018846682f3df8008bb8f,6560197580e5660b5d4cb1ed,0,130,130,136,1,fivesix,,,,,,,,,,,,,,,,,,,,,,,,,,,,,,,,,,,,,,,,,,,,,,,,,,,,,,,,,,,,,,,,,,,,,,,,,,,,,,,,,,,,,
5e9b0ac83abad80009e61116,2023-11-24_04h33.54.180,kallum_motion_pilot,2023.1.2,Win32,74.95128167,5e9b0ac83abad80009e61116,656018846682f3df8008bb8f,6560197580e5660b5d4cb1ed,0,131,131,91,1,sixeight,,,,,,,,,,,,,,,,,,,,,,,,,,,,,,,,,,,,,,,,,,,,,,,,,,,,,,,,,,,,,,,,,,,,,,,,,,,,,,,,,,,,,
5e9b0ac83abad80009e61116,2023-11-24_04h33.54.180,kallum_motion_pilot,2023.1.2,Win32,74.95128167,5e9b0ac83abad80009e61116,656018846682f3df8008bb8f,6560197580e5660b5d4cb1ed,0,132,132,56,1,onetwo,,,,,,,,,,,,,,,,,,,,,,,,,,,,,,,,,,,,,,,,,,,,,,,,,,,,,,,,,,,,,,,,,,,,,,,,,,,,,,,,,,,,,
5e9b0ac83abad80009e61116,2023-11-24_04h33.54.180,kallum_motion_pilot,2023.1.2,Win32,74.95128167,5e9b0ac83abad80009e61116,656018846682f3df8008bb8f,6560197580e5660b5d4cb1ed,0,133,133,117,1,seveneight,,,,,,,,,,,,,,,,,,,,,,,,,,,,,,,,,,,,,,,,,,,,,,,,,,,,,,,,,,,,,,,,,,,,,,,,,,,,,,,,,,,,,
5e9b0ac83abad80009e61116,2023-11-24_04h33.54.180,kallum_motion_pilot,2023.1.2,Win32,74.95128167,5e9b0ac83abad80009e61116,656018846682f3df8008bb8f,6560197580e5660b5d4cb1ed,0,134,134,125,1,seveneight,,,,,,,,,,,,,,,,,,,,,,,,,,,,,,,,,,,,,,,,,,,,,,,,,,,,,,,,,,,,,,,,,,,,,,,,,,,,,,,,,,,,,
5e9b0ac83abad80009e61116,2023-11-24_04h33.54.180,kallum_motion_pilot,2023.1.2,Win32,74.95128167,5e9b0ac83abad80009e61116,656018846682f3df8008bb8f,6560197580e5660b5d4cb1ed,0,135,135,150,1,eightsix,,,,,,,,,,,,,,,,,,,,,,,,,,,,,,,,,,,,,,,,,,,,,,,,,,,,,,,,,,,,,,,,,,,,,,,,,,,,,,,,,,,,,
5e9b0ac83abad80009e61116,2023-11-24_04h33.54.180,kallum_motion_pilot,2023.1.2,Win32,74.95128167,5e9b0ac83abad80009e61116,656018846682f3df8008bb8f,6560197580e5660b5d4cb1ed,0,136,136,81,1,fiveseven,,,,,,,,,,,,,,,,,,,,,,,,,,,,,,,,,,,,,,,,,,,,,,,,,,,,,,,,,,,,,,,,,,,,,,,,,,,,,,,,,,,,,
5e9b0ac83abad80009e61116,2023-11-24_04h33.54.180,kallum_motion_pilot,2023.1.2,Win32,74.95128167,5e9b0ac83abad80009e61116,656018846682f3df8008bb8f,6560197580e5660b5d4cb1ed,0,137,137,67,1,twofour,,,,,,,,,,,,,,,,,,,,,,,,,,,,,,,,,,,,,,,,,,,,,,,,,,,,,,,,,,,,,,,,,,,,,,,,,,,,,,,,,,,,,
5e9b0ac83abad80009e61116,2023-11-24_04h33.54.180,kallum_motion_pilot,2023.1.2,Win32,74.95128167,5e9b0ac83abad80009e61116,656018846682f3df8008bb8f,6560197580e5660b5d4cb1ed,0,138,138,52,1,threeone,,,,,,,,,,,,,,,,,,,,,,,,,,,,,,,,,,,,,,,,,,,,,,,,,,,,,,,,,,,,,,,,,,,,,,,,,,,,,,,,,,,,,
5e9b0ac83abad80009e61116,2023-11-24_04h33.54.180,kallum_motion_pilot,2023.1.2,Win32,74.95128167,5e9b0ac83abad80009e61116,656018846682f3df8008bb8f,6560197580e5660b5d4cb1ed,0,139,139,44,1,threeone,,,,,,,,,,,,,,,,,,,,,,,,,,,,,,,,,,,,,,,,,,,,,,,,,,,,,,,,,,,,,,,,,,,,,,,,,,,,,,,,,,,,,
5e9b0ac83abad80009e61116,2023-11-24_04h33.54.180,kallum_motion_pilot,2023.1.2,Win32,74.95128167,5e9b0ac83abad80009e61116,656018846682f3df8008bb8f,6560197580e5660b5d4cb1ed,0,140,140,141,1,seveneight,,,,,,,,,,,,,,,,,,,,,,,,,,,,,,,,,,,,,,,,,,,,,,,,,,,,,,,,,,,,,,,,,,,,,,,,,,,,,,,,,,,,,
5e9b0ac83abad80009e61116,2023-11-24_04h33.54.180,kallum_motion_pilot,2023.1.2,Win32,74.95128167,5e9b0ac83abad80009e61116,656018846682f3df8008bb8f,6560197580e5660b5d4cb1ed,0,141,141,86,1,eightsix,,,,,,,,,,,,,,,,,,,,,,,,,,,,,,,,,,,,,,,,,,,,,,,,,,,,,,,,,,,,,,,,,,,,,,,,,,,,,,,,,,,,,
5e9b0ac83abad80009e61116,2023-11-24_04h33.54.180,kallum_motion_pilot,2023.1.2,Win32,74.95128167,5e9b0ac83abad80009e61116,656018846682f3df8008bb8f,6560197580e5660b5d4cb1ed,0,142,142,123,1,sixeight,,,,,,,,,,,,,,,,,,,,,,,,,,,,,,,,,,,,,,,,,,,,,,,,,,,,,,,,,,,,,,,,,,,,,,,,,,,,,,,,,,,,,
5e9b0ac83abad80009e61116,2023-11-24_04h33.54.180,kallum_motion_pilot,2023.1.2,Win32,74.95128167,5e9b0ac83abad80009e61116,656018846682f3df8008bb8f,6560197580e5660b5d4cb1ed,0,143,143,95,1,eightseven,,,,,,,,,,,,,,,,,,,,,,,,,,,,,,,,,,,,,,,,,,,,,,,,,,,,,,,,,,,,,,,,,,,,,,,,,,,,,,,,,,,,,
5e9b0ac83abad80009e61116,2023-11-24_04h33.54.180,kallum_motion_pilot,2023.1.2,Win32,74.95128167,5e9b0ac83abad80009e61116,656018846682f3df8008bb8f,6560197580e5660b5d4cb1ed,0,144,144,142,1,eightsix,,,,,,,,,,,,,,,,,,,,,,,,,,,,,,,,,,,,,,,,,,,,,,,,,,,,,,,,,,,,,,,,,,,,,,,,,,,,,,,,,,,,,
5e9b0ac83abad80009e61116,2023-11-24_04h33.54.180,kallum_motion_pilot,2023.1.2,Win32,74.95128167,5e9b0ac83abad80009e61116,656018846682f3df8008bb8f,6560197580e5660b5d4cb1ed,0,145,145,143,1,eightseven,,,,,,,,,,,,,,,,,,,,,,,,,,,,,,,,,,,,,,,,,,,,,,,,,,,,,,,,,,,,,,,,,,,,,,,,,,,,,,,,,,,,,
5e9b0ac83abad80009e61116,2023-11-24_04h33.54.180,kallum_motion_pilot,2023.1.2,Win32,74.95128167,5e9b0ac83abad80009e61116,656018846682f3df8008bb8f,6560197580e5660b5d4cb1ed,0,146,146,71,1,fourthree,,,,,,,,,,,,,,,,,,,,,,,,,,,,,,,,,,,,,,,,,,,,,,,,,,,,,,,,,,,,,,,,,,,,,,,,,,,,,,,,,,,,,
5e9b0ac83abad80009e61116,2023-11-24_04h33.54.180,kallum_motion_pilot,2023.1.2,Win32,74.95128167,5e9b0ac83abad80009e61116,656018846682f3df8008bb8f,6560197580e5660b5d4cb1ed,0,147,147,102,1,eightsix,,,,,,,,,,,,,,,,,,,,,,,,,,,,,,,,,,,,,,,,,,,,,,,,,,,,,,,,,,,,,,,,,,,,,,,,,,,,,,,,,,,,,
5e9b0ac83abad80009e61116,2023-11-24_04h33.54.180,kallum_motion_pilot,2023.1.2,Win32,74.95128167,5e9b0ac83abad80009e61116,656018846682f3df8008bb8f,6560197580e5660b5d4cb1ed,0,148,148,4,1,threeone,,,,,,,,,,,,,,,,,,,,,,,,,,,,,,,,,,,,,,,,,,,,,,,,,,,,,,,,,,,,,,,,,,,,,,,,,,,,,,,,,,,,,
5e9b0ac83abad80009e61116,2023-11-24_04h33.54.180,kallum_motion_pilot,2023.1.2,Win32,74.95128167,5e9b0ac83abad80009e61116,656018846682f3df8008bb8f,6560197580e5660b5d4cb1ed,0,149,149,14,1,fourtwo,,,,,,,,,,,,,,,,,,,,,,,,,,,,,,,,,,,,,,,,,,,,,,,,,,,,,,,,,,,,,,,,,,,,,,,,,,,,,,,,,,,,,
5e9b0ac83abad80009e61116,2023-11-24_04h33.54.180,kallum_motion_pilot,2023.1.2,Win32,74.95128167,5e9b0ac83abad80009e61116,656018846682f3df8008bb8f,6560197580e5660b5d4cb1ed,0,150,150,63,1,fourthree,,,,,,,,,,,,,,,,,,,,,,,,,,,,,,,,,,,,,,,,,,,,,,,,,,,,,,,,,,,,,,,,,,,,,,,,,,,,,,,,,,,,,
5e9b0ac83abad80009e61116,2023-11-24_04h33.54.180,kallum_motion_pilot,2023.1.2,Win32,74.95128167,5e9b0ac83abad80009e61116,656018846682f3df8008bb8f,6560197580e5660b5d4cb1ed,0,151,151,105,1,fiveseven,,,,,,,,,,,,,,,,,,,,,,,,,,,,,,,,,,,,,,,,,,,,,,,,,,,,,,,,,,,,,,,,,,,,,,,,,,,,,,,,,,,,,
5e9b0ac83abad80009e61116,2023-11-24_04h33.54.180,kallum_motion_pilot,2023.1.2,Win32,74.95128167,5e9b0ac83abad80009e61116,656018846682f3df8008bb8f,6560197580e5660b5d4cb1ed,0,152,152,60,1,threeone,,,,,,,,,,,,,,,,,,,,,,,,,,,,,,,,,,,,,,,,,,,,,,,,,,,,,,,,,,,,,,,,,,,,,,,,,,,,,,,,,,,,,
5e9b0ac83abad80009e61116,2023-11-24_04h33.54.180,kallum_motion_pilot,2023.1.2,Win32,74.95128167,5e9b0ac83abad80009e61116,656018846682f3df8008bb8f,6560197580e5660b5d4cb1ed,0,153,153,128,1,fivesix,,,,,,,,,,,,,,,,,,,,,,,,,,,,,,,,,,,,,,,,,,,,,,,,,,,,,,,,,,,,,,,,,,,,,,,,,,,,,,,,,,,,,
5e9b0ac83abad80009e61116,2023-11-24_04h33.54.180,kallum_motion_pilot,2023.1.2,Win32,74.95128167,5e9b0ac83abad80009e61116,656018846682f3df8008bb8f,6560197580e5660b5d4cb1ed,0,154,154,64,1,onetwo,,,,,,,,,,,,,,,,,,,,,,,,,,,,,,,,,,,,,,,,,,,,,,,,,,,,,,,,,,,,,,,,,,,,,,,,,,,,,,,,,,,,,
5e9b0ac83abad80009e61116,2023-11-24_04h33.54.180,kallum_motion_pilot,2023.1.2,Win32,74.95128167,5e9b0ac83abad80009e61116,656018846682f3df8008bb8f,6560197580e5660b5d4cb1ed,0,155,155,37,1,threefour,,,,,,,,,,,,,,,,,,,,,,,,,,,,,,,,,,,,,,,,,,,,,,,,,,,,,,,,,,,,,,,,,,,,,,,,,,,,,,,,,,,,,
5e9b0ac83abad80009e61116,2023-11-24_04h33.54.180,kallum_motion_pilot,2023.1.2,Win32,74.95128167,5e9b0ac83abad80009e61116,656018846682f3df8008bb8f,6560197580e5660b5d4cb1ed,0,156,156,3,1,twofour,,,,,,,,,,,,,,,,,,,,,,,,,,,,,,,,,,,,,,,,,,,,,,,,,,,,,,,,,,,,,,,,,,,,,,,,,,,,,,,,,,,,,
5e9b0ac83abad80009e61116,2023-11-24_04h33.54.180,kallum_motion_pilot,2023.1.2,Win32,74.95128167,5e9b0ac83abad80009e61116,656018846682f3df8008bb8f,6560197580e5660b5d4cb1ed,0,157,157,155,1,sixeight,,,,,,,,,,,,,,,,,,,,,,,,,,,,,,,,,,,,,,,,,,,,,,,,,,,,,,,,,,,,,,,,,,,,,,,,,,,,,,,,,,,,,
5e9b0ac83abad80009e61116,2023-11-24_04h33.54.180,kallum_motion_pilot,2023.1.2,Win32,74.95128167,5e9b0ac83abad80009e61116,656018846682f3df8008bb8f,6560197580e5660b5d4cb1ed,0,158,158,15,1,fourthree,,,,,,,,,,,,,,,,,,,,,,,,,,,,,,,,,,,,,,,,,,,,,,,,,,,,,,,,,,,,,,,,,,,,,,,,,,,,,,,,,,,,,
5e9b0ac83abad80009e61116,2023-11-24_04h33.54.180,kallum_motion_pilot,2023.1.2,Win32,74.95128167,5e9b0ac83abad80009e61116,656018846682f3df8008bb8f,6560197580e5660b5d4cb1ed,0,159,159,7,1,fourthree,,,,,,,,,,,,,,,,,,,,,,,,,,,,,,,,,,,,,,,,,,,,,,,,,,,,,,,,,,,,,,,,,,,,,,,,,,,,,,,,,,,,,
5e9b0ac83abad80009e61116,2023-11-24_04h33.54.180,kallum_motion_pilot,2023.1.2,Win32,74.95128167,5e9b0ac83abad80009e61116,656018846682f3df8008bb8f,6560197580e5660b5d4cb1ed,0,160,160,126,1,eightsix,,,,,,,,,,,,,,,,,,,,,,,,,,,,,,,,,,,,,,,,,,,,,,,,,,,,,,,,,,,,,,,,,,,,,,,,,,,,,,,,,,,,,
5e9b0ac83abad80009e61116,2023-11-24_04h33.54.180,kallum_motion_pilot,2023.1.2,Win32,74.95128167,5e9b0ac83abad80009e61116,656018846682f3df8008bb8f,6560197580e5660b5d4cb1ed,0,161,161,115,1,sixeight,,,,,,,,,,,,,,,,,,,,,,,,,,,,,,,,,,,,,,,,,,,,,,,,,,,,,,,,,,,,,,,,,,,,,,,,,,,,,,,,,,,,,
5e9b0ac83abad80009e61116,2023-11-24_04h33.54.180,kallum_motion_pilot,2023.1.2,Win32,74.95128167,5e9b0ac83abad80009e61116,656018846682f3df8008bb8f,6560197580e5660b5d4cb1ed,1,0,162,110,1,eightsix,,,,,,,,,,,,,,,,,,,,,,,,,,,,,,,,,,,,,,,,,,,,,,,,,,,,,,,,,,,,,,,,,,,,,,,,,,,,,,,,,,,,,
5e9b0ac83abad80009e61116,2023-11-24_04h33.54.180,kallum_motion_pilot,2023.1.2,Win32,74.95128167,5e9b0ac83abad80009e61116,656018846682f3df8008bb8f,6560197580e5660b5d4cb1ed,1,1,163,84,1,sevenfive,,,,,,,,,,,,,,,,,,,,,,,,,,,,,,,,,,,,,,,,,,,,,,,,,,,,,,,,,,,,,,,,,,,,,,,,,,,,,,,,,,,,,
5e9b0ac83abad80009e61116,2023-11-24_04h33.54.180,kallum_motion_pilot,2023.1.2,Win32,74.95128167,5e9b0ac83abad80009e61116,656018846682f3df8008bb8f,6560197580e5660b5d4cb1ed,1,2,164,123,1,sixeight,,,,,,,,,,,,,,,,,,,,,,,,,,,,,,,,,,,,,,,,,,,,,,,,,,,,,,,,,,,,,,,,,,,,,,,,,,,,,,,,,,,,,
5e9b0ac83abad80009e61116,2023-11-24_04h33.54.180,kallum_motion_pilot,2023.1.2,Win32,74.95128167,5e9b0ac83abad80009e61116,656018846682f3df8008bb8f,6560197580e5660b5d4cb1ed,1,3,165,101,1,seveneight,,,,,,,,,,,,,,,,,,,,,,,,,,,,,,,,,,,,,,,,,,,,,,,,,,,,,,,,,,,,,,,,,,,,,,,,,,,,,,,,,,,,,
5e9b0ac83abad80009e61116,2023-11-24_04h33.54.180,kallum_motion_pilot,2023.1.2,Win32,74.95128167,5e9b0ac83abad80009e61116,656018846682f3df8008bb8f,6560197580e5660b5d4cb1ed,1,4,166,86,1,eightsix,,,,,,,,,,,,,,,,,,,,,,,,,,,,,,,,,,,,,,,,,,,,,,,,,,,,,,,,,,,,,,,,,,,,,,,,,,,,,,,,,,,,,
5e9b0ac83abad80009e61116,2023-11-24_04h33.54.180,kallum_motion_pilot,2023.1.2,Win32,74.95128167,5e9b0ac83abad80009e61116,656018846682f3df8008bb8f,6560197580e5660b5d4cb1ed,1,5,167,103,1,eightseven,,,,,,,,,,,,,,,,,,,,,,,,,,,,,,,,,,,,,,,,,,,,,,,,,,,,,,,,,,,,,,,,,,,,,,,,,,,,,,,,,,,,,
5e9b0ac83abad80009e61116,2023-11-24_04h33.54.180,kallum_motion_pilot,2023.1.2,Win32,74.95128167,5e9b0ac83abad80009e61116,656018846682f3df8008bb8f,6560197580e5660b5d4cb1ed,1,6,168,122,1,sixfive,,,,,,,,,,,,,,,,,,,,,,,,,,,,,,,,,,,,,,,,,,,,,,,,,,,,,,,,,,,,,,,,,,,,,,,,,,,,,,,,,,,,,
5e9b0ac83abad80009e61116,2023-11-24_04h33.54.180,kallum_motion_pilot,2023.1.2,Win32,74.95128167,5e9b0ac83abad80009e61116,656018846682f3df8008bb8f,6560197580e5660b5d4cb1ed,1,7,169,37,1,threefour,,,,,,,,,,,,,,,,,,,,,,,,,,,,,,,,,,,,,,,,,,,,,,,,,,,,,,,,,,,,,,,,,,,,,,,,,,,,,,,,,,,,,
5e9b0ac83abad80009e61116,2023-11-24_04h33.54.180,kallum_motion_pilot,2023.1.2,Win32,74.95128167,5e9b0ac83abad80009e61116,656018846682f3df8008bb8f,6560197580e5660b5d4cb1ed,1,8,170,105,1,fiveseven,,,,,,,,,,,,,,,,,,,,,,,,,,,,,,,,,,,,,,,,,,,,,,,,,,,,,,,,,,,,,,,,,,,,,,,,,,,,,,,,,,,,,
5e9b0ac83abad80009e61116,2023-11-24_04h33.54.180,kallum_motion_pilot,2023.1.2,Win32,74.95128167,5e9b0ac83abad80009e61116,656018846682f3df8008bb8f,6560197580e5660b5d4cb1ed,1,9,171,143,1,eightseven,,,,,,,,,,,,,,,,,,,,,,,,,,,,,,,,,,,,,,,,,,,,,,,,,,,,,,,,,,,,,,,,,,,,,,,,,,,,,,,,,,,,,
5e9b0ac83abad80009e61116,2023-11-24_04h33.54.180,kallum_motion_pilot,2023.1.2,Win32,74.95128167,5e9b0ac83abad80009e61116,656018846682f3df8008bb8f,6560197580e5660b5d4cb1ed,1,10,172,52,1,threeone,,,,,,,,,,,,,,,,,,,,,,,,,,,,,,,,,,,,,,,,,,,,,,,,,,,,,,,,,,,,,,,,,,,,,,,,,,,,,,,,,,,,,
5e9b0ac83abad80009e61116,2023-11-24_04h33.54.180,kallum_motion_pilot,2023.1.2,Win32,74.95128167,5e9b0ac83abad80009e61116,656018846682f3df8008bb8f,6560197580e5660b5d4cb1ed,1,11,173,79,1,eightseven,,,,,,,,,,,,,,,,,,,,,,,,,,,,,,,,,,,,,,,,,,,,,,,,,,,,,,,,,,,,,,,,,,,,,,,,,,,,,,,,,,,,,
5e9b0ac83abad80009e61116,2023-11-24_04h33.54.180,kallum_motion_pilot,2023.1.2,Win32,74.95128167,5e9b0ac83abad80009e61116,656018846682f3df8008bb8f,6560197580e5660b5d4cb1ed,1,12,174,39,1,fourthree,,,,,,,,,,,,,,,,,,,,,,,,,,,,,,,,,,,,,,,,,,,,,,,,,,,,,,,,,,,,,,,,,,,,,,,,,,,,,,,,,,,,,
5e9b0ac83abad80009e61116,2023-11-24_04h33.54.180,kallum_motion_pilot,2023.1.2,Win32,74.95128167,5e9b0ac83abad80009e61116,656018846682f3df8008bb8f,6560197580e5660b5d4cb1ed,1,13,175,144,1,fivesix,,,,,,,,,,,,,,,,,,,,,,,,,,,,,,,,,,,,,,,,,,,,,,,,,,,,,,,,,,,,,,,,,,,,,,,,,,,,,,,,,,,,,
5e9b0ac83abad80009e61116,2023-11-24_04h33.54.180,kallum_motion_pilot,2023.1.2,Win32,74.95128167,5e9b0ac83abad80009e61116,656018846682f3df8008bb8f,6560197580e5660b5d4cb1ed,1,14,176,158,1,eightsix,,,,,,,,,,,,,,,,,,,,,,,,,,,,,,,,,,,,,,,,,,,,,,,,,,,,,,,,,,,,,,,,,,,,,,,,,,,,,,,,,,,,,
5e9b0ac83abad80009e61116,2023-11-24_04h33.54.180,kallum_motion_pilot,2023.1.2,Win32,74.95128167,5e9b0ac83abad80009e61116,656018846682f3df8008bb8f,6560197580e5660b5d4cb1ed,1,15,177,136,1,fivesix,,,,,,,,,,,,,,,,,,,,,,,,,,,,,,,,,,,,,,,,,,,,,,,,,,,,,,,,,,,,,,,,,,,,,,,,,,,,,,,,,,,,,
5e9b0ac83abad80009e61116,2023-11-24_04h33.54.180,kallum_motion_pilot,2023.1.2,Win32,74.95128167,5e9b0ac83abad80009e61116,656018846682f3df8008bb8f,6560197580e5660b5d4cb1ed,1,16,178,120,1,fivesix,,,,,,,,,,,,,,,,,,,,,,,,,,,,,,,,,,,,,,,,,,,,,,,,,,,,,,,,,,,,,,,,,,,,,,,,,,,,,,,,,,,,,
5e9b0ac83abad80009e61116,2023-11-24_04h33.54.180,kallum_motion_pilot,2023.1.2,Win32,74.95128167,5e9b0ac83abad80009e61116,656018846682f3df8008bb8f,6560197580e5660b5d4cb1ed,1,17,179,128,1,fivesix,,,,,,,,,,,,,,,,,,,,,,,,,,,,,,,,,,,,,,,,,,,,,,,,,,,,,,,,,,,,,,,,,,,,,,,,,,,,,,,,,,,,,
5e9b0ac83abad80009e61116,2023-11-24_04h33.54.180,kallum_motion_pilot,2023.1.2,Win32,74.95128167,5e9b0ac83abad80009e61116,656018846682f3df8008bb8f,6560197580e5660b5d4cb1ed,1,18,180,32,1,onetwo,,,,,,,,,,,,,,,,,,,,,,,,,,,,,,,,,,,,,,,,,,,,,,,,,,,,,,,,,,,,,,,,,,,,,,,,,,,,,,,,,,,,,
5e9b0ac83abad80009e61116,2023-11-24_04h33.54.180,kallum_motion_pilot,2023.1.2,Win32,74.95128167,5e9b0ac83abad80009e61116,656018846682f3df8008bb8f,6560197580e5660b5d4cb1ed,1,19,181,150,1,eightsix,,,,,,,,,,,,,,,,,,,,,,,,,,,,,,,,,,,,,,,,,,,,,,,,,,,,,,,,,,,,,,,,,,,,,,,,,,,,,,,,,,,,,
5e9b0ac83abad80009e61116,2023-11-24_04h33.54.180,kallum_motion_pilot,2023.1.2,Win32,74.95128167,5e9b0ac83abad80009e61116,656018846682f3df8008bb8f,6560197580e5660b5d4cb1ed,1,20,182,129,1,fiveseven,,,,,,,,,,,,,,,,,,,,,,,,,,,,,,,,,,,,,,,,,,,,,,,,,,,,,,,,,,,,,,,,,,,,,,,,,,,,,,,,,,,,,
5e9b0ac83abad80009e61116,2023-11-24_04h33.54.180,kallum_motion_pilot,2023.1.2,Win32,74.95128167,5e9b0ac83abad80009e61116,656018846682f3df8008bb8f,6560197580e5660b5d4cb1ed,1,21,183,148,1,sevenfive,,,,,,,,,,,,,,,,,,,,,,,,,,,,,,,,,,,,,,,,,,,,,,,,,,,,,,,,,,,,,,,,,,,,,,,,,,,,,,,,,,,,,
5e9b0ac83abad80009e61116,2023-11-24_04h33.54.180,kallum_motion_pilot,2023.1.2,Win32,74.95128167,5e9b0ac83abad80009e61116,656018846682f3df8008bb8f,6560197580e5660b5d4cb1ed,1,22,184,3,1,twofour,,,,,,,,,,,,,,,,,,,,,,,,,,,,,,,,,,,,,,,,,,,,,,,,,,,,,,,,,,,,,,,,,,,,,,,,,,,,,,,,,,,,,
5e9b0ac83abad80009e61116,2023-11-24_04h33.54.180,kallum_motion_pilot,2023.1.2,Win32,74.95128167,5e9b0ac83abad80009e61116,656018846682f3df8008bb8f,6560197580e5660b5d4cb1ed,1,23,185,146,1,sixfive,,,,,,,,,,,,,,,,,,,,,,,,,,,,,,,,,,,,,,,,,,,,,,,,,,,,,,,,,,,,,,,,,,,,,,,,,,,,,,,,,,,,,
5e9b0ac83abad80009e61116,2023-11-24_04h33.54.180,kallum_motion_pilot,2023.1.2,Win32,74.95128167,5e9b0ac83abad80009e61116,656018846682f3df8008bb8f,6560197580e5660b5d4cb1ed,1,24,186,47,1,fourthree,,,,,,,,,,,,,,,,,,,,,,,,,,,,,,,,,,,,,,,,,,,,,,,,,,,,,,,,,,,,,,,,,,,,,,,,,,,,,,,,,,,,,
5e9b0ac83abad80009e61116,2023-11-24_04h33.54.180,kallum_motion_pilot,2023.1.2,Win32,74.95128167,5e9b0ac83abad80009e61116,656018846682f3df8008bb8f,6560197580e5660b5d4cb1ed,1,25,187,20,1,threeone,,,,,,,,,,,,,,,,,,,,,,,,,,,,,,,,,,,,,,,,,,,,,,,,,,,,,,,,,,,,,,,,,,,,,,,,,,,,,,,,,,,,,
5e9b0ac83abad80009e61116,2023-11-24_04h33.54.180,kallum_motion_pilot,2023.1.2,Win32,74.95128167,5e9b0ac83abad80009e61116,656018846682f3df8008bb8f,6560197580e5660b5d4cb1ed,1,26,188,98,1,sixfive,,,,,,,,,,,,,,,,,,,,,,,,,,,,,,,,,,,,,,,,,,,,,,,,,,,,,,,,,,,,,,,,,,,,,,,,,,,,,,,,,,,,,
5e9b0ac83abad80009e61116,2023-11-24_04h33.54.180,kallum_motion_pilot,2023.1.2,Win32,74.95128167,5e9b0ac83abad80009e61116,656018846682f3df8008bb8f,6560197580e5660b5d4cb1ed,1,27,189,78,1,fourtwo,,,,,,,,,,,,,,,,,,,,,,,,,,,,,,,,,,,,,,,,,,,,,,,,,,,,,,,,,,,,,,,,,,,,,,,,,,,,,,,,,,,,,
5e9b0ac83abad80009e61116,2023-11-24_04h33.54.180,kallum_motion_pilot,2023.1.2,Win32,74.95128167,5e9b0ac83abad80009e61116,656018846682f3df8008bb8f,6560197580e5660b5d4cb1ed,1,28,190,82,1,sixfive,,,,,,,,,,,,,,,,,,,,,,,,,,,,,,,,,,,,,,,,,,,,,,,,,,,,,,,,,,,,,,,,,,,,,,,,,,,,,,,,,,,,,
5e9b0ac83abad80009e61116,2023-11-24_04h33.54.180,kallum_motion_pilot,2023.1.2,Win32,74.95128167,5e9b0ac83abad80009e61116,656018846682f3df8008bb8f,6560197580e5660b5d4cb1ed,1,29,191,81,1,fiveseven,,,,,,,,,,,,,,,,,,,,,,,,,,,,,,,,,,,,,,,,,,,,,,,,,,,,,,,,,,,,,,,,,,,,,,,,,,,,,,,,,,,,,
5e9b0ac83abad80009e61116,2023-11-24_04h33.54.180,kallum_motion_pilot,2023.1.2,Win32,74.95128167,5e9b0ac83abad80009e61116,656018846682f3df8008bb8f,6560197580e5660b5d4cb1ed,1,30,192,108,1,sevenfive,,,,,,,,,,,,,,,,,,,,,,,,,,,,,,,,,,,,,,,,,,,,,,,,,,,,,,,,,,,,,,,,,,,,,,,,,,,,,,,,,,,,,
5e9b0ac83abad80009e61116,2023-11-24_04h33.54.180,kallum_motion_pilot,2023.1.2,Win32,74.95128167,5e9b0ac83abad80009e61116,656018846682f3df8008bb8f,6560197580e5660b5d4cb1ed,1,31,193,63,1,fourthree,,,,,,,,,,,,,,,,,,,,,,,,,,,,,,,,,,,,,,,,,,,,,,,,,,,,,,,,,,,,,,,,,,,,,,,,,,,,,,,,,,,,,
5e9b0ac83abad80009e61116,2023-11-24_04h33.54.180,kallum_motion_pilot,2023.1.2,Win32,74.95128167,5e9b0ac83abad80009e61116,656018846682f3df8008bb8f,6560197580e5660b5d4cb1ed,1,32,194,114,1,sixfive,,,,,,,,,,,,,,,,,,,,,,,,,,,,,,,,,,,,,,,,,,,,,,,,,,,,,,,,,,,,,,,,,,,,,,,,,,,,,,,,,,,,,
5e9b0ac83abad80009e61116,2023-11-24_04h33.54.180,kallum_motion_pilot,2023.1.2,Win32,74.95128167,5e9b0ac83abad80009e61116,656018846682f3df8008bb8f,6560197580e5660b5d4cb1ed,1,33,195,56,1,onetwo,,,,,,,,,,,,,,,,,,,,,,,,,,,,,,,,,,,,,,,,,,,,,,,,,,,,,,,,,,,,,,,,,,,,,,,,,,,,,,,,,,,,,
5e9b0ac83abad80009e61116,2023-11-24_04h33.54.180,kallum_motion_pilot,2023.1.2,Win32,74.95128167,5e9b0ac83abad80009e61116,656018846682f3df8008bb8f,6560197580e5660b5d4cb1ed,1,34,196,80,1,fivesix,,,,,,,,,,,,,,,,,,,,,,,,,,,,,,,,,,,,,,,,,,,,,,,,,,,,,,,,,,,,,,,,,,,,,,,,,,,,,,,,,,,,,
5e9b0ac83abad80009e61116,2023-11-24_04h33.54.180,kallum_motion_pilot,2023.1.2,Win32,74.95128167,5e9b0ac83abad80009e61116,656018846682f3df8008bb8f,6560197580e5660b5d4cb1ed,1,35,197,13,1,threefour,,,,,,,,,,,,,,,,,,,,,,,,,,,,,,,,,,,,,,,,,,,,,,,,,,,,,,,,,,,,,,,,,,,,,,,,,,,,,,,,,,,,,
5e9b0ac83abad80009e61116,2023-11-24_04h33.54.180,kallum_motion_pilot,2023.1.2,Win32,74.95128167,5e9b0ac83abad80009e61116,656018846682f3df8008bb8f,6560197580e5660b5d4cb1ed,1,36,198,38,1,fourtwo,,,,,,,,,,,,,,,,,,,,,,,,,,,,,,,,,,,,,,,,,,,,,,,,,,,,,,,,,,,,,,,,,,,,,,,,,,,,,,,,,,,,,
5e9b0ac83abad80009e61116,2023-11-24_04h33.54.180,kallum_motion_pilot,2023.1.2,Win32,74.95128167,5e9b0ac83abad80009e61116,656018846682f3df8008bb8f,6560197580e5660b5d4cb1ed,1,37,199,118,1,eightsix,,,,,,,,,,,,,,,,,,,,,,,,,,,,,,,,,,,,,,,,,,,,,,,,,,,,,,,,,,,,,,,,,,,,,,,,,,,,,,,,,,,,,
5e9b0ac83abad80009e61116,2023-11-24_04h33.54.180,kallum_motion_pilot,2023.1.2,Win32,74.95128167,5e9b0ac83abad80009e61116,656018846682f3df8008bb8f,6560197580e5660b5d4cb1ed,1,38,200,12,1,threeone,,,,,,,,,,,,,,,,,,,,,,,,,,,,,,,,,,,,,,,,,,,,,,,,,,,,,,,,,,,,,,,,,,,,,,,,,,,,,,,,,,,,,
5e9b0ac83abad80009e61116,2023-11-24_04h33.54.180,kallum_motion_pilot,2023.1.2,Win32,74.95128167,5e9b0ac83abad80009e61116,656018846682f3df8008bb8f,6560197580e5660b5d4cb1ed,1,39,201,115,1,sixeight,,,,,,,,,,,,,,,,,,,,,,,,,,,,,,,,,,,,,,,,,,,,,,,,,,,,,,,,,,,,,,,,,,,,,,,,,,,,,,,,,,,,,
5e9b0ac83abad80009e61116,2023-11-24_04h33.54.180,kallum_motion_pilot,2023.1.2,Win32,74.95128167,5e9b0ac83abad80009e61116,656018846682f3df8008bb8f,6560197580e5660b5d4cb1ed,1,40,202,17,1,onethree,,,,,,,,,,,,,,,,,,,,,,,,,,,,,,,,,,,,,,,,,,,,,,,,,,,,,,,,,,,,,,,,,,,,,,,,,,,,,,,,,,,,,
5e9b0ac83abad80009e61116,2023-11-24_04h33.54.180,kallum_motion_pilot,2023.1.2,Win32,74.95128167,5e9b0ac83abad80009e61116,656018846682f3df8008bb8f,6560197580e5660b5d4cb1ed,1,41,203,51,1,twofour,,,,,,,,,,,,,,,,,,,,,,,,,,,,,,,,,,,,,,,,,,,,,,,,,,,,,,,,,,,,,,,,,,,,,,,,,,,,,,,,,,,,,
5e9b0ac83abad80009e61116,2023-11-24_04h33.54.180,kallum_motion_pilot,2023.1.2,Win32,74.95128167,5e9b0ac83abad80009e61116,656018846682f3df8008bb8f,6560197580e5660b5d4cb1ed,1,42,204,29,1,threefour,,,,,,,,,,,,,,,,,,,,,,,,,,,,,,,,,,,,,,,,,,,,,,,,,,,,,,,,,,,,,,,,,,,,,,,,,,,,,,,,,,,,,
5e9b0ac83abad80009e61116,2023-11-24_04h33.54.180,kallum_motion_pilot,2023.1.2,Win32,74.95128167,5e9b0ac83abad80009e61116,656018846682f3df8008bb8f,6560197580e5660b5d4cb1ed,1,43,205,50,1,twoone,,,,,,,,,,,,,,,,,,,,,,,,,,,,,,,,,,,,,,,,,,,,,,,,,,,,,,,,,,,,,,,,,,,,,,,,,,,,,,,,,,,,,
5e9b0ac83abad80009e61116,2023-11-24_04h33.54.180,kallum_motion_pilot,2023.1.2,Win32,74.95128167,5e9b0ac83abad80009e61116,656018846682f3df8008bb8f,6560197580e5660b5d4cb1ed,1,44,206,0,1,onetwo,,,,,,,,,,,,,,,,,,,,,,,,,,,,,,,,,,,,,,,,,,,,,,,,,,,,,,,,,,,,,,,,,,,,,,,,,,,,,,,,,,,,,
5e9b0ac83abad80009e61116,2023-11-24_04h33.54.180,kallum_motion_pilot,2023.1.2,Win32,74.95128167,5e9b0ac83abad80009e61116,656018846682f3df8008bb8f,6560197580e5660b5d4cb1ed,1,45,207,154,1,sixfive,,,,,,,,,,,,,,,,,,,,,,,,,,,,,,,,,,,,,,,,,,,,,,,,,,,,,,,,,,,,,,,,,,,,,,,,,,,,,,,,,,,,,
5e9b0ac83abad80009e61116,2023-11-24_04h33.54.180,kallum_motion_pilot,2023.1.2,Win32,74.95128167,5e9b0ac83abad80009e61116,656018846682f3df8008bb8f,6560197580e5660b5d4cb1ed,1,46,208,5,1,threefour,,,,,,,,,,,,,,,,,,,,,,,,,,,,,,,,,,,,,,,,,,,,,,,,,,,,,,,,,,,,,,,,,,,,,,,,,,,,,,,,,,,,,
5e9b0ac83abad80009e61116,2023-11-24_04h33.54.180,kallum_motion_pilot,2023.1.2,Win32,74.95128167,5e9b0ac83abad80009e61116,656018846682f3df8008bb8f,6560197580e5660b5d4cb1ed,1,47,209,68,1,threeone,,,,,,,,,,,,,,,,,,,,,,,,,,,,,,,,,,,,,,,,,,,,,,,,,,,,,,,,,,,,,,,,,,,,,,,,,,,,,,,,,,,,,
5e9b0ac83abad80009e61116,2023-11-24_04h33.54.180,kallum_motion_pilot,2023.1.2,Win32,74.95128167,5e9b0ac83abad80009e61116,656018846682f3df8008bb8f,6560197580e5660b5d4cb1ed,1,48,210,10,1,twoone,,,,,,,,,,,,,,,,,,,,,,,,,,,,,,,,,,,,,,,,,,,,,,,,,,,,,,,,,,,,,,,,,,,,,,,,,,,,,,,,,,,,,
5e9b0ac83abad80009e61116,2023-11-24_04h33.54.180,kallum_motion_pilot,2023.1.2,Win32,74.95128167,5e9b0ac83abad80009e61116,656018846682f3df8008bb8f,6560197580e5660b5d4cb1ed,1,49,211,14,1,fourtwo,,,,,,,,,,,,,,,,,,,,,,,,,,,,,,,,,,,,,,,,,,,,,,,,,,,,,,,,,,,,,,,,,,,,,,,,,,,,,,,,,,,,,
5e9b0ac83abad80009e61116,2023-11-24_04h33.54.180,kallum_motion_pilot,2023.1.2,Win32,74.95128167,5e9b0ac83abad80009e61116,656018846682f3df8008bb8f,6560197580e5660b5d4cb1ed,1,50,212,72,1,onetwo,,,,,,,,,,,,,,,,,,,,,,,,,,,,,,,,,,,,,,,,,,,,,,,,,,,,,,,,,,,,,,,,,,,,,,,,,,,,,,,,,,,,,
5e9b0ac83abad80009e61116,2023-11-24_04h33.54.180,kallum_motion_pilot,2023.1.2,Win32,74.95128167,5e9b0ac83abad80009e61116,656018846682f3df8008bb8f,6560197580e5660b5d4cb1ed,1,51,213,96,1,fivesix,,,,,,,,,,,,,,,,,,,,,,,,,,,,,,,,,,,,,,,,,,,,,,,,,,,,,,,,,,,,,,,,,,,,,,,,,,,,,,,,,,,,,
5e9b0ac83abad80009e61116,2023-11-24_04h33.54.180,kallum_motion_pilot,2023.1.2,Win32,74.95128167,5e9b0ac83abad80009e61116,656018846682f3df8008bb8f,6560197580e5660b5d4cb1ed,1,52,214,127,1,eightseven,,,,,,,,,,,,,,,,,,,,,,,,,,,,,,,,,,,,,,,,,,,,,,,,,,,,,,,,,,,,,,,,,,,,,,,,,,,,,,,,,,,,,
5e9b0ac83abad80009e61116,2023-11-24_04h33.54.180,kallum_motion_pilot,2023.1.2,Win32,74.95128167,5e9b0ac83abad80009e61116,656018846682f3df8008bb8f,6560197580e5660b5d4cb1ed,1,53,215,16,1,onetwo,,,,,,,,,,,,,,,,,,,,,,,,,,,,,,,,,,,,,,,,,,,,,,,,,,,,,,,,,,,,,,,,,,,,,,,,,,,,,,,,,,,,,
5e9b0ac83abad80009e61116,2023-11-24_04h33.54.180,kallum_motion_pilot,2023.1.2,Win32,74.95128167,5e9b0ac83abad80009e61116,656018846682f3df8008bb8f,6560197580e5660b5d4cb1ed,1,54,216,106,1,sixfive,,,,,,,,,,,,,,,,,,,,,,,,,,,,,,,,,,,,,,,,,,,,,,,,,,,,,,,,,,,,,,,,,,,,,,,,,,,,,,,,,,,,,
5e9b0ac83abad80009e61116,2023-11-24_04h33.54.180,kallum_motion_pilot,2023.1.2,Win32,74.95128167,5e9b0ac83abad80009e61116,656018846682f3df8008bb8f,6560197580e5660b5d4cb1ed,1,55,217,66,1,twoone,,,,,,,,,,,,,,,,,,,,,,,,,,,,,,,,,,,,,,,,,,,,,,,,,,,,,,,,,,,,,,,,,,,,,,,,,,,,,,,,,,,,,
5e9b0ac83abad80009e61116,2023-11-24_04h33.54.180,kallum_motion_pilot,2023.1.2,Win32,74.95128167,5e9b0ac83abad80009e61116,656018846682f3df8008bb8f,6560197580e5660b5d4cb1ed,1,56,218,159,1,eightseven,,,,,,,,,,,,,,,,,,,,,,,,,,,,,,,,,,,,,,,,,,,,,,,,,,,,,,,,,,,,,,,,,,,,,,,,,,,,,,,,,,,,,
5e9b0ac83abad80009e61116,2023-11-24_04h33.54.180,kallum_motion_pilot,2023.1.2,Win32,74.95128167,5e9b0ac83abad80009e61116,656018846682f3df8008bb8f,6560197580e5660b5d4cb1ed,1,57,219,59,1,twofour,,,,,,,,,,,,,,,,,,,,,,,,,,,,,,,,,,,,,,,,,,,,,,,,,,,,,,,,,,,,,,,,,,,,,,,,,,,,,,,,,,,,,
5e9b0ac83abad80009e61116,2023-11-24_04h33.54.180,kallum_motion_pilot,2023.1.2,Win32,74.95128167,5e9b0ac83abad80009e61116,656018846682f3df8008bb8f,6560197580e5660b5d4cb1ed,1,58,220,134,1,eightsix,,,,,,,,,,,,,,,,,,,,,,,,,,,,,,,,,,,,,,,,,,,,,,,,,,,,,,,,,,,,,,,,,,,,,,,,,,,,,,,,,,,,,
5e9b0ac83abad80009e61116,2023-11-24_04h33.54.180,kallum_motion_pilot,2023.1.2,Win32,74.95128167,5e9b0ac83abad80009e61116,656018846682f3df8008bb8f,6560197580e5660b5d4cb1ed,1,59,221,125,1,seveneight,,,,,,,,,,,,,,,,,,,,,,,,,,,,,,,,,,,,,,,,,,,,,,,,,,,,,,,,,,,,,,,,,,,,,,,,,,,,,,,,,,,,,
5e9b0ac83abad80009e61116,2023-11-24_04h33.54.180,kallum_motion_pilot,2023.1.2,Win32,74.95128167,5e9b0ac83abad80009e61116,656018846682f3df8008bb8f,6560197580e5660b5d4cb1ed,1,60,222,40,1,onetwo,,,,,,,,,,,,,,,,,,,,,,,,,,,,,,,,,,,,,,,,,,,,,,,,,,,,,,,,,,,,,,,,,,,,,,,,,,,,,,,,,,,,,
5e9b0ac83abad80009e61116,2023-11-24_04h33.54.180,kallum_motion_pilot,2023.1.2,Win32,74.95128167,5e9b0ac83abad80009e61116,656018846682f3df8008bb8f,6560197580e5660b5d4cb1ed,1,61,223,112,1,fivesix,,,,,,,,,,,,,,,,,,,,,,,,,,,,,,,,,,,,,,,,,,,,,,,,,,,,,,,,,,,,,,,,,,,,,,,,,,,,,,,,,,,,,
5e9b0ac83abad80009e61116,2023-11-24_04h33.54.180,kallum_motion_pilot,2023.1.2,Win32,74.95128167,5e9b0ac83abad80009e61116,656018846682f3df8008bb8f,6560197580e5660b5d4cb1ed,1,62,224,45,1,threefour,,,,,,,,,,,,,,,,,,,,,,,,,,,,,,,,,,,,,,,,,,,,,,,,,,,,,,,,,,,,,,,,,,,,,,,,,,,,,,,,,,,,,
5e9b0ac83abad80009e61116,2023-11-24_04h33.54.180,kallum_motion_pilot,2023.1.2,Win32,74.95128167,5e9b0ac83abad80009e61116,656018846682f3df8008bb8f,6560197580e5660b5d4cb1ed,1,63,225,1,1,onethree,,,,,,,,,,,,,,,,,,,,,,,,,,,,,,,,,,,,,,,,,,,,,,,,,,,,,,,,,,,,,,,,,,,,,,,,,,,,,,,,,,,,,
5e9b0ac83abad80009e61116,2023-11-24_04h33.54.180,kallum_motion_pilot,2023.1.2,Win32,74.95128167,5e9b0ac83abad80009e61116,656018846682f3df8008bb8f,6560197580e5660b5d4cb1ed,1,64,226,27,1,twofour,,,,,,,,,,,,,,,,,,,,,,,,,,,,,,,,,,,,,,,,,,,,,,,,,,,,,,,,,,,,,,,,,,,,,,,,,,,,,,,,,,,,,
5e9b0ac83abad80009e61116,2023-11-24_04h33.54.180,kallum_motion_pilot,2023.1.2,Win32,74.95128167,5e9b0ac83abad80009e61116,656018846682f3df8008bb8f,6560197580e5660b5d4cb1ed,1,65,227,153,1,fiveseven,,,,,,,,,,,,,,,,,,,,,,,,,,,,,,,,,,,,,,,,,,,,,,,,,,,,,,,,,,,,,,,,,,,,,,,,,,,,,,,,,,,,,
5e9b0ac83abad80009e61116,2023-11-24_04h33.54.180,kallum_motion_pilot,2023.1.2,Win32,74.95128167,5e9b0ac83abad80009e61116,656018846682f3df8008bb8f,6560197580e5660b5d4cb1ed,1,66,228,141,1,seveneight,,,,,,,,,,,,,,,,,,,,,,,,,,,,,,,,,,,,,,,,,,,,,,,,,,,,,,,,,,,,,,,,,,,,,,,,,,,,,,,,,,,,,
5e9b0ac83abad80009e61116,2023-11-24_04h33.54.180,kallum_motion_pilot,2023.1.2,Win32,74.95128167,5e9b0ac83abad80009e61116,656018846682f3df8008bb8f,6560197580e5660b5d4cb1ed,1,67,229,121,1,fiveseven,,,,,,,,,,,,,,,,,,,,,,,,,,,,,,,,,,,,,,,,,,,,,,,,,,,,,,,,,,,,,,,,,,,,,,,,,,,,,,,,,,,,,
5e9b0ac83abad80009e61116,2023-11-24_04h33.54.180,kallum_motion_pilot,2023.1.2,Win32,74.95128167,5e9b0ac83abad80009e61116,656018846682f3df8008bb8f,6560197580e5660b5d4cb1ed,1,68,230,155,1,sixeight,,,,,,,,,,,,,,,,,,,,,,,,,,,,,,,,,,,,,,,,,,,,,,,,,,,,,,,,,,,,,,,,,,,,,,,,,,,,,,,,,,,,,
5e9b0ac83abad80009e61116,2023-11-24_04h33.54.180,kallum_motion_pilot,2023.1.2,Win32,74.95128167,5e9b0ac83abad80009e61116,656018846682f3df8008bb8f,6560197580e5660b5d4cb1ed,1,69,231,87,1,eightseven,,,,,,,,,,,,,,,,,,,,,,,,,,,,,,,,,,,,,,,,,,,,,,,,,,,,,,,,,,,,,,,,,,,,,,,,,,,,,,,,,,,,,
5e9b0ac83abad80009e61116,2023-11-24_04h33.54.180,kallum_motion_pilot,2023.1.2,Win32,74.95128167,5e9b0ac83abad80009e61116,656018846682f3df8008bb8f,6560197580e5660b5d4cb1ed,1,70,232,109,1,seveneight,,,,,,,,,,,,,,,,,,,,,,,,,,,,,,,,,,,,,,,,,,,,,,,,,,,,,,,,,,,,,,,,,,,,,,,,,,,,,,,,,,,,,
5e9b0ac83abad80009e61116,2023-11-24_04h33.54.180,kallum_motion_pilot,2023.1.2,Win32,74.95128167,5e9b0ac83abad80009e61116,656018846682f3df8008bb8f,6560197580e5660b5d4cb1ed,1,71,233,156,1,sevenfive,,,,,,,,,,,,,,,,,,,,,,,,,,,,,,,,,,,,,,,,,,,,,,,,,,,,,,,,,,,,,,,,,,,,,,,,,,,,,,,,,,,,,
5e9b0ac83abad80009e61116,2023-11-24_04h33.54.180,kallum_motion_pilot,2023.1.2,Win32,74.95128167,5e9b0ac83abad80009e61116,656018846682f3df8008bb8f,6560197580e5660b5d4cb1ed,1,72,234,113,1,fiveseven,,,,,,,,,,,,,,,,,,,,,,,,,,,,,,,,,,,,,,,,,,,,,,,,,,,,,,,,,,,,,,,,,,,,,,,,,,,,,,,,,,,,,
5e9b0ac83abad80009e61116,2023-11-24_04h33.54.180,kallum_motion_pilot,2023.1.2,Win32,74.95128167,5e9b0ac83abad80009e61116,656018846682f3df8008bb8f,6560197580e5660b5d4cb1ed,1,73,235,83,1,sixeight,,,,,,,,,,,,,,,,,,,,,,,,,,,,,,,,,,,,,,,,,,,,,,,,,,,,,,,,,,,,,,,,,,,,,,,,,,,,,,,,,,,,,
5e9b0ac83abad80009e61116,2023-11-24_04h33.54.180,kallum_motion_pilot,2023.1.2,Win32,74.95128167,5e9b0ac83abad80009e61116,656018846682f3df8008bb8f,6560197580e5660b5d4cb1ed,1,74,236,97,1,fiveseven,,,,,,,,,,,,,,,,,,,,,,,,,,,,,,,,,,,,,,,,,,,,,,,,,,,,,,,,,,,,,,,,,,,,,,,,,,,,,,,,,,,,,
5e9b0ac83abad80009e61116,2023-11-24_04h33.54.180,kallum_motion_pilot,2023.1.2,Win32,74.95128167,5e9b0ac83abad80009e61116,656018846682f3df8008bb8f,6560197580e5660b5d4cb1ed,1,75,237,104,1,fivesix,,,,,,,,,,,,,,,,,,,,,,,,,,,,,,,,,,,,,,,,,,,,,,,,,,,,,,,,,,,,,,,,,,,,,,,,,,,,,,,,,,,,,
5e9b0ac83abad80009e61116,2023-11-24_04h33.54.180,kallum_motion_pilot,2023.1.2,Win32,74.95128167,5e9b0ac83abad80009e61116,656018846682f3df8008bb8f,6560197580e5660b5d4cb1ed,1,76,238,138,1,sixfive,,,,,,,,,,,,,,,,,,,,,,,,,,,,,,,,,,,,,,,,,,,,,,,,,,,,,,,,,,,,,,,,,,,,,,,,,,,,,,,,,,,,,
5e9b0ac83abad80009e61116,2023-11-24_04h33.54.180,kallum_motion_pilot,2023.1.2,Win32,74.95128167,5e9b0ac83abad80009e61116,656018846682f3df8008bb8f,6560197580e5660b5d4cb1ed,1,77,239,36,1,threeone,,,,,,,,,,,,,,,,,,,,,,,,,,,,,,,,,,,,,,,,,,,,,,,,,,,,,,,,,,,,,,,,,,,,,,,,,,,,,,,,,,,,,
5e9b0ac83abad80009e61116,2023-11-24_04h33.54.180,kallum_motion_pilot,2023.1.2,Win32,74.95128167,5e9b0ac83abad80009e61116,656018846682f3df8008bb8f,6560197580e5660b5d4cb1ed,1,78,240,49,1,onethree,,,,,,,,,,,,,,,,,,,,,,,,,,,,,,,,,,,,,,,,,,,,,,,,,,,,,,,,,,,,,,,,,,,,,,,,,,,,,,,,,,,,,
5e9b0ac83abad80009e61116,2023-11-24_04h33.54.180,kallum_motion_pilot,2023.1.2,Win32,74.95128167,5e9b0ac83abad80009e61116,656018846682f3df8008bb8f,6560197580e5660b5d4cb1ed,1,79,241,130,1,sixfive,,,,,,,,,,,,,,,,,,,,,,,,,,,,,,,,,,,,,,,,,,,,,,,,,,,,,,,,,,,,,,,,,,,,,,,,,,,,,,,,,,,,,
5e9b0ac83abad80009e61116,2023-11-24_04h33.54.180,kallum_motion_pilot,2023.1.2,Win32,74.95128167,5e9b0ac83abad80009e61116,656018846682f3df8008bb8f,6560197580e5660b5d4cb1ed,1,80,242,93,1,seveneight,,,,,,,,,,,,,,,,,,,,,,,,,,,,,,,,,,,,,,,,,,,,,,,,,,,,,,,,,,,,,,,,,,,,,,,,,,,,,,,,,,,,,
5e9b0ac83abad80009e61116,2023-11-24_04h33.54.180,kallum_motion_pilot,2023.1.2,Win32,74.95128167,5e9b0ac83abad80009e61116,656018846682f3df8008bb8f,6560197580e5660b5d4cb1ed,1,81,243,70,1,fourtwo,,,,,,,,,,,,,,,,,,,,,,,,,,,,,,,,,,,,,,,,,,,,,,,,,,,,,,,,,,,,,,,,,,,,,,,,,,,,,,,,,,,,,
5e9b0ac83abad80009e61116,2023-11-24_04h33.54.180,kallum_motion_pilot,2023.1.2,Win32,74.95128167,5e9b0ac83abad80009e61116,656018846682f3df8008bb8f,6560197580e5660b5d4cb1ed,1,82,244,55,1,fourthree,,,,,,,,,,,,,,,,,,,,,,,,,,,,,,,,,,,,,,,,,,,,,,,,,,,,,,,,,,,,,,,,,,,,,,,,,,,,,,,,,,,,,
5e9b0ac83abad80009e61116,2023-11-24_04h33.54.180,kallum_motion_pilot,2023.1.2,Win32,74.95128167,5e9b0ac83abad80009e61116,656018846682f3df8008bb8f,6560197580e5660b5d4cb1ed,1,83,245,149,1,seveneight,,,,,,,,,,,,,,,,,,,,,,,,,,,,,,,,,,,,,,,,,,,,,,,,,,,,,,,,,,,,,,,,,,,,,,,,,,,,,,,,,,,,,
5e9b0ac83abad80009e61116,2023-11-24_04h33.54.180,kallum_motion_pilot,2023.1.2,Win32,74.95128167,5e9b0ac83abad80009e61116,656018846682f3df8008bb8f,6560197580e5660b5d4cb1ed,1,84,246,28,1,threeone,,,,,,,,,,,,,,,,,,,,,,,,,,,,,,,,,,,,,,,,,,,,,,,,,,,,,,,,,,,,,,,,,,,,,,,,,,,,,,,,,,,,,
5e9b0ac83abad80009e61116,2023-11-24_04h33.54.180,kallum_motion_pilot,2023.1.2,Win32,74.95128167,5e9b0ac83abad80009e61116,656018846682f3df8008bb8f,6560197580e5660b5d4cb1ed,1,85,247,2,1,twoone,,,,,,,,,,,,,,,,,,,,,,,,,,,,,,,,,,,,,,,,,,,,,,,,,,,,,,,,,,,,,,,,,,,,,,,,,,,,,,,,,,,,,
5e9b0ac83abad80009e61116,2023-11-24_04h33.54.180,kallum_motion_pilot,2023.1.2,Win32,74.95128167,5e9b0ac83abad80009e61116,656018846682f3df8008bb8f,6560197580e5660b5d4cb1ed,1,86,248,135,1,eightseven,,,,,,,,,,,,,,,,,,,,,,,,,,,,,,,,,,,,,,,,,,,,,,,,,,,,,,,,,,,,,,,,,,,,,,,,,,,,,,,,,,,,,
5e9b0ac83abad80009e61116,2023-11-24_04h33.54.180,kallum_motion_pilot,2023.1.2,Win32,74.95128167,5e9b0ac83abad80009e61116,656018846682f3df8008bb8f,6560197580e5660b5d4cb1ed,1,87,249,11,1,twofour,,,,,,,,,,,,,,,,,,,,,,,,,,,,,,,,,,,,,,,,,,,,,,,,,,,,,,,,,,,,,,,,,,,,,,,,,,,,,,,,,,,,,
5e9b0ac83abad80009e61116,2023-11-24_04h33.54.180,kallum_motion_pilot,2023.1.2,Win32,74.95128167,5e9b0ac83abad80009e61116,656018846682f3df8008bb8f,6560197580e5660b5d4cb1ed,1,88,250,33,1,onethree,,,,,,,,,,,,,,,,,,,,,,,,,,,,,,,,,,,,,,,,,,,,,,,,,,,,,,,,,,,,,,,,,,,,,,,,,,,,,,,,,,,,,
5e9b0ac83abad80009e61116,2023-11-24_04h33.54.180,kallum_motion_pilot,2023.1.2,Win32,74.95128167,5e9b0ac83abad80009e61116,656018846682f3df8008bb8f,6560197580e5660b5d4cb1ed,1,89,251,116,1,sevenfive,,,,,,,,,,,,,,,,,,,,,,,,,,,,,,,,,,,,,,,,,,,,,,,,,,,,,,,,,,,,,,,,,,,,,,,,,,,,,,,,,,,,,
5e9b0ac83abad80009e61116,2023-11-24_04h33.54.180,kallum_motion_pilot,2023.1.2,Win32,74.95128167,5e9b0ac83abad80009e61116,656018846682f3df8008bb8f,6560197580e5660b5d4cb1ed,1,90,252,43,1,twofour,,,,,,,,,,,,,,,,,,,,,,,,,,,,,,,,,,,,,,,,,,,,,,,,,,,,,,,,,,,,,,,,,,,,,,,,,,,,,,,,,,,,,
5e9b0ac83abad80009e61116,2023-11-24_04h33.54.180,kallum_motion_pilot,2023.1.2,Win32,74.95128167,5e9b0ac83abad80009e61116,656018846682f3df8008bb8f,6560197580e5660b5d4cb1ed,1,91,253,160,1,fivesix,,,,,,,,,,,,,,,,,,,,,,,,,,,,,,,,,,,,,,,,,,,,,,,,,,,,,,,,,,,,,,,,,,,,,,,,,,,,,,,,,,,,,
5e9b0ac83abad80009e61116,2023-11-24_04h33.54.180,kallum_motion_pilot,2023.1.2,Win32,74.95128167,5e9b0ac83abad80009e61116,656018846682f3df8008bb8f,6560197580e5660b5d4cb1ed,1,92,254,4,1,threeone,,,,,,,,,,,,,,,,,,,,,,,,,,,,,,,,,,,,,,,,,,,,,,,,,,,,,,,,,,,,,,,,,,,,,,,,,,,,,,,,,,,,,
5e9b0ac83abad80009e61116,2023-11-24_04h33.54.180,kallum_motion_pilot,2023.1.2,Win32,74.95128167,5e9b0ac83abad80009e61116,656018846682f3df8008bb8f,6560197580e5660b5d4cb1ed,1,93,255,95,1,eightseven,,,,,,,,,,,,,,,,,,,,,,,,,,,,,,,,,,,,,,,,,,,,,,,,,,,,,,,,,,,,,,,,,,,,,,,,,,,,,,,,,,,,,
5e9b0ac83abad80009e61116,2023-11-24_04h33.54.180,kallum_motion_pilot,2023.1.2,Win32,74.95128167,5e9b0ac83abad80009e61116,656018846682f3df8008bb8f,6560197580e5660b5d4cb1ed,1,94,256,7,1,fourthree,,,,,,,,,,,,,,,,,,,,,,,,,,,,,,,,,,,,,,,,,,,,,,,,,,,,,,,,,,,,,,,,,,,,,,,,,,,,,,,,,,,,,
5e9b0ac83abad80009e61116,2023-11-24_04h33.54.180,kallum_motion_pilot,2023.1.2,Win32,74.95128167,5e9b0ac83abad80009e61116,656018846682f3df8008bb8f,6560197580e5660b5d4cb1ed,1,95,257,22,1,fourtwo,,,,,,,,,,,,,,,,,,,,,,,,,,,,,,,,,,,,,,,,,,,,,,,,,,,,,,,,,,,,,,,,,,,,,,,,,,,,,,,,,,,,,
5e9b0ac83abad80009e61116,2023-11-24_04h33.54.180,kallum_motion_pilot,2023.1.2,Win32,74.95128167,5e9b0ac83abad80009e61116,656018846682f3df8008bb8f,6560197580e5660b5d4cb1ed,1,96,258,67,1,twofour,,,,,,,,,,,,,,,,,,,,,,,,,,,,,,,,,,,,,,,,,,,,,,,,,,,,,,,,,,,,,,,,,,,,,,,,,,,,,,,,,,,,,
5e9b0ac83abad80009e61116,2023-11-24_04h33.54.180,kallum_motion_pilot,2023.1.2,Win32,74.95128167,5e9b0ac83abad80009e61116,656018846682f3df8008bb8f,6560197580e5660b5d4cb1ed,1,97,259,147,1,sixeight,,,,,,,,,,,,,,,,,,,,,,,,,,,,,,,,,,,,,,,,,,,,,,,,,,,,,,,,,,,,,,,,,,,,,,,,,,,,,,,,,,,,,
5e9b0ac83abad80009e61116,2023-11-24_04h33.54.180,kallum_motion_pilot,2023.1.2,Win32,74.95128167,5e9b0ac83abad80009e61116,656018846682f3df8008bb8f,6560197580e5660b5d4cb1ed,1,98,260,117,1,seveneight,,,,,,,,,,,,,,,,,,,,,,,,,,,,,,,,,,,,,,,,,,,,,,,,,,,,,,,,,,,,,,,,,,,,,,,,,,,,,,,,,,,,,
5e9b0ac83abad80009e61116,2023-11-24_04h33.54.180,kallum_motion_pilot,2023.1.2,Win32,74.95128167,5e9b0ac83abad80009e61116,656018846682f3df8008bb8f,6560197580e5660b5d4cb1ed,1,99,261,140,1,sevenfive,,,,,,,,,,,,,,,,,,,,,,,,,,,,,,,,,,,,,,,,,,,,,,,,,,,,,,,,,,,,,,,,,,,,,,,,,,,,,,,,,,,,,
5e9b0ac83abad80009e61116,2023-11-24_04h33.54.180,kallum_motion_pilot,2023.1.2,Win32,74.95128167,5e9b0ac83abad80009e61116,656018846682f3df8008bb8f,6560197580e5660b5d4cb1ed,1,100,262,131,1,sixeight,,,,,,,,,,,,,,,,,,,,,,,,,,,,,,,,,,,,,,,,,,,,,,,,,,,,,,,,,,,,,,,,,,,,,,,,,,,,,,,,,,,,,
5e9b0ac83abad80009e61116,2023-11-24_04h33.54.180,kallum_motion_pilot,2023.1.2,Win32,74.95128167,5e9b0ac83abad80009e61116,656018846682f3df8008bb8f,6560197580e5660b5d4cb1ed,1,101,263,42,1,twoone,,,,,,,,,,,,,,,,,,,,,,,,,,,,,,,,,,,,,,,,,,,,,,,,,,,,,,,,,,,,,,,,,,,,,,,,,,,,,,,,,,,,,
5e9b0ac83abad80009e61116,2023-11-24_04h33.54.180,kallum_motion_pilot,2023.1.2,Win32,74.95128167,5e9b0ac83abad80009e61116,656018846682f3df8008bb8f,6560197580e5660b5d4cb1ed,1,102,264,35,1,twofour,,,,,,,,,,,,,,,,,,,,,,,,,,,,,,,,,,,,,,,,,,,,,,,,,,,,,,,,,,,,,,,,,,,,,,,,,,,,,,,,,,,,,
5e9b0ac83abad80009e61116,2023-11-24_04h33.54.180,kallum_motion_pilot,2023.1.2,Win32,74.95128167,5e9b0ac83abad80009e61116,656018846682f3df8008bb8f,6560197580e5660b5d4cb1ed,1,103,265,19,1,twofour,,,,,,,,,,,,,,,,,,,,,,,,,,,,,,,,,,,,,,,,,,,,,,,,,,,,,,,,,,,,,,,,,,,,,,,,,,,,,,,,,,,,,
5e9b0ac83abad80009e61116,2023-11-24_04h33.54.180,kallum_motion_pilot,2023.1.2,Win32,74.95128167,5e9b0ac83abad80009e61116,656018846682f3df8008bb8f,6560197580e5660b5d4cb1ed,1,104,266,62,1,fourtwo,,,,,,,,,,,,,,,,,,,,,,,,,,,,,,,,,,,,,,,,,,,,,,,,,,,,,,,,,,,,,,,,,,,,,,,,,,,,,,,,,,,,,
5e9b0ac83abad80009e61116,2023-11-24_04h33.54.180,kallum_motion_pilot,2023.1.2,Win32,74.95128167,5e9b0ac83abad80009e61116,656018846682f3df8008bb8f,6560197580e5660b5d4cb1ed,1,105,267,64,1,onetwo,,,,,,,,,,,,,,,,,,,,,,,,,,,,,,,,,,,,,,,,,,,,,,,,,,,,,,,,,,,,,,,,,,,,,,,,,,,,,,,,,,,,,
5e9b0ac83abad80009e61116,2023-11-24_04h33.54.180,kallum_motion_pilot,2023.1.2,Win32,74.95128167,5e9b0ac83abad80009e61116,656018846682f3df8008bb8f,6560197580e5660b5d4cb1ed,1,106,268,91,1,sixeight,,,,,,,,,,,,,,,,,,,,,,,,,,,,,,,,,,,,,,,,,,,,,,,,,,,,,,,,,,,,,,,,,,,,,,,,,,,,,,,,,,,,,
5e9b0ac83abad80009e61116,2023-11-24_04h33.54.180,kallum_motion_pilot,2023.1.2,Win32,74.95128167,5e9b0ac83abad80009e61116,656018846682f3df8008bb8f,6560197580e5660b5d4cb1ed,1,107,269,41,1,onethree,,,,,,,,,,,,,,,,,,,,,,,,,,,,,,,,,,,,,,,,,,,,,,,,,,,,,,,,,,,,,,,,,,,,,,,,,,,,,,,,,,,,,
5e9b0ac83abad80009e61116,2023-11-24_04h33.54.180,kallum_motion_pilot,2023.1.2,Win32,74.95128167,5e9b0ac83abad80009e61116,656018846682f3df8008bb8f,6560197580e5660b5d4cb1ed,1,108,270,111,1,eightseven,,,,,,,,,,,,,,,,,,,,,,,,,,,,,,,,,,,,,,,,,,,,,,,,,,,,,,,,,,,,,,,,,,,,,,,,,,,,,,,,,,,,,
5e9b0ac83abad80009e61116,2023-11-24_04h33.54.180,kallum_motion_pilot,2023.1.2,Win32,74.95128167,5e9b0ac83abad80009e61116,656018846682f3df8008bb8f,6560197580e5660b5d4cb1ed,1,109,271,46,1,fourtwo,,,,,,,,,,,,,,,,,,,,,,,,,,,,,,,,,,,,,,,,,,,,,,,,,,,,,,,,,,,,,,,,,,,,,,,,,,,,,,,,,,,,,
5e9b0ac83abad80009e61116,2023-11-24_04h33.54.180,kallum_motion_pilot,2023.1.2,Win32,74.95128167,5e9b0ac83abad80009e61116,656018846682f3df8008bb8f,6560197580e5660b5d4cb1ed,1,110,272,77,1,threefour,,,,,,,,,,,,,,,,,,,,,,,,,,,,,,,,,,,,,,,,,,,,,,,,,,,,,,,,,,,,,,,,,,,,,,,,,,,,,,,,,,,,,
5e9b0ac83abad80009e61116,2023-11-24_04h33.54.180,kallum_motion_pilot,2023.1.2,Win32,74.95128167,5e9b0ac83abad80009e61116,656018846682f3df8008bb8f,6560197580e5660b5d4cb1ed,1,111,273,157,1,seveneight,,,,,,,,,,,,,,,,,,,,,,,,,,,,,,,,,,,,,,,,,,,,,,,,,,,,,,,,,,,,,,,,,,,,,,,,,,,,,,,,,,,,,
5e9b0ac83abad80009e61116,2023-11-24_04h33.54.180,kallum_motion_pilot,2023.1.2,Win32,74.95128167,5e9b0ac83abad80009e61116,656018846682f3df8008bb8f,6560197580e5660b5d4cb1ed,1,112,274,100,1,sevenfive,,,,,,,,,,,,,,,,,,,,,,,,,,,,,,,,,,,,,,,,,,,,,,,,,,,,,,,,,,,,,,,,,,,,,,,,,,,,,,,,,,,,,
5e9b0ac83abad80009e61116,2023-11-24_04h33.54.180,kallum_motion_pilot,2023.1.2,Win32,74.95128167,5e9b0ac83abad80009e61116,656018846682f3df8008bb8f,6560197580e5660b5d4cb1ed,1,113,275,18,1,twoone,,,,,,,,,,,,,,,,,,,,,,,,,,,,,,,,,,,,,,,,,,,,,,,,,,,,,,,,,,,,,,,,,,,,,,,,,,,,,,,,,,,,,
5e9b0ac83abad80009e61116,2023-11-24_04h33.54.180,kallum_motion_pilot,2023.1.2,Win32,74.95128167,5e9b0ac83abad80009e61116,656018846682f3df8008bb8f,6560197580e5660b5d4cb1ed,1,114,276,151,1,eightseven,,,,,,,,,,,,,,,,,,,,,,,,,,,,,,,,,,,,,,,,,,,,,,,,,,,,,,,,,,,,,,,,,,,,,,,,,,,,,,,,,,,,,
5e9b0ac83abad80009e61116,2023-11-24_04h33.54.180,kallum_motion_pilot,2023.1.2,Win32,74.95128167,5e9b0ac83abad80009e61116,656018846682f3df8008bb8f,6560197580e5660b5d4cb1ed,1,115,277,99,1,sixeight,,,,,,,,,,,,,,,,,,,,,,,,,,,,,,,,,,,,,,,,,,,,,,,,,,,,,,,,,,,,,,,,,,,,,,,,,,,,,,,,,,,,,
5e9b0ac83abad80009e61116,2023-11-24_04h33.54.180,kallum_motion_pilot,2023.1.2,Win32,74.95128167,5e9b0ac83abad80009e61116,656018846682f3df8008bb8f,6560197580e5660b5d4cb1ed,1,116,278,53,1,threefour,,,,,,,,,,,,,,,,,,,,,,,,,,,,,,,,,,,,,,,,,,,,,,,,,,,,,,,,,,,,,,,,,,,,,,,,,,,,,,,,,,,,,
5e9b0ac83abad80009e61116,2023-11-24_04h33.54.180,kallum_motion_pilot,2023.1.2,Win32,74.95128167,5e9b0ac83abad80009e61116,656018846682f3df8008bb8f,6560197580e5660b5d4cb1ed,1,117,279,73,1,onethree,,,,,,,,,,,,,,,,,,,,,,,,,,,,,,,,,,,,,,,,,,,,,,,,,,,,,,,,,,,,,,,,,,,,,,,,,,,,,,,,,,,,,
5e9b0ac83abad80009e61116,2023-11-24_04h33.54.180,kallum_motion_pilot,2023.1.2,Win32,74.95128167,5e9b0ac83abad80009e61116,656018846682f3df8008bb8f,6560197580e5660b5d4cb1ed,1,118,280,8,1,onetwo,,,,,,,,,,,,,,,,,,,,,,,,,,,,,,,,,,,,,,,,,,,,,,,,,,,,,,,,,,,,,,,,,,,,,,,,,,,,,,,,,,,,,
5e9b0ac83abad80009e61116,2023-11-24_04h33.54.180,kallum_motion_pilot,2023.1.2,Win32,74.95128167,5e9b0ac83abad80009e61116,656018846682f3df8008bb8f,6560197580e5660b5d4cb1ed,1,119,281,152,1,fivesix,,,,,,,,,,,,,,,,,,,,,,,,,,,,,,,,,,,,,,,,,,,,,,,,,,,,,,,,,,,,,,,,,,,,,,,,,,,,,,,,,,,,,
5e9b0ac83abad80009e61116,2023-11-24_04h33.54.180,kallum_motion_pilot,2023.1.2,Win32,74.95128167,5e9b0ac83abad80009e61116,656018846682f3df8008bb8f,6560197580e5660b5d4cb1ed,1,120,282,69,1,threefour,,,,,,,,,,,,,,,,,,,,,,,,,,,,,,,,,,,,,,,,,,,,,,,,,,,,,,,,,,,,,,,,,,,,,,,,,,,,,,,,,,,,,
5e9b0ac83abad80009e61116,2023-11-24_04h33.54.180,kallum_motion_pilot,2023.1.2,Win32,74.95128167,5e9b0ac83abad80009e61116,656018846682f3df8008bb8f,6560197580e5660b5d4cb1ed,1,121,283,126,1,eightsix,,,,,,,,,,,,,,,,,,,,,,,,,,,,,,,,,,,,,,,,,,,,,,,,,,,,,,,,,,,,,,,,,,,,,,,,,,,,,,,,,,,,,
5e9b0ac83abad80009e61116,2023-11-24_04h33.54.180,kallum_motion_pilot,2023.1.2,Win32,74.95128167,5e9b0ac83abad80009e61116,656018846682f3df8008bb8f,6560197580e5660b5d4cb1ed,1,122,284,119,1,eightseven,,,,,,,,,,,,,,,,,,,,,,,,,,,,,,,,,,,,,,,,,,,,,,,,,,,,,,,,,,,,,,,,,,,,,,,,,,,,,,,,,,,,,
5e9b0ac83abad80009e61116,2023-11-24_04h33.54.180,kallum_motion_pilot,2023.1.2,Win32,74.95128167,5e9b0ac83abad80009e61116,656018846682f3df8008bb8f,6560197580e5660b5d4cb1ed,1,123,285,44,1,threeone,,,,,,,,,,,,,,,,,,,,,,,,,,,,,,,,,,,,,,,,,,,,,,,,,,,,,,,,,,,,,,,,,,,,,,,,,,,,,,,,,,,,,
5e9b0ac83abad80009e61116,2023-11-24_04h33.54.180,kallum_motion_pilot,2023.1.2,Win32,74.95128167,5e9b0ac83abad80009e61116,656018846682f3df8008bb8f,6560197580e5660b5d4cb1ed,1,124,286,132,1,sevenfive,,,,,,,,,,,,,,,,,,,,,,,,,,,,,,,,,,,,,,,,,,,,,,,,,,,,,,,,,,,,,,,,,,,,,,,,,,,,,,,,,,,,,
5e9b0ac83abad80009e61116,2023-11-24_04h33.54.180,kallum_motion_pilot,2023.1.2,Win32,74.95128167,5e9b0ac83abad80009e61116,656018846682f3df8008bb8f,6560197580e5660b5d4cb1ed,1,125,287,90,1,sixfive,,,,,,,,,,,,,,,,,,,,,,,,,,,,,,,,,,,,,,,,,,,,,,,,,,,,,,,,,,,,,,,,,,,,,,,,,,,,,,,,,,,,,
5e9b0ac83abad80009e61116,2023-11-24_04h33.54.180,kallum_motion_pilot,2023.1.2,Win32,74.95128167,5e9b0ac83abad80009e61116,656018846682f3df8008bb8f,6560197580e5660b5d4cb1ed,1,126,288,57,1,onethree,,,,,,,,,,,,,,,,,,,,,,,,,,,,,,,,,,,,,,,,,,,,,,,,,,,,,,,,,,,,,,,,,,,,,,,,,,,,,,,,,,,,,
5e9b0ac83abad80009e61116,2023-11-24_04h33.54.180,kallum_motion_pilot,2023.1.2,Win32,74.95128167,5e9b0ac83abad80009e61116,656018846682f3df8008bb8f,6560197580e5660b5d4cb1ed,1,127,289,92,1,sevenfive,,,,,,,,,,,,,,,,,,,,,,,,,,,,,,,,,,,,,,,,,,,,,,,,,,,,,,,,,,,,,,,,,,,,,,,,,,,,,,,,,,,,,
5e9b0ac83abad80009e61116,2023-11-24_04h33.54.180,kallum_motion_pilot,2023.1.2,Win32,74.95128167,5e9b0ac83abad80009e61116,656018846682f3df8008bb8f,6560197580e5660b5d4cb1ed,1,128,290,48,1,onetwo,,,,,,,,,,,,,,,,,,,,,,,,,,,,,,,,,,,,,,,,,,,,,,,,,,,,,,,,,,,,,,,,,,,,,,,,,,,,,,,,,,,,,
5e9b0ac83abad80009e61116,2023-11-24_04h33.54.180,kallum_motion_pilot,2023.1.2,Win32,74.95128167,5e9b0ac83abad80009e61116,656018846682f3df8008bb8f,6560197580e5660b5d4cb1ed,1,129,291,34,1,twoone,,,,,,,,,,,,,,,,,,,,,,,,,,,,,,,,,,,,,,,,,,,,,,,,,,,,,,,,,,,,,,,,,,,,,,,,,,,,,,,,,,,,,
5e9b0ac83abad80009e61116,2023-11-24_04h33.54.180,kallum_motion_pilot,2023.1.2,Win32,74.95128167,5e9b0ac83abad80009e61116,656018846682f3df8008bb8f,6560197580e5660b5d4cb1ed,1,130,292,124,1,sevenfive,,,,,,,,,,,,,,,,,,,,,,,,,,,,,,,,,,,,,,,,,,,,,,,,,,,,,,,,,,,,,,,,,,,,,,,,,,,,,,,,,,,,,
5e9b0ac83abad80009e61116,2023-11-24_04h33.54.180,kallum_motion_pilot,2023.1.2,Win32,74.95128167,5e9b0ac83abad80009e61116,656018846682f3df8008bb8f,6560197580e5660b5d4cb1ed,1,131,293,71,1,fourthree,,,,,,,,,,,,,,,,,,,,,,,,,,,,,,,,,,,,,,,,,,,,,,,,,,,,,,,,,,,,,,,,,,,,,,,,,,,,,,,,,,,,,
5e9b0ac83abad80009e61116,2023-11-24_04h33.54.180,kallum_motion_pilot,2023.1.2,Win32,74.95128167,5e9b0ac83abad80009e61116,656018846682f3df8008bb8f,6560197580e5660b5d4cb1ed,1,132,294,15,1,fourthree,,,,,,,,,,,,,,,,,,,,,,,,,,,,,,,,,,,,,,,,,,,,,,,,,,,,,,,,,,,,,,,,,,,,,,,,,,,,,,,,,,,,,
5e9b0ac83abad80009e61116,2023-11-24_04h33.54.180,kallum_motion_pilot,2023.1.2,Win32,74.95128167,5e9b0ac83abad80009e61116,656018846682f3df8008bb8f,6560197580e5660b5d4cb1ed,1,133,295,133,1,seveneight,,,,,,,,,,,,,,,,,,,,,,,,,,,,,,,,,,,,,,,,,,,,,,,,,,,,,,,,,,,,,,,,,,,,,,,,,,,,,,,,,,,,,
5e9b0ac83abad80009e61116,2023-11-24_04h33.54.180,kallum_motion_pilot,2023.1.2,Win32,74.95128167,5e9b0ac83abad80009e61116,656018846682f3df8008bb8f,6560197580e5660b5d4cb1ed,1,134,296,107,1,sixeight,,,,,,,,,,,,,,,,,,,,,,,,,,,,,,,,,,,,,,,,,,,,,,,,,,,,,,,,,,,,,,,,,,,,,,,,,,,,,,,,,,,,,
5e9b0ac83abad80009e61116,2023-11-24_04h33.54.180,kallum_motion_pilot,2023.1.2,Win32,74.95128167,5e9b0ac83abad80009e61116,656018846682f3df8008bb8f,6560197580e5660b5d4cb1ed,1,135,297,145,1,fiveseven,,,,,,,,,,,,,,,,,,,,,,,,,,,,,,,,,,,,,,,,,,,,,,,,,,,,,,,,,,,,,,,,,,,,,,,,,,,,,,,,,,,,,
5e9b0ac83abad80009e61116,2023-11-24_04h33.54.180,kallum_motion_pilot,2023.1.2,Win32,74.95128167,5e9b0ac83abad80009e61116,656018846682f3df8008bb8f,6560197580e5660b5d4cb1ed,1,136,298,24,1,onetwo,,,,,,,,,,,,,,,,,,,,,,,,,,,,,,,,,,,,,,,,,,,,,,,,,,,,,,,,,,,,,,,,,,,,,,,,,,,,,,,,,,,,,
5e9b0ac83abad80009e61116,2023-11-24_04h33.54.180,kallum_motion_pilot,2023.1.2,Win32,74.95128167,5e9b0ac83abad80009e61116,656018846682f3df8008bb8f,6560197580e5660b5d4cb1ed,1,137,299,74,1,twoone,,,,,,,,,,,,,,,,,,,,,,,,,,,,,,,,,,,,,,,,,,,,,,,,,,,,,,,,,,,,,,,,,,,,,,,,,,,,,,,,,,,,,
5e9b0ac83abad80009e61116,2023-11-24_04h33.54.180,kallum_motion_pilot,2023.1.2,Win32,74.95128167,5e9b0ac83abad80009e61116,656018846682f3df8008bb8f,6560197580e5660b5d4cb1ed,1,138,300,76,1,threeone,,,,,,,,,,,,,,,,,,,,,,,,,,,,,,,,,,,,,,,,,,,,,,,,,,,,,,,,,,,,,,,,,,,,,,,,,,,,,,,,,,,,,
5e9b0ac83abad80009e61116,2023-11-24_04h33.54.180,kallum_motion_pilot,2023.1.2,Win32,74.95128167,5e9b0ac83abad80009e61116,656018846682f3df8008bb8f,6560197580e5660b5d4cb1ed,1,139,301,58,1,twoone,,,,,,,,,,,,,,,,,,,,,,,,,,,,,,,,,,,,,,,,,,,,,,,,,,,,,,,,,,,,,,,,,,,,,,,,,,,,,,,,,,,,,
5e9b0ac83abad80009e61116,2023-11-24_04h33.54.180,kallum_motion_pilot,2023.1.2,Win32,74.95128167,5e9b0ac83abad80009e61116,656018846682f3df8008bb8f,6560197580e5660b5d4cb1ed,1,140,302,102,1,eightsix,,,,,,,,,,,,,,,,,,,,,,,,,,,,,,,,,,,,,,,,,,,,,,,,,,,,,,,,,,,,,,,,,,,,,,,,,,,,,,,,,,,,,
5e9b0ac83abad80009e61116,2023-11-24_04h33.54.180,kallum_motion_pilot,2023.1.2,Win32,74.95128167,5e9b0ac83abad80009e61116,656018846682f3df8008bb8f,6560197580e5660b5d4cb1ed,1,141,303,161,1,fiveseven,,,,,,,,,,,,,,,,,,,,,,,,,,,,,,,,,,,,,,,,,,,,,,,,,,,,,,,,,,,,,,,,,,,,,,,,,,,,,,,,,,,,,
5e9b0ac83abad80009e61116,2023-11-24_04h33.54.180,kallum_motion_pilot,2023.1.2,Win32,74.95128167,5e9b0ac83abad80009e61116,656018846682f3df8008bb8f,6560197580e5660b5d4cb1ed,1,142,304,94,1,eightsix,,,,,,,,,,,,,,,,,,,,,,,,,,,,,,,,,,,,,,,,,,,,,,,,,,,,,,,,,,,,,,,,,,,,,,,,,,,,,,,,,,,,,
5e9b0ac83abad80009e61116,2023-11-24_04h33.54.180,kallum_motion_pilot,2023.1.2,Win32,74.95128167,5e9b0ac83abad80009e61116,656018846682f3df8008bb8f,6560197580e5660b5d4cb1ed,1,143,305,31,1,fourthree,,,,,,,,,,,,,,,,,,,,,,,,,,,,,,,,,,,,,,,,,,,,,,,,,,,,,,,,,,,,,,,,,,,,,,,,,,,,,,,,,,,,,
5e9b0ac83abad80009e61116,2023-11-24_04h33.54.180,kallum_motion_pilot,2023.1.2,Win32,74.95128167,5e9b0ac83abad80009e61116,656018846682f3df8008bb8f,6560197580e5660b5d4cb1ed,1,144,306,54,1,fourtwo,,,,,,,,,,,,,,,,,,,,,,,,,,,,,,,,,,,,,,,,,,,,,,,,,,,,,,,,,,,,,,,,,,,,,,,,,,,,,,,,,,,,,
5e9b0ac83abad80009e61116,2023-11-24_04h33.54.180,kallum_motion_pilot,2023.1.2,Win32,74.95128167,5e9b0ac83abad80009e61116,656018846682f3df8008bb8f,6560197580e5660b5d4cb1ed,1,145,307,61,1,threefour,,,,,,,,,,,,,,,,,,,,,,,,,,,,,,,,,,,,,,,,,,,,,,,,,,,,,,,,,,,,,,,,,,,,,,,,,,,,,,,,,,,,,
5e9b0ac83abad80009e61116,2023-11-24_04h33.54.180,kallum_motion_pilot,2023.1.2,Win32,74.95128167,5e9b0ac83abad80009e61116,656018846682f3df8008bb8f,6560197580e5660b5d4cb1ed,1,146,308,30,1,fourtwo,,,,,,,,,,,,,,,,,,,,,,,,,,,,,,,,,,,,,,,,,,,,,,,,,,,,,,,,,,,,,,,,,,,,,,,,,,,,,,,,,,,,,
5e9b0ac83abad80009e61116,2023-11-24_04h33.54.180,kallum_motion_pilot,2023.1.2,Win32,74.95128167,5e9b0ac83abad80009e61116,656018846682f3df8008bb8f,6560197580e5660b5d4cb1ed,1,147,309,139,1,sixeight,,,,,,,,,,,,,,,,,,,,,,,,,,,,,,,,,,,,,,,,,,,,,,,,,,,,,,,,,,,,,,,,,,,,,,,,,,,,,,,,,,,,,
5e9b0ac83abad80009e61116,2023-11-24_04h33.54.180,kallum_motion_pilot,2023.1.2,Win32,74.95128167,5e9b0ac83abad80009e61116,656018846682f3df8008bb8f,6560197580e5660b5d4cb1ed,1,148,310,75,1,twofour,,,,,,,,,,,,,,,,,,,,,,,,,,,,,,,,,,,,,,,,,,,,,,,,,,,,,,,,,,,,,,,,,,,,,,,,,,,,,,,,,,,,,
5e9b0ac83abad80009e61116,2023-11-24_04h33.54.180,kallum_motion_pilot,2023.1.2,Win32,74.95128167,5e9b0ac83abad80009e61116,656018846682f3df8008bb8f,6560197580e5660b5d4cb1ed,1,149,311,88,1,fivesix,,,,,,,,,,,,,,,,,,,,,,,,,,,,,,,,,,,,,,,,,,,,,,,,,,,,,,,,,,,,,,,,,,,,,,,,,,,,,,,,,,,,,
5e9b0ac83abad80009e61116,2023-11-24_04h33.54.180,kallum_motion_pilot,2023.1.2,Win32,74.95128167,5e9b0ac83abad80009e61116,656018846682f3df8008bb8f,6560197580e5660b5d4cb1ed,1,150,312,25,1,onethree,,,,,,,,,,,,,,,,,,,,,,,,,,,,,,,,,,,,,,,,,,,,,,,,,,,,,,,,,,,,,,,,,,,,,,,,,,,,,,,,,,,,,
5e9b0ac83abad80009e61116,2023-11-24_04h33.54.180,kallum_motion_pilot,2023.1.2,Win32,74.95128167,5e9b0ac83abad80009e61116,656018846682f3df8008bb8f,6560197580e5660b5d4cb1ed,1,151,313,21,1,threefour,,,,,,,,,,,,,,,,,,,,,,,,,,,,,,,,,,,,,,,,,,,,,,,,,,,,,,,,,,,,,,,,,,,,,,,,,,,,,,,,,,,,,
5e9b0ac83abad80009e61116,2023-11-24_04h33.54.180,kallum_motion_pilot,2023.1.2,Win32,74.95128167,5e9b0ac83abad80009e61116,656018846682f3df8008bb8f,6560197580e5660b5d4cb1ed,1,152,314,89,1,fiveseven,,,,,,,,,,,,,,,,,,,,,,,,,,,,,,,,,,,,,,,,,,,,,,,,,,,,,,,,,,,,,,,,,,,,,,,,,,,,,,,,,,,,,
5e9b0ac83abad80009e61116,2023-11-24_04h33.54.180,kallum_motion_pilot,2023.1.2,Win32,74.95128167,5e9b0ac83abad80009e61116,656018846682f3df8008bb8f,6560197580e5660b5d4cb1ed,1,153,315,137,1,fiveseven,,,,,,,,,,,,,,,,,,,,,,,,,,,,,,,,,,,,,,,,,,,,,,,,,,,,,,,,,,,,,,,,,,,,,,,,,,,,,,,,,,,,,
5e9b0ac83abad80009e61116,2023-11-24_04h33.54.180,kallum_motion_pilot,2023.1.2,Win32,74.95128167,5e9b0ac83abad80009e61116,656018846682f3df8008bb8f,6560197580e5660b5d4cb1ed,1,154,316,26,1,twoone,,,,,,,,,,,,,,,,,,,,,,,,,,,,,,,,,,,,,,,,,,,,,,,,,,,,,,,,,,,,,,,,,,,,,,,,,,,,,,,,,,,,,
5e9b0ac83abad80009e61116,2023-11-24_04h33.54.180,kallum_motion_pilot,2023.1.2,Win32,74.95128167,5e9b0ac83abad80009e61116,656018846682f3df8008bb8f,6560197580e5660b5d4cb1ed,1,155,317,6,1,fourtwo,,,,,,,,,,,,,,,,,,,,,,,,,,,,,,,,,,,,,,,,,,,,,,,,,,,,,,,,,,,,,,,,,,,,,,,,,,,,,,,,,,,,,
5e9b0ac83abad80009e61116,2023-11-24_04h33.54.180,kallum_motion_pilot,2023.1.2,Win32,74.95128167,5e9b0ac83abad80009e61116,656018846682f3df8008bb8f,6560197580e5660b5d4cb1ed,1,156,318,9,1,onethree,,,,,,,,,,,,,,,,,,,,,,,,,,,,,,,,,,,,,,,,,,,,,,,,,,,,,,,,,,,,,,,,,,,,,,,,,,,,,,,,,,,,,
5e9b0ac83abad80009e61116,2023-11-24_04h33.54.180,kallum_motion_pilot,2023.1.2,Win32,74.95128167,5e9b0ac83abad80009e61116,656018846682f3df8008bb8f,6560197580e5660b5d4cb1ed,1,157,319,65,1,onethree,,,,,,,,,,,,,,,,,,,,,,,,,,,,,,,,,,,,,,,,,,,,,,,,,,,,,,,,,,,,,,,,,,,,,,,,,,,,,,,,,,,,,
5e9b0ac83abad80009e61116,2023-11-24_04h33.54.180,kallum_motion_pilot,2023.1.2,Win32,74.95128167,5e9b0ac83abad80009e61116,656018846682f3df8008bb8f,6560197580e5660b5d4cb1ed,1,158,320,23,1,fourthree,,,,,,,,,,,,,,,,,,,,,,,,,,,,,,,,,,,,,,,,,,,,,,,,,,,,,,,,,,,,,,,,,,,,,,,,,,,,,,,,,,,,,
5e9b0ac83abad80009e61116,2023-11-24_04h33.54.180,kallum_motion_pilot,2023.1.2,Win32,74.95128167,5e9b0ac83abad80009e61116,656018846682f3df8008bb8f,6560197580e5660b5d4cb1ed,1,159,321,85,1,seveneight,,,,,,,,,,,,,,,,,,,,,,,,,,,,,,,,,,,,,,,,,,,,,,,,,,,,,,,,,,,,,,,,,,,,,,,,,,,,,,,,,,,,,
5e9b0ac83abad80009e61116,2023-11-24_04h33.54.180,kallum_motion_pilot,2023.1.2,Win32,74.95128167,5e9b0ac83abad80009e61116,656018846682f3df8008bb8f,6560197580e5660b5d4cb1ed,1,160,322,142,1,eightsix,,,,,,,,,,,,,,,,,,,,,,,,,,,,,,,,,,,,,,,,,,,,,,,,,,,,,,,,,,,,,,,,,,,,,,,,,,,,,,,,,,,,,
5e9b0ac83abad80009e61116,2023-11-24_04h33.54.180,kallum_motion_pilot,2023.1.2,Win32,74.95128167,5e9b0ac83abad80009e61116,656018846682f3df8008bb8f,6560197580e5660b5d4cb1ed,1,161,323,60,1,threeone,,,,,,,,,,,,,,,,,,,,,,,,,,,,,,,,,,,,,,,,,,,,,,,,,,,,,,,,,,,,,,,,,,,,,,,,,,,,,,,,,,,,,
5e9b0ac83abad80009e61116,2023-11-24_04h33.54.180,kallum_motion_pilot,2023.1.2,Win32,74.95128167,5e9b0ac83abad80009e61116,656018846682f3df8008bb8f,6560197580e5660b5d4cb1ed,2,0,324,61,1,threefour,,,,,,,,,,,,,,,,,,,,,,,,,,,,,,,,,,,,,,,,,,,,,,,,,,,,,,,,,,,,,,,,,,,,,,,,,,,,,,,,,,,,,
5e9b0ac83abad80009e61116,2023-11-24_04h33.54.180,kallum_motion_pilot,2023.1.2,Win32,74.95128167,5e9b0ac83abad80009e61116,656018846682f3df8008bb8f,6560197580e5660b5d4cb1ed,2,1,325,19,1,twofour,,,,,,,,,,,,,,,,,,,,,,,,,,,,,,,,,,,,,,,,,,,,,,,,,,,,,,,,,,,,,,,,,,,,,,,,,,,,,,,,,,,,,
5e9b0ac83abad80009e61116,2023-11-24_04h33.54.180,kallum_motion_pilot,2023.1.2,Win32,74.95128167,5e9b0ac83abad80009e61116,656018846682f3df8008bb8f,6560197580e5660b5d4cb1ed,2,2,326,126,1,eightsix,,,,,,,,,,,,,,,,,,,,,,,,,,,,,,,,,,,,,,,,,,,,,,,,,,,,,,,,,,,,,,,,,,,,,,,,,,,,,,,,,,,,,
5e9b0ac83abad80009e61116,2023-11-24_04h33.54.180,kallum_motion_pilot,2023.1.2,Win32,74.95128167,5e9b0ac83abad80009e61116,656018846682f3df8008bb8f,6560197580e5660b5d4cb1ed,2,3,327,137,1,fiveseven,,,,,,,,,,,,,,,,,,,,,,,,,,,,,,,,,,,,,,,,,,,,,,,,,,,,,,,,,,,,,,,,,,,,,,,,,,,,,,,,,,,,,
5e9b0ac83abad80009e61116,2023-11-24_04h33.54.180,kallum_motion_pilot,2023.1.2,Win32,74.95128167,5e9b0ac83abad80009e61116,656018846682f3df8008bb8f,6560197580e5660b5d4cb1ed,2,4,328,147,1,sixeight,,,,,,,,,,,,,,,,,,,,,,,,,,,,,,,,,,,,,,,,,,,,,,,,,,,,,,,,,,,,,,,,,,,,,,,,,,,,,,,,,,,,,
5e9b0ac83abad80009e61116,2023-11-24_04h33.54.180,kallum_motion_pilot,2023.1.2,Win32,74.95128167,5e9b0ac83abad80009e61116,656018846682f3df8008bb8f,6560197580e5660b5d4cb1ed,2,5,329,28,1,threeone,,,,,,,,,,,,,,,,,,,,,,,,,,,,,,,,,,,,,,,,,,,,,,,,,,,,,,,,,,,,,,,,,,,,,,,,,,,,,,,,,,,,,
5e9b0ac83abad80009e61116,2023-11-24_04h33.54.180,kallum_motion_pilot,2023.1.2,Win32,74.95128167,5e9b0ac83abad80009e61116,656018846682f3df8008bb8f,6560197580e5660b5d4cb1ed,2,6,330,100,1,sevenfive,,,,,,,,,,,,,,,,,,,,,,,,,,,,,,,,,,,,,,,,,,,,,,,,,,,,,,,,,,,,,,,,,,,,,,,,,,,,,,,,,,,,,
5e9b0ac83abad80009e61116,2023-11-24_04h33.54.180,kallum_motion_pilot,2023.1.2,Win32,74.95128167,5e9b0ac83abad80009e61116,656018846682f3df8008bb8f,6560197580e5660b5d4cb1ed,2,7,331,24,1,onetwo,,,,,,,,,,,,,,,,,,,,,,,,,,,,,,,,,,,,,,,,,,,,,,,,,,,,,,,,,,,,,,,,,,,,,,,,,,,,,,,,,,,,,
5e9b0ac83abad80009e61116,2023-11-24_04h33.54.180,kallum_motion_pilot,2023.1.2,Win32,74.95128167,5e9b0ac83abad80009e61116,656018846682f3df8008bb8f,6560197580e5660b5d4cb1ed,2,8,332,60,1,threeone,,,,,,,,,,,,,,,,,,,,,,,,,,,,,,,,,,,,,,,,,,,,,,,,,,,,,,,,,,,,,,,,,,,,,,,,,,,,,,,,,,,,,
5e9b0ac83abad80009e61116,2023-11-24_04h33.54.180,kallum_motion_pilot,2023.1.2,Win32,74.95128167,5e9b0ac83abad80009e61116,656018846682f3df8008bb8f,6560197580e5660b5d4cb1ed,2,9,333,63,1,fourthree,,,,,,,,,,,,,,,,,,,,,,,,,,,,,,,,,,,,,,,,,,,,,,,,,,,,,,,,,,,,,,,,,,,,,,,,,,,,,,,,,,,,,
5e9b0ac83abad80009e61116,2023-11-24_04h33.54.180,kallum_motion_pilot,2023.1.2,Win32,74.95128167,5e9b0ac83abad80009e61116,656018846682f3df8008bb8f,6560197580e5660b5d4cb1ed,2,10,334,127,1,eightseven,,,,,,,,,,,,,,,,,,,,,,,,,,,,,,,,,,,,,,,,,,,,,,,,,,,,,,,,,,,,,,,,,,,,,,,,,,,,,,,,,,,,,
5e9b0ac83abad80009e61116,2023-11-24_04h33.54.180,kallum_motion_pilot,2023.1.2,Win32,74.95128167,5e9b0ac83abad80009e61116,656018846682f3df8008bb8f,6560197580e5660b5d4cb1ed,2,11,335,134,1,eightsix,,,,,,,,,,,,,,,,,,,,,,,,,,,,,,,,,,,,,,,,,,,,,,,,,,,,,,,,,,,,,,,,,,,,,,,,,,,,,,,,,,,,,
5e9b0ac83abad80009e61116,2023-11-24_04h33.54.180,kallum_motion_pilot,2023.1.2,Win32,74.95128167,5e9b0ac83abad80009e61116,656018846682f3df8008bb8f,6560197580e5660b5d4cb1ed,2,12,336,11,1,twofour,,,,,,,,,,,,,,,,,,,,,,,,,,,,,,,,,,,,,,,,,,,,,,,,,,,,,,,,,,,,,,,,,,,,,,,,,,,,,,,,,,,,,
5e9b0ac83abad80009e61116,2023-11-24_04h33.54.180,kallum_motion_pilot,2023.1.2,Win32,74.95128167,5e9b0ac83abad80009e61116,656018846682f3df8008bb8f,6560197580e5660b5d4cb1ed,2,13,337,47,1,fourthree,,,,,,,,,,,,,,,,,,,,,,,,,,,,,,,,,,,,,,,,,,,,,,,,,,,,,,,,,,,,,,,,,,,,,,,,,,,,,,,,,,,,,
5e9b0ac83abad80009e61116,2023-11-24_04h33.54.180,kallum_motion_pilot,2023.1.2,Win32,74.95128167,5e9b0ac83abad80009e61116,656018846682f3df8008bb8f,6560197580e5660b5d4cb1ed,2,14,338,81,1,fiveseven,,,,,,,,,,,,,,,,,,,,,,,,,,,,,,,,,,,,,,,,,,,,,,,,,,,,,,,,,,,,,,,,,,,,,,,,,,,,,,,,,,,,,
5e9b0ac83abad80009e61116,2023-11-24_04h33.54.180,kallum_motion_pilot,2023.1.2,Win32,74.95128167,5e9b0ac83abad80009e61116,656018846682f3df8008bb8f,6560197580e5660b5d4cb1ed,2,15,339,73,1,onethree,,,,,,,,,,,,,,,,,,,,,,,,,,,,,,,,,,,,,,,,,,,,,,,,,,,,,,,,,,,,,,,,,,,,,,,,,,,,,,,,,,,,,
5e9b0ac83abad80009e61116,2023-11-24_04h33.54.180,kallum_motion_pilot,2023.1.2,Win32,74.95128167,5e9b0ac83abad80009e61116,656018846682f3df8008bb8f,6560197580e5660b5d4cb1ed,2,16,340,48,1,onetwo,,,,,,,,,,,,,,,,,,,,,,,,,,,,,,,,,,,,,,,,,,,,,,,,,,,,,,,,,,,,,,,,,,,,,,,,,,,,,,,,,,,,,
5e9b0ac83abad80009e61116,2023-11-24_04h33.54.180,kallum_motion_pilot,2023.1.2,Win32,74.95128167,5e9b0ac83abad80009e61116,656018846682f3df8008bb8f,6560197580e5660b5d4cb1ed,2,17,341,114,1,sixfive,,,,,,,,,,,,,,,,,,,,,,,,,,,,,,,,,,,,,,,,,,,,,,,,,,,,,,,,,,,,,,,,,,,,,,,,,,,,,,,,,,,,,
5e9b0ac83abad80009e61116,2023-11-24_04h33.54.180,kallum_motion_pilot,2023.1.2,Win32,74.95128167,5e9b0ac83abad80009e61116,656018846682f3df8008bb8f,6560197580e5660b5d4cb1ed,2,18,342,89,1,fiveseven,,,,,,,,,,,,,,,,,,,,,,,,,,,,,,,,,,,,,,,,,,,,,,,,,,,,,,,,,,,,,,,,,,,,,,,,,,,,,,,,,,,,,
5e9b0ac83abad80009e61116,2023-11-24_04h33.54.180,kallum_motion_pilot,2023.1.2,Win32,74.95128167,5e9b0ac83abad80009e61116,656018846682f3df8008bb8f,6560197580e5660b5d4cb1ed,2,19,343,34,1,twoone,,,,,,,,,,,,,,,,,,,,,,,,,,,,,,,,,,,,,,,,,,,,,,,,,,,,,,,,,,,,,,,,,,,,,,,,,,,,,,,,,,,,,
5e9b0ac83abad80009e61116,2023-11-24_04h33.54.180,kallum_motion_pilot,2023.1.2,Win32,74.95128167,5e9b0ac83abad80009e61116,656018846682f3df8008bb8f,6560197580e5660b5d4cb1ed,2,20,344,116,1,sevenfive,,,,,,,,,,,,,,,,,,,,,,,,,,,,,,,,,,,,,,,,,,,,,,,,,,,,,,,,,,,,,,,,,,,,,,,,,,,,,,,,,,,,,
5e9b0ac83abad80009e61116,2023-11-24_04h33.54.180,kallum_motion_pilot,2023.1.2,Win32,74.95128167,5e9b0ac83abad80009e61116,656018846682f3df8008bb8f,6560197580e5660b5d4cb1ed,2,21,345,99,1,sixeight,,,,,,,,,,,,,,,,,,,,,,,,,,,,,,,,,,,,,,,,,,,,,,,,,,,,,,,,,,,,,,,,,,,,,,,,,,,,,,,,,,,,,
5e9b0ac83abad80009e61116,2023-11-24_04h33.54.180,kallum_motion_pilot,2023.1.2,Win32,74.95128167,5e9b0ac83abad80009e61116,656018846682f3df8008bb8f,6560197580e5660b5d4cb1ed,2,22,346,153,1,fiveseven,,,,,,,,,,,,,,,,,,,,,,,,,,,,,,,,,,,,,,,,,,,,,,,,,,,,,,,,,,,,,,,,,,,,,,,,,,,,,,,,,,,,,
5e9b0ac83abad80009e61116,2023-11-24_04h33.54.180,kallum_motion_pilot,2023.1.2,Win32,74.95128167,5e9b0ac83abad80009e61116,656018846682f3df8008bb8f,6560197580e5660b5d4cb1ed,2,23,347,79,1,eightseven,,,,,,,,,,,,,,,,,,,,,,,,,,,,,,,,,,,,,,,,,,,,,,,,,,,,,,,,,,,,,,,,,,,,,,,,,,,,,,,,,,,,,
5e9b0ac83abad80009e61116,2023-11-24_04h33.54.180,kallum_motion_pilot,2023.1.2,Win32,74.95128167,5e9b0ac83abad80009e61116,656018846682f3df8008bb8f,6560197580e5660b5d4cb1ed,2,24,348,26,1,twoone,,,,,,,,,,,,,,,,,,,,,,,,,,,,,,,,,,,,,,,,,,,,,,,,,,,,,,,,,,,,,,,,,,,,,,,,,,,,,,,,,,,,,
5e9b0ac83abad80009e61116,2023-11-24_04h33.54.180,kallum_motion_pilot,2023.1.2,Win32,74.95128167,5e9b0ac83abad80009e61116,656018846682f3df8008bb8f,6560197580e5660b5d4cb1ed,2,25,349,94,1,eightsix,,,,,,,,,,,,,,,,,,,,,,,,,,,,,,,,,,,,,,,,,,,,,,,,,,,,,,,,,,,,,,,,,,,,,,,,,,,,,,,,,,,,,
