Prolific_ID*,date,expName,psychopyVersion,OS,frameRate,PROLIFIC_PID,STUDY_ID,SESSION_ID,hardcoded_stimulus_positions.thisRepN,hardcoded_stimulus_positions.thisTrialN,hardcoded_stimulus_positions.thisN,hardcoded_stimulus_positions.thisIndex,hardcoded_stimulus_positions.ran,StimulusPos,prac_stimorientation_import_loop.thisRepN,prac_stimorientation_import_loop.thisTrialN,prac_stimorientation_import_loop.thisN,prac_stimorientation_import_loop.thisIndex,prac_stimorientation_import_loop.ran,Stimorientation,key_resp.keys,key_resp.rt,key_resp_20.keys,key_resp_20.rt,key_resp_19.keys,key_resp_19.rt,key_resp_15.keys,key_resp_15.rt,key_resp_9.keys,key_resp_9.rt,key_resp_10.keys,key_resp_10.rt,Ecc,Circle1_ori,Circle2_ori,similarity,response_time,mouse_5.x,mouse_5.y,mouse_5.leftButton,mouse_5.midButton,mouse_5.rightButton,mouse_5.clicked_name,mouse_6.x,mouse_6.y,mouse_6.leftButton,mouse_6.midButton,mouse_6.rightButton,mouse_6.clicked_name,duringprac.thisRepN,duringprac.thisTrialN,duringprac.thisN,duringprac.thisIndex,duringprac.ran,key_resp_22.keys,key_resp_22.rt,circle1_ori,circle2_ori,mouse.x,mouse.y,mouse.leftButton,mouse.midButton,mouse.rightButton,mouse.clicked_name,mouse_2.x,mouse_2.y,mouse_2.leftButton,mouse_2.midButton,mouse_2.rightButton,mouse_2.clicked_name,mouse_3.x,mouse_3.y,mouse_3.leftButton,mouse_3.midButton,mouse_3.rightButton,catchresponse,catchnumber,response_time_catch,Catch,mouse_11.x,mouse_11.y,mouse_11.leftButton,mouse_11.midButton,mouse_11.rightButton,main_trial.thisRepN,main_trial.thisTrialN,main_trial.thisN,main_trial.thisIndex,main_trial.ran,Orientationtrialno,xcircle1_ori,xcircle2_ori,double_pass.thisRepN,double_pass.thisTrialN,double_pass.thisN,double_pass.thisIndex,double_pass.ran,key_resp_3.keys,key_resp_3.rt
605824a5c79c7e261e281cc5,2023-11-24_24h44.53.841,kallum_motion_pilot,2023.1.2,Win32,59.93766483,605824a5c79c7e261e281cc5,656018846682f3df8008bb8f,65601baca33617af94bb08aa,,,,,,,,,,,,,,,,,,,,,,,,,,,,,,,,,,,,,,,,,,,,,,,,,,,,,,,,,,,,,,,,,,,,,,,,,,,,,,,,,,,,,,,,,,,
605824a5c79c7e261e281cc5,2023-11-24_24h44.53.841,kallum_motion_pilot,2023.1.2,Win32,59.93766483,605824a5c79c7e261e281cc5,656018846682f3df8008bb8f,65601baca33617af94bb08aa,0,0,0,7,1,fourthree,,,,,,,,,,,,,,,,,,,,,,,,,,,,,,,,,,,,,,,,,,,,,,,,,,,,,,,,,,,,,,,,,,,,,,,,,,,,,,,,,,,,,
605824a5c79c7e261e281cc5,2023-11-24_24h44.53.841,kallum_motion_pilot,2023.1.2,Win32,59.93766483,605824a5c79c7e261e281cc5,656018846682f3df8008bb8f,65601baca33617af94bb08aa,0,1,1,91,1,sixeight,,,,,,,,,,,,,,,,,,,,,,,,,,,,,,,,,,,,,,,,,,,,,,,,,,,,,,,,,,,,,,,,,,,,,,,,,,,,,,,,,,,,,
605824a5c79c7e261e281cc5,2023-11-24_24h44.53.841,kallum_motion_pilot,2023.1.2,Win32,59.93766483,605824a5c79c7e261e281cc5,656018846682f3df8008bb8f,65601baca33617af94bb08aa,0,2,2,69,1,threefour,,,,,,,,,,,,,,,,,,,,,,,,,,,,,,,,,,,,,,,,,,,,,,,,,,,,,,,,,,,,,,,,,,,,,,,,,,,,,,,,,,,,,
605824a5c79c7e261e281cc5,2023-11-24_24h44.53.841,kallum_motion_pilot,2023.1.2,Win32,59.93766483,605824a5c79c7e261e281cc5,656018846682f3df8008bb8f,65601baca33617af94bb08aa,0,3,3,27,1,twofour,,,,,,,,,,,,,,,,,,,,,,,,,,,,,,,,,,,,,,,,,,,,,,,,,,,,,,,,,,,,,,,,,,,,,,,,,,,,,,,,,,,,,
605824a5c79c7e261e281cc5,2023-11-24_24h44.53.841,kallum_motion_pilot,2023.1.2,Win32,59.93766483,605824a5c79c7e261e281cc5,656018846682f3df8008bb8f,65601baca33617af94bb08aa,0,4,4,11,1,twofour,,,,,,,,,,,,,,,,,,,,,,,,,,,,,,,,,,,,,,,,,,,,,,,,,,,,,,,,,,,,,,,,,,,,,,,,,,,,,,,,,,,,,
605824a5c79c7e261e281cc5,2023-11-24_24h44.53.841,kallum_motion_pilot,2023.1.2,Win32,59.93766483,605824a5c79c7e261e281cc5,656018846682f3df8008bb8f,65601baca33617af94bb08aa,0,5,5,13,1,threefour,,,,,,,,,,,,,,,,,,,,,,,,,,,,,,,,,,,,,,,,,,,,,,,,,,,,,,,,,,,,,,,,,,,,,,,,,,,,,,,,,,,,,
605824a5c79c7e261e281cc5,2023-11-24_24h44.53.841,kallum_motion_pilot,2023.1.2,Win32,59.93766483,605824a5c79c7e261e281cc5,656018846682f3df8008bb8f,65601baca33617af94bb08aa,0,6,6,8,1,onetwo,,,,,,,,,,,,,,,,,,,,,,,,,,,,,,,,,,,,,,,,,,,,,,,,,,,,,,,,,,,,,,,,,,,,,,,,,,,,,,,,,,,,,
605824a5c79c7e261e281cc5,2023-11-24_24h44.53.841,kallum_motion_pilot,2023.1.2,Win32,59.93766483,605824a5c79c7e261e281cc5,656018846682f3df8008bb8f,65601baca33617af94bb08aa,0,7,7,87,1,eightseven,,,,,,,,,,,,,,,,,,,,,,,,,,,,,,,,,,,,,,,,,,,,,,,,,,,,,,,,,,,,,,,,,,,,,,,,,,,,,,,,,,,,,
605824a5c79c7e261e281cc5,2023-11-24_24h44.53.841,kallum_motion_pilot,2023.1.2,Win32,59.93766483,605824a5c79c7e261e281cc5,656018846682f3df8008bb8f,65601baca33617af94bb08aa,0,8,8,70,1,fourtwo,,,,,,,,,,,,,,,,,,,,,,,,,,,,,,,,,,,,,,,,,,,,,,,,,,,,,,,,,,,,,,,,,,,,,,,,,,,,,,,,,,,,,
605824a5c79c7e261e281cc5,2023-11-24_24h44.53.841,kallum_motion_pilot,2023.1.2,Win32,59.93766483,605824a5c79c7e261e281cc5,656018846682f3df8008bb8f,65601baca33617af94bb08aa,0,9,9,96,1,fivesix,,,,,,,,,,,,,,,,,,,,,,,,,,,,,,,,,,,,,,,,,,,,,,,,,,,,,,,,,,,,,,,,,,,,,,,,,,,,,,,,,,,,,
605824a5c79c7e261e281cc5,2023-11-24_24h44.53.841,kallum_motion_pilot,2023.1.2,Win32,59.93766483,605824a5c79c7e261e281cc5,656018846682f3df8008bb8f,65601baca33617af94bb08aa,0,10,10,25,1,onethree,,,,,,,,,,,,,,,,,,,,,,,,,,,,,,,,,,,,,,,,,,,,,,,,,,,,,,,,,,,,,,,,,,,,,,,,,,,,,,,,,,,,,
605824a5c79c7e261e281cc5,2023-11-24_24h44.53.841,kallum_motion_pilot,2023.1.2,Win32,59.93766483,605824a5c79c7e261e281cc5,656018846682f3df8008bb8f,65601baca33617af94bb08aa,0,11,11,113,1,fiveseven,,,,,,,,,,,,,,,,,,,,,,,,,,,,,,,,,,,,,,,,,,,,,,,,,,,,,,,,,,,,,,,,,,,,,,,,,,,,,,,,,,,,,
605824a5c79c7e261e281cc5,2023-11-24_24h44.53.841,kallum_motion_pilot,2023.1.2,Win32,59.93766483,605824a5c79c7e261e281cc5,656018846682f3df8008bb8f,65601baca33617af94bb08aa,0,12,12,67,1,twofour,,,,,,,,,,,,,,,,,,,,,,,,,,,,,,,,,,,,,,,,,,,,,,,,,,,,,,,,,,,,,,,,,,,,,,,,,,,,,,,,,,,,,
605824a5c79c7e261e281cc5,2023-11-24_24h44.53.841,kallum_motion_pilot,2023.1.2,Win32,59.93766483,605824a5c79c7e261e281cc5,656018846682f3df8008bb8f,65601baca33617af94bb08aa,0,13,13,19,1,twofour,,,,,,,,,,,,,,,,,,,,,,,,,,,,,,,,,,,,,,,,,,,,,,,,,,,,,,,,,,,,,,,,,,,,,,,,,,,,,,,,,,,,,
605824a5c79c7e261e281cc5,2023-11-24_24h44.53.841,kallum_motion_pilot,2023.1.2,Win32,59.93766483,605824a5c79c7e261e281cc5,656018846682f3df8008bb8f,65601baca33617af94bb08aa,0,14,14,108,1,sevenfive,,,,,,,,,,,,,,,,,,,,,,,,,,,,,,,,,,,,,,,,,,,,,,,,,,,,,,,,,,,,,,,,,,,,,,,,,,,,,,,,,,,,,
605824a5c79c7e261e281cc5,2023-11-24_24h44.53.841,kallum_motion_pilot,2023.1.2,Win32,59.93766483,605824a5c79c7e261e281cc5,656018846682f3df8008bb8f,65601baca33617af94bb08aa,0,15,15,90,1,sixfive,,,,,,,,,,,,,,,,,,,,,,,,,,,,,,,,,,,,,,,,,,,,,,,,,,,,,,,,,,,,,,,,,,,,,,,,,,,,,,,,,,,,,
605824a5c79c7e261e281cc5,2023-11-24_24h44.53.841,kallum_motion_pilot,2023.1.2,Win32,59.93766483,605824a5c79c7e261e281cc5,656018846682f3df8008bb8f,65601baca33617af94bb08aa,0,16,16,46,1,fourtwo,,,,,,,,,,,,,,,,,,,,,,,,,,,,,,,,,,,,,,,,,,,,,,,,,,,,,,,,,,,,,,,,,,,,,,,,,,,,,,,,,,,,,
605824a5c79c7e261e281cc5,2023-11-24_24h44.53.841,kallum_motion_pilot,2023.1.2,Win32,59.93766483,605824a5c79c7e261e281cc5,656018846682f3df8008bb8f,65601baca33617af94bb08aa,0,17,17,137,1,fiveseven,,,,,,,,,,,,,,,,,,,,,,,,,,,,,,,,,,,,,,,,,,,,,,,,,,,,,,,,,,,,,,,,,,,,,,,,,,,,,,,,,,,,,
605824a5c79c7e261e281cc5,2023-11-24_24h44.53.841,kallum_motion_pilot,2023.1.2,Win32,59.93766483,605824a5c79c7e261e281cc5,656018846682f3df8008bb8f,65601baca33617af94bb08aa,0,18,18,142,1,eightsix,,,,,,,,,,,,,,,,,,,,,,,,,,,,,,,,,,,,,,,,,,,,,,,,,,,,,,,,,,,,,,,,,,,,,,,,,,,,,,,,,,,,,
605824a5c79c7e261e281cc5,2023-11-24_24h44.53.841,kallum_motion_pilot,2023.1.2,Win32,59.93766483,605824a5c79c7e261e281cc5,656018846682f3df8008bb8f,65601baca33617af94bb08aa,0,19,19,139,1,sixeight,,,,,,,,,,,,,,,,,,,,,,,,,,,,,,,,,,,,,,,,,,,,,,,,,,,,,,,,,,,,,,,,,,,,,,,,,,,,,,,,,,,,,
605824a5c79c7e261e281cc5,2023-11-24_24h44.53.841,kallum_motion_pilot,2023.1.2,Win32,59.93766483,605824a5c79c7e261e281cc5,656018846682f3df8008bb8f,65601baca33617af94bb08aa,0,20,20,71,1,fourthree,,,,,,,,,,,,,,,,,,,,,,,,,,,,,,,,,,,,,,,,,,,,,,,,,,,,,,,,,,,,,,,,,,,,,,,,,,,,,,,,,,,,,
605824a5c79c7e261e281cc5,2023-11-24_24h44.53.841,kallum_motion_pilot,2023.1.2,Win32,59.93766483,605824a5c79c7e261e281cc5,656018846682f3df8008bb8f,65601baca33617af94bb08aa,0,21,21,49,1,onethree,,,,,,,,,,,,,,,,,,,,,,,,,,,,,,,,,,,,,,,,,,,,,,,,,,,,,,,,,,,,,,,,,,,,,,,,,,,,,,,,,,,,,
605824a5c79c7e261e281cc5,2023-11-24_24h44.53.841,kallum_motion_pilot,2023.1.2,Win32,59.93766483,605824a5c79c7e261e281cc5,656018846682f3df8008bb8f,65601baca33617af94bb08aa,0,22,22,83,1,sixeight,,,,,,,,,,,,,,,,,,,,,,,,,,,,,,,,,,,,,,,,,,,,,,,,,,,,,,,,,,,,,,,,,,,,,,,,,,,,,,,,,,,,,
605824a5c79c7e261e281cc5,2023-11-24_24h44.53.841,kallum_motion_pilot,2023.1.2,Win32,59.93766483,605824a5c79c7e261e281cc5,656018846682f3df8008bb8f,65601baca33617af94bb08aa,0,23,23,153,1,fiveseven,,,,,,,,,,,,,,,,,,,,,,,,,,,,,,,,,,,,,,,,,,,,,,,,,,,,,,,,,,,,,,,,,,,,,,,,,,,,,,,,,,,,,
605824a5c79c7e261e281cc5,2023-11-24_24h44.53.841,kallum_motion_pilot,2023.1.2,Win32,59.93766483,605824a5c79c7e261e281cc5,656018846682f3df8008bb8f,65601baca33617af94bb08aa,0,24,24,147,1,sixeight,,,,,,,,,,,,,,,,,,,,,,,,,,,,,,,,,,,,,,,,,,,,,,,,,,,,,,,,,,,,,,,,,,,,,,,,,,,,,,,,,,,,,
605824a5c79c7e261e281cc5,2023-11-24_24h44.53.841,kallum_motion_pilot,2023.1.2,Win32,59.93766483,605824a5c79c7e261e281cc5,656018846682f3df8008bb8f,65601baca33617af94bb08aa,0,25,25,140,1,sevenfive,,,,,,,,,,,,,,,,,,,,,,,,,,,,,,,,,,,,,,,,,,,,,,,,,,,,,,,,,,,,,,,,,,,,,,,,,,,,,,,,,,,,,
605824a5c79c7e261e281cc5,2023-11-24_24h44.53.841,kallum_motion_pilot,2023.1.2,Win32,59.93766483,605824a5c79c7e261e281cc5,656018846682f3df8008bb8f,65601baca33617af94bb08aa,0,26,26,125,1,seveneight,,,,,,,,,,,,,,,,,,,,,,,,,,,,,,,,,,,,,,,,,,,,,,,,,,,,,,,,,,,,,,,,,,,,,,,,,,,,,,,,,,,,,
605824a5c79c7e261e281cc5,2023-11-24_24h44.53.841,kallum_motion_pilot,2023.1.2,Win32,59.93766483,605824a5c79c7e261e281cc5,656018846682f3df8008bb8f,65601baca33617af94bb08aa,0,27,27,98,1,sixfive,,,,,,,,,,,,,,,,,,,,,,,,,,,,,,,,,,,,,,,,,,,,,,,,,,,,,,,,,,,,,,,,,,,,,,,,,,,,,,,,,,,,,
605824a5c79c7e261e281cc5,2023-11-24_24h44.53.841,kallum_motion_pilot,2023.1.2,Win32,59.93766483,605824a5c79c7e261e281cc5,656018846682f3df8008bb8f,65601baca33617af94bb08aa,0,28,28,86,1,eightsix,,,,,,,,,,,,,,,,,,,,,,,,,,,,,,,,,,,,,,,,,,,,,,,,,,,,,,,,,,,,,,,,,,,,,,,,,,,,,,,,,,,,,
605824a5c79c7e261e281cc5,2023-11-24_24h44.53.841,kallum_motion_pilot,2023.1.2,Win32,59.93766483,605824a5c79c7e261e281cc5,656018846682f3df8008bb8f,65601baca33617af94bb08aa,0,29,29,77,1,threefour,,,,,,,,,,,,,,,,,,,,,,,,,,,,,,,,,,,,,,,,,,,,,,,,,,,,,,,,,,,,,,,,,,,,,,,,,,,,,,,,,,,,,
605824a5c79c7e261e281cc5,2023-11-24_24h44.53.841,kallum_motion_pilot,2023.1.2,Win32,59.93766483,605824a5c79c7e261e281cc5,656018846682f3df8008bb8f,65601baca33617af94bb08aa,0,30,30,54,1,fourtwo,,,,,,,,,,,,,,,,,,,,,,,,,,,,,,,,,,,,,,,,,,,,,,,,,,,,,,,,,,,,,,,,,,,,,,,,,,,,,,,,,,,,,
605824a5c79c7e261e281cc5,2023-11-24_24h44.53.841,kallum_motion_pilot,2023.1.2,Win32,59.93766483,605824a5c79c7e261e281cc5,656018846682f3df8008bb8f,65601baca33617af94bb08aa,0,31,31,109,1,seveneight,,,,,,,,,,,,,,,,,,,,,,,,,,,,,,,,,,,,,,,,,,,,,,,,,,,,,,,,,,,,,,,,,,,,,,,,,,,,,,,,,,,,,
605824a5c79c7e261e281cc5,2023-11-24_24h44.53.841,kallum_motion_pilot,2023.1.2,Win32,59.93766483,605824a5c79c7e261e281cc5,656018846682f3df8008bb8f,65601baca33617af94bb08aa,0,32,32,105,1,fiveseven,,,,,,,,,,,,,,,,,,,,,,,,,,,,,,,,,,,,,,,,,,,,,,,,,,,,,,,,,,,,,,,,,,,,,,,,,,,,,,,,,,,,,
605824a5c79c7e261e281cc5,2023-11-24_24h44.53.841,kallum_motion_pilot,2023.1.2,Win32,59.93766483,605824a5c79c7e261e281cc5,656018846682f3df8008bb8f,65601baca33617af94bb08aa,0,33,33,133,1,seveneight,,,,,,,,,,,,,,,,,,,,,,,,,,,,,,,,,,,,,,,,,,,,,,,,,,,,,,,,,,,,,,,,,,,,,,,,,,,,,,,,,,,,,
605824a5c79c7e261e281cc5,2023-11-24_24h44.53.841,kallum_motion_pilot,2023.1.2,Win32,59.93766483,605824a5c79c7e261e281cc5,656018846682f3df8008bb8f,65601baca33617af94bb08aa,0,34,34,28,1,threeone,,,,,,,,,,,,,,,,,,,,,,,,,,,,,,,,,,,,,,,,,,,,,,,,,,,,,,,,,,,,,,,,,,,,,,,,,,,,,,,,,,,,,
605824a5c79c7e261e281cc5,2023-11-24_24h44.53.841,kallum_motion_pilot,2023.1.2,Win32,59.93766483,605824a5c79c7e261e281cc5,656018846682f3df8008bb8f,65601baca33617af94bb08aa,0,35,35,116,1,sevenfive,,,,,,,,,,,,,,,,,,,,,,,,,,,,,,,,,,,,,,,,,,,,,,,,,,,,,,,,,,,,,,,,,,,,,,,,,,,,,,,,,,,,,
605824a5c79c7e261e281cc5,2023-11-24_24h44.53.841,kallum_motion_pilot,2023.1.2,Win32,59.93766483,605824a5c79c7e261e281cc5,656018846682f3df8008bb8f,65601baca33617af94bb08aa,0,36,36,158,1,eightsix,,,,,,,,,,,,,,,,,,,,,,,,,,,,,,,,,,,,,,,,,,,,,,,,,,,,,,,,,,,,,,,,,,,,,,,,,,,,,,,,,,,,,
605824a5c79c7e261e281cc5,2023-11-24_24h44.53.841,kallum_motion_pilot,2023.1.2,Win32,59.93766483,605824a5c79c7e261e281cc5,656018846682f3df8008bb8f,65601baca33617af94bb08aa,0,37,37,6,1,fourtwo,,,,,,,,,,,,,,,,,,,,,,,,,,,,,,,,,,,,,,,,,,,,,,,,,,,,,,,,,,,,,,,,,,,,,,,,,,,,,,,,,,,,,
605824a5c79c7e261e281cc5,2023-11-24_24h44.53.841,kallum_motion_pilot,2023.1.2,Win32,59.93766483,605824a5c79c7e261e281cc5,656018846682f3df8008bb8f,65601baca33617af94bb08aa,0,38,38,136,1,fivesix,,,,,,,,,,,,,,,,,,,,,,,,,,,,,,,,,,,,,,,,,,,,,,,,,,,,,,,,,,,,,,,,,,,,,,,,,,,,,,,,,,,,,
605824a5c79c7e261e281cc5,2023-11-24_24h44.53.841,kallum_motion_pilot,2023.1.2,Win32,59.93766483,605824a5c79c7e261e281cc5,656018846682f3df8008bb8f,65601baca33617af94bb08aa,0,39,39,42,1,twoone,,,,,,,,,,,,,,,,,,,,,,,,,,,,,,,,,,,,,,,,,,,,,,,,,,,,,,,,,,,,,,,,,,,,,,,,,,,,,,,,,,,,,
605824a5c79c7e261e281cc5,2023-11-24_24h44.53.841,kallum_motion_pilot,2023.1.2,Win32,59.93766483,605824a5c79c7e261e281cc5,656018846682f3df8008bb8f,65601baca33617af94bb08aa,0,40,40,138,1,sixfive,,,,,,,,,,,,,,,,,,,,,,,,,,,,,,,,,,,,,,,,,,,,,,,,,,,,,,,,,,,,,,,,,,,,,,,,,,,,,,,,,,,,,
605824a5c79c7e261e281cc5,2023-11-24_24h44.53.841,kallum_motion_pilot,2023.1.2,Win32,59.93766483,605824a5c79c7e261e281cc5,656018846682f3df8008bb8f,65601baca33617af94bb08aa,0,41,41,47,1,fourthree,,,,,,,,,,,,,,,,,,,,,,,,,,,,,,,,,,,,,,,,,,,,,,,,,,,,,,,,,,,,,,,,,,,,,,,,,,,,,,,,,,,,,
605824a5c79c7e261e281cc5,2023-11-24_24h44.53.841,kallum_motion_pilot,2023.1.2,Win32,59.93766483,605824a5c79c7e261e281cc5,656018846682f3df8008bb8f,65601baca33617af94bb08aa,0,42,42,161,1,fiveseven,,,,,,,,,,,,,,,,,,,,,,,,,,,,,,,,,,,,,,,,,,,,,,,,,,,,,,,,,,,,,,,,,,,,,,,,,,,,,,,,,,,,,
605824a5c79c7e261e281cc5,2023-11-24_24h44.53.841,kallum_motion_pilot,2023.1.2,Win32,59.93766483,605824a5c79c7e261e281cc5,656018846682f3df8008bb8f,65601baca33617af94bb08aa,0,43,43,41,1,onethree,,,,,,,,,,,,,,,,,,,,,,,,,,,,,,,,,,,,,,,,,,,,,,,,,,,,,,,,,,,,,,,,,,,,,,,,,,,,,,,,,,,,,
605824a5c79c7e261e281cc5,2023-11-24_24h44.53.841,kallum_motion_pilot,2023.1.2,Win32,59.93766483,605824a5c79c7e261e281cc5,656018846682f3df8008bb8f,65601baca33617af94bb08aa,0,44,44,99,1,sixeight,,,,,,,,,,,,,,,,,,,,,,,,,,,,,,,,,,,,,,,,,,,,,,,,,,,,,,,,,,,,,,,,,,,,,,,,,,,,,,,,,,,,,
605824a5c79c7e261e281cc5,2023-11-24_24h44.53.841,kallum_motion_pilot,2023.1.2,Win32,59.93766483,605824a5c79c7e261e281cc5,656018846682f3df8008bb8f,65601baca33617af94bb08aa,0,45,45,84,1,sevenfive,,,,,,,,,,,,,,,,,,,,,,,,,,,,,,,,,,,,,,,,,,,,,,,,,,,,,,,,,,,,,,,,,,,,,,,,,,,,,,,,,,,,,
605824a5c79c7e261e281cc5,2023-11-24_24h44.53.841,kallum_motion_pilot,2023.1.2,Win32,59.93766483,605824a5c79c7e261e281cc5,656018846682f3df8008bb8f,65601baca33617af94bb08aa,0,46,46,5,1,threefour,,,,,,,,,,,,,,,,,,,,,,,,,,,,,,,,,,,,,,,,,,,,,,,,,,,,,,,,,,,,,,,,,,,,,,,,,,,,,,,,,,,,,
605824a5c79c7e261e281cc5,2023-11-24_24h44.53.841,kallum_motion_pilot,2023.1.2,Win32,59.93766483,605824a5c79c7e261e281cc5,656018846682f3df8008bb8f,65601baca33617af94bb08aa,0,47,47,111,1,eightseven,,,,,,,,,,,,,,,,,,,,,,,,,,,,,,,,,,,,,,,,,,,,,,,,,,,,,,,,,,,,,,,,,,,,,,,,,,,,,,,,,,,,,
605824a5c79c7e261e281cc5,2023-11-24_24h44.53.841,kallum_motion_pilot,2023.1.2,Win32,59.93766483,605824a5c79c7e261e281cc5,656018846682f3df8008bb8f,65601baca33617af94bb08aa,0,48,48,103,1,eightseven,,,,,,,,,,,,,,,,,,,,,,,,,,,,,,,,,,,,,,,,,,,,,,,,,,,,,,,,,,,,,,,,,,,,,,,,,,,,,,,,,,,,,
605824a5c79c7e261e281cc5,2023-11-24_24h44.53.841,kallum_motion_pilot,2023.1.2,Win32,59.93766483,605824a5c79c7e261e281cc5,656018846682f3df8008bb8f,65601baca33617af94bb08aa,0,49,49,68,1,threeone,,,,,,,,,,,,,,,,,,,,,,,,,,,,,,,,,,,,,,,,,,,,,,,,,,,,,,,,,,,,,,,,,,,,,,,,,,,,,,,,,,,,,
605824a5c79c7e261e281cc5,2023-11-24_24h44.53.841,kallum_motion_pilot,2023.1.2,Win32,59.93766483,605824a5c79c7e261e281cc5,656018846682f3df8008bb8f,65601baca33617af94bb08aa,0,50,50,82,1,sixfive,,,,,,,,,,,,,,,,,,,,,,,,,,,,,,,,,,,,,,,,,,,,,,,,,,,,,,,,,,,,,,,,,,,,,,,,,,,,,,,,,,,,,
605824a5c79c7e261e281cc5,2023-11-24_24h44.53.841,kallum_motion_pilot,2023.1.2,Win32,59.93766483,605824a5c79c7e261e281cc5,656018846682f3df8008bb8f,65601baca33617af94bb08aa,0,51,51,0,1,onetwo,,,,,,,,,,,,,,,,,,,,,,,,,,,,,,,,,,,,,,,,,,,,,,,,,,,,,,,,,,,,,,,,,,,,,,,,,,,,,,,,,,,,,
605824a5c79c7e261e281cc5,2023-11-24_24h44.53.841,kallum_motion_pilot,2023.1.2,Win32,59.93766483,605824a5c79c7e261e281cc5,656018846682f3df8008bb8f,65601baca33617af94bb08aa,0,52,52,92,1,sevenfive,,,,,,,,,,,,,,,,,,,,,,,,,,,,,,,,,,,,,,,,,,,,,,,,,,,,,,,,,,,,,,,,,,,,,,,,,,,,,,,,,,,,,
605824a5c79c7e261e281cc5,2023-11-24_24h44.53.841,kallum_motion_pilot,2023.1.2,Win32,59.93766483,605824a5c79c7e261e281cc5,656018846682f3df8008bb8f,65601baca33617af94bb08aa,0,53,53,26,1,twoone,,,,,,,,,,,,,,,,,,,,,,,,,,,,,,,,,,,,,,,,,,,,,,,,,,,,,,,,,,,,,,,,,,,,,,,,,,,,,,,,,,,,,
605824a5c79c7e261e281cc5,2023-11-24_24h44.53.841,kallum_motion_pilot,2023.1.2,Win32,59.93766483,605824a5c79c7e261e281cc5,656018846682f3df8008bb8f,65601baca33617af94bb08aa,0,54,54,154,1,sixfive,,,,,,,,,,,,,,,,,,,,,,,,,,,,,,,,,,,,,,,,,,,,,,,,,,,,,,,,,,,,,,,,,,,,,,,,,,,,,,,,,,,,,
605824a5c79c7e261e281cc5,2023-11-24_24h44.53.841,kallum_motion_pilot,2023.1.2,Win32,59.93766483,605824a5c79c7e261e281cc5,656018846682f3df8008bb8f,65601baca33617af94bb08aa,0,55,55,85,1,seveneight,,,,,,,,,,,,,,,,,,,,,,,,,,,,,,,,,,,,,,,,,,,,,,,,,,,,,,,,,,,,,,,,,,,,,,,,,,,,,,,,,,,,,
605824a5c79c7e261e281cc5,2023-11-24_24h44.53.841,kallum_motion_pilot,2023.1.2,Win32,59.93766483,605824a5c79c7e261e281cc5,656018846682f3df8008bb8f,65601baca33617af94bb08aa,0,56,56,3,1,twofour,,,,,,,,,,,,,,,,,,,,,,,,,,,,,,,,,,,,,,,,,,,,,,,,,,,,,,,,,,,,,,,,,,,,,,,,,,,,,,,,,,,,,
605824a5c79c7e261e281cc5,2023-11-24_24h44.53.841,kallum_motion_pilot,2023.1.2,Win32,59.93766483,605824a5c79c7e261e281cc5,656018846682f3df8008bb8f,65601baca33617af94bb08aa,0,57,57,100,1,sevenfive,,,,,,,,,,,,,,,,,,,,,,,,,,,,,,,,,,,,,,,,,,,,,,,,,,,,,,,,,,,,,,,,,,,,,,,,,,,,,,,,,,,,,
605824a5c79c7e261e281cc5,2023-11-24_24h44.53.841,kallum_motion_pilot,2023.1.2,Win32,59.93766483,605824a5c79c7e261e281cc5,656018846682f3df8008bb8f,65601baca33617af94bb08aa,0,58,58,18,1,twoone,,,,,,,,,,,,,,,,,,,,,,,,,,,,,,,,,,,,,,,,,,,,,,,,,,,,,,,,,,,,,,,,,,,,,,,,,,,,,,,,,,,,,
605824a5c79c7e261e281cc5,2023-11-24_24h44.53.841,kallum_motion_pilot,2023.1.2,Win32,59.93766483,605824a5c79c7e261e281cc5,656018846682f3df8008bb8f,65601baca33617af94bb08aa,0,59,59,141,1,seveneight,,,,,,,,,,,,,,,,,,,,,,,,,,,,,,,,,,,,,,,,,,,,,,,,,,,,,,,,,,,,,,,,,,,,,,,,,,,,,,,,,,,,,
605824a5c79c7e261e281cc5,2023-11-24_24h44.53.841,kallum_motion_pilot,2023.1.2,Win32,59.93766483,605824a5c79c7e261e281cc5,656018846682f3df8008bb8f,65601baca33617af94bb08aa,0,60,60,130,1,sixfive,,,,,,,,,,,,,,,,,,,,,,,,,,,,,,,,,,,,,,,,,,,,,,,,,,,,,,,,,,,,,,,,,,,,,,,,,,,,,,,,,,,,,
605824a5c79c7e261e281cc5,2023-11-24_24h44.53.841,kallum_motion_pilot,2023.1.2,Win32,59.93766483,605824a5c79c7e261e281cc5,656018846682f3df8008bb8f,65601baca33617af94bb08aa,0,61,61,120,1,fivesix,,,,,,,,,,,,,,,,,,,,,,,,,,,,,,,,,,,,,,,,,,,,,,,,,,,,,,,,,,,,,,,,,,,,,,,,,,,,,,,,,,,,,
605824a5c79c7e261e281cc5,2023-11-24_24h44.53.841,kallum_motion_pilot,2023.1.2,Win32,59.93766483,605824a5c79c7e261e281cc5,656018846682f3df8008bb8f,65601baca33617af94bb08aa,0,62,62,45,1,threefour,,,,,,,,,,,,,,,,,,,,,,,,,,,,,,,,,,,,,,,,,,,,,,,,,,,,,,,,,,,,,,,,,,,,,,,,,,,,,,,,,,,,,
605824a5c79c7e261e281cc5,2023-11-24_24h44.53.841,kallum_motion_pilot,2023.1.2,Win32,59.93766483,605824a5c79c7e261e281cc5,656018846682f3df8008bb8f,65601baca33617af94bb08aa,0,63,63,115,1,sixeight,,,,,,,,,,,,,,,,,,,,,,,,,,,,,,,,,,,,,,,,,,,,,,,,,,,,,,,,,,,,,,,,,,,,,,,,,,,,,,,,,,,,,
605824a5c79c7e261e281cc5,2023-11-24_24h44.53.841,kallum_motion_pilot,2023.1.2,Win32,59.93766483,605824a5c79c7e261e281cc5,656018846682f3df8008bb8f,65601baca33617af94bb08aa,0,64,64,112,1,fivesix,,,,,,,,,,,,,,,,,,,,,,,,,,,,,,,,,,,,,,,,,,,,,,,,,,,,,,,,,,,,,,,,,,,,,,,,,,,,,,,,,,,,,
605824a5c79c7e261e281cc5,2023-11-24_24h44.53.841,kallum_motion_pilot,2023.1.2,Win32,59.93766483,605824a5c79c7e261e281cc5,656018846682f3df8008bb8f,65601baca33617af94bb08aa,0,65,65,10,1,twoone,,,,,,,,,,,,,,,,,,,,,,,,,,,,,,,,,,,,,,,,,,,,,,,,,,,,,,,,,,,,,,,,,,,,,,,,,,,,,,,,,,,,,
605824a5c79c7e261e281cc5,2023-11-24_24h44.53.841,kallum_motion_pilot,2023.1.2,Win32,59.93766483,605824a5c79c7e261e281cc5,656018846682f3df8008bb8f,65601baca33617af94bb08aa,0,66,66,95,1,eightseven,,,,,,,,,,,,,,,,,,,,,,,,,,,,,,,,,,,,,,,,,,,,,,,,,,,,,,,,,,,,,,,,,,,,,,,,,,,,,,,,,,,,,
605824a5c79c7e261e281cc5,2023-11-24_24h44.53.841,kallum_motion_pilot,2023.1.2,Win32,59.93766483,605824a5c79c7e261e281cc5,656018846682f3df8008bb8f,65601baca33617af94bb08aa,0,67,67,101,1,seveneight,,,,,,,,,,,,,,,,,,,,,,,,,,,,,,,,,,,,,,,,,,,,,,,,,,,,,,,,,,,,,,,,,,,,,,,,,,,,,,,,,,,,,
605824a5c79c7e261e281cc5,2023-11-24_24h44.53.841,kallum_motion_pilot,2023.1.2,Win32,59.93766483,605824a5c79c7e261e281cc5,656018846682f3df8008bb8f,65601baca33617af94bb08aa,0,68,68,34,1,twoone,,,,,,,,,,,,,,,,,,,,,,,,,,,,,,,,,,,,,,,,,,,,,,,,,,,,,,,,,,,,,,,,,,,,,,,,,,,,,,,,,,,,,
605824a5c79c7e261e281cc5,2023-11-24_24h44.53.841,kallum_motion_pilot,2023.1.2,Win32,59.93766483,605824a5c79c7e261e281cc5,656018846682f3df8008bb8f,65601baca33617af94bb08aa,0,69,69,24,1,onetwo,,,,,,,,,,,,,,,,,,,,,,,,,,,,,,,,,,,,,,,,,,,,,,,,,,,,,,,,,,,,,,,,,,,,,,,,,,,,,,,,,,,,,
605824a5c79c7e261e281cc5,2023-11-24_24h44.53.841,kallum_motion_pilot,2023.1.2,Win32,59.93766483,605824a5c79c7e261e281cc5,656018846682f3df8008bb8f,65601baca33617af94bb08aa,0,70,70,75,1,twofour,,,,,,,,,,,,,,,,,,,,,,,,,,,,,,,,,,,,,,,,,,,,,,,,,,,,,,,,,,,,,,,,,,,,,,,,,,,,,,,,,,,,,
605824a5c79c7e261e281cc5,2023-11-24_24h44.53.841,kallum_motion_pilot,2023.1.2,Win32,59.93766483,605824a5c79c7e261e281cc5,656018846682f3df8008bb8f,65601baca33617af94bb08aa,0,71,71,119,1,eightseven,,,,,,,,,,,,,,,,,,,,,,,,,,,,,,,,,,,,,,,,,,,,,,,,,,,,,,,,,,,,,,,,,,,,,,,,,,,,,,,,,,,,,
605824a5c79c7e261e281cc5,2023-11-24_24h44.53.841,kallum_motion_pilot,2023.1.2,Win32,59.93766483,605824a5c79c7e261e281cc5,656018846682f3df8008bb8f,65601baca33617af94bb08aa,0,72,72,144,1,fivesix,,,,,,,,,,,,,,,,,,,,,,,,,,,,,,,,,,,,,,,,,,,,,,,,,,,,,,,,,,,,,,,,,,,,,,,,,,,,,,,,,,,,,
605824a5c79c7e261e281cc5,2023-11-24_24h44.53.841,kallum_motion_pilot,2023.1.2,Win32,59.93766483,605824a5c79c7e261e281cc5,656018846682f3df8008bb8f,65601baca33617af94bb08aa,0,73,73,52,1,threeone,,,,,,,,,,,,,,,,,,,,,,,,,,,,,,,,,,,,,,,,,,,,,,,,,,,,,,,,,,,,,,,,,,,,,,,,,,,,,,,,,,,,,
605824a5c79c7e261e281cc5,2023-11-24_24h44.53.841,kallum_motion_pilot,2023.1.2,Win32,59.93766483,605824a5c79c7e261e281cc5,656018846682f3df8008bb8f,65601baca33617af94bb08aa,0,74,74,2,1,twoone,,,,,,,,,,,,,,,,,,,,,,,,,,,,,,,,,,,,,,,,,,,,,,,,,,,,,,,,,,,,,,,,,,,,,,,,,,,,,,,,,,,,,
605824a5c79c7e261e281cc5,2023-11-24_24h44.53.841,kallum_motion_pilot,2023.1.2,Win32,59.93766483,605824a5c79c7e261e281cc5,656018846682f3df8008bb8f,65601baca33617af94bb08aa,0,75,75,148,1,sevenfive,,,,,,,,,,,,,,,,,,,,,,,,,,,,,,,,,,,,,,,,,,,,,,,,,,,,,,,,,,,,,,,,,,,,,,,,,,,,,,,,,,,,,
605824a5c79c7e261e281cc5,2023-11-24_24h44.53.841,kallum_motion_pilot,2023.1.2,Win32,59.93766483,605824a5c79c7e261e281cc5,656018846682f3df8008bb8f,65601baca33617af94bb08aa,0,76,76,65,1,onethree,,,,,,,,,,,,,,,,,,,,,,,,,,,,,,,,,,,,,,,,,,,,,,,,,,,,,,,,,,,,,,,,,,,,,,,,,,,,,,,,,,,,,
605824a5c79c7e261e281cc5,2023-11-24_24h44.53.841,kallum_motion_pilot,2023.1.2,Win32,59.93766483,605824a5c79c7e261e281cc5,656018846682f3df8008bb8f,65601baca33617af94bb08aa,0,77,77,135,1,eightseven,,,,,,,,,,,,,,,,,,,,,,,,,,,,,,,,,,,,,,,,,,,,,,,,,,,,,,,,,,,,,,,,,,,,,,,,,,,,,,,,,,,,,
605824a5c79c7e261e281cc5,2023-11-24_24h44.53.841,kallum_motion_pilot,2023.1.2,Win32,59.93766483,605824a5c79c7e261e281cc5,656018846682f3df8008bb8f,65601baca33617af94bb08aa,0,78,78,160,1,fivesix,,,,,,,,,,,,,,,,,,,,,,,,,,,,,,,,,,,,,,,,,,,,,,,,,,,,,,,,,,,,,,,,,,,,,,,,,,,,,,,,,,,,,
605824a5c79c7e261e281cc5,2023-11-24_24h44.53.841,kallum_motion_pilot,2023.1.2,Win32,59.93766483,605824a5c79c7e261e281cc5,656018846682f3df8008bb8f,65601baca33617af94bb08aa,0,79,79,31,1,fourthree,,,,,,,,,,,,,,,,,,,,,,,,,,,,,,,,,,,,,,,,,,,,,,,,,,,,,,,,,,,,,,,,,,,,,,,,,,,,,,,,,,,,,
605824a5c79c7e261e281cc5,2023-11-24_24h44.53.841,kallum_motion_pilot,2023.1.2,Win32,59.93766483,605824a5c79c7e261e281cc5,656018846682f3df8008bb8f,65601baca33617af94bb08aa,0,80,80,53,1,threefour,,,,,,,,,,,,,,,,,,,,,,,,,,,,,,,,,,,,,,,,,,,,,,,,,,,,,,,,,,,,,,,,,,,,,,,,,,,,,,,,,,,,,
605824a5c79c7e261e281cc5,2023-11-24_24h44.53.841,kallum_motion_pilot,2023.1.2,Win32,59.93766483,605824a5c79c7e261e281cc5,656018846682f3df8008bb8f,65601baca33617af94bb08aa,0,81,81,76,1,threeone,,,,,,,,,,,,,,,,,,,,,,,,,,,,,,,,,,,,,,,,,,,,,,,,,,,,,,,,,,,,,,,,,,,,,,,,,,,,,,,,,,,,,
605824a5c79c7e261e281cc5,2023-11-24_24h44.53.841,kallum_motion_pilot,2023.1.2,Win32,59.93766483,605824a5c79c7e261e281cc5,656018846682f3df8008bb8f,65601baca33617af94bb08aa,0,82,82,29,1,threefour,,,,,,,,,,,,,,,,,,,,,,,,,,,,,,,,,,,,,,,,,,,,,,,,,,,,,,,,,,,,,,,,,,,,,,,,,,,,,,,,,,,,,
605824a5c79c7e261e281cc5,2023-11-24_24h44.53.841,kallum_motion_pilot,2023.1.2,Win32,59.93766483,605824a5c79c7e261e281cc5,656018846682f3df8008bb8f,65601baca33617af94bb08aa,0,83,83,155,1,sixeight,,,,,,,,,,,,,,,,,,,,,,,,,,,,,,,,,,,,,,,,,,,,,,,,,,,,,,,,,,,,,,,,,,,,,,,,,,,,,,,,,,,,,
605824a5c79c7e261e281cc5,2023-11-24_24h44.53.841,kallum_motion_pilot,2023.1.2,Win32,59.93766483,605824a5c79c7e261e281cc5,656018846682f3df8008bb8f,65601baca33617af94bb08aa,0,84,84,63,1,fourthree,,,,,,,,,,,,,,,,,,,,,,,,,,,,,,,,,,,,,,,,,,,,,,,,,,,,,,,,,,,,,,,,,,,,,,,,,,,,,,,,,,,,,
605824a5c79c7e261e281cc5,2023-11-24_24h44.53.841,kallum_motion_pilot,2023.1.2,Win32,59.93766483,605824a5c79c7e261e281cc5,656018846682f3df8008bb8f,65601baca33617af94bb08aa,0,85,85,66,1,twoone,,,,,,,,,,,,,,,,,,,,,,,,,,,,,,,,,,,,,,,,,,,,,,,,,,,,,,,,,,,,,,,,,,,,,,,,,,,,,,,,,,,,,
605824a5c79c7e261e281cc5,2023-11-24_24h44.53.841,kallum_motion_pilot,2023.1.2,Win32,59.93766483,605824a5c79c7e261e281cc5,656018846682f3df8008bb8f,65601baca33617af94bb08aa,0,86,86,12,1,threeone,,,,,,,,,,,,,,,,,,,,,,,,,,,,,,,,,,,,,,,,,,,,,,,,,,,,,,,,,,,,,,,,,,,,,,,,,,,,,,,,,,,,,
605824a5c79c7e261e281cc5,2023-11-24_24h44.53.841,kallum_motion_pilot,2023.1.2,Win32,59.93766483,605824a5c79c7e261e281cc5,656018846682f3df8008bb8f,65601baca33617af94bb08aa,0,87,87,48,1,onetwo,,,,,,,,,,,,,,,,,,,,,,,,,,,,,,,,,,,,,,,,,,,,,,,,,,,,,,,,,,,,,,,,,,,,,,,,,,,,,,,,,,,,,
605824a5c79c7e261e281cc5,2023-11-24_24h44.53.841,kallum_motion_pilot,2023.1.2,Win32,59.93766483,605824a5c79c7e261e281cc5,656018846682f3df8008bb8f,65601baca33617af94bb08aa,0,88,88,149,1,seveneight,,,,,,,,,,,,,,,,,,,,,,,,,,,,,,,,,,,,,,,,,,,,,,,,,,,,,,,,,,,,,,,,,,,,,,,,,,,,,,,,,,,,,
605824a5c79c7e261e281cc5,2023-11-24_24h44.53.841,kallum_motion_pilot,2023.1.2,Win32,59.93766483,605824a5c79c7e261e281cc5,656018846682f3df8008bb8f,65601baca33617af94bb08aa,0,89,89,143,1,eightseven,,,,,,,,,,,,,,,,,,,,,,,,,,,,,,,,,,,,,,,,,,,,,,,,,,,,,,,,,,,,,,,,,,,,,,,,,,,,,,,,,,,,,
605824a5c79c7e261e281cc5,2023-11-24_24h44.53.841,kallum_motion_pilot,2023.1.2,Win32,59.93766483,605824a5c79c7e261e281cc5,656018846682f3df8008bb8f,65601baca33617af94bb08aa,0,90,90,146,1,sixfive,,,,,,,,,,,,,,,,,,,,,,,,,,,,,,,,,,,,,,,,,,,,,,,,,,,,,,,,,,,,,,,,,,,,,,,,,,,,,,,,,,,,,
605824a5c79c7e261e281cc5,2023-11-24_24h44.53.841,kallum_motion_pilot,2023.1.2,Win32,59.93766483,605824a5c79c7e261e281cc5,656018846682f3df8008bb8f,65601baca33617af94bb08aa,0,91,91,81,1,fiveseven,,,,,,,,,,,,,,,,,,,,,,,,,,,,,,,,,,,,,,,,,,,,,,,,,,,,,,,,,,,,,,,,,,,,,,,,,,,,,,,,,,,,,
605824a5c79c7e261e281cc5,2023-11-24_24h44.53.841,kallum_motion_pilot,2023.1.2,Win32,59.93766483,605824a5c79c7e261e281cc5,656018846682f3df8008bb8f,65601baca33617af94bb08aa,0,92,92,50,1,twoone,,,,,,,,,,,,,,,,,,,,,,,,,,,,,,,,,,,,,,,,,,,,,,,,,,,,,,,,,,,,,,,,,,,,,,,,,,,,,,,,,,,,,
605824a5c79c7e261e281cc5,2023-11-24_24h44.53.841,kallum_motion_pilot,2023.1.2,Win32,59.93766483,605824a5c79c7e261e281cc5,656018846682f3df8008bb8f,65601baca33617af94bb08aa,0,93,93,4,1,threeone,,,,,,,,,,,,,,,,,,,,,,,,,,,,,,,,,,,,,,,,,,,,,,,,,,,,,,,,,,,,,,,,,,,,,,,,,,,,,,,,,,,,,
605824a5c79c7e261e281cc5,2023-11-24_24h44.53.841,kallum_motion_pilot,2023.1.2,Win32,59.93766483,605824a5c79c7e261e281cc5,656018846682f3df8008bb8f,65601baca33617af94bb08aa,0,94,94,127,1,eightseven,,,,,,,,,,,,,,,,,,,,,,,,,,,,,,,,,,,,,,,,,,,,,,,,,,,,,,,,,,,,,,,,,,,,,,,,,,,,,,,,,,,,,
605824a5c79c7e261e281cc5,2023-11-24_24h44.53.841,kallum_motion_pilot,2023.1.2,Win32,59.93766483,605824a5c79c7e261e281cc5,656018846682f3df8008bb8f,65601baca33617af94bb08aa,0,95,95,58,1,twoone,,,,,,,,,,,,,,,,,,,,,,,,,,,,,,,,,,,,,,,,,,,,,,,,,,,,,,,,,,,,,,,,,,,,,,,,,,,,,,,,,,,,,
605824a5c79c7e261e281cc5,2023-11-24_24h44.53.841,kallum_motion_pilot,2023.1.2,Win32,59.93766483,605824a5c79c7e261e281cc5,656018846682f3df8008bb8f,65601baca33617af94bb08aa,0,96,96,94,1,eightsix,,,,,,,,,,,,,,,,,,,,,,,,,,,,,,,,,,,,,,,,,,,,,,,,,,,,,,,,,,,,,,,,,,,,,,,,,,,,,,,,,,,,,
605824a5c79c7e261e281cc5,2023-11-24_24h44.53.841,kallum_motion_pilot,2023.1.2,Win32,59.93766483,605824a5c79c7e261e281cc5,656018846682f3df8008bb8f,65601baca33617af94bb08aa,0,97,97,124,1,sevenfive,,,,,,,,,,,,,,,,,,,,,,,,,,,,,,,,,,,,,,,,,,,,,,,,,,,,,,,,,,,,,,,,,,,,,,,,,,,,,,,,,,,,,
605824a5c79c7e261e281cc5,2023-11-24_24h44.53.841,kallum_motion_pilot,2023.1.2,Win32,59.93766483,605824a5c79c7e261e281cc5,656018846682f3df8008bb8f,65601baca33617af94bb08aa,0,98,98,17,1,onethree,,,,,,,,,,,,,,,,,,,,,,,,,,,,,,,,,,,,,,,,,,,,,,,,,,,,,,,,,,,,,,,,,,,,,,,,,,,,,,,,,,,,,
605824a5c79c7e261e281cc5,2023-11-24_24h44.53.841,kallum_motion_pilot,2023.1.2,Win32,59.93766483,605824a5c79c7e261e281cc5,656018846682f3df8008bb8f,65601baca33617af94bb08aa,0,99,99,80,1,fivesix,,,,,,,,,,,,,,,,,,,,,,,,,,,,,,,,,,,,,,,,,,,,,,,,,,,,,,,,,,,,,,,,,,,,,,,,,,,,,,,,,,,,,
605824a5c79c7e261e281cc5,2023-11-24_24h44.53.841,kallum_motion_pilot,2023.1.2,Win32,59.93766483,605824a5c79c7e261e281cc5,656018846682f3df8008bb8f,65601baca33617af94bb08aa,0,100,100,129,1,fiveseven,,,,,,,,,,,,,,,,,,,,,,,,,,,,,,,,,,,,,,,,,,,,,,,,,,,,,,,,,,,,,,,,,,,,,,,,,,,,,,,,,,,,,
605824a5c79c7e261e281cc5,2023-11-24_24h44.53.841,kallum_motion_pilot,2023.1.2,Win32,59.93766483,605824a5c79c7e261e281cc5,656018846682f3df8008bb8f,65601baca33617af94bb08aa,0,101,101,14,1,fourtwo,,,,,,,,,,,,,,,,,,,,,,,,,,,,,,,,,,,,,,,,,,,,,,,,,,,,,,,,,,,,,,,,,,,,,,,,,,,,,,,,,,,,,
605824a5c79c7e261e281cc5,2023-11-24_24h44.53.841,kallum_motion_pilot,2023.1.2,Win32,59.93766483,605824a5c79c7e261e281cc5,656018846682f3df8008bb8f,65601baca33617af94bb08aa,0,102,102,36,1,threeone,,,,,,,,,,,,,,,,,,,,,,,,,,,,,,,,,,,,,,,,,,,,,,,,,,,,,,,,,,,,,,,,,,,,,,,,,,,,,,,,,,,,,
605824a5c79c7e261e281cc5,2023-11-24_24h44.53.841,kallum_motion_pilot,2023.1.2,Win32,59.93766483,605824a5c79c7e261e281cc5,656018846682f3df8008bb8f,65601baca33617af94bb08aa,0,103,103,20,1,threeone,,,,,,,,,,,,,,,,,,,,,,,,,,,,,,,,,,,,,,,,,,,,,,,,,,,,,,,,,,,,,,,,,,,,,,,,,,,,,,,,,,,,,
605824a5c79c7e261e281cc5,2023-11-24_24h44.53.841,kallum_motion_pilot,2023.1.2,Win32,59.93766483,605824a5c79c7e261e281cc5,656018846682f3df8008bb8f,65601baca33617af94bb08aa,0,104,104,156,1,sevenfive,,,,,,,,,,,,,,,,,,,,,,,,,,,,,,,,,,,,,,,,,,,,,,,,,,,,,,,,,,,,,,,,,,,,,,,,,,,,,,,,,,,,,
605824a5c79c7e261e281cc5,2023-11-24_24h44.53.841,kallum_motion_pilot,2023.1.2,Win32,59.93766483,605824a5c79c7e261e281cc5,656018846682f3df8008bb8f,65601baca33617af94bb08aa,0,105,105,73,1,onethree,,,,,,,,,,,,,,,,,,,,,,,,,,,,,,,,,,,,,,,,,,,,,,,,,,,,,,,,,,,,,,,,,,,,,,,,,,,,,,,,,,,,,
605824a5c79c7e261e281cc5,2023-11-24_24h44.53.841,kallum_motion_pilot,2023.1.2,Win32,59.93766483,605824a5c79c7e261e281cc5,656018846682f3df8008bb8f,65601baca33617af94bb08aa,0,106,106,40,1,onetwo,,,,,,,,,,,,,,,,,,,,,,,,,,,,,,,,,,,,,,,,,,,,,,,,,,,,,,,,,,,,,,,,,,,,,,,,,,,,,,,,,,,,,
605824a5c79c7e261e281cc5,2023-11-24_24h44.53.841,kallum_motion_pilot,2023.1.2,Win32,59.93766483,605824a5c79c7e261e281cc5,656018846682f3df8008bb8f,65601baca33617af94bb08aa,0,107,107,145,1,fiveseven,,,,,,,,,,,,,,,,,,,,,,,,,,,,,,,,,,,,,,,,,,,,,,,,,,,,,,,,,,,,,,,,,,,,,,,,,,,,,,,,,,,,,
605824a5c79c7e261e281cc5,2023-11-24_24h44.53.841,kallum_motion_pilot,2023.1.2,Win32,59.93766483,605824a5c79c7e261e281cc5,656018846682f3df8008bb8f,65601baca33617af94bb08aa,0,108,108,93,1,seveneight,,,,,,,,,,,,,,,,,,,,,,,,,,,,,,,,,,,,,,,,,,,,,,,,,,,,,,,,,,,,,,,,,,,,,,,,,,,,,,,,,,,,,
605824a5c79c7e261e281cc5,2023-11-24_24h44.53.841,kallum_motion_pilot,2023.1.2,Win32,59.93766483,605824a5c79c7e261e281cc5,656018846682f3df8008bb8f,65601baca33617af94bb08aa,0,109,109,22,1,fourtwo,,,,,,,,,,,,,,,,,,,,,,,,,,,,,,,,,,,,,,,,,,,,,,,,,,,,,,,,,,,,,,,,,,,,,,,,,,,,,,,,,,,,,
605824a5c79c7e261e281cc5,2023-11-24_24h44.53.841,kallum_motion_pilot,2023.1.2,Win32,59.93766483,605824a5c79c7e261e281cc5,656018846682f3df8008bb8f,65601baca33617af94bb08aa,0,110,110,131,1,sixeight,,,,,,,,,,,,,,,,,,,,,,,,,,,,,,,,,,,,,,,,,,,,,,,,,,,,,,,,,,,,,,,,,,,,,,,,,,,,,,,,,,,,,
605824a5c79c7e261e281cc5,2023-11-24_24h44.53.841,kallum_motion_pilot,2023.1.2,Win32,59.93766483,605824a5c79c7e261e281cc5,656018846682f3df8008bb8f,65601baca33617af94bb08aa,0,111,111,62,1,fourtwo,,,,,,,,,,,,,,,,,,,,,,,,,,,,,,,,,,,,,,,,,,,,,,,,,,,,,,,,,,,,,,,,,,,,,,,,,,,,,,,,,,,,,
605824a5c79c7e261e281cc5,2023-11-24_24h44.53.841,kallum_motion_pilot,2023.1.2,Win32,59.93766483,605824a5c79c7e261e281cc5,656018846682f3df8008bb8f,65601baca33617af94bb08aa,0,112,112,32,1,onetwo,,,,,,,,,,,,,,,,,,,,,,,,,,,,,,,,,,,,,,,,,,,,,,,,,,,,,,,,,,,,,,,,,,,,,,,,,,,,,,,,,,,,,
605824a5c79c7e261e281cc5,2023-11-24_24h44.53.841,kallum_motion_pilot,2023.1.2,Win32,59.93766483,605824a5c79c7e261e281cc5,656018846682f3df8008bb8f,65601baca33617af94bb08aa,0,113,113,159,1,eightseven,,,,,,,,,,,,,,,,,,,,,,,,,,,,,,,,,,,,,,,,,,,,,,,,,,,,,,,,,,,,,,,,,,,,,,,,,,,,,,,,,,,,,
605824a5c79c7e261e281cc5,2023-11-24_24h44.53.841,kallum_motion_pilot,2023.1.2,Win32,59.93766483,605824a5c79c7e261e281cc5,656018846682f3df8008bb8f,65601baca33617af94bb08aa,0,114,114,44,1,threeone,,,,,,,,,,,,,,,,,,,,,,,,,,,,,,,,,,,,,,,,,,,,,,,,,,,,,,,,,,,,,,,,,,,,,,,,,,,,,,,,,,,,,
605824a5c79c7e261e281cc5,2023-11-24_24h44.53.841,kallum_motion_pilot,2023.1.2,Win32,59.93766483,605824a5c79c7e261e281cc5,656018846682f3df8008bb8f,65601baca33617af94bb08aa,0,115,115,118,1,eightsix,,,,,,,,,,,,,,,,,,,,,,,,,,,,,,,,,,,,,,,,,,,,,,,,,,,,,,,,,,,,,,,,,,,,,,,,,,,,,,,,,,,,,
605824a5c79c7e261e281cc5,2023-11-24_24h44.53.841,kallum_motion_pilot,2023.1.2,Win32,59.93766483,605824a5c79c7e261e281cc5,656018846682f3df8008bb8f,65601baca33617af94bb08aa,0,116,116,132,1,sevenfive,,,,,,,,,,,,,,,,,,,,,,,,,,,,,,,,,,,,,,,,,,,,,,,,,,,,,,,,,,,,,,,,,,,,,,,,,,,,,,,,,,,,,
605824a5c79c7e261e281cc5,2023-11-24_24h44.53.841,kallum_motion_pilot,2023.1.2,Win32,59.93766483,605824a5c79c7e261e281cc5,656018846682f3df8008bb8f,65601baca33617af94bb08aa,0,117,117,157,1,seveneight,,,,,,,,,,,,,,,,,,,,,,,,,,,,,,,,,,,,,,,,,,,,,,,,,,,,,,,,,,,,,,,,,,,,,,,,,,,,,,,,,,,,,
605824a5c79c7e261e281cc5,2023-11-24_24h44.53.841,kallum_motion_pilot,2023.1.2,Win32,59.93766483,605824a5c79c7e261e281cc5,656018846682f3df8008bb8f,65601baca33617af94bb08aa,0,118,118,74,1,twoone,,,,,,,,,,,,,,,,,,,,,,,,,,,,,,,,,,,,,,,,,,,,,,,,,,,,,,,,,,,,,,,,,,,,,,,,,,,,,,,,,,,,,
605824a5c79c7e261e281cc5,2023-11-24_24h44.53.841,kallum_motion_pilot,2023.1.2,Win32,59.93766483,605824a5c79c7e261e281cc5,656018846682f3df8008bb8f,65601baca33617af94bb08aa,0,119,119,30,1,fourtwo,,,,,,,,,,,,,,,,,,,,,,,,,,,,,,,,,,,,,,,,,,,,,,,,,,,,,,,,,,,,,,,,,,,,,,,,,,,,,,,,,,,,,
605824a5c79c7e261e281cc5,2023-11-24_24h44.53.841,kallum_motion_pilot,2023.1.2,Win32,59.93766483,605824a5c79c7e261e281cc5,656018846682f3df8008bb8f,65601baca33617af94bb08aa,0,120,120,102,1,eightsix,,,,,,,,,,,,,,,,,,,,,,,,,,,,,,,,,,,,,,,,,,,,,,,,,,,,,,,,,,,,,,,,,,,,,,,,,,,,,,,,,,,,,
605824a5c79c7e261e281cc5,2023-11-24_24h44.53.841,kallum_motion_pilot,2023.1.2,Win32,59.93766483,605824a5c79c7e261e281cc5,656018846682f3df8008bb8f,65601baca33617af94bb08aa,0,121,121,57,1,onethree,,,,,,,,,,,,,,,,,,,,,,,,,,,,,,,,,,,,,,,,,,,,,,,,,,,,,,,,,,,,,,,,,,,,,,,,,,,,,,,,,,,,,
605824a5c79c7e261e281cc5,2023-11-24_24h44.53.841,kallum_motion_pilot,2023.1.2,Win32,59.93766483,605824a5c79c7e261e281cc5,656018846682f3df8008bb8f,65601baca33617af94bb08aa,0,122,122,151,1,eightseven,,,,,,,,,,,,,,,,,,,,,,,,,,,,,,,,,,,,,,,,,,,,,,,,,,,,,,,,,,,,,,,,,,,,,,,,,,,,,,,,,,,,,
605824a5c79c7e261e281cc5,2023-11-24_24h44.53.841,kallum_motion_pilot,2023.1.2,Win32,59.93766483,605824a5c79c7e261e281cc5,656018846682f3df8008bb8f,65601baca33617af94bb08aa,0,123,123,72,1,onetwo,,,,,,,,,,,,,,,,,,,,,,,,,,,,,,,,,,,,,,,,,,,,,,,,,,,,,,,,,,,,,,,,,,,,,,,,,,,,,,,,,,,,,
605824a5c79c7e261e281cc5,2023-11-24_24h44.53.841,kallum_motion_pilot,2023.1.2,Win32,59.93766483,605824a5c79c7e261e281cc5,656018846682f3df8008bb8f,65601baca33617af94bb08aa,0,124,124,38,1,fourtwo,,,,,,,,,,,,,,,,,,,,,,,,,,,,,,,,,,,,,,,,,,,,,,,,,,,,,,,,,,,,,,,,,,,,,,,,,,,,,,,,,,,,,
605824a5c79c7e261e281cc5,2023-11-24_24h44.53.841,kallum_motion_pilot,2023.1.2,Win32,59.93766483,605824a5c79c7e261e281cc5,656018846682f3df8008bb8f,65601baca33617af94bb08aa,0,125,125,107,1,sixeight,,,,,,,,,,,,,,,,,,,,,,,,,,,,,,,,,,,,,,,,,,,,,,,,,,,,,,,,,,,,,,,,,,,,,,,,,,,,,,,,,,,,,
605824a5c79c7e261e281cc5,2023-11-24_24h44.53.841,kallum_motion_pilot,2023.1.2,Win32,59.93766483,605824a5c79c7e261e281cc5,656018846682f3df8008bb8f,65601baca33617af94bb08aa,0,126,126,126,1,eightsix,,,,,,,,,,,,,,,,,,,,,,,,,,,,,,,,,,,,,,,,,,,,,,,,,,,,,,,,,,,,,,,,,,,,,,,,,,,,,,,,,,,,,
605824a5c79c7e261e281cc5,2023-11-24_24h44.53.841,kallum_motion_pilot,2023.1.2,Win32,59.93766483,605824a5c79c7e261e281cc5,656018846682f3df8008bb8f,65601baca33617af94bb08aa,0,127,127,121,1,fiveseven,,,,,,,,,,,,,,,,,,,,,,,,,,,,,,,,,,,,,,,,,,,,,,,,,,,,,,,,,,,,,,,,,,,,,,,,,,,,,,,,,,,,,
605824a5c79c7e261e281cc5,2023-11-24_24h44.53.841,kallum_motion_pilot,2023.1.2,Win32,59.93766483,605824a5c79c7e261e281cc5,656018846682f3df8008bb8f,65601baca33617af94bb08aa,0,128,128,64,1,onetwo,,,,,,,,,,,,,,,,,,,,,,,,,,,,,,,,,,,,,,,,,,,,,,,,,,,,,,,,,,,,,,,,,,,,,,,,,,,,,,,,,,,,,
605824a5c79c7e261e281cc5,2023-11-24_24h44.53.841,kallum_motion_pilot,2023.1.2,Win32,59.93766483,605824a5c79c7e261e281cc5,656018846682f3df8008bb8f,65601baca33617af94bb08aa,0,129,129,35,1,twofour,,,,,,,,,,,,,,,,,,,,,,,,,,,,,,,,,,,,,,,,,,,,,,,,,,,,,,,,,,,,,,,,,,,,,,,,,,,,,,,,,,,,,
605824a5c79c7e261e281cc5,2023-11-24_24h44.53.841,kallum_motion_pilot,2023.1.2,Win32,59.93766483,605824a5c79c7e261e281cc5,656018846682f3df8008bb8f,65601baca33617af94bb08aa,0,130,130,89,1,fiveseven,,,,,,,,,,,,,,,,,,,,,,,,,,,,,,,,,,,,,,,,,,,,,,,,,,,,,,,,,,,,,,,,,,,,,,,,,,,,,,,,,,,,,
605824a5c79c7e261e281cc5,2023-11-24_24h44.53.841,kallum_motion_pilot,2023.1.2,Win32,59.93766483,605824a5c79c7e261e281cc5,656018846682f3df8008bb8f,65601baca33617af94bb08aa,0,131,131,106,1,sixfive,,,,,,,,,,,,,,,,,,,,,,,,,,,,,,,,,,,,,,,,,,,,,,,,,,,,,,,,,,,,,,,,,,,,,,,,,,,,,,,,,,,,,
605824a5c79c7e261e281cc5,2023-11-24_24h44.53.841,kallum_motion_pilot,2023.1.2,Win32,59.93766483,605824a5c79c7e261e281cc5,656018846682f3df8008bb8f,65601baca33617af94bb08aa,0,132,132,78,1,fourtwo,,,,,,,,,,,,,,,,,,,,,,,,,,,,,,,,,,,,,,,,,,,,,,,,,,,,,,,,,,,,,,,,,,,,,,,,,,,,,,,,,,,,,
605824a5c79c7e261e281cc5,2023-11-24_24h44.53.841,kallum_motion_pilot,2023.1.2,Win32,59.93766483,605824a5c79c7e261e281cc5,656018846682f3df8008bb8f,65601baca33617af94bb08aa,0,133,133,114,1,sixfive,,,,,,,,,,,,,,,,,,,,,,,,,,,,,,,,,,,,,,,,,,,,,,,,,,,,,,,,,,,,,,,,,,,,,,,,,,,,,,,,,,,,,
605824a5c79c7e261e281cc5,2023-11-24_24h44.53.841,kallum_motion_pilot,2023.1.2,Win32,59.93766483,605824a5c79c7e261e281cc5,656018846682f3df8008bb8f,65601baca33617af94bb08aa,0,134,134,110,1,eightsix,,,,,,,,,,,,,,,,,,,,,,,,,,,,,,,,,,,,,,,,,,,,,,,,,,,,,,,,,,,,,,,,,,,,,,,,,,,,,,,,,,,,,
605824a5c79c7e261e281cc5,2023-11-24_24h44.53.841,kallum_motion_pilot,2023.1.2,Win32,59.93766483,605824a5c79c7e261e281cc5,656018846682f3df8008bb8f,65601baca33617af94bb08aa,0,135,135,88,1,fivesix,,,,,,,,,,,,,,,,,,,,,,,,,,,,,,,,,,,,,,,,,,,,,,,,,,,,,,,,,,,,,,,,,,,,,,,,,,,,,,,,,,,,,
605824a5c79c7e261e281cc5,2023-11-24_24h44.53.841,kallum_motion_pilot,2023.1.2,Win32,59.93766483,605824a5c79c7e261e281cc5,656018846682f3df8008bb8f,65601baca33617af94bb08aa,0,136,136,9,1,onethree,,,,,,,,,,,,,,,,,,,,,,,,,,,,,,,,,,,,,,,,,,,,,,,,,,,,,,,,,,,,,,,,,,,,,,,,,,,,,,,,,,,,,
605824a5c79c7e261e281cc5,2023-11-24_24h44.53.841,kallum_motion_pilot,2023.1.2,Win32,59.93766483,605824a5c79c7e261e281cc5,656018846682f3df8008bb8f,65601baca33617af94bb08aa,0,137,137,104,1,fivesix,,,,,,,,,,,,,,,,,,,,,,,,,,,,,,,,,,,,,,,,,,,,,,,,,,,,,,,,,,,,,,,,,,,,,,,,,,,,,,,,,,,,,
605824a5c79c7e261e281cc5,2023-11-24_24h44.53.841,kallum_motion_pilot,2023.1.2,Win32,59.93766483,605824a5c79c7e261e281cc5,656018846682f3df8008bb8f,65601baca33617af94bb08aa,0,138,138,43,1,twofour,,,,,,,,,,,,,,,,,,,,,,,,,,,,,,,,,,,,,,,,,,,,,,,,,,,,,,,,,,,,,,,,,,,,,,,,,,,,,,,,,,,,,
605824a5c79c7e261e281cc5,2023-11-24_24h44.53.841,kallum_motion_pilot,2023.1.2,Win32,59.93766483,605824a5c79c7e261e281cc5,656018846682f3df8008bb8f,65601baca33617af94bb08aa,0,139,139,60,1,threeone,,,,,,,,,,,,,,,,,,,,,,,,,,,,,,,,,,,,,,,,,,,,,,,,,,,,,,,,,,,,,,,,,,,,,,,,,,,,,,,,,,,,,
605824a5c79c7e261e281cc5,2023-11-24_24h44.53.841,kallum_motion_pilot,2023.1.2,Win32,59.93766483,605824a5c79c7e261e281cc5,656018846682f3df8008bb8f,65601baca33617af94bb08aa,0,140,140,55,1,fourthree,,,,,,,,,,,,,,,,,,,,,,,,,,,,,,,,,,,,,,,,,,,,,,,,,,,,,,,,,,,,,,,,,,,,,,,,,,,,,,,,,,,,,
605824a5c79c7e261e281cc5,2023-11-24_24h44.53.841,kallum_motion_pilot,2023.1.2,Win32,59.93766483,605824a5c79c7e261e281cc5,656018846682f3df8008bb8f,65601baca33617af94bb08aa,0,141,141,23,1,fourthree,,,,,,,,,,,,,,,,,,,,,,,,,,,,,,,,,,,,,,,,,,,,,,,,,,,,,,,,,,,,,,,,,,,,,,,,,,,,,,,,,,,,,
605824a5c79c7e261e281cc5,2023-11-24_24h44.53.841,kallum_motion_pilot,2023.1.2,Win32,59.93766483,605824a5c79c7e261e281cc5,656018846682f3df8008bb8f,65601baca33617af94bb08aa,0,142,142,1,1,onethree,,,,,,,,,,,,,,,,,,,,,,,,,,,,,,,,,,,,,,,,,,,,,,,,,,,,,,,,,,,,,,,,,,,,,,,,,,,,,,,,,,,,,
605824a5c79c7e261e281cc5,2023-11-24_24h44.53.841,kallum_motion_pilot,2023.1.2,Win32,59.93766483,605824a5c79c7e261e281cc5,656018846682f3df8008bb8f,65601baca33617af94bb08aa,0,143,143,21,1,threefour,,,,,,,,,,,,,,,,,,,,,,,,,,,,,,,,,,,,,,,,,,,,,,,,,,,,,,,,,,,,,,,,,,,,,,,,,,,,,,,,,,,,,
605824a5c79c7e261e281cc5,2023-11-24_24h44.53.841,kallum_motion_pilot,2023.1.2,Win32,59.93766483,605824a5c79c7e261e281cc5,656018846682f3df8008bb8f,65601baca33617af94bb08aa,0,144,144,15,1,fourthree,,,,,,,,,,,,,,,,,,,,,,,,,,,,,,,,,,,,,,,,,,,,,,,,,,,,,,,,,,,,,,,,,,,,,,,,,,,,,,,,,,,,,
605824a5c79c7e261e281cc5,2023-11-24_24h44.53.841,kallum_motion_pilot,2023.1.2,Win32,59.93766483,605824a5c79c7e261e281cc5,656018846682f3df8008bb8f,65601baca33617af94bb08aa,0,145,145,97,1,fiveseven,,,,,,,,,,,,,,,,,,,,,,,,,,,,,,,,,,,,,,,,,,,,,,,,,,,,,,,,,,,,,,,,,,,,,,,,,,,,,,,,,,,,,
605824a5c79c7e261e281cc5,2023-11-24_24h44.53.841,kallum_motion_pilot,2023.1.2,Win32,59.93766483,605824a5c79c7e261e281cc5,656018846682f3df8008bb8f,65601baca33617af94bb08aa,0,146,146,37,1,threefour,,,,,,,,,,,,,,,,,,,,,,,,,,,,,,,,,,,,,,,,,,,,,,,,,,,,,,,,,,,,,,,,,,,,,,,,,,,,,,,,,,,,,
605824a5c79c7e261e281cc5,2023-11-24_24h44.53.841,kallum_motion_pilot,2023.1.2,Win32,59.93766483,605824a5c79c7e261e281cc5,656018846682f3df8008bb8f,65601baca33617af94bb08aa,0,147,147,79,1,eightseven,,,,,,,,,,,,,,,,,,,,,,,,,,,,,,,,,,,,,,,,,,,,,,,,,,,,,,,,,,,,,,,,,,,,,,,,,,,,,,,,,,,,,
605824a5c79c7e261e281cc5,2023-11-24_24h44.53.841,kallum_motion_pilot,2023.1.2,Win32,59.93766483,605824a5c79c7e261e281cc5,656018846682f3df8008bb8f,65601baca33617af94bb08aa,0,148,148,134,1,eightsix,,,,,,,,,,,,,,,,,,,,,,,,,,,,,,,,,,,,,,,,,,,,,,,,,,,,,,,,,,,,,,,,,,,,,,,,,,,,,,,,,,,,,
605824a5c79c7e261e281cc5,2023-11-24_24h44.53.841,kallum_motion_pilot,2023.1.2,Win32,59.93766483,605824a5c79c7e261e281cc5,656018846682f3df8008bb8f,65601baca33617af94bb08aa,0,149,149,56,1,onetwo,,,,,,,,,,,,,,,,,,,,,,,,,,,,,,,,,,,,,,,,,,,,,,,,,,,,,,,,,,,,,,,,,,,,,,,,,,,,,,,,,,,,,
605824a5c79c7e261e281cc5,2023-11-24_24h44.53.841,kallum_motion_pilot,2023.1.2,Win32,59.93766483,605824a5c79c7e261e281cc5,656018846682f3df8008bb8f,65601baca33617af94bb08aa,0,150,150,59,1,twofour,,,,,,,,,,,,,,,,,,,,,,,,,,,,,,,,,,,,,,,,,,,,,,,,,,,,,,,,,,,,,,,,,,,,,,,,,,,,,,,,,,,,,
605824a5c79c7e261e281cc5,2023-11-24_24h44.53.841,kallum_motion_pilot,2023.1.2,Win32,59.93766483,605824a5c79c7e261e281cc5,656018846682f3df8008bb8f,65601baca33617af94bb08aa,0,151,151,150,1,eightsix,,,,,,,,,,,,,,,,,,,,,,,,,,,,,,,,,,,,,,,,,,,,,,,,,,,,,,,,,,,,,,,,,,,,,,,,,,,,,,,,,,,,,
605824a5c79c7e261e281cc5,2023-11-24_24h44.53.841,kallum_motion_pilot,2023.1.2,Win32,59.93766483,605824a5c79c7e261e281cc5,656018846682f3df8008bb8f,65601baca33617af94bb08aa,0,152,152,33,1,onethree,,,,,,,,,,,,,,,,,,,,,,,,,,,,,,,,,,,,,,,,,,,,,,,,,,,,,,,,,,,,,,,,,,,,,,,,,,,,,,,,,,,,,
605824a5c79c7e261e281cc5,2023-11-24_24h44.53.841,kallum_motion_pilot,2023.1.2,Win32,59.93766483,605824a5c79c7e261e281cc5,656018846682f3df8008bb8f,65601baca33617af94bb08aa,0,153,153,16,1,onetwo,,,,,,,,,,,,,,,,,,,,,,,,,,,,,,,,,,,,,,,,,,,,,,,,,,,,,,,,,,,,,,,,,,,,,,,,,,,,,,,,,,,,,
605824a5c79c7e261e281cc5,2023-11-24_24h44.53.841,kallum_motion_pilot,2023.1.2,Win32,59.93766483,605824a5c79c7e261e281cc5,656018846682f3df8008bb8f,65601baca33617af94bb08aa,0,154,154,152,1,fivesix,,,,,,,,,,,,,,,,,,,,,,,,,,,,,,,,,,,,,,,,,,,,,,,,,,,,,,,,,,,,,,,,,,,,,,,,,,,,,,,,,,,,,
605824a5c79c7e261e281cc5,2023-11-24_24h44.53.841,kallum_motion_pilot,2023.1.2,Win32,59.93766483,605824a5c79c7e261e281cc5,656018846682f3df8008bb8f,65601baca33617af94bb08aa,0,155,155,128,1,fivesix,,,,,,,,,,,,,,,,,,,,,,,,,,,,,,,,,,,,,,,,,,,,,,,,,,,,,,,,,,,,,,,,,,,,,,,,,,,,,,,,,,,,,
605824a5c79c7e261e281cc5,2023-11-24_24h44.53.841,kallum_motion_pilot,2023.1.2,Win32,59.93766483,605824a5c79c7e261e281cc5,656018846682f3df8008bb8f,65601baca33617af94bb08aa,0,156,156,123,1,sixeight,,,,,,,,,,,,,,,,,,,,,,,,,,,,,,,,,,,,,,,,,,,,,,,,,,,,,,,,,,,,,,,,,,,,,,,,,,,,,,,,,,,,,
605824a5c79c7e261e281cc5,2023-11-24_24h44.53.841,kallum_motion_pilot,2023.1.2,Win32,59.93766483,605824a5c79c7e261e281cc5,656018846682f3df8008bb8f,65601baca33617af94bb08aa,0,157,157,39,1,fourthree,,,,,,,,,,,,,,,,,,,,,,,,,,,,,,,,,,,,,,,,,,,,,,,,,,,,,,,,,,,,,,,,,,,,,,,,,,,,,,,,,,,,,
605824a5c79c7e261e281cc5,2023-11-24_24h44.53.841,kallum_motion_pilot,2023.1.2,Win32,59.93766483,605824a5c79c7e261e281cc5,656018846682f3df8008bb8f,65601baca33617af94bb08aa,0,158,158,117,1,seveneight,,,,,,,,,,,,,,,,,,,,,,,,,,,,,,,,,,,,,,,,,,,,,,,,,,,,,,,,,,,,,,,,,,,,,,,,,,,,,,,,,,,,,
605824a5c79c7e261e281cc5,2023-11-24_24h44.53.841,kallum_motion_pilot,2023.1.2,Win32,59.93766483,605824a5c79c7e261e281cc5,656018846682f3df8008bb8f,65601baca33617af94bb08aa,0,159,159,51,1,twofour,,,,,,,,,,,,,,,,,,,,,,,,,,,,,,,,,,,,,,,,,,,,,,,,,,,,,,,,,,,,,,,,,,,,,,,,,,,,,,,,,,,,,
605824a5c79c7e261e281cc5,2023-11-24_24h44.53.841,kallum_motion_pilot,2023.1.2,Win32,59.93766483,605824a5c79c7e261e281cc5,656018846682f3df8008bb8f,65601baca33617af94bb08aa,0,160,160,61,1,threefour,,,,,,,,,,,,,,,,,,,,,,,,,,,,,,,,,,,,,,,,,,,,,,,,,,,,,,,,,,,,,,,,,,,,,,,,,,,,,,,,,,,,,
605824a5c79c7e261e281cc5,2023-11-24_24h44.53.841,kallum_motion_pilot,2023.1.2,Win32,59.93766483,605824a5c79c7e261e281cc5,656018846682f3df8008bb8f,65601baca33617af94bb08aa,0,161,161,122,1,sixfive,,,,,,,,,,,,,,,,,,,,,,,,,,,,,,,,,,,,,,,,,,,,,,,,,,,,,,,,,,,,,,,,,,,,,,,,,,,,,,,,,,,,,
605824a5c79c7e261e281cc5,2023-11-24_24h44.53.841,kallum_motion_pilot,2023.1.2,Win32,59.93766483,605824a5c79c7e261e281cc5,656018846682f3df8008bb8f,65601baca33617af94bb08aa,1,0,162,132,1,sevenfive,,,,,,,,,,,,,,,,,,,,,,,,,,,,,,,,,,,,,,,,,,,,,,,,,,,,,,,,,,,,,,,,,,,,,,,,,,,,,,,,,,,,,
605824a5c79c7e261e281cc5,2023-11-24_24h44.53.841,kallum_motion_pilot,2023.1.2,Win32,59.93766483,605824a5c79c7e261e281cc5,656018846682f3df8008bb8f,65601baca33617af94bb08aa,1,1,163,59,1,twofour,,,,,,,,,,,,,,,,,,,,,,,,,,,,,,,,,,,,,,,,,,,,,,,,,,,,,,,,,,,,,,,,,,,,,,,,,,,,,,,,,,,,,
605824a5c79c7e261e281cc5,2023-11-24_24h44.53.841,kallum_motion_pilot,2023.1.2,Win32,59.93766483,605824a5c79c7e261e281cc5,656018846682f3df8008bb8f,65601baca33617af94bb08aa,1,2,164,102,1,eightsix,,,,,,,,,,,,,,,,,,,,,,,,,,,,,,,,,,,,,,,,,,,,,,,,,,,,,,,,,,,,,,,,,,,,,,,,,,,,,,,,,,,,,
605824a5c79c7e261e281cc5,2023-11-24_24h44.53.841,kallum_motion_pilot,2023.1.2,Win32,59.93766483,605824a5c79c7e261e281cc5,656018846682f3df8008bb8f,65601baca33617af94bb08aa,1,3,165,104,1,fivesix,,,,,,,,,,,,,,,,,,,,,,,,,,,,,,,,,,,,,,,,,,,,,,,,,,,,,,,,,,,,,,,,,,,,,,,,,,,,,,,,,,,,,
605824a5c79c7e261e281cc5,2023-11-24_24h44.53.841,kallum_motion_pilot,2023.1.2,Win32,59.93766483,605824a5c79c7e261e281cc5,656018846682f3df8008bb8f,65601baca33617af94bb08aa,1,4,166,86,1,eightsix,,,,,,,,,,,,,,,,,,,,,,,,,,,,,,,,,,,,,,,,,,,,,,,,,,,,,,,,,,,,,,,,,,,,,,,,,,,,,,,,,,,,,
605824a5c79c7e261e281cc5,2023-11-24_24h44.53.841,kallum_motion_pilot,2023.1.2,Win32,59.93766483,605824a5c79c7e261e281cc5,656018846682f3df8008bb8f,65601baca33617af94bb08aa,1,5,167,129,1,fiveseven,,,,,,,,,,,,,,,,,,,,,,,,,,,,,,,,,,,,,,,,,,,,,,,,,,,,,,,,,,,,,,,,,,,,,,,,,,,,,,,,,,,,,
605824a5c79c7e261e281cc5,2023-11-24_24h44.53.841,kallum_motion_pilot,2023.1.2,Win32,59.93766483,605824a5c79c7e261e281cc5,656018846682f3df8008bb8f,65601baca33617af94bb08aa,1,6,168,157,1,seveneight,,,,,,,,,,,,,,,,,,,,,,,,,,,,,,,,,,,,,,,,,,,,,,,,,,,,,,,,,,,,,,,,,,,,,,,,,,,,,,,,,,,,,
605824a5c79c7e261e281cc5,2023-11-24_24h44.53.841,kallum_motion_pilot,2023.1.2,Win32,59.93766483,605824a5c79c7e261e281cc5,656018846682f3df8008bb8f,65601baca33617af94bb08aa,1,7,169,90,1,sixfive,,,,,,,,,,,,,,,,,,,,,,,,,,,,,,,,,,,,,,,,,,,,,,,,,,,,,,,,,,,,,,,,,,,,,,,,,,,,,,,,,,,,,
605824a5c79c7e261e281cc5,2023-11-24_24h44.53.841,kallum_motion_pilot,2023.1.2,Win32,59.93766483,605824a5c79c7e261e281cc5,656018846682f3df8008bb8f,65601baca33617af94bb08aa,1,8,170,55,1,fourthree,,,,,,,,,,,,,,,,,,,,,,,,,,,,,,,,,,,,,,,,,,,,,,,,,,,,,,,,,,,,,,,,,,,,,,,,,,,,,,,,,,,,,
605824a5c79c7e261e281cc5,2023-11-24_24h44.53.841,kallum_motion_pilot,2023.1.2,Win32,59.93766483,605824a5c79c7e261e281cc5,656018846682f3df8008bb8f,65601baca33617af94bb08aa,1,9,171,25,1,onethree,,,,,,,,,,,,,,,,,,,,,,,,,,,,,,,,,,,,,,,,,,,,,,,,,,,,,,,,,,,,,,,,,,,,,,,,,,,,,,,,,,,,,
605824a5c79c7e261e281cc5,2023-11-24_24h44.53.841,kallum_motion_pilot,2023.1.2,Win32,59.93766483,605824a5c79c7e261e281cc5,656018846682f3df8008bb8f,65601baca33617af94bb08aa,1,10,172,80,1,fivesix,,,,,,,,,,,,,,,,,,,,,,,,,,,,,,,,,,,,,,,,,,,,,,,,,,,,,,,,,,,,,,,,,,,,,,,,,,,,,,,,,,,,,
605824a5c79c7e261e281cc5,2023-11-24_24h44.53.841,kallum_motion_pilot,2023.1.2,Win32,59.93766483,605824a5c79c7e261e281cc5,656018846682f3df8008bb8f,65601baca33617af94bb08aa,1,11,173,31,1,fourthree,,,,,,,,,,,,,,,,,,,,,,,,,,,,,,,,,,,,,,,,,,,,,,,,,,,,,,,,,,,,,,,,,,,,,,,,,,,,,,,,,,,,,
605824a5c79c7e261e281cc5,2023-11-24_24h44.53.841,kallum_motion_pilot,2023.1.2,Win32,59.93766483,605824a5c79c7e261e281cc5,656018846682f3df8008bb8f,65601baca33617af94bb08aa,1,12,174,127,1,eightseven,,,,,,,,,,,,,,,,,,,,,,,,,,,,,,,,,,,,,,,,,,,,,,,,,,,,,,,,,,,,,,,,,,,,,,,,,,,,,,,,,,,,,
605824a5c79c7e261e281cc5,2023-11-24_24h44.53.841,kallum_motion_pilot,2023.1.2,Win32,59.93766483,605824a5c79c7e261e281cc5,656018846682f3df8008bb8f,65601baca33617af94bb08aa,1,13,175,111,1,eightseven,,,,,,,,,,,,,,,,,,,,,,,,,,,,,,,,,,,,,,,,,,,,,,,,,,,,,,,,,,,,,,,,,,,,,,,,,,,,,,,,,,,,,
605824a5c79c7e261e281cc5,2023-11-24_24h44.53.841,kallum_motion_pilot,2023.1.2,Win32,59.93766483,605824a5c79c7e261e281cc5,656018846682f3df8008bb8f,65601baca33617af94bb08aa,1,14,176,28,1,threeone,,,,,,,,,,,,,,,,,,,,,,,,,,,,,,,,,,,,,,,,,,,,,,,,,,,,,,,,,,,,,,,,,,,,,,,,,,,,,,,,,,,,,
605824a5c79c7e261e281cc5,2023-11-24_24h44.53.841,kallum_motion_pilot,2023.1.2,Win32,59.93766483,605824a5c79c7e261e281cc5,656018846682f3df8008bb8f,65601baca33617af94bb08aa,1,15,177,11,1,twofour,,,,,,,,,,,,,,,,,,,,,,,,,,,,,,,,,,,,,,,,,,,,,,,,,,,,,,,,,,,,,,,,,,,,,,,,,,,,,,,,,,,,,
605824a5c79c7e261e281cc5,2023-11-24_24h44.53.841,kallum_motion_pilot,2023.1.2,Win32,59.93766483,605824a5c79c7e261e281cc5,656018846682f3df8008bb8f,65601baca33617af94bb08aa,1,16,178,96,1,fivesix,,,,,,,,,,,,,,,,,,,,,,,,,,,,,,,,,,,,,,,,,,,,,,,,,,,,,,,,,,,,,,,,,,,,,,,,,,,,,,,,,,,,,
605824a5c79c7e261e281cc5,2023-11-24_24h44.53.841,kallum_motion_pilot,2023.1.2,Win32,59.93766483,605824a5c79c7e261e281cc5,656018846682f3df8008bb8f,65601baca33617af94bb08aa,1,17,179,105,1,fiveseven,,,,,,,,,,,,,,,,,,,,,,,,,,,,,,,,,,,,,,,,,,,,,,,,,,,,,,,,,,,,,,,,,,,,,,,,,,,,,,,,,,,,,
605824a5c79c7e261e281cc5,2023-11-24_24h44.53.841,kallum_motion_pilot,2023.1.2,Win32,59.93766483,605824a5c79c7e261e281cc5,656018846682f3df8008bb8f,65601baca33617af94bb08aa,1,18,180,108,1,sevenfive,,,,,,,,,,,,,,,,,,,,,,,,,,,,,,,,,,,,,,,,,,,,,,,,,,,,,,,,,,,,,,,,,,,,,,,,,,,,,,,,,,,,,
605824a5c79c7e261e281cc5,2023-11-24_24h44.53.841,kallum_motion_pilot,2023.1.2,Win32,59.93766483,605824a5c79c7e261e281cc5,656018846682f3df8008bb8f,65601baca33617af94bb08aa,1,19,181,65,1,onethree,,,,,,,,,,,,,,,,,,,,,,,,,,,,,,,,,,,,,,,,,,,,,,,,,,,,,,,,,,,,,,,,,,,,,,,,,,,,,,,,,,,,,
605824a5c79c7e261e281cc5,2023-11-24_24h44.53.841,kallum_motion_pilot,2023.1.2,Win32,59.93766483,605824a5c79c7e261e281cc5,656018846682f3df8008bb8f,65601baca33617af94bb08aa,1,20,182,85,1,seveneight,,,,,,,,,,,,,,,,,,,,,,,,,,,,,,,,,,,,,,,,,,,,,,,,,,,,,,,,,,,,,,,,,,,,,,,,,,,,,,,,,,,,,
605824a5c79c7e261e281cc5,2023-11-24_24h44.53.841,kallum_motion_pilot,2023.1.2,Win32,59.93766483,605824a5c79c7e261e281cc5,656018846682f3df8008bb8f,65601baca33617af94bb08aa,1,21,183,6,1,fourtwo,,,,,,,,,,,,,,,,,,,,,,,,,,,,,,,,,,,,,,,,,,,,,,,,,,,,,,,,,,,,,,,,,,,,,,,,,,,,,,,,,,,,,
605824a5c79c7e261e281cc5,2023-11-24_24h44.53.841,kallum_motion_pilot,2023.1.2,Win32,59.93766483,605824a5c79c7e261e281cc5,656018846682f3df8008bb8f,65601baca33617af94bb08aa,1,22,184,27,1,twofour,,,,,,,,,,,,,,,,,,,,,,,,,,,,,,,,,,,,,,,,,,,,,,,,,,,,,,,,,,,,,,,,,,,,,,,,,,,,,,,,,,,,,
605824a5c79c7e261e281cc5,2023-11-24_24h44.53.841,kallum_motion_pilot,2023.1.2,Win32,59.93766483,605824a5c79c7e261e281cc5,656018846682f3df8008bb8f,65601baca33617af94bb08aa,1,23,185,128,1,fivesix,,,,,,,,,,,,,,,,,,,,,,,,,,,,,,,,,,,,,,,,,,,,,,,,,,,,,,,,,,,,,,,,,,,,,,,,,,,,,,,,,,,,,
605824a5c79c7e261e281cc5,2023-11-24_24h44.53.841,kallum_motion_pilot,2023.1.2,Win32,59.93766483,605824a5c79c7e261e281cc5,656018846682f3df8008bb8f,65601baca33617af94bb08aa,1,24,186,51,1,twofour,,,,,,,,,,,,,,,,,,,,,,,,,,,,,,,,,,,,,,,,,,,,,,,,,,,,,,,,,,,,,,,,,,,,,,,,,,,,,,,,,,,,,
605824a5c79c7e261e281cc5,2023-11-24_24h44.53.841,kallum_motion_pilot,2023.1.2,Win32,59.93766483,605824a5c79c7e261e281cc5,656018846682f3df8008bb8f,65601baca33617af94bb08aa,1,25,187,142,1,eightsix,,,,,,,,,,,,,,,,,,,,,,,,,,,,,,,,,,,,,,,,,,,,,,,,,,,,,,,,,,,,,,,,,,,,,,,,,,,,,,,,,,,,,
605824a5c79c7e261e281cc5,2023-11-24_24h44.53.841,kallum_motion_pilot,2023.1.2,Win32,59.93766483,605824a5c79c7e261e281cc5,656018846682f3df8008bb8f,65601baca33617af94bb08aa,1,26,188,116,1,sevenfive,,,,,,,,,,,,,,,,,,,,,,,,,,,,,,,,,,,,,,,,,,,,,,,,,,,,,,,,,,,,,,,,,,,,,,,,,,,,,,,,,,,,,
605824a5c79c7e261e281cc5,2023-11-24_24h44.53.841,kallum_motion_pilot,2023.1.2,Win32,59.93766483,605824a5c79c7e261e281cc5,656018846682f3df8008bb8f,65601baca33617af94bb08aa,1,27,189,8,1,onetwo,,,,,,,,,,,,,,,,,,,,,,,,,,,,,,,,,,,,,,,,,,,,,,,,,,,,,,,,,,,,,,,,,,,,,,,,,,,,,,,,,,,,,
605824a5c79c7e261e281cc5,2023-11-24_24h44.53.841,kallum_motion_pilot,2023.1.2,Win32,59.93766483,605824a5c79c7e261e281cc5,656018846682f3df8008bb8f,65601baca33617af94bb08aa,1,28,190,74,1,twoone,,,,,,,,,,,,,,,,,,,,,,,,,,,,,,,,,,,,,,,,,,,,,,,,,,,,,,,,,,,,,,,,,,,,,,,,,,,,,,,,,,,,,
605824a5c79c7e261e281cc5,2023-11-24_24h44.53.841,kallum_motion_pilot,2023.1.2,Win32,59.93766483,605824a5c79c7e261e281cc5,656018846682f3df8008bb8f,65601baca33617af94bb08aa,1,29,191,9,1,onethree,,,,,,,,,,,,,,,,,,,,,,,,,,,,,,,,,,,,,,,,,,,,,,,,,,,,,,,,,,,,,,,,,,,,,,,,,,,,,,,,,,,,,
605824a5c79c7e261e281cc5,2023-11-24_24h44.53.841,kallum_motion_pilot,2023.1.2,Win32,59.93766483,605824a5c79c7e261e281cc5,656018846682f3df8008bb8f,65601baca33617af94bb08aa,1,30,192,1,1,onethree,,,,,,,,,,,,,,,,,,,,,,,,,,,,,,,,,,,,,,,,,,,,,,,,,,,,,,,,,,,,,,,,,,,,,,,,,,,,,,,,,,,,,
605824a5c79c7e261e281cc5,2023-11-24_24h44.53.841,kallum_motion_pilot,2023.1.2,Win32,59.93766483,605824a5c79c7e261e281cc5,656018846682f3df8008bb8f,65601baca33617af94bb08aa,1,31,193,145,1,fiveseven,,,,,,,,,,,,,,,,,,,,,,,,,,,,,,,,,,,,,,,,,,,,,,,,,,,,,,,,,,,,,,,,,,,,,,,,,,,,,,,,,,,,,
605824a5c79c7e261e281cc5,2023-11-24_24h44.53.841,kallum_motion_pilot,2023.1.2,Win32,59.93766483,605824a5c79c7e261e281cc5,656018846682f3df8008bb8f,65601baca33617af94bb08aa,1,32,194,134,1,eightsix,,,,,,,,,,,,,,,,,,,,,,,,,,,,,,,,,,,,,,,,,,,,,,,,,,,,,,,,,,,,,,,,,,,,,,,,,,,,,,,,,,,,,
605824a5c79c7e261e281cc5,2023-11-24_24h44.53.841,kallum_motion_pilot,2023.1.2,Win32,59.93766483,605824a5c79c7e261e281cc5,656018846682f3df8008bb8f,65601baca33617af94bb08aa,1,33,195,133,1,seveneight,,,,,,,,,,,,,,,,,,,,,,,,,,,,,,,,,,,,,,,,,,,,,,,,,,,,,,,,,,,,,,,,,,,,,,,,,,,,,,,,,,,,,
605824a5c79c7e261e281cc5,2023-11-24_24h44.53.841,kallum_motion_pilot,2023.1.2,Win32,59.93766483,605824a5c79c7e261e281cc5,656018846682f3df8008bb8f,65601baca33617af94bb08aa,1,34,196,152,1,fivesix,,,,,,,,,,,,,,,,,,,,,,,,,,,,,,,,,,,,,,,,,,,,,,,,,,,,,,,,,,,,,,,,,,,,,,,,,,,,,,,,,,,,,
605824a5c79c7e261e281cc5,2023-11-24_24h44.53.841,kallum_motion_pilot,2023.1.2,Win32,59.93766483,605824a5c79c7e261e281cc5,656018846682f3df8008bb8f,65601baca33617af94bb08aa,1,35,197,82,1,sixfive,,,,,,,,,,,,,,,,,,,,,,,,,,,,,,,,,,,,,,,,,,,,,,,,,,,,,,,,,,,,,,,,,,,,,,,,,,,,,,,,,,,,,
605824a5c79c7e261e281cc5,2023-11-24_24h44.53.841,kallum_motion_pilot,2023.1.2,Win32,59.93766483,605824a5c79c7e261e281cc5,656018846682f3df8008bb8f,65601baca33617af94bb08aa,1,36,198,73,1,onethree,,,,,,,,,,,,,,,,,,,,,,,,,,,,,,,,,,,,,,,,,,,,,,,,,,,,,,,,,,,,,,,,,,,,,,,,,,,,,,,,,,,,,
605824a5c79c7e261e281cc5,2023-11-24_24h44.53.841,kallum_motion_pilot,2023.1.2,Win32,59.93766483,605824a5c79c7e261e281cc5,656018846682f3df8008bb8f,65601baca33617af94bb08aa,1,37,199,117,1,seveneight,,,,,,,,,,,,,,,,,,,,,,,,,,,,,,,,,,,,,,,,,,,,,,,,,,,,,,,,,,,,,,,,,,,,,,,,,,,,,,,,,,,,,
605824a5c79c7e261e281cc5,2023-11-24_24h44.53.841,kallum_motion_pilot,2023.1.2,Win32,59.93766483,605824a5c79c7e261e281cc5,656018846682f3df8008bb8f,65601baca33617af94bb08aa,1,38,200,26,1,twoone,,,,,,,,,,,,,,,,,,,,,,,,,,,,,,,,,,,,,,,,,,,,,,,,,,,,,,,,,,,,,,,,,,,,,,,,,,,,,,,,,,,,,
605824a5c79c7e261e281cc5,2023-11-24_24h44.53.841,kallum_motion_pilot,2023.1.2,Win32,59.93766483,605824a5c79c7e261e281cc5,656018846682f3df8008bb8f,65601baca33617af94bb08aa,1,39,201,109,1,seveneight,,,,,,,,,,,,,,,,,,,,,,,,,,,,,,,,,,,,,,,,,,,,,,,,,,,,,,,,,,,,,,,,,,,,,,,,,,,,,,,,,,,,,
605824a5c79c7e261e281cc5,2023-11-24_24h44.53.841,kallum_motion_pilot,2023.1.2,Win32,59.93766483,605824a5c79c7e261e281cc5,656018846682f3df8008bb8f,65601baca33617af94bb08aa,1,40,202,148,1,sevenfive,,,,,,,,,,,,,,,,,,,,,,,,,,,,,,,,,,,,,,,,,,,,,,,,,,,,,,,,,,,,,,,,,,,,,,,,,,,,,,,,,,,,,
605824a5c79c7e261e281cc5,2023-11-24_24h44.53.841,kallum_motion_pilot,2023.1.2,Win32,59.93766483,605824a5c79c7e261e281cc5,656018846682f3df8008bb8f,65601baca33617af94bb08aa,1,41,203,43,1,twofour,,,,,,,,,,,,,,,,,,,,,,,,,,,,,,,,,,,,,,,,,,,,,,,,,,,,,,,,,,,,,,,,,,,,,,,,,,,,,,,,,,,,,
605824a5c79c7e261e281cc5,2023-11-24_24h44.53.841,kallum_motion_pilot,2023.1.2,Win32,59.93766483,605824a5c79c7e261e281cc5,656018846682f3df8008bb8f,65601baca33617af94bb08aa,1,42,204,2,1,twoone,,,,,,,,,,,,,,,,,,,,,,,,,,,,,,,,,,,,,,,,,,,,,,,,,,,,,,,,,,,,,,,,,,,,,,,,,,,,,,,,,,,,,
605824a5c79c7e261e281cc5,2023-11-24_24h44.53.841,kallum_motion_pilot,2023.1.2,Win32,59.93766483,605824a5c79c7e261e281cc5,656018846682f3df8008bb8f,65601baca33617af94bb08aa,1,43,205,88,1,fivesix,,,,,,,,,,,,,,,,,,,,,,,,,,,,,,,,,,,,,,,,,,,,,,,,,,,,,,,,,,,,,,,,,,,,,,,,,,,,,,,,,,,,,
605824a5c79c7e261e281cc5,2023-11-24_24h44.53.841,kallum_motion_pilot,2023.1.2,Win32,59.93766483,605824a5c79c7e261e281cc5,656018846682f3df8008bb8f,65601baca33617af94bb08aa,1,44,206,70,1,fourtwo,,,,,,,,,,,,,,,,,,,,,,,,,,,,,,,,,,,,,,,,,,,,,,,,,,,,,,,,,,,,,,,,,,,,,,,,,,,,,,,,,,,,,
605824a5c79c7e261e281cc5,2023-11-24_24h44.53.841,kallum_motion_pilot,2023.1.2,Win32,59.93766483,605824a5c79c7e261e281cc5,656018846682f3df8008bb8f,65601baca33617af94bb08aa,1,45,207,123,1,sixeight,,,,,,,,,,,,,,,,,,,,,,,,,,,,,,,,,,,,,,,,,,,,,,,,,,,,,,,,,,,,,,,,,,,,,,,,,,,,,,,,,,,,,
605824a5c79c7e261e281cc5,2023-11-24_24h44.53.841,kallum_motion_pilot,2023.1.2,Win32,59.93766483,605824a5c79c7e261e281cc5,656018846682f3df8008bb8f,65601baca33617af94bb08aa,1,46,208,94,1,eightsix,,,,,,,,,,,,,,,,,,,,,,,,,,,,,,,,,,,,,,,,,,,,,,,,,,,,,,,,,,,,,,,,,,,,,,,,,,,,,,,,,,,,,
605824a5c79c7e261e281cc5,2023-11-24_24h44.53.841,kallum_motion_pilot,2023.1.2,Win32,59.93766483,605824a5c79c7e261e281cc5,656018846682f3df8008bb8f,65601baca33617af94bb08aa,1,47,209,69,1,threefour,,,,,,,,,,,,,,,,,,,,,,,,,,,,,,,,,,,,,,,,,,,,,,,,,,,,,,,,,,,,,,,,,,,,,,,,,,,,,,,,,,,,,
605824a5c79c7e261e281cc5,2023-11-24_24h44.53.841,kallum_motion_pilot,2023.1.2,Win32,59.93766483,605824a5c79c7e261e281cc5,656018846682f3df8008bb8f,65601baca33617af94bb08aa,1,48,210,135,1,eightseven,,,,,,,,,,,,,,,,,,,,,,,,,,,,,,,,,,,,,,,,,,,,,,,,,,,,,,,,,,,,,,,,,,,,,,,,,,,,,,,,,,,,,
605824a5c79c7e261e281cc5,2023-11-24_24h44.53.841,kallum_motion_pilot,2023.1.2,Win32,59.93766483,605824a5c79c7e261e281cc5,656018846682f3df8008bb8f,65601baca33617af94bb08aa,1,49,211,0,1,onetwo,,,,,,,,,,,,,,,,,,,,,,,,,,,,,,,,,,,,,,,,,,,,,,,,,,,,,,,,,,,,,,,,,,,,,,,,,,,,,,,,,,,,,
605824a5c79c7e261e281cc5,2023-11-24_24h44.53.841,kallum_motion_pilot,2023.1.2,Win32,59.93766483,605824a5c79c7e261e281cc5,656018846682f3df8008bb8f,65601baca33617af94bb08aa,1,50,212,119,1,eightseven,,,,,,,,,,,,,,,,,,,,,,,,,,,,,,,,,,,,,,,,,,,,,,,,,,,,,,,,,,,,,,,,,,,,,,,,,,,,,,,,,,,,,
605824a5c79c7e261e281cc5,2023-11-24_24h44.53.841,kallum_motion_pilot,2023.1.2,Win32,59.93766483,605824a5c79c7e261e281cc5,656018846682f3df8008bb8f,65601baca33617af94bb08aa,1,51,213,3,1,twofour,,,,,,,,,,,,,,,,,,,,,,,,,,,,,,,,,,,,,,,,,,,,,,,,,,,,,,,,,,,,,,,,,,,,,,,,,,,,,,,,,,,,,
605824a5c79c7e261e281cc5,2023-11-24_24h44.53.841,kallum_motion_pilot,2023.1.2,Win32,59.93766483,605824a5c79c7e261e281cc5,656018846682f3df8008bb8f,65601baca33617af94bb08aa,1,52,214,13,1,threefour,,,,,,,,,,,,,,,,,,,,,,,,,,,,,,,,,,,,,,,,,,,,,,,,,,,,,,,,,,,,,,,,,,,,,,,,,,,,,,,,,,,,,
605824a5c79c7e261e281cc5,2023-11-24_24h44.53.841,kallum_motion_pilot,2023.1.2,Win32,59.93766483,605824a5c79c7e261e281cc5,656018846682f3df8008bb8f,65601baca33617af94bb08aa,1,53,215,93,1,seveneight,,,,,,,,,,,,,,,,,,,,,,,,,,,,,,,,,,,,,,,,,,,,,,,,,,,,,,,,,,,,,,,,,,,,,,,,,,,,,,,,,,,,,
605824a5c79c7e261e281cc5,2023-11-24_24h44.53.841,kallum_motion_pilot,2023.1.2,Win32,59.93766483,605824a5c79c7e261e281cc5,656018846682f3df8008bb8f,65601baca33617af94bb08aa,1,54,216,57,1,onethree,,,,,,,,,,,,,,,,,,,,,,,,,,,,,,,,,,,,,,,,,,,,,,,,,,,,,,,,,,,,,,,,,,,,,,,,,,,,,,,,,,,,,
605824a5c79c7e261e281cc5,2023-11-24_24h44.53.841,kallum_motion_pilot,2023.1.2,Win32,59.93766483,605824a5c79c7e261e281cc5,656018846682f3df8008bb8f,65601baca33617af94bb08aa,1,55,217,143,1,eightseven,,,,,,,,,,,,,,,,,,,,,,,,,,,,,,,,,,,,,,,,,,,,,,,,,,,,,,,,,,,,,,,,,,,,,,,,,,,,,,,,,,,,,
605824a5c79c7e261e281cc5,2023-11-24_24h44.53.841,kallum_motion_pilot,2023.1.2,Win32,59.93766483,605824a5c79c7e261e281cc5,656018846682f3df8008bb8f,65601baca33617af94bb08aa,1,56,218,161,1,fiveseven,,,,,,,,,,,,,,,,,,,,,,,,,,,,,,,,,,,,,,,,,,,,,,,,,,,,,,,,,,,,,,,,,,,,,,,,,,,,,,,,,,,,,
605824a5c79c7e261e281cc5,2023-11-24_24h44.53.841,kallum_motion_pilot,2023.1.2,Win32,59.93766483,605824a5c79c7e261e281cc5,656018846682f3df8008bb8f,65601baca33617af94bb08aa,1,57,219,30,1,fourtwo,,,,,,,,,,,,,,,,,,,,,,,,,,,,,,,,,,,,,,,,,,,,,,,,,,,,,,,,,,,,,,,,,,,,,,,,,,,,,,,,,,,,,
605824a5c79c7e261e281cc5,2023-11-24_24h44.53.841,kallum_motion_pilot,2023.1.2,Win32,59.93766483,605824a5c79c7e261e281cc5,656018846682f3df8008bb8f,65601baca33617af94bb08aa,1,58,220,64,1,onetwo,,,,,,,,,,,,,,,,,,,,,,,,,,,,,,,,,,,,,,,,,,,,,,,,,,,,,,,,,,,,,,,,,,,,,,,,,,,,,,,,,,,,,
605824a5c79c7e261e281cc5,2023-11-24_24h44.53.841,kallum_motion_pilot,2023.1.2,Win32,59.93766483,605824a5c79c7e261e281cc5,656018846682f3df8008bb8f,65601baca33617af94bb08aa,1,59,221,100,1,sevenfive,,,,,,,,,,,,,,,,,,,,,,,,,,,,,,,,,,,,,,,,,,,,,,,,,,,,,,,,,,,,,,,,,,,,,,,,,,,,,,,,,,,,,
605824a5c79c7e261e281cc5,2023-11-24_24h44.53.841,kallum_motion_pilot,2023.1.2,Win32,59.93766483,605824a5c79c7e261e281cc5,656018846682f3df8008bb8f,65601baca33617af94bb08aa,1,60,222,87,1,eightseven,,,,,,,,,,,,,,,,,,,,,,,,,,,,,,,,,,,,,,,,,,,,,,,,,,,,,,,,,,,,,,,,,,,,,,,,,,,,,,,,,,,,,
605824a5c79c7e261e281cc5,2023-11-24_24h44.53.841,kallum_motion_pilot,2023.1.2,Win32,59.93766483,605824a5c79c7e261e281cc5,656018846682f3df8008bb8f,65601baca33617af94bb08aa,1,61,223,99,1,sixeight,,,,,,,,,,,,,,,,,,,,,,,,,,,,,,,,,,,,,,,,,,,,,,,,,,,,,,,,,,,,,,,,,,,,,,,,,,,,,,,,,,,,,
605824a5c79c7e261e281cc5,2023-11-24_24h44.53.841,kallum_motion_pilot,2023.1.2,Win32,59.93766483,605824a5c79c7e261e281cc5,656018846682f3df8008bb8f,65601baca33617af94bb08aa,1,62,224,10,1,twoone,,,,,,,,,,,,,,,,,,,,,,,,,,,,,,,,,,,,,,,,,,,,,,,,,,,,,,,,,,,,,,,,,,,,,,,,,,,,,,,,,,,,,
605824a5c79c7e261e281cc5,2023-11-24_24h44.53.841,kallum_motion_pilot,2023.1.2,Win32,59.93766483,605824a5c79c7e261e281cc5,656018846682f3df8008bb8f,65601baca33617af94bb08aa,1,63,225,48,1,onetwo,,,,,,,,,,,,,,,,,,,,,,,,,,,,,,,,,,,,,,,,,,,,,,,,,,,,,,,,,,,,,,,,,,,,,,,,,,,,,,,,,,,,,
605824a5c79c7e261e281cc5,2023-11-24_24h44.53.841,kallum_motion_pilot,2023.1.2,Win32,59.93766483,605824a5c79c7e261e281cc5,656018846682f3df8008bb8f,65601baca33617af94bb08aa,1,64,226,35,1,twofour,,,,,,,,,,,,,,,,,,,,,,,,,,,,,,,,,,,,,,,,,,,,,,,,,,,,,,,,,,,,,,,,,,,,,,,,,,,,,,,,,,,,,
605824a5c79c7e261e281cc5,2023-11-24_24h44.53.841,kallum_motion_pilot,2023.1.2,Win32,59.93766483,605824a5c79c7e261e281cc5,656018846682f3df8008bb8f,65601baca33617af94bb08aa,1,65,227,115,1,sixeight,,,,,,,,,,,,,,,,,,,,,,,,,,,,,,,,,,,,,,,,,,,,,,,,,,,,,,,,,,,,,,,,,,,,,,,,,,,,,,,,,,,,,
605824a5c79c7e261e281cc5,2023-11-24_24h44.53.841,kallum_motion_pilot,2023.1.2,Win32,59.93766483,605824a5c79c7e261e281cc5,656018846682f3df8008bb8f,65601baca33617af94bb08aa,1,66,228,41,1,onethree,,,,,,,,,,,,,,,,,,,,,,,,,,,,,,,,,,,,,,,,,,,,,,,,,,,,,,,,,,,,,,,,,,,,,,,,,,,,,,,,,,,,,
605824a5c79c7e261e281cc5,2023-11-24_24h44.53.841,kallum_motion_pilot,2023.1.2,Win32,59.93766483,605824a5c79c7e261e281cc5,656018846682f3df8008bb8f,65601baca33617af94bb08aa,1,67,229,62,1,fourtwo,,,,,,,,,,,,,,,,,,,,,,,,,,,,,,,,,,,,,,,,,,,,,,,,,,,,,,,,,,,,,,,,,,,,,,,,,,,,,,,,,,,,,
605824a5c79c7e261e281cc5,2023-11-24_24h44.53.841,kallum_motion_pilot,2023.1.2,Win32,59.93766483,605824a5c79c7e261e281cc5,656018846682f3df8008bb8f,65601baca33617af94bb08aa,1,68,230,54,1,fourtwo,,,,,,,,,,,,,,,,,,,,,,,,,,,,,,,,,,,,,,,,,,,,,,,,,,,,,,,,,,,,,,,,,,,,,,,,,,,,,,,,,,,,,
605824a5c79c7e261e281cc5,2023-11-24_24h44.53.841,kallum_motion_pilot,2023.1.2,Win32,59.93766483,605824a5c79c7e261e281cc5,656018846682f3df8008bb8f,65601baca33617af94bb08aa,1,69,231,38,1,fourtwo,,,,,,,,,,,,,,,,,,,,,,,,,,,,,,,,,,,,,,,,,,,,,,,,,,,,,,,,,,,,,,,,,,,,,,,,,,,,,,,,,,,,,
605824a5c79c7e261e281cc5,2023-11-24_24h44.53.841,kallum_motion_pilot,2023.1.2,Win32,59.93766483,605824a5c79c7e261e281cc5,656018846682f3df8008bb8f,65601baca33617af94bb08aa,1,70,232,110,1,eightsix,,,,,,,,,,,,,,,,,,,,,,,,,,,,,,,,,,,,,,,,,,,,,,,,,,,,,,,,,,,,,,,,,,,,,,,,,,,,,,,,,,,,,
605824a5c79c7e261e281cc5,2023-11-24_24h44.53.841,kallum_motion_pilot,2023.1.2,Win32,59.93766483,605824a5c79c7e261e281cc5,656018846682f3df8008bb8f,65601baca33617af94bb08aa,1,71,233,84,1,sevenfive,,,,,,,,,,,,,,,,,,,,,,,,,,,,,,,,,,,,,,,,,,,,,,,,,,,,,,,,,,,,,,,,,,,,,,,,,,,,,,,,,,,,,
605824a5c79c7e261e281cc5,2023-11-24_24h44.53.841,kallum_motion_pilot,2023.1.2,Win32,59.93766483,605824a5c79c7e261e281cc5,656018846682f3df8008bb8f,65601baca33617af94bb08aa,1,72,234,53,1,threefour,,,,,,,,,,,,,,,,,,,,,,,,,,,,,,,,,,,,,,,,,,,,,,,,,,,,,,,,,,,,,,,,,,,,,,,,,,,,,,,,,,,,,
605824a5c79c7e261e281cc5,2023-11-24_24h44.53.841,kallum_motion_pilot,2023.1.2,Win32,59.93766483,605824a5c79c7e261e281cc5,656018846682f3df8008bb8f,65601baca33617af94bb08aa,1,73,235,136,1,fivesix,,,,,,,,,,,,,,,,,,,,,,,,,,,,,,,,,,,,,,,,,,,,,,,,,,,,,,,,,,,,,,,,,,,,,,,,,,,,,,,,,,,,,
605824a5c79c7e261e281cc5,2023-11-24_24h44.53.841,kallum_motion_pilot,2023.1.2,Win32,59.93766483,605824a5c79c7e261e281cc5,656018846682f3df8008bb8f,65601baca33617af94bb08aa,1,74,236,61,1,threefour,,,,,,,,,,,,,,,,,,,,,,,,,,,,,,,,,,,,,,,,,,,,,,,,,,,,,,,,,,,,,,,,,,,,,,,,,,,,,,,,,,,,,
605824a5c79c7e261e281cc5,2023-11-24_24h44.53.841,kallum_motion_pilot,2023.1.2,Win32,59.93766483,605824a5c79c7e261e281cc5,656018846682f3df8008bb8f,65601baca33617af94bb08aa,1,75,237,66,1,twoone,,,,,,,,,,,,,,,,,,,,,,,,,,,,,,,,,,,,,,,,,,,,,,,,,,,,,,,,,,,,,,,,,,,,,,,,,,,,,,,,,,,,,
605824a5c79c7e261e281cc5,2023-11-24_24h44.53.841,kallum_motion_pilot,2023.1.2,Win32,59.93766483,605824a5c79c7e261e281cc5,656018846682f3df8008bb8f,65601baca33617af94bb08aa,1,76,238,63,1,fourthree,,,,,,,,,,,,,,,,,,,,,,,,,,,,,,,,,,,,,,,,,,,,,,,,,,,,,,,,,,,,,,,,,,,,,,,,,,,,,,,,,,,,,
605824a5c79c7e261e281cc5,2023-11-24_24h44.53.841,kallum_motion_pilot,2023.1.2,Win32,59.93766483,605824a5c79c7e261e281cc5,656018846682f3df8008bb8f,65601baca33617af94bb08aa,1,77,239,32,1,onetwo,,,,,,,,,,,,,,,,,,,,,,,,,,,,,,,,,,,,,,,,,,,,,,,,,,,,,,,,,,,,,,,,,,,,,,,,,,,,,,,,,,,,,
605824a5c79c7e261e281cc5,2023-11-24_24h44.53.841,kallum_motion_pilot,2023.1.2,Win32,59.93766483,605824a5c79c7e261e281cc5,656018846682f3df8008bb8f,65601baca33617af94bb08aa,1,78,240,124,1,sevenfive,,,,,,,,,,,,,,,,,,,,,,,,,,,,,,,,,,,,,,,,,,,,,,,,,,,,,,,,,,,,,,,,,,,,,,,,,,,,,,,,,,,,,
605824a5c79c7e261e281cc5,2023-11-24_24h44.53.841,kallum_motion_pilot,2023.1.2,Win32,59.93766483,605824a5c79c7e261e281cc5,656018846682f3df8008bb8f,65601baca33617af94bb08aa,1,79,241,23,1,fourthree,,,,,,,,,,,,,,,,,,,,,,,,,,,,,,,,,,,,,,,,,,,,,,,,,,,,,,,,,,,,,,,,,,,,,,,,,,,,,,,,,,,,,
605824a5c79c7e261e281cc5,2023-11-24_24h44.53.841,kallum_motion_pilot,2023.1.2,Win32,59.93766483,605824a5c79c7e261e281cc5,656018846682f3df8008bb8f,65601baca33617af94bb08aa,1,80,242,95,1,eightseven,,,,,,,,,,,,,,,,,,,,,,,,,,,,,,,,,,,,,,,,,,,,,,,,,,,,,,,,,,,,,,,,,,,,,,,,,,,,,,,,,,,,,
605824a5c79c7e261e281cc5,2023-11-24_24h44.53.841,kallum_motion_pilot,2023.1.2,Win32,59.93766483,605824a5c79c7e261e281cc5,656018846682f3df8008bb8f,65601baca33617af94bb08aa,1,81,243,131,1,sixeight,,,,,,,,,,,,,,,,,,,,,,,,,,,,,,,,,,,,,,,,,,,,,,,,,,,,,,,,,,,,,,,,,,,,,,,,,,,,,,,,,,,,,
605824a5c79c7e261e281cc5,2023-11-24_24h44.53.841,kallum_motion_pilot,2023.1.2,Win32,59.93766483,605824a5c79c7e261e281cc5,656018846682f3df8008bb8f,65601baca33617af94bb08aa,1,82,244,146,1,sixfive,,,,,,,,,,,,,,,,,,,,,,,,,,,,,,,,,,,,,,,,,,,,,,,,,,,,,,,,,,,,,,,,,,,,,,,,,,,,,,,,,,,,,
605824a5c79c7e261e281cc5,2023-11-24_24h44.53.841,kallum_motion_pilot,2023.1.2,Win32,59.93766483,605824a5c79c7e261e281cc5,656018846682f3df8008bb8f,65601baca33617af94bb08aa,1,83,245,17,1,onethree,,,,,,,,,,,,,,,,,,,,,,,,,,,,,,,,,,,,,,,,,,,,,,,,,,,,,,,,,,,,,,,,,,,,,,,,,,,,,,,,,,,,,
605824a5c79c7e261e281cc5,2023-11-24_24h44.53.841,kallum_motion_pilot,2023.1.2,Win32,59.93766483,605824a5c79c7e261e281cc5,656018846682f3df8008bb8f,65601baca33617af94bb08aa,1,84,246,56,1,onetwo,,,,,,,,,,,,,,,,,,,,,,,,,,,,,,,,,,,,,,,,,,,,,,,,,,,,,,,,,,,,,,,,,,,,,,,,,,,,,,,,,,,,,
605824a5c79c7e261e281cc5,2023-11-24_24h44.53.841,kallum_motion_pilot,2023.1.2,Win32,59.93766483,605824a5c79c7e261e281cc5,656018846682f3df8008bb8f,65601baca33617af94bb08aa,1,85,247,60,1,threeone,,,,,,,,,,,,,,,,,,,,,,,,,,,,,,,,,,,,,,,,,,,,,,,,,,,,,,,,,,,,,,,,,,,,,,,,,,,,,,,,,,,,,
605824a5c79c7e261e281cc5,2023-11-24_24h44.53.841,kallum_motion_pilot,2023.1.2,Win32,59.93766483,605824a5c79c7e261e281cc5,656018846682f3df8008bb8f,65601baca33617af94bb08aa,1,86,248,20,1,threeone,,,,,,,,,,,,,,,,,,,,,,,,,,,,,,,,,,,,,,,,,,,,,,,,,,,,,,,,,,,,,,,,,,,,,,,,,,,,,,,,,,,,,
605824a5c79c7e261e281cc5,2023-11-24_24h44.53.841,kallum_motion_pilot,2023.1.2,Win32,59.93766483,605824a5c79c7e261e281cc5,656018846682f3df8008bb8f,65601baca33617af94bb08aa,1,87,249,52,1,threeone,,,,,,,,,,,,,,,,,,,,,,,,,,,,,,,,,,,,,,,,,,,,,,,,,,,,,,,,,,,,,,,,,,,,,,,,,,,,,,,,,,,,,
605824a5c79c7e261e281cc5,2023-11-24_24h44.53.841,kallum_motion_pilot,2023.1.2,Win32,59.93766483,605824a5c79c7e261e281cc5,656018846682f3df8008bb8f,65601baca33617af94bb08aa,1,88,250,33,1,onethree,,,,,,,,,,,,,,,,,,,,,,,,,,,,,,,,,,,,,,,,,,,,,,,,,,,,,,,,,,,,,,,,,,,,,,,,,,,,,,,,,,,,,
605824a5c79c7e261e281cc5,2023-11-24_24h44.53.841,kallum_motion_pilot,2023.1.2,Win32,59.93766483,605824a5c79c7e261e281cc5,656018846682f3df8008bb8f,65601baca33617af94bb08aa,1,89,251,158,1,eightsix,,,,,,,,,,,,,,,,,,,,,,,,,,,,,,,,,,,,,,,,,,,,,,,,,,,,,,,,,,,,,,,,,,,,,,,,,,,,,,,,,,,,,
605824a5c79c7e261e281cc5,2023-11-24_24h44.53.841,kallum_motion_pilot,2023.1.2,Win32,59.93766483,605824a5c79c7e261e281cc5,656018846682f3df8008bb8f,65601baca33617af94bb08aa,1,90,252,83,1,sixeight,,,,,,,,,,,,,,,,,,,,,,,,,,,,,,,,,,,,,,,,,,,,,,,,,,,,,,,,,,,,,,,,,,,,,,,,,,,,,,,,,,,,,
605824a5c79c7e261e281cc5,2023-11-24_24h44.53.841,kallum_motion_pilot,2023.1.2,Win32,59.93766483,605824a5c79c7e261e281cc5,656018846682f3df8008bb8f,65601baca33617af94bb08aa,1,91,253,126,1,eightsix,,,,,,,,,,,,,,,,,,,,,,,,,,,,,,,,,,,,,,,,,,,,,,,,,,,,,,,,,,,,,,,,,,,,,,,,,,,,,,,,,,,,,
605824a5c79c7e261e281cc5,2023-11-24_24h44.53.841,kallum_motion_pilot,2023.1.2,Win32,59.93766483,605824a5c79c7e261e281cc5,656018846682f3df8008bb8f,65601baca33617af94bb08aa,1,92,254,44,1,threeone,,,,,,,,,,,,,,,,,,,,,,,,,,,,,,,,,,,,,,,,,,,,,,,,,,,,,,,,,,,,,,,,,,,,,,,,,,,,,,,,,,,,,
605824a5c79c7e261e281cc5,2023-11-24_24h44.53.841,kallum_motion_pilot,2023.1.2,Win32,59.93766483,605824a5c79c7e261e281cc5,656018846682f3df8008bb8f,65601baca33617af94bb08aa,1,93,255,40,1,onetwo,,,,,,,,,,,,,,,,,,,,,,,,,,,,,,,,,,,,,,,,,,,,,,,,,,,,,,,,,,,,,,,,,,,,,,,,,,,,,,,,,,,,,
605824a5c79c7e261e281cc5,2023-11-24_24h44.53.841,kallum_motion_pilot,2023.1.2,Win32,59.93766483,605824a5c79c7e261e281cc5,656018846682f3df8008bb8f,65601baca33617af94bb08aa,1,94,256,91,1,sixeight,,,,,,,,,,,,,,,,,,,,,,,,,,,,,,,,,,,,,,,,,,,,,,,,,,,,,,,,,,,,,,,,,,,,,,,,,,,,,,,,,,,,,
605824a5c79c7e261e281cc5,2023-11-24_24h44.53.841,kallum_motion_pilot,2023.1.2,Win32,59.93766483,605824a5c79c7e261e281cc5,656018846682f3df8008bb8f,65601baca33617af94bb08aa,1,95,257,81,1,fiveseven,,,,,,,,,,,,,,,,,,,,,,,,,,,,,,,,,,,,,,,,,,,,,,,,,,,,,,,,,,,,,,,,,,,,,,,,,,,,,,,,,,,,,
605824a5c79c7e261e281cc5,2023-11-24_24h44.53.841,kallum_motion_pilot,2023.1.2,Win32,59.93766483,605824a5c79c7e261e281cc5,656018846682f3df8008bb8f,65601baca33617af94bb08aa,1,96,258,120,1,fivesix,,,,,,,,,,,,,,,,,,,,,,,,,,,,,,,,,,,,,,,,,,,,,,,,,,,,,,,,,,,,,,,,,,,,,,,,,,,,,,,,,,,,,
605824a5c79c7e261e281cc5,2023-11-24_24h44.53.841,kallum_motion_pilot,2023.1.2,Win32,59.93766483,605824a5c79c7e261e281cc5,656018846682f3df8008bb8f,65601baca33617af94bb08aa,1,97,259,150,1,eightsix,,,,,,,,,,,,,,,,,,,,,,,,,,,,,,,,,,,,,,,,,,,,,,,,,,,,,,,,,,,,,,,,,,,,,,,,,,,,,,,,,,,,,
605824a5c79c7e261e281cc5,2023-11-24_24h44.53.841,kallum_motion_pilot,2023.1.2,Win32,59.93766483,605824a5c79c7e261e281cc5,656018846682f3df8008bb8f,65601baca33617af94bb08aa,1,98,260,78,1,fourtwo,,,,,,,,,,,,,,,,,,,,,,,,,,,,,,,,,,,,,,,,,,,,,,,,,,,,,,,,,,,,,,,,,,,,,,,,,,,,,,,,,,,,,
605824a5c79c7e261e281cc5,2023-11-24_24h44.53.841,kallum_motion_pilot,2023.1.2,Win32,59.93766483,605824a5c79c7e261e281cc5,656018846682f3df8008bb8f,65601baca33617af94bb08aa,1,99,261,106,1,sixfive,,,,,,,,,,,,,,,,,,,,,,,,,,,,,,,,,,,,,,,,,,,,,,,,,,,,,,,,,,,,,,,,,,,,,,,,,,,,,,,,,,,,,
605824a5c79c7e261e281cc5,2023-11-24_24h44.53.841,kallum_motion_pilot,2023.1.2,Win32,59.93766483,605824a5c79c7e261e281cc5,656018846682f3df8008bb8f,65601baca33617af94bb08aa,1,100,262,76,1,threeone,,,,,,,,,,,,,,,,,,,,,,,,,,,,,,,,,,,,,,,,,,,,,,,,,,,,,,,,,,,,,,,,,,,,,,,,,,,,,,,,,,,,,
605824a5c79c7e261e281cc5,2023-11-24_24h44.53.841,kallum_motion_pilot,2023.1.2,Win32,59.93766483,605824a5c79c7e261e281cc5,656018846682f3df8008bb8f,65601baca33617af94bb08aa,1,101,263,47,1,fourthree,,,,,,,,,,,,,,,,,,,,,,,,,,,,,,,,,,,,,,,,,,,,,,,,,,,,,,,,,,,,,,,,,,,,,,,,,,,,,,,,,,,,,
605824a5c79c7e261e281cc5,2023-11-24_24h44.53.841,kallum_motion_pilot,2023.1.2,Win32,59.93766483,605824a5c79c7e261e281cc5,656018846682f3df8008bb8f,65601baca33617af94bb08aa,1,102,264,149,1,seveneight,,,,,,,,,,,,,,,,,,,,,,,,,,,,,,,,,,,,,,,,,,,,,,,,,,,,,,,,,,,,,,,,,,,,,,,,,,,,,,,,,,,,,
605824a5c79c7e261e281cc5,2023-11-24_24h44.53.841,kallum_motion_pilot,2023.1.2,Win32,59.93766483,605824a5c79c7e261e281cc5,656018846682f3df8008bb8f,65601baca33617af94bb08aa,1,103,265,49,1,onethree,,,,,,,,,,,,,,,,,,,,,,,,,,,,,,,,,,,,,,,,,,,,,,,,,,,,,,,,,,,,,,,,,,,,,,,,,,,,,,,,,,,,,
605824a5c79c7e261e281cc5,2023-11-24_24h44.53.841,kallum_motion_pilot,2023.1.2,Win32,59.93766483,605824a5c79c7e261e281cc5,656018846682f3df8008bb8f,65601baca33617af94bb08aa,1,104,266,101,1,seveneight,,,,,,,,,,,,,,,,,,,,,,,,,,,,,,,,,,,,,,,,,,,,,,,,,,,,,,,,,,,,,,,,,,,,,,,,,,,,,,,,,,,,,
605824a5c79c7e261e281cc5,2023-11-24_24h44.53.841,kallum_motion_pilot,2023.1.2,Win32,59.93766483,605824a5c79c7e261e281cc5,656018846682f3df8008bb8f,65601baca33617af94bb08aa,1,105,267,4,1,threeone,,,,,,,,,,,,,,,,,,,,,,,,,,,,,,,,,,,,,,,,,,,,,,,,,,,,,,,,,,,,,,,,,,,,,,,,,,,,,,,,,,,,,
605824a5c79c7e261e281cc5,2023-11-24_24h44.53.841,kallum_motion_pilot,2023.1.2,Win32,59.93766483,605824a5c79c7e261e281cc5,656018846682f3df8008bb8f,65601baca33617af94bb08aa,1,106,268,39,1,fourthree,,,,,,,,,,,,,,,,,,,,,,,,,,,,,,,,,,,,,,,,,,,,,,,,,,,,,,,,,,,,,,,,,,,,,,,,,,,,,,,,,,,,,
605824a5c79c7e261e281cc5,2023-11-24_24h44.53.841,kallum_motion_pilot,2023.1.2,Win32,59.93766483,605824a5c79c7e261e281cc5,656018846682f3df8008bb8f,65601baca33617af94bb08aa,1,107,269,141,1,seveneight,,,,,,,,,,,,,,,,,,,,,,,,,,,,,,,,,,,,,,,,,,,,,,,,,,,,,,,,,,,,,,,,,,,,,,,,,,,,,,,,,,,,,
605824a5c79c7e261e281cc5,2023-11-24_24h44.53.841,kallum_motion_pilot,2023.1.2,Win32,59.93766483,605824a5c79c7e261e281cc5,656018846682f3df8008bb8f,65601baca33617af94bb08aa,1,108,270,79,1,eightseven,,,,,,,,,,,,,,,,,,,,,,,,,,,,,,,,,,,,,,,,,,,,,,,,,,,,,,,,,,,,,,,,,,,,,,,,,,,,,,,,,,,,,
605824a5c79c7e261e281cc5,2023-11-24_24h44.53.841,kallum_motion_pilot,2023.1.2,Win32,59.93766483,605824a5c79c7e261e281cc5,656018846682f3df8008bb8f,65601baca33617af94bb08aa,1,109,271,34,1,twoone,,,,,,,,,,,,,,,,,,,,,,,,,,,,,,,,,,,,,,,,,,,,,,,,,,,,,,,,,,,,,,,,,,,,,,,,,,,,,,,,,,,,,
605824a5c79c7e261e281cc5,2023-11-24_24h44.53.841,kallum_motion_pilot,2023.1.2,Win32,59.93766483,605824a5c79c7e261e281cc5,656018846682f3df8008bb8f,65601baca33617af94bb08aa,1,110,272,16,1,onetwo,,,,,,,,,,,,,,,,,,,,,,,,,,,,,,,,,,,,,,,,,,,,,,,,,,,,,,,,,,,,,,,,,,,,,,,,,,,,,,,,,,,,,
605824a5c79c7e261e281cc5,2023-11-24_24h44.53.841,kallum_motion_pilot,2023.1.2,Win32,59.93766483,605824a5c79c7e261e281cc5,656018846682f3df8008bb8f,65601baca33617af94bb08aa,1,111,273,147,1,sixeight,,,,,,,,,,,,,,,,,,,,,,,,,,,,,,,,,,,,,,,,,,,,,,,,,,,,,,,,,,,,,,,,,,,,,,,,,,,,,,,,,,,,,
605824a5c79c7e261e281cc5,2023-11-24_24h44.53.841,kallum_motion_pilot,2023.1.2,Win32,59.93766483,605824a5c79c7e261e281cc5,656018846682f3df8008bb8f,65601baca33617af94bb08aa,1,112,274,153,1,fiveseven,,,,,,,,,,,,,,,,,,,,,,,,,,,,,,,,,,,,,,,,,,,,,,,,,,,,,,,,,,,,,,,,,,,,,,,,,,,,,,,,,,,,,
605824a5c79c7e261e281cc5,2023-11-24_24h44.53.841,kallum_motion_pilot,2023.1.2,Win32,59.93766483,605824a5c79c7e261e281cc5,656018846682f3df8008bb8f,65601baca33617af94bb08aa,1,113,275,24,1,onetwo,,,,,,,,,,,,,,,,,,,,,,,,,,,,,,,,,,,,,,,,,,,,,,,,,,,,,,,,,,,,,,,,,,,,,,,,,,,,,,,,,,,,,
605824a5c79c7e261e281cc5,2023-11-24_24h44.53.841,kallum_motion_pilot,2023.1.2,Win32,59.93766483,605824a5c79c7e261e281cc5,656018846682f3df8008bb8f,65601baca33617af94bb08aa,1,114,276,139,1,sixeight,,,,,,,,,,,,,,,,,,,,,,,,,,,,,,,,,,,,,,,,,,,,,,,,,,,,,,,,,,,,,,,,,,,,,,,,,,,,,,,,,,,,,
605824a5c79c7e261e281cc5,2023-11-24_24h44.53.841,kallum_motion_pilot,2023.1.2,Win32,59.93766483,605824a5c79c7e261e281cc5,656018846682f3df8008bb8f,65601baca33617af94bb08aa,1,115,277,137,1,fiveseven,,,,,,,,,,,,,,,,,,,,,,,,,,,,,,,,,,,,,,,,,,,,,,,,,,,,,,,,,,,,,,,,,,,,,,,,,,,,,,,,,,,,,
605824a5c79c7e261e281cc5,2023-11-24_24h44.53.841,kallum_motion_pilot,2023.1.2,Win32,59.93766483,605824a5c79c7e261e281cc5,656018846682f3df8008bb8f,65601baca33617af94bb08aa,1,116,278,121,1,fiveseven,,,,,,,,,,,,,,,,,,,,,,,,,,,,,,,,,,,,,,,,,,,,,,,,,,,,,,,,,,,,,,,,,,,,,,,,,,,,,,,,,,,,,
605824a5c79c7e261e281cc5,2023-11-24_24h44.53.841,kallum_motion_pilot,2023.1.2,Win32,59.93766483,605824a5c79c7e261e281cc5,656018846682f3df8008bb8f,65601baca33617af94bb08aa,1,117,279,118,1,eightsix,,,,,,,,,,,,,,,,,,,,,,,,,,,,,,,,,,,,,,,,,,,,,,,,,,,,,,,,,,,,,,,,,,,,,,,,,,,,,,,,,,,,,
605824a5c79c7e261e281cc5,2023-11-24_24h44.53.841,kallum_motion_pilot,2023.1.2,Win32,59.93766483,605824a5c79c7e261e281cc5,656018846682f3df8008bb8f,65601baca33617af94bb08aa,1,118,280,92,1,sevenfive,,,,,,,,,,,,,,,,,,,,,,,,,,,,,,,,,,,,,,,,,,,,,,,,,,,,,,,,,,,,,,,,,,,,,,,,,,,,,,,,,,,,,
605824a5c79c7e261e281cc5,2023-11-24_24h44.53.841,kallum_motion_pilot,2023.1.2,Win32,59.93766483,605824a5c79c7e261e281cc5,656018846682f3df8008bb8f,65601baca33617af94bb08aa,1,119,281,113,1,fiveseven,,,,,,,,,,,,,,,,,,,,,,,,,,,,,,,,,,,,,,,,,,,,,,,,,,,,,,,,,,,,,,,,,,,,,,,,,,,,,,,,,,,,,
605824a5c79c7e261e281cc5,2023-11-24_24h44.53.841,kallum_motion_pilot,2023.1.2,Win32,59.93766483,605824a5c79c7e261e281cc5,656018846682f3df8008bb8f,65601baca33617af94bb08aa,1,120,282,107,1,sixeight,,,,,,,,,,,,,,,,,,,,,,,,,,,,,,,,,,,,,,,,,,,,,,,,,,,,,,,,,,,,,,,,,,,,,,,,,,,,,,,,,,,,,
605824a5c79c7e261e281cc5,2023-11-24_24h44.53.841,kallum_motion_pilot,2023.1.2,Win32,59.93766483,605824a5c79c7e261e281cc5,656018846682f3df8008bb8f,65601baca33617af94bb08aa,1,121,283,103,1,eightseven,,,,,,,,,,,,,,,,,,,,,,,,,,,,,,,,,,,,,,,,,,,,,,,,,,,,,,,,,,,,,,,,,,,,,,,,,,,,,,,,,,,,,
605824a5c79c7e261e281cc5,2023-11-24_24h44.53.841,kallum_motion_pilot,2023.1.2,Win32,59.93766483,605824a5c79c7e261e281cc5,656018846682f3df8008bb8f,65601baca33617af94bb08aa,1,122,284,46,1,fourtwo,,,,,,,,,,,,,,,,,,,,,,,,,,,,,,,,,,,,,,,,,,,,,,,,,,,,,,,,,,,,,,,,,,,,,,,,,,,,,,,,,,,,,
605824a5c79c7e261e281cc5,2023-11-24_24h44.53.841,kallum_motion_pilot,2023.1.2,Win32,59.93766483,605824a5c79c7e261e281cc5,656018846682f3df8008bb8f,65601baca33617af94bb08aa,1,123,285,138,1,sixfive,,,,,,,,,,,,,,,,,,,,,,,,,,,,,,,,,,,,,,,,,,,,,,,,,,,,,,,,,,,,,,,,,,,,,,,,,,,,,,,,,,,,,
605824a5c79c7e261e281cc5,2023-11-24_24h44.53.841,kallum_motion_pilot,2023.1.2,Win32,59.93766483,605824a5c79c7e261e281cc5,656018846682f3df8008bb8f,65601baca33617af94bb08aa,1,124,286,7,1,fourthree,,,,,,,,,,,,,,,,,,,,,,,,,,,,,,,,,,,,,,,,,,,,,,,,,,,,,,,,,,,,,,,,,,,,,,,,,,,,,,,,,,,,,
605824a5c79c7e261e281cc5,2023-11-24_24h44.53.841,kallum_motion_pilot,2023.1.2,Win32,59.93766483,605824a5c79c7e261e281cc5,656018846682f3df8008bb8f,65601baca33617af94bb08aa,1,125,287,29,1,threefour,,,,,,,,,,,,,,,,,,,,,,,,,,,,,,,,,,,,,,,,,,,,,,,,,,,,,,,,,,,,,,,,,,,,,,,,,,,,,,,,,,,,,
605824a5c79c7e261e281cc5,2023-11-24_24h44.53.841,kallum_motion_pilot,2023.1.2,Win32,59.93766483,605824a5c79c7e261e281cc5,656018846682f3df8008bb8f,65601baca33617af94bb08aa,1,126,288,58,1,twoone,,,,,,,,,,,,,,,,,,,,,,,,,,,,,,,,,,,,,,,,,,,,,,,,,,,,,,,,,,,,,,,,,,,,,,,,,,,,,,,,,,,,,
605824a5c79c7e261e281cc5,2023-11-24_24h44.53.841,kallum_motion_pilot,2023.1.2,Win32,59.93766483,605824a5c79c7e261e281cc5,656018846682f3df8008bb8f,65601baca33617af94bb08aa,1,127,289,21,1,threefour,,,,,,,,,,,,,,,,,,,,,,,,,,,,,,,,,,,,,,,,,,,,,,,,,,,,,,,,,,,,,,,,,,,,,,,,,,,,,,,,,,,,,
605824a5c79c7e261e281cc5,2023-11-24_24h44.53.841,kallum_motion_pilot,2023.1.2,Win32,59.93766483,605824a5c79c7e261e281cc5,656018846682f3df8008bb8f,65601baca33617af94bb08aa,1,128,290,154,1,sixfive,,,,,,,,,,,,,,,,,,,,,,,,,,,,,,,,,,,,,,,,,,,,,,,,,,,,,,,,,,,,,,,,,,,,,,,,,,,,,,,,,,,,,
605824a5c79c7e261e281cc5,2023-11-24_24h44.53.841,kallum_motion_pilot,2023.1.2,Win32,59.93766483,605824a5c79c7e261e281cc5,656018846682f3df8008bb8f,65601baca33617af94bb08aa,1,129,291,97,1,fiveseven,,,,,,,,,,,,,,,,,,,,,,,,,,,,,,,,,,,,,,,,,,,,,,,,,,,,,,,,,,,,,,,,,,,,,,,,,,,,,,,,,,,,,
605824a5c79c7e261e281cc5,2023-11-24_24h44.53.841,kallum_motion_pilot,2023.1.2,Win32,59.93766483,605824a5c79c7e261e281cc5,656018846682f3df8008bb8f,65601baca33617af94bb08aa,1,130,292,22,1,fourtwo,,,,,,,,,,,,,,,,,,,,,,,,,,,,,,,,,,,,,,,,,,,,,,,,,,,,,,,,,,,,,,,,,,,,,,,,,,,,,,,,,,,,,
605824a5c79c7e261e281cc5,2023-11-24_24h44.53.841,kallum_motion_pilot,2023.1.2,Win32,59.93766483,605824a5c79c7e261e281cc5,656018846682f3df8008bb8f,65601baca33617af94bb08aa,1,131,293,18,1,twoone,,,,,,,,,,,,,,,,,,,,,,,,,,,,,,,,,,,,,,,,,,,,,,,,,,,,,,,,,,,,,,,,,,,,,,,,,,,,,,,,,,,,,
605824a5c79c7e261e281cc5,2023-11-24_24h44.53.841,kallum_motion_pilot,2023.1.2,Win32,59.93766483,605824a5c79c7e261e281cc5,656018846682f3df8008bb8f,65601baca33617af94bb08aa,1,132,294,45,1,threefour,,,,,,,,,,,,,,,,,,,,,,,,,,,,,,,,,,,,,,,,,,,,,,,,,,,,,,,,,,,,,,,,,,,,,,,,,,,,,,,,,,,,,
605824a5c79c7e261e281cc5,2023-11-24_24h44.53.841,kallum_motion_pilot,2023.1.2,Win32,59.93766483,605824a5c79c7e261e281cc5,656018846682f3df8008bb8f,65601baca33617af94bb08aa,1,133,295,156,1,sevenfive,,,,,,,,,,,,,,,,,,,,,,,,,,,,,,,,,,,,,,,,,,,,,,,,,,,,,,,,,,,,,,,,,,,,,,,,,,,,,,,,,,,,,
605824a5c79c7e261e281cc5,2023-11-24_24h44.53.841,kallum_motion_pilot,2023.1.2,Win32,59.93766483,605824a5c79c7e261e281cc5,656018846682f3df8008bb8f,65601baca33617af94bb08aa,1,134,296,37,1,threefour,,,,,,,,,,,,,,,,,,,,,,,,,,,,,,,,,,,,,,,,,,,,,,,,,,,,,,,,,,,,,,,,,,,,,,,,,,,,,,,,,,,,,
605824a5c79c7e261e281cc5,2023-11-24_24h44.53.841,kallum_motion_pilot,2023.1.2,Win32,59.93766483,605824a5c79c7e261e281cc5,656018846682f3df8008bb8f,65601baca33617af94bb08aa,1,135,297,36,1,threeone,,,,,,,,,,,,,,,,,,,,,,,,,,,,,,,,,,,,,,,,,,,,,,,,,,,,,,,,,,,,,,,,,,,,,,,,,,,,,,,,,,,,,
605824a5c79c7e261e281cc5,2023-11-24_24h44.53.841,kallum_motion_pilot,2023.1.2,Win32,59.93766483,605824a5c79c7e261e281cc5,656018846682f3df8008bb8f,65601baca33617af94bb08aa,1,136,298,42,1,twoone,,,,,,,,,,,,,,,,,,,,,,,,,,,,,,,,,,,,,,,,,,,,,,,,,,,,,,,,,,,,,,,,,,,,,,,,,,,,,,,,,,,,,
605824a5c79c7e261e281cc5,2023-11-24_24h44.53.841,kallum_motion_pilot,2023.1.2,Win32,59.93766483,605824a5c79c7e261e281cc5,656018846682f3df8008bb8f,65601baca33617af94bb08aa,1,137,299,144,1,fivesix,,,,,,,,,,,,,,,,,,,,,,,,,,,,,,,,,,,,,,,,,,,,,,,,,,,,,,,,,,,,,,,,,,,,,,,,,,,,,,,,,,,,,
605824a5c79c7e261e281cc5,2023-11-24_24h44.53.841,kallum_motion_pilot,2023.1.2,Win32,59.93766483,605824a5c79c7e261e281cc5,656018846682f3df8008bb8f,65601baca33617af94bb08aa,1,138,300,71,1,fourthree,,,,,,,,,,,,,,,,,,,,,,,,,,,,,,,,,,,,,,,,,,,,,,,,,,,,,,,,,,,,,,,,,,,,,,,,,,,,,,,,,,,,,
605824a5c79c7e261e281cc5,2023-11-24_24h44.53.841,kallum_motion_pilot,2023.1.2,Win32,59.93766483,605824a5c79c7e261e281cc5,656018846682f3df8008bb8f,65601baca33617af94bb08aa,1,139,301,130,1,sixfive,,,,,,,,,,,,,,,,,,,,,,,,,,,,,,,,,,,,,,,,,,,,,,,,,,,,,,,,,,,,,,,,,,,,,,,,,,,,,,,,,,,,,
605824a5c79c7e261e281cc5,2023-11-24_24h44.53.841,kallum_motion_pilot,2023.1.2,Win32,59.93766483,605824a5c79c7e261e281cc5,656018846682f3df8008bb8f,65601baca33617af94bb08aa,1,140,302,77,1,threefour,,,,,,,,,,,,,,,,,,,,,,,,,,,,,,,,,,,,,,,,,,,,,,,,,,,,,,,,,,,,,,,,,,,,,,,,,,,,,,,,,,,,,
605824a5c79c7e261e281cc5,2023-11-24_24h44.53.841,kallum_motion_pilot,2023.1.2,Win32,59.93766483,605824a5c79c7e261e281cc5,656018846682f3df8008bb8f,65601baca33617af94bb08aa,1,141,303,112,1,fivesix,,,,,,,,,,,,,,,,,,,,,,,,,,,,,,,,,,,,,,,,,,,,,,,,,,,,,,,,,,,,,,,,,,,,,,,,,,,,,,,,,,,,,
605824a5c79c7e261e281cc5,2023-11-24_24h44.53.841,kallum_motion_pilot,2023.1.2,Win32,59.93766483,605824a5c79c7e261e281cc5,656018846682f3df8008bb8f,65601baca33617af94bb08aa,1,142,304,160,1,fivesix,,,,,,,,,,,,,,,,,,,,,,,,,,,,,,,,,,,,,,,,,,,,,,,,,,,,,,,,,,,,,,,,,,,,,,,,,,,,,,,,,,,,,
605824a5c79c7e261e281cc5,2023-11-24_24h44.53.841,kallum_motion_pilot,2023.1.2,Win32,59.93766483,605824a5c79c7e261e281cc5,656018846682f3df8008bb8f,65601baca33617af94bb08aa,1,143,305,68,1,threeone,,,,,,,,,,,,,,,,,,,,,,,,,,,,,,,,,,,,,,,,,,,,,,,,,,,,,,,,,,,,,,,,,,,,,,,,,,,,,,,,,,,,,
605824a5c79c7e261e281cc5,2023-11-24_24h44.53.841,kallum_motion_pilot,2023.1.2,Win32,59.93766483,605824a5c79c7e261e281cc5,656018846682f3df8008bb8f,65601baca33617af94bb08aa,1,144,306,155,1,sixeight,,,,,,,,,,,,,,,,,,,,,,,,,,,,,,,,,,,,,,,,,,,,,,,,,,,,,,,,,,,,,,,,,,,,,,,,,,,,,,,,,,,,,
605824a5c79c7e261e281cc5,2023-11-24_24h44.53.841,kallum_motion_pilot,2023.1.2,Win32,59.93766483,605824a5c79c7e261e281cc5,656018846682f3df8008bb8f,65601baca33617af94bb08aa,1,145,307,98,1,sixfive,,,,,,,,,,,,,,,,,,,,,,,,,,,,,,,,,,,,,,,,,,,,,,,,,,,,,,,,,,,,,,,,,,,,,,,,,,,,,,,,,,,,,
605824a5c79c7e261e281cc5,2023-11-24_24h44.53.841,kallum_motion_pilot,2023.1.2,Win32,59.93766483,605824a5c79c7e261e281cc5,656018846682f3df8008bb8f,65601baca33617af94bb08aa,1,146,308,89,1,fiveseven,,,,,,,,,,,,,,,,,,,,,,,,,,,,,,,,,,,,,,,,,,,,,,,,,,,,,,,,,,,,,,,,,,,,,,,,,,,,,,,,,,,,,
605824a5c79c7e261e281cc5,2023-11-24_24h44.53.841,kallum_motion_pilot,2023.1.2,Win32,59.93766483,605824a5c79c7e261e281cc5,656018846682f3df8008bb8f,65601baca33617af94bb08aa,1,147,309,12,1,threeone,,,,,,,,,,,,,,,,,,,,,,,,,,,,,,,,,,,,,,,,,,,,,,,,,,,,,,,,,,,,,,,,,,,,,,,,,,,,,,,,,,,,,
605824a5c79c7e261e281cc5,2023-11-24_24h44.53.841,kallum_motion_pilot,2023.1.2,Win32,59.93766483,605824a5c79c7e261e281cc5,656018846682f3df8008bb8f,65601baca33617af94bb08aa,1,148,310,122,1,sixfive,,,,,,,,,,,,,,,,,,,,,,,,,,,,,,,,,,,,,,,,,,,,,,,,,,,,,,,,,,,,,,,,,,,,,,,,,,,,,,,,,,,,,
605824a5c79c7e261e281cc5,2023-11-24_24h44.53.841,kallum_motion_pilot,2023.1.2,Win32,59.93766483,605824a5c79c7e261e281cc5,656018846682f3df8008bb8f,65601baca33617af94bb08aa,1,149,311,14,1,fourtwo,,,,,,,,,,,,,,,,,,,,,,,,,,,,,,,,,,,,,,,,,,,,,,,,,,,,,,,,,,,,,,,,,,,,,,,,,,,,,,,,,,,,,
605824a5c79c7e261e281cc5,2023-11-24_24h44.53.841,kallum_motion_pilot,2023.1.2,Win32,59.93766483,605824a5c79c7e261e281cc5,656018846682f3df8008bb8f,65601baca33617af94bb08aa,1,150,312,125,1,seveneight,,,,,,,,,,,,,,,,,,,,,,,,,,,,,,,,,,,,,,,,,,,,,,,,,,,,,,,,,,,,,,,,,,,,,,,,,,,,,,,,,,,,,
605824a5c79c7e261e281cc5,2023-11-24_24h44.53.841,kallum_motion_pilot,2023.1.2,Win32,59.93766483,605824a5c79c7e261e281cc5,656018846682f3df8008bb8f,65601baca33617af94bb08aa,1,151,313,75,1,twofour,,,,,,,,,,,,,,,,,,,,,,,,,,,,,,,,,,,,,,,,,,,,,,,,,,,,,,,,,,,,,,,,,,,,,,,,,,,,,,,,,,,,,
605824a5c79c7e261e281cc5,2023-11-24_24h44.53.841,kallum_motion_pilot,2023.1.2,Win32,59.93766483,605824a5c79c7e261e281cc5,656018846682f3df8008bb8f,65601baca33617af94bb08aa,1,152,314,159,1,eightseven,,,,,,,,,,,,,,,,,,,,,,,,,,,,,,,,,,,,,,,,,,,,,,,,,,,,,,,,,,,,,,,,,,,,,,,,,,,,,,,,,,,,,
605824a5c79c7e261e281cc5,2023-11-24_24h44.53.841,kallum_motion_pilot,2023.1.2,Win32,59.93766483,605824a5c79c7e261e281cc5,656018846682f3df8008bb8f,65601baca33617af94bb08aa,1,153,315,140,1,sevenfive,,,,,,,,,,,,,,,,,,,,,,,,,,,,,,,,,,,,,,,,,,,,,,,,,,,,,,,,,,,,,,,,,,,,,,,,,,,,,,,,,,,,,
605824a5c79c7e261e281cc5,2023-11-24_24h44.53.841,kallum_motion_pilot,2023.1.2,Win32,59.93766483,605824a5c79c7e261e281cc5,656018846682f3df8008bb8f,65601baca33617af94bb08aa,1,154,316,114,1,sixfive,,,,,,,,,,,,,,,,,,,,,,,,,,,,,,,,,,,,,,,,,,,,,,,,,,,,,,,,,,,,,,,,,,,,,,,,,,,,,,,,,,,,,
605824a5c79c7e261e281cc5,2023-11-24_24h44.53.841,kallum_motion_pilot,2023.1.2,Win32,59.93766483,605824a5c79c7e261e281cc5,656018846682f3df8008bb8f,65601baca33617af94bb08aa,1,155,317,67,1,twofour,,,,,,,,,,,,,,,,,,,,,,,,,,,,,,,,,,,,,,,,,,,,,,,,,,,,,,,,,,,,,,,,,,,,,,,,,,,,,,,,,,,,,
605824a5c79c7e261e281cc5,2023-11-24_24h44.53.841,kallum_motion_pilot,2023.1.2,Win32,59.93766483,605824a5c79c7e261e281cc5,656018846682f3df8008bb8f,65601baca33617af94bb08aa,1,156,318,15,1,fourthree,,,,,,,,,,,,,,,,,,,,,,,,,,,,,,,,,,,,,,,,,,,,,,,,,,,,,,,,,,,,,,,,,,,,,,,,,,,,,,,,,,,,,
605824a5c79c7e261e281cc5,2023-11-24_24h44.53.841,kallum_motion_pilot,2023.1.2,Win32,59.93766483,605824a5c79c7e261e281cc5,656018846682f3df8008bb8f,65601baca33617af94bb08aa,1,157,319,19,1,twofour,,,,,,,,,,,,,,,,,,,,,,,,,,,,,,,,,,,,,,,,,,,,,,,,,,,,,,,,,,,,,,,,,,,,,,,,,,,,,,,,,,,,,
605824a5c79c7e261e281cc5,2023-11-24_24h44.53.841,kallum_motion_pilot,2023.1.2,Win32,59.93766483,605824a5c79c7e261e281cc5,656018846682f3df8008bb8f,65601baca33617af94bb08aa,1,158,320,151,1,eightseven,,,,,,,,,,,,,,,,,,,,,,,,,,,,,,,,,,,,,,,,,,,,,,,,,,,,,,,,,,,,,,,,,,,,,,,,,,,,,,,,,,,,,
605824a5c79c7e261e281cc5,2023-11-24_24h44.53.841,kallum_motion_pilot,2023.1.2,Win32,59.93766483,605824a5c79c7e261e281cc5,656018846682f3df8008bb8f,65601baca33617af94bb08aa,1,159,321,72,1,onetwo,,,,,,,,,,,,,,,,,,,,,,,,,,,,,,,,,,,,,,,,,,,,,,,,,,,,,,,,,,,,,,,,,,,,,,,,,,,,,,,,,,,,,
605824a5c79c7e261e281cc5,2023-11-24_24h44.53.841,kallum_motion_pilot,2023.1.2,Win32,59.93766483,605824a5c79c7e261e281cc5,656018846682f3df8008bb8f,65601baca33617af94bb08aa,1,160,322,5,1,threefour,,,,,,,,,,,,,,,,,,,,,,,,,,,,,,,,,,,,,,,,,,,,,,,,,,,,,,,,,,,,,,,,,,,,,,,,,,,,,,,,,,,,,
605824a5c79c7e261e281cc5,2023-11-24_24h44.53.841,kallum_motion_pilot,2023.1.2,Win32,59.93766483,605824a5c79c7e261e281cc5,656018846682f3df8008bb8f,65601baca33617af94bb08aa,1,161,323,50,1,twoone,,,,,,,,,,,,,,,,,,,,,,,,,,,,,,,,,,,,,,,,,,,,,,,,,,,,,,,,,,,,,,,,,,,,,,,,,,,,,,,,,,,,,
605824a5c79c7e261e281cc5,2023-11-24_24h44.53.841,kallum_motion_pilot,2023.1.2,Win32,59.93766483,605824a5c79c7e261e281cc5,656018846682f3df8008bb8f,65601baca33617af94bb08aa,2,0,324,148,1,sevenfive,,,,,,,,,,,,,,,,,,,,,,,,,,,,,,,,,,,,,,,,,,,,,,,,,,,,,,,,,,,,,,,,,,,,,,,,,,,,,,,,,,,,,
605824a5c79c7e261e281cc5,2023-11-24_24h44.53.841,kallum_motion_pilot,2023.1.2,Win32,59.93766483,605824a5c79c7e261e281cc5,656018846682f3df8008bb8f,65601baca33617af94bb08aa,2,1,325,15,1,fourthree,,,,,,,,,,,,,,,,,,,,,,,,,,,,,,,,,,,,,,,,,,,,,,,,,,,,,,,,,,,,,,,,,,,,,,,,,,,,,,,,,,,,,
605824a5c79c7e261e281cc5,2023-11-24_24h44.53.841,kallum_motion_pilot,2023.1.2,Win32,59.93766483,605824a5c79c7e261e281cc5,656018846682f3df8008bb8f,65601baca33617af94bb08aa,2,2,326,146,1,sixfive,,,,,,,,,,,,,,,,,,,,,,,,,,,,,,,,,,,,,,,,,,,,,,,,,,,,,,,,,,,,,,,,,,,,,,,,,,,,,,,,,,,,,
605824a5c79c7e261e281cc5,2023-11-24_24h44.53.841,kallum_motion_pilot,2023.1.2,Win32,59.93766483,605824a5c79c7e261e281cc5,656018846682f3df8008bb8f,65601baca33617af94bb08aa,2,3,327,143,1,eightseven,,,,,,,,,,,,,,,,,,,,,,,,,,,,,,,,,,,,,,,,,,,,,,,,,,,,,,,,,,,,,,,,,,,,,,,,,,,,,,,,,,,,,
605824a5c79c7e261e281cc5,2023-11-24_24h44.53.841,kallum_motion_pilot,2023.1.2,Win32,59.93766483,605824a5c79c7e261e281cc5,656018846682f3df8008bb8f,65601baca33617af94bb08aa,2,4,328,9,1,onethree,,,,,,,,,,,,,,,,,,,,,,,,,,,,,,,,,,,,,,,,,,,,,,,,,,,,,,,,,,,,,,,,,,,,,,,,,,,,,,,,,,,,,
605824a5c79c7e261e281cc5,2023-11-24_24h44.53.841,kallum_motion_pilot,2023.1.2,Win32,59.93766483,605824a5c79c7e261e281cc5,656018846682f3df8008bb8f,65601baca33617af94bb08aa,2,5,329,24,1,onetwo,,,,,,,,,,,,,,,,,,,,,,,,,,,,,,,,,,,,,,,,,,,,,,,,,,,,,,,,,,,,,,,,,,,,,,,,,,,,,,,,,,,,,
605824a5c79c7e261e281cc5,2023-11-24_24h44.53.841,kallum_motion_pilot,2023.1.2,Win32,59.93766483,605824a5c79c7e261e281cc5,656018846682f3df8008bb8f,65601baca33617af94bb08aa,2,6,330,93,1,seveneight,,,,,,,,,,,,,,,,,,,,,,,,,,,,,,,,,,,,,,,,,,,,,,,,,,,,,,,,,,,,,,,,,,,,,,,,,,,,,,,,,,,,,
605824a5c79c7e261e281cc5,2023-11-24_24h44.53.841,kallum_motion_pilot,2023.1.2,Win32,59.93766483,605824a5c79c7e261e281cc5,656018846682f3df8008bb8f,65601baca33617af94bb08aa,2,7,331,0,1,onetwo,,,,,,,,,,,,,,,,,,,,,,,,,,,,,,,,,,,,,,,,,,,,,,,,,,,,,,,,,,,,,,,,,,,,,,,,,,,,,,,,,,,,,
605824a5c79c7e261e281cc5,2023-11-24_24h44.53.841,kallum_motion_pilot,2023.1.2,Win32,59.93766483,605824a5c79c7e261e281cc5,656018846682f3df8008bb8f,65601baca33617af94bb08aa,2,8,332,156,1,sevenfive,,,,,,,,,,,,,,,,,,,,,,,,,,,,,,,,,,,,,,,,,,,,,,,,,,,,,,,,,,,,,,,,,,,,,,,,,,,,,,,,,,,,,
605824a5c79c7e261e281cc5,2023-11-24_24h44.53.841,kallum_motion_pilot,2023.1.2,Win32,59.93766483,605824a5c79c7e261e281cc5,656018846682f3df8008bb8f,65601baca33617af94bb08aa,2,9,333,42,1,twoone,,,,,,,,,,,,,,,,,,,,,,,,,,,,,,,,,,,,,,,,,,,,,,,,,,,,,,,,,,,,,,,,,,,,,,,,,,,,,,,,,,,,,
605824a5c79c7e261e281cc5,2023-11-24_24h44.53.841,kallum_motion_pilot,2023.1.2,Win32,59.93766483,605824a5c79c7e261e281cc5,656018846682f3df8008bb8f,65601baca33617af94bb08aa,2,10,334,48,1,onetwo,,,,,,,,,,,,,,,,,,,,,,,,,,,,,,,,,,,,,,,,,,,,,,,,,,,,,,,,,,,,,,,,,,,,,,,,,,,,,,,,,,,,,
605824a5c79c7e261e281cc5,2023-11-24_24h44.53.841,kallum_motion_pilot,2023.1.2,Win32,59.93766483,605824a5c79c7e261e281cc5,656018846682f3df8008bb8f,65601baca33617af94bb08aa,2,11,335,107,1,sixeight,,,,,,,,,,,,,,,,,,,,,,,,,,,,,,,,,,,,,,,,,,,,,,,,,,,,,,,,,,,,,,,,,,,,,,,,,,,,,,,,,,,,,
605824a5c79c7e261e281cc5,2023-11-24_24h44.53.841,kallum_motion_pilot,2023.1.2,Win32,59.93766483,605824a5c79c7e261e281cc5,656018846682f3df8008bb8f,65601baca33617af94bb08aa,2,12,336,114,1,sixfive,,,,,,,,,,,,,,,,,,,,,,,,,,,,,,,,,,,,,,,,,,,,,,,,,,,,,,,,,,,,,,,,,,,,,,,,,,,,,,,,,,,,,
605824a5c79c7e261e281cc5,2023-11-24_24h44.53.841,kallum_motion_pilot,2023.1.2,Win32,59.93766483,605824a5c79c7e261e281cc5,656018846682f3df8008bb8f,65601baca33617af94bb08aa,2,13,337,75,1,twofour,,,,,,,,,,,,,,,,,,,,,,,,,,,,,,,,,,,,,,,,,,,,,,,,,,,,,,,,,,,,,,,,,,,,,,,,,,,,,,,,,,,,,
605824a5c79c7e261e281cc5,2023-11-24_24h44.53.841,kallum_motion_pilot,2023.1.2,Win32,59.93766483,605824a5c79c7e261e281cc5,656018846682f3df8008bb8f,65601baca33617af94bb08aa,2,14,338,106,1,sixfive,,,,,,,,,,,,,,,,,,,,,,,,,,,,,,,,,,,,,,,,,,,,,,,,,,,,,,,,,,,,,,,,,,,,,,,,,,,,,,,,,,,,,
605824a5c79c7e261e281cc5,2023-11-24_24h44.53.841,kallum_motion_pilot,2023.1.2,Win32,59.93766483,605824a5c79c7e261e281cc5,656018846682f3df8008bb8f,65601baca33617af94bb08aa,2,15,339,158,1,eightsix,,,,,,,,,,,,,,,,,,,,,,,,,,,,,,,,,,,,,,,,,,,,,,,,,,,,,,,,,,,,,,,,,,,,,,,,,,,,,,,,,,,,,
605824a5c79c7e261e281cc5,2023-11-24_24h44.53.841,kallum_motion_pilot,2023.1.2,Win32,59.93766483,605824a5c79c7e261e281cc5,656018846682f3df8008bb8f,65601baca33617af94bb08aa,2,16,340,141,1,seveneight,,,,,,,,,,,,,,,,,,,,,,,,,,,,,,,,,,,,,,,,,,,,,,,,,,,,,,,,,,,,,,,,,,,,,,,,,,,,,,,,,,,,,
605824a5c79c7e261e281cc5,2023-11-24_24h44.53.841,kallum_motion_pilot,2023.1.2,Win32,59.93766483,605824a5c79c7e261e281cc5,656018846682f3df8008bb8f,65601baca33617af94bb08aa,2,17,341,136,1,fivesix,,,,,,,,,,,,,,,,,,,,,,,,,,,,,,,,,,,,,,,,,,,,,,,,,,,,,,,,,,,,,,,,,,,,,,,,,,,,,,,,,,,,,
605824a5c79c7e261e281cc5,2023-11-24_24h44.53.841,kallum_motion_pilot,2023.1.2,Win32,59.93766483,605824a5c79c7e261e281cc5,656018846682f3df8008bb8f,65601baca33617af94bb08aa,2,18,342,73,1,onethree,,,,,,,,,,,,,,,,,,,,,,,,,,,,,,,,,,,,,,,,,,,,,,,,,,,,,,,,,,,,,,,,,,,,,,,,,,,,,,,,,,,,,
605824a5c79c7e261e281cc5,2023-11-24_24h44.53.841,kallum_motion_pilot,2023.1.2,Win32,59.93766483,605824a5c79c7e261e281cc5,656018846682f3df8008bb8f,65601baca33617af94bb08aa,2,19,343,117,1,seveneight,,,,,,,,,,,,,,,,,,,,,,,,,,,,,,,,,,,,,,,,,,,,,,,,,,,,,,,,,,,,,,,,,,,,,,,,,,,,,,,,,,,,,
605824a5c79c7e261e281cc5,2023-11-24_24h44.53.841,kallum_motion_pilot,2023.1.2,Win32,59.93766483,605824a5c79c7e261e281cc5,656018846682f3df8008bb8f,65601baca33617af94bb08aa,2,20,344,38,1,fourtwo,,,,,,,,,,,,,,,,,,,,,,,,,,,,,,,,,,,,,,,,,,,,,,,,,,,,,,,,,,,,,,,,,,,,,,,,,,,,,,,,,,,,,
605824a5c79c7e261e281cc5,2023-11-24_24h44.53.841,kallum_motion_pilot,2023.1.2,Win32,59.93766483,605824a5c79c7e261e281cc5,656018846682f3df8008bb8f,65601baca33617af94bb08aa,2,21,345,12,1,threeone,,,,,,,,,,,,,,,,,,,,,,,,,,,,,,,,,,,,,,,,,,,,,,,,,,,,,,,,,,,,,,,,,,,,,,,,,,,,,,,,,,,,,
605824a5c79c7e261e281cc5,2023-11-24_24h44.53.841,kallum_motion_pilot,2023.1.2,Win32,59.93766483,605824a5c79c7e261e281cc5,656018846682f3df8008bb8f,65601baca33617af94bb08aa,2,22,346,105,1,fiveseven,,,,,,,,,,,,,,,,,,,,,,,,,,,,,,,,,,,,,,,,,,,,,,,,,,,,,,,,,,,,,,,,,,,,,,,,,,,,,,,,,,,,,
605824a5c79c7e261e281cc5,2023-11-24_24h44.53.841,kallum_motion_pilot,2023.1.2,Win32,59.93766483,605824a5c79c7e261e281cc5,656018846682f3df8008bb8f,65601baca33617af94bb08aa,2,23,347,10,1,twoone,,,,,,,,,,,,,,,,,,,,,,,,,,,,,,,,,,,,,,,,,,,,,,,,,,,,,,,,,,,,,,,,,,,,,,,,,,,,,,,,,,,,,
605824a5c79c7e261e281cc5,2023-11-24_24h44.53.841,kallum_motion_pilot,2023.1.2,Win32,59.93766483,605824a5c79c7e261e281cc5,656018846682f3df8008bb8f,65601baca33617af94bb08aa,2,24,348,123,1,sixeight,,,,,,,,,,,,,,,,,,,,,,,,,,,,,,,,,,,,,,,,,,,,,,,,,,,,,,,,,,,,,,,,,,,,,,,,,,,,,,,,,,,,,
605824a5c79c7e261e281cc5,2023-11-24_24h44.53.841,kallum_motion_pilot,2023.1.2,Win32,59.93766483,605824a5c79c7e261e281cc5,656018846682f3df8008bb8f,65601baca33617af94bb08aa,2,25,349,16,1,onetwo,,,,,,,,,,,,,,,,,,,,,,,,,,,,,,,,,,,,,,,,,,,,,,,,,,,,,,,,,,,,,,,,,,,,,,,,,,,,,,,,,,,,,
