Prolific_ID*,date,expName,psychopyVersion,OS,frameRate,PROLIFIC_PID,STUDY_ID,SESSION_ID,hardcoded_stimulus_positions.thisRepN,hardcoded_stimulus_positions.thisTrialN,hardcoded_stimulus_positions.thisN,hardcoded_stimulus_positions.thisIndex,hardcoded_stimulus_positions.ran,StimulusPos,prac_stimorientation_import_loop.thisRepN,prac_stimorientation_import_loop.thisTrialN,prac_stimorientation_import_loop.thisN,prac_stimorientation_import_loop.thisIndex,prac_stimorientation_import_loop.ran,Stimorientation,key_resp.keys,key_resp.rt,key_resp_20.keys,key_resp_20.rt,key_resp_19.keys,key_resp_19.rt,key_resp_15.keys,key_resp_15.rt,key_resp_9.keys,key_resp_9.rt,key_resp_10.keys,key_resp_10.rt,Ecc,Circle1_ori,Circle2_ori,similarity,response_time,mouse_5.x,mouse_5.y,mouse_5.leftButton,mouse_5.midButton,mouse_5.rightButton,mouse_5.clicked_name,mouse_6.x,mouse_6.y,mouse_6.leftButton,mouse_6.midButton,mouse_6.rightButton,mouse_6.clicked_name,duringprac.thisRepN,duringprac.thisTrialN,duringprac.thisN,duringprac.thisIndex,duringprac.ran,key_resp_22.keys,key_resp_22.rt,circle1_ori,circle2_ori,mouse.x,mouse.y,mouse.leftButton,mouse.midButton,mouse.rightButton,mouse.clicked_name,mouse_2.x,mouse_2.y,mouse_2.leftButton,mouse_2.midButton,mouse_2.rightButton,mouse_2.clicked_name,mouse_3.x,mouse_3.y,mouse_3.leftButton,mouse_3.midButton,mouse_3.rightButton,catchresponse,catchnumber,response_time_catch,Catch,mouse_11.x,mouse_11.y,mouse_11.leftButton,mouse_11.midButton,mouse_11.rightButton,main_trial.thisRepN,main_trial.thisTrialN,main_trial.thisN,main_trial.thisIndex,main_trial.ran,Orientationtrialno,xcircle1_ori,xcircle2_ori,double_pass.thisRepN,double_pass.thisTrialN,double_pass.thisN,double_pass.thisIndex,double_pass.ran,key_resp_3.keys,key_resp_3.rt
64d657844666f2cadd27d420,2023-11-24_03h35.13.247,kallum_motion_pilot,2023.1.2,Win32,60.0060006,64d657844666f2cadd27d420,656018846682f3df8008bb8f,656019d193b4b7b965a4edf0,,,,,,,,,,,,,,,,,,,,,,,,,,,,,,,,,,,,,,,,,,,,,,,,,,,,,,,,,,,,,,,,,,,,,,,,,,,,,,,,,,,,,,,,,,,
64d657844666f2cadd27d420,2023-11-24_03h35.13.247,kallum_motion_pilot,2023.1.2,Win32,60.0060006,64d657844666f2cadd27d420,656018846682f3df8008bb8f,656019d193b4b7b965a4edf0,0,0,0,88,1,fivesix,,,,,,,,,,,,,,,,,,,,,,,,,,,,,,,,,,,,,,,,,,,,,,,,,,,,,,,,,,,,,,,,,,,,,,,,,,,,,,,,,,,,,
64d657844666f2cadd27d420,2023-11-24_03h35.13.247,kallum_motion_pilot,2023.1.2,Win32,60.0060006,64d657844666f2cadd27d420,656018846682f3df8008bb8f,656019d193b4b7b965a4edf0,0,1,1,137,1,fiveseven,,,,,,,,,,,,,,,,,,,,,,,,,,,,,,,,,,,,,,,,,,,,,,,,,,,,,,,,,,,,,,,,,,,,,,,,,,,,,,,,,,,,,
64d657844666f2cadd27d420,2023-11-24_03h35.13.247,kallum_motion_pilot,2023.1.2,Win32,60.0060006,64d657844666f2cadd27d420,656018846682f3df8008bb8f,656019d193b4b7b965a4edf0,0,2,2,83,1,sixeight,,,,,,,,,,,,,,,,,,,,,,,,,,,,,,,,,,,,,,,,,,,,,,,,,,,,,,,,,,,,,,,,,,,,,,,,,,,,,,,,,,,,,
64d657844666f2cadd27d420,2023-11-24_03h35.13.247,kallum_motion_pilot,2023.1.2,Win32,60.0060006,64d657844666f2cadd27d420,656018846682f3df8008bb8f,656019d193b4b7b965a4edf0,0,3,3,155,1,sixeight,,,,,,,,,,,,,,,,,,,,,,,,,,,,,,,,,,,,,,,,,,,,,,,,,,,,,,,,,,,,,,,,,,,,,,,,,,,,,,,,,,,,,
64d657844666f2cadd27d420,2023-11-24_03h35.13.247,kallum_motion_pilot,2023.1.2,Win32,60.0060006,64d657844666f2cadd27d420,656018846682f3df8008bb8f,656019d193b4b7b965a4edf0,0,4,4,113,1,fiveseven,,,,,,,,,,,,,,,,,,,,,,,,,,,,,,,,,,,,,,,,,,,,,,,,,,,,,,,,,,,,,,,,,,,,,,,,,,,,,,,,,,,,,
64d657844666f2cadd27d420,2023-11-24_03h35.13.247,kallum_motion_pilot,2023.1.2,Win32,60.0060006,64d657844666f2cadd27d420,656018846682f3df8008bb8f,656019d193b4b7b965a4edf0,0,5,5,100,1,sevenfive,,,,,,,,,,,,,,,,,,,,,,,,,,,,,,,,,,,,,,,,,,,,,,,,,,,,,,,,,,,,,,,,,,,,,,,,,,,,,,,,,,,,,
64d657844666f2cadd27d420,2023-11-24_03h35.13.247,kallum_motion_pilot,2023.1.2,Win32,60.0060006,64d657844666f2cadd27d420,656018846682f3df8008bb8f,656019d193b4b7b965a4edf0,0,6,6,123,1,sixeight,,,,,,,,,,,,,,,,,,,,,,,,,,,,,,,,,,,,,,,,,,,,,,,,,,,,,,,,,,,,,,,,,,,,,,,,,,,,,,,,,,,,,
64d657844666f2cadd27d420,2023-11-24_03h35.13.247,kallum_motion_pilot,2023.1.2,Win32,60.0060006,64d657844666f2cadd27d420,656018846682f3df8008bb8f,656019d193b4b7b965a4edf0,0,7,7,136,1,fivesix,,,,,,,,,,,,,,,,,,,,,,,,,,,,,,,,,,,,,,,,,,,,,,,,,,,,,,,,,,,,,,,,,,,,,,,,,,,,,,,,,,,,,
64d657844666f2cadd27d420,2023-11-24_03h35.13.247,kallum_motion_pilot,2023.1.2,Win32,60.0060006,64d657844666f2cadd27d420,656018846682f3df8008bb8f,656019d193b4b7b965a4edf0,0,8,8,72,1,onetwo,,,,,,,,,,,,,,,,,,,,,,,,,,,,,,,,,,,,,,,,,,,,,,,,,,,,,,,,,,,,,,,,,,,,,,,,,,,,,,,,,,,,,
64d657844666f2cadd27d420,2023-11-24_03h35.13.247,kallum_motion_pilot,2023.1.2,Win32,60.0060006,64d657844666f2cadd27d420,656018846682f3df8008bb8f,656019d193b4b7b965a4edf0,0,9,9,52,1,threeone,,,,,,,,,,,,,,,,,,,,,,,,,,,,,,,,,,,,,,,,,,,,,,,,,,,,,,,,,,,,,,,,,,,,,,,,,,,,,,,,,,,,,
64d657844666f2cadd27d420,2023-11-24_03h35.13.247,kallum_motion_pilot,2023.1.2,Win32,60.0060006,64d657844666f2cadd27d420,656018846682f3df8008bb8f,656019d193b4b7b965a4edf0,0,10,10,45,1,threefour,,,,,,,,,,,,,,,,,,,,,,,,,,,,,,,,,,,,,,,,,,,,,,,,,,,,,,,,,,,,,,,,,,,,,,,,,,,,,,,,,,,,,
64d657844666f2cadd27d420,2023-11-24_03h35.13.247,kallum_motion_pilot,2023.1.2,Win32,60.0060006,64d657844666f2cadd27d420,656018846682f3df8008bb8f,656019d193b4b7b965a4edf0,0,11,11,26,1,twoone,,,,,,,,,,,,,,,,,,,,,,,,,,,,,,,,,,,,,,,,,,,,,,,,,,,,,,,,,,,,,,,,,,,,,,,,,,,,,,,,,,,,,
64d657844666f2cadd27d420,2023-11-24_03h35.13.247,kallum_motion_pilot,2023.1.2,Win32,60.0060006,64d657844666f2cadd27d420,656018846682f3df8008bb8f,656019d193b4b7b965a4edf0,0,12,12,104,1,fivesix,,,,,,,,,,,,,,,,,,,,,,,,,,,,,,,,,,,,,,,,,,,,,,,,,,,,,,,,,,,,,,,,,,,,,,,,,,,,,,,,,,,,,
64d657844666f2cadd27d420,2023-11-24_03h35.13.247,kallum_motion_pilot,2023.1.2,Win32,60.0060006,64d657844666f2cadd27d420,656018846682f3df8008bb8f,656019d193b4b7b965a4edf0,0,13,13,68,1,threeone,,,,,,,,,,,,,,,,,,,,,,,,,,,,,,,,,,,,,,,,,,,,,,,,,,,,,,,,,,,,,,,,,,,,,,,,,,,,,,,,,,,,,
64d657844666f2cadd27d420,2023-11-24_03h35.13.247,kallum_motion_pilot,2023.1.2,Win32,60.0060006,64d657844666f2cadd27d420,656018846682f3df8008bb8f,656019d193b4b7b965a4edf0,0,14,14,82,1,sixfive,,,,,,,,,,,,,,,,,,,,,,,,,,,,,,,,,,,,,,,,,,,,,,,,,,,,,,,,,,,,,,,,,,,,,,,,,,,,,,,,,,,,,
64d657844666f2cadd27d420,2023-11-24_03h35.13.247,kallum_motion_pilot,2023.1.2,Win32,60.0060006,64d657844666f2cadd27d420,656018846682f3df8008bb8f,656019d193b4b7b965a4edf0,0,15,15,47,1,fourthree,,,,,,,,,,,,,,,,,,,,,,,,,,,,,,,,,,,,,,,,,,,,,,,,,,,,,,,,,,,,,,,,,,,,,,,,,,,,,,,,,,,,,
64d657844666f2cadd27d420,2023-11-24_03h35.13.247,kallum_motion_pilot,2023.1.2,Win32,60.0060006,64d657844666f2cadd27d420,656018846682f3df8008bb8f,656019d193b4b7b965a4edf0,0,16,16,10,1,twoone,,,,,,,,,,,,,,,,,,,,,,,,,,,,,,,,,,,,,,,,,,,,,,,,,,,,,,,,,,,,,,,,,,,,,,,,,,,,,,,,,,,,,
64d657844666f2cadd27d420,2023-11-24_03h35.13.247,kallum_motion_pilot,2023.1.2,Win32,60.0060006,64d657844666f2cadd27d420,656018846682f3df8008bb8f,656019d193b4b7b965a4edf0,0,17,17,109,1,seveneight,,,,,,,,,,,,,,,,,,,,,,,,,,,,,,,,,,,,,,,,,,,,,,,,,,,,,,,,,,,,,,,,,,,,,,,,,,,,,,,,,,,,,
64d657844666f2cadd27d420,2023-11-24_03h35.13.247,kallum_motion_pilot,2023.1.2,Win32,60.0060006,64d657844666f2cadd27d420,656018846682f3df8008bb8f,656019d193b4b7b965a4edf0,0,18,18,55,1,fourthree,,,,,,,,,,,,,,,,,,,,,,,,,,,,,,,,,,,,,,,,,,,,,,,,,,,,,,,,,,,,,,,,,,,,,,,,,,,,,,,,,,,,,
64d657844666f2cadd27d420,2023-11-24_03h35.13.247,kallum_motion_pilot,2023.1.2,Win32,60.0060006,64d657844666f2cadd27d420,656018846682f3df8008bb8f,656019d193b4b7b965a4edf0,0,19,19,18,1,twoone,,,,,,,,,,,,,,,,,,,,,,,,,,,,,,,,,,,,,,,,,,,,,,,,,,,,,,,,,,,,,,,,,,,,,,,,,,,,,,,,,,,,,
64d657844666f2cadd27d420,2023-11-24_03h35.13.247,kallum_motion_pilot,2023.1.2,Win32,60.0060006,64d657844666f2cadd27d420,656018846682f3df8008bb8f,656019d193b4b7b965a4edf0,0,20,20,160,1,fivesix,,,,,,,,,,,,,,,,,,,,,,,,,,,,,,,,,,,,,,,,,,,,,,,,,,,,,,,,,,,,,,,,,,,,,,,,,,,,,,,,,,,,,
64d657844666f2cadd27d420,2023-11-24_03h35.13.247,kallum_motion_pilot,2023.1.2,Win32,60.0060006,64d657844666f2cadd27d420,656018846682f3df8008bb8f,656019d193b4b7b965a4edf0,0,21,21,32,1,onetwo,,,,,,,,,,,,,,,,,,,,,,,,,,,,,,,,,,,,,,,,,,,,,,,,,,,,,,,,,,,,,,,,,,,,,,,,,,,,,,,,,,,,,
64d657844666f2cadd27d420,2023-11-24_03h35.13.247,kallum_motion_pilot,2023.1.2,Win32,60.0060006,64d657844666f2cadd27d420,656018846682f3df8008bb8f,656019d193b4b7b965a4edf0,0,22,22,78,1,fourtwo,,,,,,,,,,,,,,,,,,,,,,,,,,,,,,,,,,,,,,,,,,,,,,,,,,,,,,,,,,,,,,,,,,,,,,,,,,,,,,,,,,,,,
64d657844666f2cadd27d420,2023-11-24_03h35.13.247,kallum_motion_pilot,2023.1.2,Win32,60.0060006,64d657844666f2cadd27d420,656018846682f3df8008bb8f,656019d193b4b7b965a4edf0,0,23,23,59,1,twofour,,,,,,,,,,,,,,,,,,,,,,,,,,,,,,,,,,,,,,,,,,,,,,,,,,,,,,,,,,,,,,,,,,,,,,,,,,,,,,,,,,,,,
64d657844666f2cadd27d420,2023-11-24_03h35.13.247,kallum_motion_pilot,2023.1.2,Win32,60.0060006,64d657844666f2cadd27d420,656018846682f3df8008bb8f,656019d193b4b7b965a4edf0,0,24,24,96,1,fivesix,,,,,,,,,,,,,,,,,,,,,,,,,,,,,,,,,,,,,,,,,,,,,,,,,,,,,,,,,,,,,,,,,,,,,,,,,,,,,,,,,,,,,
64d657844666f2cadd27d420,2023-11-24_03h35.13.247,kallum_motion_pilot,2023.1.2,Win32,60.0060006,64d657844666f2cadd27d420,656018846682f3df8008bb8f,656019d193b4b7b965a4edf0,0,25,25,129,1,fiveseven,,,,,,,,,,,,,,,,,,,,,,,,,,,,,,,,,,,,,,,,,,,,,,,,,,,,,,,,,,,,,,,,,,,,,,,,,,,,,,,,,,,,,
64d657844666f2cadd27d420,2023-11-24_03h35.13.247,kallum_motion_pilot,2023.1.2,Win32,60.0060006,64d657844666f2cadd27d420,656018846682f3df8008bb8f,656019d193b4b7b965a4edf0,0,26,26,94,1,eightsix,,,,,,,,,,,,,,,,,,,,,,,,,,,,,,,,,,,,,,,,,,,,,,,,,,,,,,,,,,,,,,,,,,,,,,,,,,,,,,,,,,,,,
64d657844666f2cadd27d420,2023-11-24_03h35.13.247,kallum_motion_pilot,2023.1.2,Win32,60.0060006,64d657844666f2cadd27d420,656018846682f3df8008bb8f,656019d193b4b7b965a4edf0,0,27,27,95,1,eightseven,,,,,,,,,,,,,,,,,,,,,,,,,,,,,,,,,,,,,,,,,,,,,,,,,,,,,,,,,,,,,,,,,,,,,,,,,,,,,,,,,,,,,
64d657844666f2cadd27d420,2023-11-24_03h35.13.247,kallum_motion_pilot,2023.1.2,Win32,60.0060006,64d657844666f2cadd27d420,656018846682f3df8008bb8f,656019d193b4b7b965a4edf0,0,28,28,61,1,threefour,,,,,,,,,,,,,,,,,,,,,,,,,,,,,,,,,,,,,,,,,,,,,,,,,,,,,,,,,,,,,,,,,,,,,,,,,,,,,,,,,,,,,
64d657844666f2cadd27d420,2023-11-24_03h35.13.247,kallum_motion_pilot,2023.1.2,Win32,60.0060006,64d657844666f2cadd27d420,656018846682f3df8008bb8f,656019d193b4b7b965a4edf0,0,29,29,27,1,twofour,,,,,,,,,,,,,,,,,,,,,,,,,,,,,,,,,,,,,,,,,,,,,,,,,,,,,,,,,,,,,,,,,,,,,,,,,,,,,,,,,,,,,
64d657844666f2cadd27d420,2023-11-24_03h35.13.247,kallum_motion_pilot,2023.1.2,Win32,60.0060006,64d657844666f2cadd27d420,656018846682f3df8008bb8f,656019d193b4b7b965a4edf0,0,30,30,9,1,onethree,,,,,,,,,,,,,,,,,,,,,,,,,,,,,,,,,,,,,,,,,,,,,,,,,,,,,,,,,,,,,,,,,,,,,,,,,,,,,,,,,,,,,
64d657844666f2cadd27d420,2023-11-24_03h35.13.247,kallum_motion_pilot,2023.1.2,Win32,60.0060006,64d657844666f2cadd27d420,656018846682f3df8008bb8f,656019d193b4b7b965a4edf0,0,31,31,63,1,fourthree,,,,,,,,,,,,,,,,,,,,,,,,,,,,,,,,,,,,,,,,,,,,,,,,,,,,,,,,,,,,,,,,,,,,,,,,,,,,,,,,,,,,,
64d657844666f2cadd27d420,2023-11-24_03h35.13.247,kallum_motion_pilot,2023.1.2,Win32,60.0060006,64d657844666f2cadd27d420,656018846682f3df8008bb8f,656019d193b4b7b965a4edf0,0,32,32,122,1,sixfive,,,,,,,,,,,,,,,,,,,,,,,,,,,,,,,,,,,,,,,,,,,,,,,,,,,,,,,,,,,,,,,,,,,,,,,,,,,,,,,,,,,,,
64d657844666f2cadd27d420,2023-11-24_03h35.13.247,kallum_motion_pilot,2023.1.2,Win32,60.0060006,64d657844666f2cadd27d420,656018846682f3df8008bb8f,656019d193b4b7b965a4edf0,0,33,33,117,1,seveneight,,,,,,,,,,,,,,,,,,,,,,,,,,,,,,,,,,,,,,,,,,,,,,,,,,,,,,,,,,,,,,,,,,,,,,,,,,,,,,,,,,,,,
64d657844666f2cadd27d420,2023-11-24_03h35.13.247,kallum_motion_pilot,2023.1.2,Win32,60.0060006,64d657844666f2cadd27d420,656018846682f3df8008bb8f,656019d193b4b7b965a4edf0,0,34,34,134,1,eightsix,,,,,,,,,,,,,,,,,,,,,,,,,,,,,,,,,,,,,,,,,,,,,,,,,,,,,,,,,,,,,,,,,,,,,,,,,,,,,,,,,,,,,
64d657844666f2cadd27d420,2023-11-24_03h35.13.247,kallum_motion_pilot,2023.1.2,Win32,60.0060006,64d657844666f2cadd27d420,656018846682f3df8008bb8f,656019d193b4b7b965a4edf0,0,35,35,140,1,sevenfive,,,,,,,,,,,,,,,,,,,,,,,,,,,,,,,,,,,,,,,,,,,,,,,,,,,,,,,,,,,,,,,,,,,,,,,,,,,,,,,,,,,,,
64d657844666f2cadd27d420,2023-11-24_03h35.13.247,kallum_motion_pilot,2023.1.2,Win32,60.0060006,64d657844666f2cadd27d420,656018846682f3df8008bb8f,656019d193b4b7b965a4edf0,0,36,36,158,1,eightsix,,,,,,,,,,,,,,,,,,,,,,,,,,,,,,,,,,,,,,,,,,,,,,,,,,,,,,,,,,,,,,,,,,,,,,,,,,,,,,,,,,,,,
64d657844666f2cadd27d420,2023-11-24_03h35.13.247,kallum_motion_pilot,2023.1.2,Win32,60.0060006,64d657844666f2cadd27d420,656018846682f3df8008bb8f,656019d193b4b7b965a4edf0,0,37,37,85,1,seveneight,,,,,,,,,,,,,,,,,,,,,,,,,,,,,,,,,,,,,,,,,,,,,,,,,,,,,,,,,,,,,,,,,,,,,,,,,,,,,,,,,,,,,
64d657844666f2cadd27d420,2023-11-24_03h35.13.247,kallum_motion_pilot,2023.1.2,Win32,60.0060006,64d657844666f2cadd27d420,656018846682f3df8008bb8f,656019d193b4b7b965a4edf0,0,38,38,119,1,eightseven,,,,,,,,,,,,,,,,,,,,,,,,,,,,,,,,,,,,,,,,,,,,,,,,,,,,,,,,,,,,,,,,,,,,,,,,,,,,,,,,,,,,,
64d657844666f2cadd27d420,2023-11-24_03h35.13.247,kallum_motion_pilot,2023.1.2,Win32,60.0060006,64d657844666f2cadd27d420,656018846682f3df8008bb8f,656019d193b4b7b965a4edf0,0,39,39,146,1,sixfive,,,,,,,,,,,,,,,,,,,,,,,,,,,,,,,,,,,,,,,,,,,,,,,,,,,,,,,,,,,,,,,,,,,,,,,,,,,,,,,,,,,,,
64d657844666f2cadd27d420,2023-11-24_03h35.13.247,kallum_motion_pilot,2023.1.2,Win32,60.0060006,64d657844666f2cadd27d420,656018846682f3df8008bb8f,656019d193b4b7b965a4edf0,0,40,40,149,1,seveneight,,,,,,,,,,,,,,,,,,,,,,,,,,,,,,,,,,,,,,,,,,,,,,,,,,,,,,,,,,,,,,,,,,,,,,,,,,,,,,,,,,,,,
64d657844666f2cadd27d420,2023-11-24_03h35.13.247,kallum_motion_pilot,2023.1.2,Win32,60.0060006,64d657844666f2cadd27d420,656018846682f3df8008bb8f,656019d193b4b7b965a4edf0,0,41,41,145,1,fiveseven,,,,,,,,,,,,,,,,,,,,,,,,,,,,,,,,,,,,,,,,,,,,,,,,,,,,,,,,,,,,,,,,,,,,,,,,,,,,,,,,,,,,,
64d657844666f2cadd27d420,2023-11-24_03h35.13.247,kallum_motion_pilot,2023.1.2,Win32,60.0060006,64d657844666f2cadd27d420,656018846682f3df8008bb8f,656019d193b4b7b965a4edf0,0,42,42,29,1,threefour,,,,,,,,,,,,,,,,,,,,,,,,,,,,,,,,,,,,,,,,,,,,,,,,,,,,,,,,,,,,,,,,,,,,,,,,,,,,,,,,,,,,,
64d657844666f2cadd27d420,2023-11-24_03h35.13.247,kallum_motion_pilot,2023.1.2,Win32,60.0060006,64d657844666f2cadd27d420,656018846682f3df8008bb8f,656019d193b4b7b965a4edf0,0,43,43,80,1,fivesix,,,,,,,,,,,,,,,,,,,,,,,,,,,,,,,,,,,,,,,,,,,,,,,,,,,,,,,,,,,,,,,,,,,,,,,,,,,,,,,,,,,,,
64d657844666f2cadd27d420,2023-11-24_03h35.13.247,kallum_motion_pilot,2023.1.2,Win32,60.0060006,64d657844666f2cadd27d420,656018846682f3df8008bb8f,656019d193b4b7b965a4edf0,0,44,44,50,1,twoone,,,,,,,,,,,,,,,,,,,,,,,,,,,,,,,,,,,,,,,,,,,,,,,,,,,,,,,,,,,,,,,,,,,,,,,,,,,,,,,,,,,,,
64d657844666f2cadd27d420,2023-11-24_03h35.13.247,kallum_motion_pilot,2023.1.2,Win32,60.0060006,64d657844666f2cadd27d420,656018846682f3df8008bb8f,656019d193b4b7b965a4edf0,0,45,45,54,1,fourtwo,,,,,,,,,,,,,,,,,,,,,,,,,,,,,,,,,,,,,,,,,,,,,,,,,,,,,,,,,,,,,,,,,,,,,,,,,,,,,,,,,,,,,
64d657844666f2cadd27d420,2023-11-24_03h35.13.247,kallum_motion_pilot,2023.1.2,Win32,60.0060006,64d657844666f2cadd27d420,656018846682f3df8008bb8f,656019d193b4b7b965a4edf0,0,46,46,3,1,twofour,,,,,,,,,,,,,,,,,,,,,,,,,,,,,,,,,,,,,,,,,,,,,,,,,,,,,,,,,,,,,,,,,,,,,,,,,,,,,,,,,,,,,
64d657844666f2cadd27d420,2023-11-24_03h35.13.247,kallum_motion_pilot,2023.1.2,Win32,60.0060006,64d657844666f2cadd27d420,656018846682f3df8008bb8f,656019d193b4b7b965a4edf0,0,47,47,43,1,twofour,,,,,,,,,,,,,,,,,,,,,,,,,,,,,,,,,,,,,,,,,,,,,,,,,,,,,,,,,,,,,,,,,,,,,,,,,,,,,,,,,,,,,
64d657844666f2cadd27d420,2023-11-24_03h35.13.247,kallum_motion_pilot,2023.1.2,Win32,60.0060006,64d657844666f2cadd27d420,656018846682f3df8008bb8f,656019d193b4b7b965a4edf0,0,48,48,125,1,seveneight,,,,,,,,,,,,,,,,,,,,,,,,,,,,,,,,,,,,,,,,,,,,,,,,,,,,,,,,,,,,,,,,,,,,,,,,,,,,,,,,,,,,,
64d657844666f2cadd27d420,2023-11-24_03h35.13.247,kallum_motion_pilot,2023.1.2,Win32,60.0060006,64d657844666f2cadd27d420,656018846682f3df8008bb8f,656019d193b4b7b965a4edf0,0,49,49,93,1,seveneight,,,,,,,,,,,,,,,,,,,,,,,,,,,,,,,,,,,,,,,,,,,,,,,,,,,,,,,,,,,,,,,,,,,,,,,,,,,,,,,,,,,,,
64d657844666f2cadd27d420,2023-11-24_03h35.13.247,kallum_motion_pilot,2023.1.2,Win32,60.0060006,64d657844666f2cadd27d420,656018846682f3df8008bb8f,656019d193b4b7b965a4edf0,0,50,50,76,1,threeone,,,,,,,,,,,,,,,,,,,,,,,,,,,,,,,,,,,,,,,,,,,,,,,,,,,,,,,,,,,,,,,,,,,,,,,,,,,,,,,,,,,,,
64d657844666f2cadd27d420,2023-11-24_03h35.13.247,kallum_motion_pilot,2023.1.2,Win32,60.0060006,64d657844666f2cadd27d420,656018846682f3df8008bb8f,656019d193b4b7b965a4edf0,0,51,51,77,1,threefour,,,,,,,,,,,,,,,,,,,,,,,,,,,,,,,,,,,,,,,,,,,,,,,,,,,,,,,,,,,,,,,,,,,,,,,,,,,,,,,,,,,,,
64d657844666f2cadd27d420,2023-11-24_03h35.13.247,kallum_motion_pilot,2023.1.2,Win32,60.0060006,64d657844666f2cadd27d420,656018846682f3df8008bb8f,656019d193b4b7b965a4edf0,0,52,52,33,1,onethree,,,,,,,,,,,,,,,,,,,,,,,,,,,,,,,,,,,,,,,,,,,,,,,,,,,,,,,,,,,,,,,,,,,,,,,,,,,,,,,,,,,,,
64d657844666f2cadd27d420,2023-11-24_03h35.13.247,kallum_motion_pilot,2023.1.2,Win32,60.0060006,64d657844666f2cadd27d420,656018846682f3df8008bb8f,656019d193b4b7b965a4edf0,0,53,53,2,1,twoone,,,,,,,,,,,,,,,,,,,,,,,,,,,,,,,,,,,,,,,,,,,,,,,,,,,,,,,,,,,,,,,,,,,,,,,,,,,,,,,,,,,,,
64d657844666f2cadd27d420,2023-11-24_03h35.13.247,kallum_motion_pilot,2023.1.2,Win32,60.0060006,64d657844666f2cadd27d420,656018846682f3df8008bb8f,656019d193b4b7b965a4edf0,0,54,54,30,1,fourtwo,,,,,,,,,,,,,,,,,,,,,,,,,,,,,,,,,,,,,,,,,,,,,,,,,,,,,,,,,,,,,,,,,,,,,,,,,,,,,,,,,,,,,
64d657844666f2cadd27d420,2023-11-24_03h35.13.247,kallum_motion_pilot,2023.1.2,Win32,60.0060006,64d657844666f2cadd27d420,656018846682f3df8008bb8f,656019d193b4b7b965a4edf0,0,55,55,42,1,twoone,,,,,,,,,,,,,,,,,,,,,,,,,,,,,,,,,,,,,,,,,,,,,,,,,,,,,,,,,,,,,,,,,,,,,,,,,,,,,,,,,,,,,
64d657844666f2cadd27d420,2023-11-24_03h35.13.247,kallum_motion_pilot,2023.1.2,Win32,60.0060006,64d657844666f2cadd27d420,656018846682f3df8008bb8f,656019d193b4b7b965a4edf0,0,56,56,114,1,sixfive,,,,,,,,,,,,,,,,,,,,,,,,,,,,,,,,,,,,,,,,,,,,,,,,,,,,,,,,,,,,,,,,,,,,,,,,,,,,,,,,,,,,,
64d657844666f2cadd27d420,2023-11-24_03h35.13.247,kallum_motion_pilot,2023.1.2,Win32,60.0060006,64d657844666f2cadd27d420,656018846682f3df8008bb8f,656019d193b4b7b965a4edf0,0,57,57,139,1,sixeight,,,,,,,,,,,,,,,,,,,,,,,,,,,,,,,,,,,,,,,,,,,,,,,,,,,,,,,,,,,,,,,,,,,,,,,,,,,,,,,,,,,,,
64d657844666f2cadd27d420,2023-11-24_03h35.13.247,kallum_motion_pilot,2023.1.2,Win32,60.0060006,64d657844666f2cadd27d420,656018846682f3df8008bb8f,656019d193b4b7b965a4edf0,0,58,58,23,1,fourthree,,,,,,,,,,,,,,,,,,,,,,,,,,,,,,,,,,,,,,,,,,,,,,,,,,,,,,,,,,,,,,,,,,,,,,,,,,,,,,,,,,,,,
64d657844666f2cadd27d420,2023-11-24_03h35.13.247,kallum_motion_pilot,2023.1.2,Win32,60.0060006,64d657844666f2cadd27d420,656018846682f3df8008bb8f,656019d193b4b7b965a4edf0,0,59,59,16,1,onetwo,,,,,,,,,,,,,,,,,,,,,,,,,,,,,,,,,,,,,,,,,,,,,,,,,,,,,,,,,,,,,,,,,,,,,,,,,,,,,,,,,,,,,
64d657844666f2cadd27d420,2023-11-24_03h35.13.247,kallum_motion_pilot,2023.1.2,Win32,60.0060006,64d657844666f2cadd27d420,656018846682f3df8008bb8f,656019d193b4b7b965a4edf0,0,60,60,157,1,seveneight,,,,,,,,,,,,,,,,,,,,,,,,,,,,,,,,,,,,,,,,,,,,,,,,,,,,,,,,,,,,,,,,,,,,,,,,,,,,,,,,,,,,,
64d657844666f2cadd27d420,2023-11-24_03h35.13.247,kallum_motion_pilot,2023.1.2,Win32,60.0060006,64d657844666f2cadd27d420,656018846682f3df8008bb8f,656019d193b4b7b965a4edf0,0,61,61,1,1,onethree,,,,,,,,,,,,,,,,,,,,,,,,,,,,,,,,,,,,,,,,,,,,,,,,,,,,,,,,,,,,,,,,,,,,,,,,,,,,,,,,,,,,,
64d657844666f2cadd27d420,2023-11-24_03h35.13.247,kallum_motion_pilot,2023.1.2,Win32,60.0060006,64d657844666f2cadd27d420,656018846682f3df8008bb8f,656019d193b4b7b965a4edf0,0,62,62,71,1,fourthree,,,,,,,,,,,,,,,,,,,,,,,,,,,,,,,,,,,,,,,,,,,,,,,,,,,,,,,,,,,,,,,,,,,,,,,,,,,,,,,,,,,,,
64d657844666f2cadd27d420,2023-11-24_03h35.13.247,kallum_motion_pilot,2023.1.2,Win32,60.0060006,64d657844666f2cadd27d420,656018846682f3df8008bb8f,656019d193b4b7b965a4edf0,0,63,63,8,1,onetwo,,,,,,,,,,,,,,,,,,,,,,,,,,,,,,,,,,,,,,,,,,,,,,,,,,,,,,,,,,,,,,,,,,,,,,,,,,,,,,,,,,,,,
64d657844666f2cadd27d420,2023-11-24_03h35.13.247,kallum_motion_pilot,2023.1.2,Win32,60.0060006,64d657844666f2cadd27d420,656018846682f3df8008bb8f,656019d193b4b7b965a4edf0,0,64,64,57,1,onethree,,,,,,,,,,,,,,,,,,,,,,,,,,,,,,,,,,,,,,,,,,,,,,,,,,,,,,,,,,,,,,,,,,,,,,,,,,,,,,,,,,,,,
64d657844666f2cadd27d420,2023-11-24_03h35.13.247,kallum_motion_pilot,2023.1.2,Win32,60.0060006,64d657844666f2cadd27d420,656018846682f3df8008bb8f,656019d193b4b7b965a4edf0,0,65,65,124,1,sevenfive,,,,,,,,,,,,,,,,,,,,,,,,,,,,,,,,,,,,,,,,,,,,,,,,,,,,,,,,,,,,,,,,,,,,,,,,,,,,,,,,,,,,,
64d657844666f2cadd27d420,2023-11-24_03h35.13.247,kallum_motion_pilot,2023.1.2,Win32,60.0060006,64d657844666f2cadd27d420,656018846682f3df8008bb8f,656019d193b4b7b965a4edf0,0,66,66,31,1,fourthree,,,,,,,,,,,,,,,,,,,,,,,,,,,,,,,,,,,,,,,,,,,,,,,,,,,,,,,,,,,,,,,,,,,,,,,,,,,,,,,,,,,,,
64d657844666f2cadd27d420,2023-11-24_03h35.13.247,kallum_motion_pilot,2023.1.2,Win32,60.0060006,64d657844666f2cadd27d420,656018846682f3df8008bb8f,656019d193b4b7b965a4edf0,0,67,67,35,1,twofour,,,,,,,,,,,,,,,,,,,,,,,,,,,,,,,,,,,,,,,,,,,,,,,,,,,,,,,,,,,,,,,,,,,,,,,,,,,,,,,,,,,,,
64d657844666f2cadd27d420,2023-11-24_03h35.13.247,kallum_motion_pilot,2023.1.2,Win32,60.0060006,64d657844666f2cadd27d420,656018846682f3df8008bb8f,656019d193b4b7b965a4edf0,0,68,68,159,1,eightseven,,,,,,,,,,,,,,,,,,,,,,,,,,,,,,,,,,,,,,,,,,,,,,,,,,,,,,,,,,,,,,,,,,,,,,,,,,,,,,,,,,,,,
64d657844666f2cadd27d420,2023-11-24_03h35.13.247,kallum_motion_pilot,2023.1.2,Win32,60.0060006,64d657844666f2cadd27d420,656018846682f3df8008bb8f,656019d193b4b7b965a4edf0,0,69,69,81,1,fiveseven,,,,,,,,,,,,,,,,,,,,,,,,,,,,,,,,,,,,,,,,,,,,,,,,,,,,,,,,,,,,,,,,,,,,,,,,,,,,,,,,,,,,,
64d657844666f2cadd27d420,2023-11-24_03h35.13.247,kallum_motion_pilot,2023.1.2,Win32,60.0060006,64d657844666f2cadd27d420,656018846682f3df8008bb8f,656019d193b4b7b965a4edf0,0,70,70,147,1,sixeight,,,,,,,,,,,,,,,,,,,,,,,,,,,,,,,,,,,,,,,,,,,,,,,,,,,,,,,,,,,,,,,,,,,,,,,,,,,,,,,,,,,,,
64d657844666f2cadd27d420,2023-11-24_03h35.13.247,kallum_motion_pilot,2023.1.2,Win32,60.0060006,64d657844666f2cadd27d420,656018846682f3df8008bb8f,656019d193b4b7b965a4edf0,0,71,71,6,1,fourtwo,,,,,,,,,,,,,,,,,,,,,,,,,,,,,,,,,,,,,,,,,,,,,,,,,,,,,,,,,,,,,,,,,,,,,,,,,,,,,,,,,,,,,
64d657844666f2cadd27d420,2023-11-24_03h35.13.247,kallum_motion_pilot,2023.1.2,Win32,60.0060006,64d657844666f2cadd27d420,656018846682f3df8008bb8f,656019d193b4b7b965a4edf0,0,72,72,131,1,sixeight,,,,,,,,,,,,,,,,,,,,,,,,,,,,,,,,,,,,,,,,,,,,,,,,,,,,,,,,,,,,,,,,,,,,,,,,,,,,,,,,,,,,,
64d657844666f2cadd27d420,2023-11-24_03h35.13.247,kallum_motion_pilot,2023.1.2,Win32,60.0060006,64d657844666f2cadd27d420,656018846682f3df8008bb8f,656019d193b4b7b965a4edf0,0,73,73,62,1,fourtwo,,,,,,,,,,,,,,,,,,,,,,,,,,,,,,,,,,,,,,,,,,,,,,,,,,,,,,,,,,,,,,,,,,,,,,,,,,,,,,,,,,,,,
64d657844666f2cadd27d420,2023-11-24_03h35.13.247,kallum_motion_pilot,2023.1.2,Win32,60.0060006,64d657844666f2cadd27d420,656018846682f3df8008bb8f,656019d193b4b7b965a4edf0,0,74,74,133,1,seveneight,,,,,,,,,,,,,,,,,,,,,,,,,,,,,,,,,,,,,,,,,,,,,,,,,,,,,,,,,,,,,,,,,,,,,,,,,,,,,,,,,,,,,
64d657844666f2cadd27d420,2023-11-24_03h35.13.247,kallum_motion_pilot,2023.1.2,Win32,60.0060006,64d657844666f2cadd27d420,656018846682f3df8008bb8f,656019d193b4b7b965a4edf0,0,75,75,46,1,fourtwo,,,,,,,,,,,,,,,,,,,,,,,,,,,,,,,,,,,,,,,,,,,,,,,,,,,,,,,,,,,,,,,,,,,,,,,,,,,,,,,,,,,,,
64d657844666f2cadd27d420,2023-11-24_03h35.13.247,kallum_motion_pilot,2023.1.2,Win32,60.0060006,64d657844666f2cadd27d420,656018846682f3df8008bb8f,656019d193b4b7b965a4edf0,0,76,76,12,1,threeone,,,,,,,,,,,,,,,,,,,,,,,,,,,,,,,,,,,,,,,,,,,,,,,,,,,,,,,,,,,,,,,,,,,,,,,,,,,,,,,,,,,,,
64d657844666f2cadd27d420,2023-11-24_03h35.13.247,kallum_motion_pilot,2023.1.2,Win32,60.0060006,64d657844666f2cadd27d420,656018846682f3df8008bb8f,656019d193b4b7b965a4edf0,0,77,77,70,1,fourtwo,,,,,,,,,,,,,,,,,,,,,,,,,,,,,,,,,,,,,,,,,,,,,,,,,,,,,,,,,,,,,,,,,,,,,,,,,,,,,,,,,,,,,
64d657844666f2cadd27d420,2023-11-24_03h35.13.247,kallum_motion_pilot,2023.1.2,Win32,60.0060006,64d657844666f2cadd27d420,656018846682f3df8008bb8f,656019d193b4b7b965a4edf0,0,78,78,92,1,sevenfive,,,,,,,,,,,,,,,,,,,,,,,,,,,,,,,,,,,,,,,,,,,,,,,,,,,,,,,,,,,,,,,,,,,,,,,,,,,,,,,,,,,,,
64d657844666f2cadd27d420,2023-11-24_03h35.13.247,kallum_motion_pilot,2023.1.2,Win32,60.0060006,64d657844666f2cadd27d420,656018846682f3df8008bb8f,656019d193b4b7b965a4edf0,0,79,79,118,1,eightsix,,,,,,,,,,,,,,,,,,,,,,,,,,,,,,,,,,,,,,,,,,,,,,,,,,,,,,,,,,,,,,,,,,,,,,,,,,,,,,,,,,,,,
64d657844666f2cadd27d420,2023-11-24_03h35.13.247,kallum_motion_pilot,2023.1.2,Win32,60.0060006,64d657844666f2cadd27d420,656018846682f3df8008bb8f,656019d193b4b7b965a4edf0,0,80,80,20,1,threeone,,,,,,,,,,,,,,,,,,,,,,,,,,,,,,,,,,,,,,,,,,,,,,,,,,,,,,,,,,,,,,,,,,,,,,,,,,,,,,,,,,,,,
64d657844666f2cadd27d420,2023-11-24_03h35.13.247,kallum_motion_pilot,2023.1.2,Win32,60.0060006,64d657844666f2cadd27d420,656018846682f3df8008bb8f,656019d193b4b7b965a4edf0,0,81,81,101,1,seveneight,,,,,,,,,,,,,,,,,,,,,,,,,,,,,,,,,,,,,,,,,,,,,,,,,,,,,,,,,,,,,,,,,,,,,,,,,,,,,,,,,,,,,
64d657844666f2cadd27d420,2023-11-24_03h35.13.247,kallum_motion_pilot,2023.1.2,Win32,60.0060006,64d657844666f2cadd27d420,656018846682f3df8008bb8f,656019d193b4b7b965a4edf0,0,82,82,116,1,sevenfive,,,,,,,,,,,,,,,,,,,,,,,,,,,,,,,,,,,,,,,,,,,,,,,,,,,,,,,,,,,,,,,,,,,,,,,,,,,,,,,,,,,,,
64d657844666f2cadd27d420,2023-11-24_03h35.13.247,kallum_motion_pilot,2023.1.2,Win32,60.0060006,64d657844666f2cadd27d420,656018846682f3df8008bb8f,656019d193b4b7b965a4edf0,0,83,83,73,1,onethree,,,,,,,,,,,,,,,,,,,,,,,,,,,,,,,,,,,,,,,,,,,,,,,,,,,,,,,,,,,,,,,,,,,,,,,,,,,,,,,,,,,,,
64d657844666f2cadd27d420,2023-11-24_03h35.13.247,kallum_motion_pilot,2023.1.2,Win32,60.0060006,64d657844666f2cadd27d420,656018846682f3df8008bb8f,656019d193b4b7b965a4edf0,0,84,84,144,1,fivesix,,,,,,,,,,,,,,,,,,,,,,,,,,,,,,,,,,,,,,,,,,,,,,,,,,,,,,,,,,,,,,,,,,,,,,,,,,,,,,,,,,,,,
64d657844666f2cadd27d420,2023-11-24_03h35.13.247,kallum_motion_pilot,2023.1.2,Win32,60.0060006,64d657844666f2cadd27d420,656018846682f3df8008bb8f,656019d193b4b7b965a4edf0,0,85,85,64,1,onetwo,,,,,,,,,,,,,,,,,,,,,,,,,,,,,,,,,,,,,,,,,,,,,,,,,,,,,,,,,,,,,,,,,,,,,,,,,,,,,,,,,,,,,
64d657844666f2cadd27d420,2023-11-24_03h35.13.247,kallum_motion_pilot,2023.1.2,Win32,60.0060006,64d657844666f2cadd27d420,656018846682f3df8008bb8f,656019d193b4b7b965a4edf0,0,86,86,141,1,seveneight,,,,,,,,,,,,,,,,,,,,,,,,,,,,,,,,,,,,,,,,,,,,,,,,,,,,,,,,,,,,,,,,,,,,,,,,,,,,,,,,,,,,,
64d657844666f2cadd27d420,2023-11-24_03h35.13.247,kallum_motion_pilot,2023.1.2,Win32,60.0060006,64d657844666f2cadd27d420,656018846682f3df8008bb8f,656019d193b4b7b965a4edf0,0,87,87,13,1,threefour,,,,,,,,,,,,,,,,,,,,,,,,,,,,,,,,,,,,,,,,,,,,,,,,,,,,,,,,,,,,,,,,,,,,,,,,,,,,,,,,,,,,,
64d657844666f2cadd27d420,2023-11-24_03h35.13.247,kallum_motion_pilot,2023.1.2,Win32,60.0060006,64d657844666f2cadd27d420,656018846682f3df8008bb8f,656019d193b4b7b965a4edf0,0,88,88,107,1,sixeight,,,,,,,,,,,,,,,,,,,,,,,,,,,,,,,,,,,,,,,,,,,,,,,,,,,,,,,,,,,,,,,,,,,,,,,,,,,,,,,,,,,,,
64d657844666f2cadd27d420,2023-11-24_03h35.13.247,kallum_motion_pilot,2023.1.2,Win32,60.0060006,64d657844666f2cadd27d420,656018846682f3df8008bb8f,656019d193b4b7b965a4edf0,0,89,89,99,1,sixeight,,,,,,,,,,,,,,,,,,,,,,,,,,,,,,,,,,,,,,,,,,,,,,,,,,,,,,,,,,,,,,,,,,,,,,,,,,,,,,,,,,,,,
64d657844666f2cadd27d420,2023-11-24_03h35.13.247,kallum_motion_pilot,2023.1.2,Win32,60.0060006,64d657844666f2cadd27d420,656018846682f3df8008bb8f,656019d193b4b7b965a4edf0,0,90,90,22,1,fourtwo,,,,,,,,,,,,,,,,,,,,,,,,,,,,,,,,,,,,,,,,,,,,,,,,,,,,,,,,,,,,,,,,,,,,,,,,,,,,,,,,,,,,,
64d657844666f2cadd27d420,2023-11-24_03h35.13.247,kallum_motion_pilot,2023.1.2,Win32,60.0060006,64d657844666f2cadd27d420,656018846682f3df8008bb8f,656019d193b4b7b965a4edf0,0,91,91,19,1,twofour,,,,,,,,,,,,,,,,,,,,,,,,,,,,,,,,,,,,,,,,,,,,,,,,,,,,,,,,,,,,,,,,,,,,,,,,,,,,,,,,,,,,,
64d657844666f2cadd27d420,2023-11-24_03h35.13.247,kallum_motion_pilot,2023.1.2,Win32,60.0060006,64d657844666f2cadd27d420,656018846682f3df8008bb8f,656019d193b4b7b965a4edf0,0,92,92,66,1,twoone,,,,,,,,,,,,,,,,,,,,,,,,,,,,,,,,,,,,,,,,,,,,,,,,,,,,,,,,,,,,,,,,,,,,,,,,,,,,,,,,,,,,,
64d657844666f2cadd27d420,2023-11-24_03h35.13.247,kallum_motion_pilot,2023.1.2,Win32,60.0060006,64d657844666f2cadd27d420,656018846682f3df8008bb8f,656019d193b4b7b965a4edf0,0,93,93,44,1,threeone,,,,,,,,,,,,,,,,,,,,,,,,,,,,,,,,,,,,,,,,,,,,,,,,,,,,,,,,,,,,,,,,,,,,,,,,,,,,,,,,,,,,,
64d657844666f2cadd27d420,2023-11-24_03h35.13.247,kallum_motion_pilot,2023.1.2,Win32,60.0060006,64d657844666f2cadd27d420,656018846682f3df8008bb8f,656019d193b4b7b965a4edf0,0,94,94,112,1,fivesix,,,,,,,,,,,,,,,,,,,,,,,,,,,,,,,,,,,,,,,,,,,,,,,,,,,,,,,,,,,,,,,,,,,,,,,,,,,,,,,,,,,,,
64d657844666f2cadd27d420,2023-11-24_03h35.13.247,kallum_motion_pilot,2023.1.2,Win32,60.0060006,64d657844666f2cadd27d420,656018846682f3df8008bb8f,656019d193b4b7b965a4edf0,0,95,95,48,1,onetwo,,,,,,,,,,,,,,,,,,,,,,,,,,,,,,,,,,,,,,,,,,,,,,,,,,,,,,,,,,,,,,,,,,,,,,,,,,,,,,,,,,,,,
64d657844666f2cadd27d420,2023-11-24_03h35.13.247,kallum_motion_pilot,2023.1.2,Win32,60.0060006,64d657844666f2cadd27d420,656018846682f3df8008bb8f,656019d193b4b7b965a4edf0,0,96,96,17,1,onethree,,,,,,,,,,,,,,,,,,,,,,,,,,,,,,,,,,,,,,,,,,,,,,,,,,,,,,,,,,,,,,,,,,,,,,,,,,,,,,,,,,,,,
64d657844666f2cadd27d420,2023-11-24_03h35.13.247,kallum_motion_pilot,2023.1.2,Win32,60.0060006,64d657844666f2cadd27d420,656018846682f3df8008bb8f,656019d193b4b7b965a4edf0,0,97,97,7,1,fourthree,,,,,,,,,,,,,,,,,,,,,,,,,,,,,,,,,,,,,,,,,,,,,,,,,,,,,,,,,,,,,,,,,,,,,,,,,,,,,,,,,,,,,
64d657844666f2cadd27d420,2023-11-24_03h35.13.247,kallum_motion_pilot,2023.1.2,Win32,60.0060006,64d657844666f2cadd27d420,656018846682f3df8008bb8f,656019d193b4b7b965a4edf0,0,98,98,58,1,twoone,,,,,,,,,,,,,,,,,,,,,,,,,,,,,,,,,,,,,,,,,,,,,,,,,,,,,,,,,,,,,,,,,,,,,,,,,,,,,,,,,,,,,
64d657844666f2cadd27d420,2023-11-24_03h35.13.247,kallum_motion_pilot,2023.1.2,Win32,60.0060006,64d657844666f2cadd27d420,656018846682f3df8008bb8f,656019d193b4b7b965a4edf0,0,99,99,161,1,fiveseven,,,,,,,,,,,,,,,,,,,,,,,,,,,,,,,,,,,,,,,,,,,,,,,,,,,,,,,,,,,,,,,,,,,,,,,,,,,,,,,,,,,,,
64d657844666f2cadd27d420,2023-11-24_03h35.13.247,kallum_motion_pilot,2023.1.2,Win32,60.0060006,64d657844666f2cadd27d420,656018846682f3df8008bb8f,656019d193b4b7b965a4edf0,0,100,100,138,1,sixfive,,,,,,,,,,,,,,,,,,,,,,,,,,,,,,,,,,,,,,,,,,,,,,,,,,,,,,,,,,,,,,,,,,,,,,,,,,,,,,,,,,,,,
64d657844666f2cadd27d420,2023-11-24_03h35.13.247,kallum_motion_pilot,2023.1.2,Win32,60.0060006,64d657844666f2cadd27d420,656018846682f3df8008bb8f,656019d193b4b7b965a4edf0,0,101,101,135,1,eightseven,,,,,,,,,,,,,,,,,,,,,,,,,,,,,,,,,,,,,,,,,,,,,,,,,,,,,,,,,,,,,,,,,,,,,,,,,,,,,,,,,,,,,
64d657844666f2cadd27d420,2023-11-24_03h35.13.247,kallum_motion_pilot,2023.1.2,Win32,60.0060006,64d657844666f2cadd27d420,656018846682f3df8008bb8f,656019d193b4b7b965a4edf0,0,102,102,74,1,twoone,,,,,,,,,,,,,,,,,,,,,,,,,,,,,,,,,,,,,,,,,,,,,,,,,,,,,,,,,,,,,,,,,,,,,,,,,,,,,,,,,,,,,
64d657844666f2cadd27d420,2023-11-24_03h35.13.247,kallum_motion_pilot,2023.1.2,Win32,60.0060006,64d657844666f2cadd27d420,656018846682f3df8008bb8f,656019d193b4b7b965a4edf0,0,103,103,115,1,sixeight,,,,,,,,,,,,,,,,,,,,,,,,,,,,,,,,,,,,,,,,,,,,,,,,,,,,,,,,,,,,,,,,,,,,,,,,,,,,,,,,,,,,,
64d657844666f2cadd27d420,2023-11-24_03h35.13.247,kallum_motion_pilot,2023.1.2,Win32,60.0060006,64d657844666f2cadd27d420,656018846682f3df8008bb8f,656019d193b4b7b965a4edf0,0,104,104,152,1,fivesix,,,,,,,,,,,,,,,,,,,,,,,,,,,,,,,,,,,,,,,,,,,,,,,,,,,,,,,,,,,,,,,,,,,,,,,,,,,,,,,,,,,,,
64d657844666f2cadd27d420,2023-11-24_03h35.13.247,kallum_motion_pilot,2023.1.2,Win32,60.0060006,64d657844666f2cadd27d420,656018846682f3df8008bb8f,656019d193b4b7b965a4edf0,0,105,105,25,1,onethree,,,,,,,,,,,,,,,,,,,,,,,,,,,,,,,,,,,,,,,,,,,,,,,,,,,,,,,,,,,,,,,,,,,,,,,,,,,,,,,,,,,,,
64d657844666f2cadd27d420,2023-11-24_03h35.13.247,kallum_motion_pilot,2023.1.2,Win32,60.0060006,64d657844666f2cadd27d420,656018846682f3df8008bb8f,656019d193b4b7b965a4edf0,0,106,106,39,1,fourthree,,,,,,,,,,,,,,,,,,,,,,,,,,,,,,,,,,,,,,,,,,,,,,,,,,,,,,,,,,,,,,,,,,,,,,,,,,,,,,,,,,,,,
64d657844666f2cadd27d420,2023-11-24_03h35.13.247,kallum_motion_pilot,2023.1.2,Win32,60.0060006,64d657844666f2cadd27d420,656018846682f3df8008bb8f,656019d193b4b7b965a4edf0,0,107,107,156,1,sevenfive,,,,,,,,,,,,,,,,,,,,,,,,,,,,,,,,,,,,,,,,,,,,,,,,,,,,,,,,,,,,,,,,,,,,,,,,,,,,,,,,,,,,,
64d657844666f2cadd27d420,2023-11-24_03h35.13.247,kallum_motion_pilot,2023.1.2,Win32,60.0060006,64d657844666f2cadd27d420,656018846682f3df8008bb8f,656019d193b4b7b965a4edf0,0,108,108,51,1,twofour,,,,,,,,,,,,,,,,,,,,,,,,,,,,,,,,,,,,,,,,,,,,,,,,,,,,,,,,,,,,,,,,,,,,,,,,,,,,,,,,,,,,,
64d657844666f2cadd27d420,2023-11-24_03h35.13.247,kallum_motion_pilot,2023.1.2,Win32,60.0060006,64d657844666f2cadd27d420,656018846682f3df8008bb8f,656019d193b4b7b965a4edf0,0,109,109,111,1,eightseven,,,,,,,,,,,,,,,,,,,,,,,,,,,,,,,,,,,,,,,,,,,,,,,,,,,,,,,,,,,,,,,,,,,,,,,,,,,,,,,,,,,,,
64d657844666f2cadd27d420,2023-11-24_03h35.13.247,kallum_motion_pilot,2023.1.2,Win32,60.0060006,64d657844666f2cadd27d420,656018846682f3df8008bb8f,656019d193b4b7b965a4edf0,0,110,110,28,1,threeone,,,,,,,,,,,,,,,,,,,,,,,,,,,,,,,,,,,,,,,,,,,,,,,,,,,,,,,,,,,,,,,,,,,,,,,,,,,,,,,,,,,,,
64d657844666f2cadd27d420,2023-11-24_03h35.13.247,kallum_motion_pilot,2023.1.2,Win32,60.0060006,64d657844666f2cadd27d420,656018846682f3df8008bb8f,656019d193b4b7b965a4edf0,0,111,111,37,1,threefour,,,,,,,,,,,,,,,,,,,,,,,,,,,,,,,,,,,,,,,,,,,,,,,,,,,,,,,,,,,,,,,,,,,,,,,,,,,,,,,,,,,,,
64d657844666f2cadd27d420,2023-11-24_03h35.13.247,kallum_motion_pilot,2023.1.2,Win32,60.0060006,64d657844666f2cadd27d420,656018846682f3df8008bb8f,656019d193b4b7b965a4edf0,0,112,112,67,1,twofour,,,,,,,,,,,,,,,,,,,,,,,,,,,,,,,,,,,,,,,,,,,,,,,,,,,,,,,,,,,,,,,,,,,,,,,,,,,,,,,,,,,,,
64d657844666f2cadd27d420,2023-11-24_03h35.13.247,kallum_motion_pilot,2023.1.2,Win32,60.0060006,64d657844666f2cadd27d420,656018846682f3df8008bb8f,656019d193b4b7b965a4edf0,0,113,113,142,1,eightsix,,,,,,,,,,,,,,,,,,,,,,,,,,,,,,,,,,,,,,,,,,,,,,,,,,,,,,,,,,,,,,,,,,,,,,,,,,,,,,,,,,,,,
64d657844666f2cadd27d420,2023-11-24_03h35.13.247,kallum_motion_pilot,2023.1.2,Win32,60.0060006,64d657844666f2cadd27d420,656018846682f3df8008bb8f,656019d193b4b7b965a4edf0,0,114,114,14,1,fourtwo,,,,,,,,,,,,,,,,,,,,,,,,,,,,,,,,,,,,,,,,,,,,,,,,,,,,,,,,,,,,,,,,,,,,,,,,,,,,,,,,,,,,,
64d657844666f2cadd27d420,2023-11-24_03h35.13.247,kallum_motion_pilot,2023.1.2,Win32,60.0060006,64d657844666f2cadd27d420,656018846682f3df8008bb8f,656019d193b4b7b965a4edf0,0,115,115,38,1,fourtwo,,,,,,,,,,,,,,,,,,,,,,,,,,,,,,,,,,,,,,,,,,,,,,,,,,,,,,,,,,,,,,,,,,,,,,,,,,,,,,,,,,,,,
64d657844666f2cadd27d420,2023-11-24_03h35.13.247,kallum_motion_pilot,2023.1.2,Win32,60.0060006,64d657844666f2cadd27d420,656018846682f3df8008bb8f,656019d193b4b7b965a4edf0,0,116,116,97,1,fiveseven,,,,,,,,,,,,,,,,,,,,,,,,,,,,,,,,,,,,,,,,,,,,,,,,,,,,,,,,,,,,,,,,,,,,,,,,,,,,,,,,,,,,,
64d657844666f2cadd27d420,2023-11-24_03h35.13.247,kallum_motion_pilot,2023.1.2,Win32,60.0060006,64d657844666f2cadd27d420,656018846682f3df8008bb8f,656019d193b4b7b965a4edf0,0,117,117,34,1,twoone,,,,,,,,,,,,,,,,,,,,,,,,,,,,,,,,,,,,,,,,,,,,,,,,,,,,,,,,,,,,,,,,,,,,,,,,,,,,,,,,,,,,,
64d657844666f2cadd27d420,2023-11-24_03h35.13.247,kallum_motion_pilot,2023.1.2,Win32,60.0060006,64d657844666f2cadd27d420,656018846682f3df8008bb8f,656019d193b4b7b965a4edf0,0,118,118,130,1,sixfive,,,,,,,,,,,,,,,,,,,,,,,,,,,,,,,,,,,,,,,,,,,,,,,,,,,,,,,,,,,,,,,,,,,,,,,,,,,,,,,,,,,,,
64d657844666f2cadd27d420,2023-11-24_03h35.13.247,kallum_motion_pilot,2023.1.2,Win32,60.0060006,64d657844666f2cadd27d420,656018846682f3df8008bb8f,656019d193b4b7b965a4edf0,0,119,119,15,1,fourthree,,,,,,,,,,,,,,,,,,,,,,,,,,,,,,,,,,,,,,,,,,,,,,,,,,,,,,,,,,,,,,,,,,,,,,,,,,,,,,,,,,,,,
64d657844666f2cadd27d420,2023-11-24_03h35.13.247,kallum_motion_pilot,2023.1.2,Win32,60.0060006,64d657844666f2cadd27d420,656018846682f3df8008bb8f,656019d193b4b7b965a4edf0,0,120,120,5,1,threefour,,,,,,,,,,,,,,,,,,,,,,,,,,,,,,,,,,,,,,,,,,,,,,,,,,,,,,,,,,,,,,,,,,,,,,,,,,,,,,,,,,,,,
64d657844666f2cadd27d420,2023-11-24_03h35.13.247,kallum_motion_pilot,2023.1.2,Win32,60.0060006,64d657844666f2cadd27d420,656018846682f3df8008bb8f,656019d193b4b7b965a4edf0,0,121,121,151,1,eightseven,,,,,,,,,,,,,,,,,,,,,,,,,,,,,,,,,,,,,,,,,,,,,,,,,,,,,,,,,,,,,,,,,,,,,,,,,,,,,,,,,,,,,
64d657844666f2cadd27d420,2023-11-24_03h35.13.247,kallum_motion_pilot,2023.1.2,Win32,60.0060006,64d657844666f2cadd27d420,656018846682f3df8008bb8f,656019d193b4b7b965a4edf0,0,122,122,75,1,twofour,,,,,,,,,,,,,,,,,,,,,,,,,,,,,,,,,,,,,,,,,,,,,,,,,,,,,,,,,,,,,,,,,,,,,,,,,,,,,,,,,,,,,
64d657844666f2cadd27d420,2023-11-24_03h35.13.247,kallum_motion_pilot,2023.1.2,Win32,60.0060006,64d657844666f2cadd27d420,656018846682f3df8008bb8f,656019d193b4b7b965a4edf0,0,123,123,90,1,sixfive,,,,,,,,,,,,,,,,,,,,,,,,,,,,,,,,,,,,,,,,,,,,,,,,,,,,,,,,,,,,,,,,,,,,,,,,,,,,,,,,,,,,,
64d657844666f2cadd27d420,2023-11-24_03h35.13.247,kallum_motion_pilot,2023.1.2,Win32,60.0060006,64d657844666f2cadd27d420,656018846682f3df8008bb8f,656019d193b4b7b965a4edf0,0,124,124,87,1,eightseven,,,,,,,,,,,,,,,,,,,,,,,,,,,,,,,,,,,,,,,,,,,,,,,,,,,,,,,,,,,,,,,,,,,,,,,,,,,,,,,,,,,,,
64d657844666f2cadd27d420,2023-11-24_03h35.13.247,kallum_motion_pilot,2023.1.2,Win32,60.0060006,64d657844666f2cadd27d420,656018846682f3df8008bb8f,656019d193b4b7b965a4edf0,0,125,125,49,1,onethree,,,,,,,,,,,,,,,,,,,,,,,,,,,,,,,,,,,,,,,,,,,,,,,,,,,,,,,,,,,,,,,,,,,,,,,,,,,,,,,,,,,,,
64d657844666f2cadd27d420,2023-11-24_03h35.13.247,kallum_motion_pilot,2023.1.2,Win32,60.0060006,64d657844666f2cadd27d420,656018846682f3df8008bb8f,656019d193b4b7b965a4edf0,0,126,126,40,1,onetwo,,,,,,,,,,,,,,,,,,,,,,,,,,,,,,,,,,,,,,,,,,,,,,,,,,,,,,,,,,,,,,,,,,,,,,,,,,,,,,,,,,,,,
64d657844666f2cadd27d420,2023-11-24_03h35.13.247,kallum_motion_pilot,2023.1.2,Win32,60.0060006,64d657844666f2cadd27d420,656018846682f3df8008bb8f,656019d193b4b7b965a4edf0,0,127,127,126,1,eightsix,,,,,,,,,,,,,,,,,,,,,,,,,,,,,,,,,,,,,,,,,,,,,,,,,,,,,,,,,,,,,,,,,,,,,,,,,,,,,,,,,,,,,
64d657844666f2cadd27d420,2023-11-24_03h35.13.247,kallum_motion_pilot,2023.1.2,Win32,60.0060006,64d657844666f2cadd27d420,656018846682f3df8008bb8f,656019d193b4b7b965a4edf0,0,128,128,120,1,fivesix,,,,,,,,,,,,,,,,,,,,,,,,,,,,,,,,,,,,,,,,,,,,,,,,,,,,,,,,,,,,,,,,,,,,,,,,,,,,,,,,,,,,,
64d657844666f2cadd27d420,2023-11-24_03h35.13.247,kallum_motion_pilot,2023.1.2,Win32,60.0060006,64d657844666f2cadd27d420,656018846682f3df8008bb8f,656019d193b4b7b965a4edf0,0,129,129,36,1,threeone,,,,,,,,,,,,,,,,,,,,,,,,,,,,,,,,,,,,,,,,,,,,,,,,,,,,,,,,,,,,,,,,,,,,,,,,,,,,,,,,,,,,,
64d657844666f2cadd27d420,2023-11-24_03h35.13.247,kallum_motion_pilot,2023.1.2,Win32,60.0060006,64d657844666f2cadd27d420,656018846682f3df8008bb8f,656019d193b4b7b965a4edf0,0,130,130,56,1,onetwo,,,,,,,,,,,,,,,,,,,,,,,,,,,,,,,,,,,,,,,,,,,,,,,,,,,,,,,,,,,,,,,,,,,,,,,,,,,,,,,,,,,,,
64d657844666f2cadd27d420,2023-11-24_03h35.13.247,kallum_motion_pilot,2023.1.2,Win32,60.0060006,64d657844666f2cadd27d420,656018846682f3df8008bb8f,656019d193b4b7b965a4edf0,0,131,131,148,1,sevenfive,,,,,,,,,,,,,,,,,,,,,,,,,,,,,,,,,,,,,,,,,,,,,,,,,,,,,,,,,,,,,,,,,,,,,,,,,,,,,,,,,,,,,
64d657844666f2cadd27d420,2023-11-24_03h35.13.247,kallum_motion_pilot,2023.1.2,Win32,60.0060006,64d657844666f2cadd27d420,656018846682f3df8008bb8f,656019d193b4b7b965a4edf0,0,132,132,21,1,threefour,,,,,,,,,,,,,,,,,,,,,,,,,,,,,,,,,,,,,,,,,,,,,,,,,,,,,,,,,,,,,,,,,,,,,,,,,,,,,,,,,,,,,
64d657844666f2cadd27d420,2023-11-24_03h35.13.247,kallum_motion_pilot,2023.1.2,Win32,60.0060006,64d657844666f2cadd27d420,656018846682f3df8008bb8f,656019d193b4b7b965a4edf0,0,133,133,154,1,sixfive,,,,,,,,,,,,,,,,,,,,,,,,,,,,,,,,,,,,,,,,,,,,,,,,,,,,,,,,,,,,,,,,,,,,,,,,,,,,,,,,,,,,,
64d657844666f2cadd27d420,2023-11-24_03h35.13.247,kallum_motion_pilot,2023.1.2,Win32,60.0060006,64d657844666f2cadd27d420,656018846682f3df8008bb8f,656019d193b4b7b965a4edf0,0,134,134,41,1,onethree,,,,,,,,,,,,,,,,,,,,,,,,,,,,,,,,,,,,,,,,,,,,,,,,,,,,,,,,,,,,,,,,,,,,,,,,,,,,,,,,,,,,,
64d657844666f2cadd27d420,2023-11-24_03h35.13.247,kallum_motion_pilot,2023.1.2,Win32,60.0060006,64d657844666f2cadd27d420,656018846682f3df8008bb8f,656019d193b4b7b965a4edf0,0,135,135,69,1,threefour,,,,,,,,,,,,,,,,,,,,,,,,,,,,,,,,,,,,,,,,,,,,,,,,,,,,,,,,,,,,,,,,,,,,,,,,,,,,,,,,,,,,,
64d657844666f2cadd27d420,2023-11-24_03h35.13.247,kallum_motion_pilot,2023.1.2,Win32,60.0060006,64d657844666f2cadd27d420,656018846682f3df8008bb8f,656019d193b4b7b965a4edf0,0,136,136,98,1,sixfive,,,,,,,,,,,,,,,,,,,,,,,,,,,,,,,,,,,,,,,,,,,,,,,,,,,,,,,,,,,,,,,,,,,,,,,,,,,,,,,,,,,,,
64d657844666f2cadd27d420,2023-11-24_03h35.13.247,kallum_motion_pilot,2023.1.2,Win32,60.0060006,64d657844666f2cadd27d420,656018846682f3df8008bb8f,656019d193b4b7b965a4edf0,0,137,137,153,1,fiveseven,,,,,,,,,,,,,,,,,,,,,,,,,,,,,,,,,,,,,,,,,,,,,,,,,,,,,,,,,,,,,,,,,,,,,,,,,,,,,,,,,,,,,
64d657844666f2cadd27d420,2023-11-24_03h35.13.247,kallum_motion_pilot,2023.1.2,Win32,60.0060006,64d657844666f2cadd27d420,656018846682f3df8008bb8f,656019d193b4b7b965a4edf0,0,138,138,110,1,eightsix,,,,,,,,,,,,,,,,,,,,,,,,,,,,,,,,,,,,,,,,,,,,,,,,,,,,,,,,,,,,,,,,,,,,,,,,,,,,,,,,,,,,,
64d657844666f2cadd27d420,2023-11-24_03h35.13.247,kallum_motion_pilot,2023.1.2,Win32,60.0060006,64d657844666f2cadd27d420,656018846682f3df8008bb8f,656019d193b4b7b965a4edf0,0,139,139,60,1,threeone,,,,,,,,,,,,,,,,,,,,,,,,,,,,,,,,,,,,,,,,,,,,,,,,,,,,,,,,,,,,,,,,,,,,,,,,,,,,,,,,,,,,,
64d657844666f2cadd27d420,2023-11-24_03h35.13.247,kallum_motion_pilot,2023.1.2,Win32,60.0060006,64d657844666f2cadd27d420,656018846682f3df8008bb8f,656019d193b4b7b965a4edf0,0,140,140,128,1,fivesix,,,,,,,,,,,,,,,,,,,,,,,,,,,,,,,,,,,,,,,,,,,,,,,,,,,,,,,,,,,,,,,,,,,,,,,,,,,,,,,,,,,,,
64d657844666f2cadd27d420,2023-11-24_03h35.13.247,kallum_motion_pilot,2023.1.2,Win32,60.0060006,64d657844666f2cadd27d420,656018846682f3df8008bb8f,656019d193b4b7b965a4edf0,0,141,141,0,1,onetwo,,,,,,,,,,,,,,,,,,,,,,,,,,,,,,,,,,,,,,,,,,,,,,,,,,,,,,,,,,,,,,,,,,,,,,,,,,,,,,,,,,,,,
64d657844666f2cadd27d420,2023-11-24_03h35.13.247,kallum_motion_pilot,2023.1.2,Win32,60.0060006,64d657844666f2cadd27d420,656018846682f3df8008bb8f,656019d193b4b7b965a4edf0,0,142,142,150,1,eightsix,,,,,,,,,,,,,,,,,,,,,,,,,,,,,,,,,,,,,,,,,,,,,,,,,,,,,,,,,,,,,,,,,,,,,,,,,,,,,,,,,,,,,
64d657844666f2cadd27d420,2023-11-24_03h35.13.247,kallum_motion_pilot,2023.1.2,Win32,60.0060006,64d657844666f2cadd27d420,656018846682f3df8008bb8f,656019d193b4b7b965a4edf0,0,143,143,11,1,twofour,,,,,,,,,,,,,,,,,,,,,,,,,,,,,,,,,,,,,,,,,,,,,,,,,,,,,,,,,,,,,,,,,,,,,,,,,,,,,,,,,,,,,
64d657844666f2cadd27d420,2023-11-24_03h35.13.247,kallum_motion_pilot,2023.1.2,Win32,60.0060006,64d657844666f2cadd27d420,656018846682f3df8008bb8f,656019d193b4b7b965a4edf0,0,144,144,24,1,onetwo,,,,,,,,,,,,,,,,,,,,,,,,,,,,,,,,,,,,,,,,,,,,,,,,,,,,,,,,,,,,,,,,,,,,,,,,,,,,,,,,,,,,,
64d657844666f2cadd27d420,2023-11-24_03h35.13.247,kallum_motion_pilot,2023.1.2,Win32,60.0060006,64d657844666f2cadd27d420,656018846682f3df8008bb8f,656019d193b4b7b965a4edf0,0,145,145,132,1,sevenfive,,,,,,,,,,,,,,,,,,,,,,,,,,,,,,,,,,,,,,,,,,,,,,,,,,,,,,,,,,,,,,,,,,,,,,,,,,,,,,,,,,,,,
64d657844666f2cadd27d420,2023-11-24_03h35.13.247,kallum_motion_pilot,2023.1.2,Win32,60.0060006,64d657844666f2cadd27d420,656018846682f3df8008bb8f,656019d193b4b7b965a4edf0,0,146,146,89,1,fiveseven,,,,,,,,,,,,,,,,,,,,,,,,,,,,,,,,,,,,,,,,,,,,,,,,,,,,,,,,,,,,,,,,,,,,,,,,,,,,,,,,,,,,,
64d657844666f2cadd27d420,2023-11-24_03h35.13.247,kallum_motion_pilot,2023.1.2,Win32,60.0060006,64d657844666f2cadd27d420,656018846682f3df8008bb8f,656019d193b4b7b965a4edf0,0,147,147,106,1,sixfive,,,,,,,,,,,,,,,,,,,,,,,,,,,,,,,,,,,,,,,,,,,,,,,,,,,,,,,,,,,,,,,,,,,,,,,,,,,,,,,,,,,,,
64d657844666f2cadd27d420,2023-11-24_03h35.13.247,kallum_motion_pilot,2023.1.2,Win32,60.0060006,64d657844666f2cadd27d420,656018846682f3df8008bb8f,656019d193b4b7b965a4edf0,0,148,148,103,1,eightseven,,,,,,,,,,,,,,,,,,,,,,,,,,,,,,,,,,,,,,,,,,,,,,,,,,,,,,,,,,,,,,,,,,,,,,,,,,,,,,,,,,,,,
64d657844666f2cadd27d420,2023-11-24_03h35.13.247,kallum_motion_pilot,2023.1.2,Win32,60.0060006,64d657844666f2cadd27d420,656018846682f3df8008bb8f,656019d193b4b7b965a4edf0,0,149,149,127,1,eightseven,,,,,,,,,,,,,,,,,,,,,,,,,,,,,,,,,,,,,,,,,,,,,,,,,,,,,,,,,,,,,,,,,,,,,,,,,,,,,,,,,,,,,
64d657844666f2cadd27d420,2023-11-24_03h35.13.247,kallum_motion_pilot,2023.1.2,Win32,60.0060006,64d657844666f2cadd27d420,656018846682f3df8008bb8f,656019d193b4b7b965a4edf0,0,150,150,53,1,threefour,,,,,,,,,,,,,,,,,,,,,,,,,,,,,,,,,,,,,,,,,,,,,,,,,,,,,,,,,,,,,,,,,,,,,,,,,,,,,,,,,,,,,
64d657844666f2cadd27d420,2023-11-24_03h35.13.247,kallum_motion_pilot,2023.1.2,Win32,60.0060006,64d657844666f2cadd27d420,656018846682f3df8008bb8f,656019d193b4b7b965a4edf0,0,151,151,4,1,threeone,,,,,,,,,,,,,,,,,,,,,,,,,,,,,,,,,,,,,,,,,,,,,,,,,,,,,,,,,,,,,,,,,,,,,,,,,,,,,,,,,,,,,
64d657844666f2cadd27d420,2023-11-24_03h35.13.247,kallum_motion_pilot,2023.1.2,Win32,60.0060006,64d657844666f2cadd27d420,656018846682f3df8008bb8f,656019d193b4b7b965a4edf0,0,152,152,121,1,fiveseven,,,,,,,,,,,,,,,,,,,,,,,,,,,,,,,,,,,,,,,,,,,,,,,,,,,,,,,,,,,,,,,,,,,,,,,,,,,,,,,,,,,,,
64d657844666f2cadd27d420,2023-11-24_03h35.13.247,kallum_motion_pilot,2023.1.2,Win32,60.0060006,64d657844666f2cadd27d420,656018846682f3df8008bb8f,656019d193b4b7b965a4edf0,0,153,153,105,1,fiveseven,,,,,,,,,,,,,,,,,,,,,,,,,,,,,,,,,,,,,,,,,,,,,,,,,,,,,,,,,,,,,,,,,,,,,,,,,,,,,,,,,,,,,
64d657844666f2cadd27d420,2023-11-24_03h35.13.247,kallum_motion_pilot,2023.1.2,Win32,60.0060006,64d657844666f2cadd27d420,656018846682f3df8008bb8f,656019d193b4b7b965a4edf0,0,154,154,143,1,eightseven,,,,,,,,,,,,,,,,,,,,,,,,,,,,,,,,,,,,,,,,,,,,,,,,,,,,,,,,,,,,,,,,,,,,,,,,,,,,,,,,,,,,,
64d657844666f2cadd27d420,2023-11-24_03h35.13.247,kallum_motion_pilot,2023.1.2,Win32,60.0060006,64d657844666f2cadd27d420,656018846682f3df8008bb8f,656019d193b4b7b965a4edf0,0,155,155,91,1,sixeight,,,,,,,,,,,,,,,,,,,,,,,,,,,,,,,,,,,,,,,,,,,,,,,,,,,,,,,,,,,,,,,,,,,,,,,,,,,,,,,,,,,,,
64d657844666f2cadd27d420,2023-11-24_03h35.13.247,kallum_motion_pilot,2023.1.2,Win32,60.0060006,64d657844666f2cadd27d420,656018846682f3df8008bb8f,656019d193b4b7b965a4edf0,0,156,156,108,1,sevenfive,,,,,,,,,,,,,,,,,,,,,,,,,,,,,,,,,,,,,,,,,,,,,,,,,,,,,,,,,,,,,,,,,,,,,,,,,,,,,,,,,,,,,
64d657844666f2cadd27d420,2023-11-24_03h35.13.247,kallum_motion_pilot,2023.1.2,Win32,60.0060006,64d657844666f2cadd27d420,656018846682f3df8008bb8f,656019d193b4b7b965a4edf0,0,157,157,102,1,eightsix,,,,,,,,,,,,,,,,,,,,,,,,,,,,,,,,,,,,,,,,,,,,,,,,,,,,,,,,,,,,,,,,,,,,,,,,,,,,,,,,,,,,,
64d657844666f2cadd27d420,2023-11-24_03h35.13.247,kallum_motion_pilot,2023.1.2,Win32,60.0060006,64d657844666f2cadd27d420,656018846682f3df8008bb8f,656019d193b4b7b965a4edf0,0,158,158,79,1,eightseven,,,,,,,,,,,,,,,,,,,,,,,,,,,,,,,,,,,,,,,,,,,,,,,,,,,,,,,,,,,,,,,,,,,,,,,,,,,,,,,,,,,,,
64d657844666f2cadd27d420,2023-11-24_03h35.13.247,kallum_motion_pilot,2023.1.2,Win32,60.0060006,64d657844666f2cadd27d420,656018846682f3df8008bb8f,656019d193b4b7b965a4edf0,0,159,159,86,1,eightsix,,,,,,,,,,,,,,,,,,,,,,,,,,,,,,,,,,,,,,,,,,,,,,,,,,,,,,,,,,,,,,,,,,,,,,,,,,,,,,,,,,,,,
64d657844666f2cadd27d420,2023-11-24_03h35.13.247,kallum_motion_pilot,2023.1.2,Win32,60.0060006,64d657844666f2cadd27d420,656018846682f3df8008bb8f,656019d193b4b7b965a4edf0,0,160,160,84,1,sevenfive,,,,,,,,,,,,,,,,,,,,,,,,,,,,,,,,,,,,,,,,,,,,,,,,,,,,,,,,,,,,,,,,,,,,,,,,,,,,,,,,,,,,,
64d657844666f2cadd27d420,2023-11-24_03h35.13.247,kallum_motion_pilot,2023.1.2,Win32,60.0060006,64d657844666f2cadd27d420,656018846682f3df8008bb8f,656019d193b4b7b965a4edf0,0,161,161,65,1,onethree,,,,,,,,,,,,,,,,,,,,,,,,,,,,,,,,,,,,,,,,,,,,,,,,,,,,,,,,,,,,,,,,,,,,,,,,,,,,,,,,,,,,,
64d657844666f2cadd27d420,2023-11-24_03h35.13.247,kallum_motion_pilot,2023.1.2,Win32,60.0060006,64d657844666f2cadd27d420,656018846682f3df8008bb8f,656019d193b4b7b965a4edf0,1,0,162,144,1,fivesix,,,,,,,,,,,,,,,,,,,,,,,,,,,,,,,,,,,,,,,,,,,,,,,,,,,,,,,,,,,,,,,,,,,,,,,,,,,,,,,,,,,,,
64d657844666f2cadd27d420,2023-11-24_03h35.13.247,kallum_motion_pilot,2023.1.2,Win32,60.0060006,64d657844666f2cadd27d420,656018846682f3df8008bb8f,656019d193b4b7b965a4edf0,1,1,163,139,1,sixeight,,,,,,,,,,,,,,,,,,,,,,,,,,,,,,,,,,,,,,,,,,,,,,,,,,,,,,,,,,,,,,,,,,,,,,,,,,,,,,,,,,,,,
64d657844666f2cadd27d420,2023-11-24_03h35.13.247,kallum_motion_pilot,2023.1.2,Win32,60.0060006,64d657844666f2cadd27d420,656018846682f3df8008bb8f,656019d193b4b7b965a4edf0,1,2,164,134,1,eightsix,,,,,,,,,,,,,,,,,,,,,,,,,,,,,,,,,,,,,,,,,,,,,,,,,,,,,,,,,,,,,,,,,,,,,,,,,,,,,,,,,,,,,
64d657844666f2cadd27d420,2023-11-24_03h35.13.247,kallum_motion_pilot,2023.1.2,Win32,60.0060006,64d657844666f2cadd27d420,656018846682f3df8008bb8f,656019d193b4b7b965a4edf0,1,3,165,145,1,fiveseven,,,,,,,,,,,,,,,,,,,,,,,,,,,,,,,,,,,,,,,,,,,,,,,,,,,,,,,,,,,,,,,,,,,,,,,,,,,,,,,,,,,,,
64d657844666f2cadd27d420,2023-11-24_03h35.13.247,kallum_motion_pilot,2023.1.2,Win32,60.0060006,64d657844666f2cadd27d420,656018846682f3df8008bb8f,656019d193b4b7b965a4edf0,1,4,166,98,1,sixfive,,,,,,,,,,,,,,,,,,,,,,,,,,,,,,,,,,,,,,,,,,,,,,,,,,,,,,,,,,,,,,,,,,,,,,,,,,,,,,,,,,,,,
64d657844666f2cadd27d420,2023-11-24_03h35.13.247,kallum_motion_pilot,2023.1.2,Win32,60.0060006,64d657844666f2cadd27d420,656018846682f3df8008bb8f,656019d193b4b7b965a4edf0,1,5,167,11,1,twofour,,,,,,,,,,,,,,,,,,,,,,,,,,,,,,,,,,,,,,,,,,,,,,,,,,,,,,,,,,,,,,,,,,,,,,,,,,,,,,,,,,,,,
64d657844666f2cadd27d420,2023-11-24_03h35.13.247,kallum_motion_pilot,2023.1.2,Win32,60.0060006,64d657844666f2cadd27d420,656018846682f3df8008bb8f,656019d193b4b7b965a4edf0,1,6,168,5,1,threefour,,,,,,,,,,,,,,,,,,,,,,,,,,,,,,,,,,,,,,,,,,,,,,,,,,,,,,,,,,,,,,,,,,,,,,,,,,,,,,,,,,,,,
64d657844666f2cadd27d420,2023-11-24_03h35.13.247,kallum_motion_pilot,2023.1.2,Win32,60.0060006,64d657844666f2cadd27d420,656018846682f3df8008bb8f,656019d193b4b7b965a4edf0,1,7,169,6,1,fourtwo,,,,,,,,,,,,,,,,,,,,,,,,,,,,,,,,,,,,,,,,,,,,,,,,,,,,,,,,,,,,,,,,,,,,,,,,,,,,,,,,,,,,,
64d657844666f2cadd27d420,2023-11-24_03h35.13.247,kallum_motion_pilot,2023.1.2,Win32,60.0060006,64d657844666f2cadd27d420,656018846682f3df8008bb8f,656019d193b4b7b965a4edf0,1,8,170,4,1,threeone,,,,,,,,,,,,,,,,,,,,,,,,,,,,,,,,,,,,,,,,,,,,,,,,,,,,,,,,,,,,,,,,,,,,,,,,,,,,,,,,,,,,,
64d657844666f2cadd27d420,2023-11-24_03h35.13.247,kallum_motion_pilot,2023.1.2,Win32,60.0060006,64d657844666f2cadd27d420,656018846682f3df8008bb8f,656019d193b4b7b965a4edf0,1,9,171,110,1,eightsix,,,,,,,,,,,,,,,,,,,,,,,,,,,,,,,,,,,,,,,,,,,,,,,,,,,,,,,,,,,,,,,,,,,,,,,,,,,,,,,,,,,,,
64d657844666f2cadd27d420,2023-11-24_03h35.13.247,kallum_motion_pilot,2023.1.2,Win32,60.0060006,64d657844666f2cadd27d420,656018846682f3df8008bb8f,656019d193b4b7b965a4edf0,1,10,172,123,1,sixeight,,,,,,,,,,,,,,,,,,,,,,,,,,,,,,,,,,,,,,,,,,,,,,,,,,,,,,,,,,,,,,,,,,,,,,,,,,,,,,,,,,,,,
64d657844666f2cadd27d420,2023-11-24_03h35.13.247,kallum_motion_pilot,2023.1.2,Win32,60.0060006,64d657844666f2cadd27d420,656018846682f3df8008bb8f,656019d193b4b7b965a4edf0,1,11,173,135,1,eightseven,,,,,,,,,,,,,,,,,,,,,,,,,,,,,,,,,,,,,,,,,,,,,,,,,,,,,,,,,,,,,,,,,,,,,,,,,,,,,,,,,,,,,
64d657844666f2cadd27d420,2023-11-24_03h35.13.247,kallum_motion_pilot,2023.1.2,Win32,60.0060006,64d657844666f2cadd27d420,656018846682f3df8008bb8f,656019d193b4b7b965a4edf0,1,12,174,55,1,fourthree,,,,,,,,,,,,,,,,,,,,,,,,,,,,,,,,,,,,,,,,,,,,,,,,,,,,,,,,,,,,,,,,,,,,,,,,,,,,,,,,,,,,,
64d657844666f2cadd27d420,2023-11-24_03h35.13.247,kallum_motion_pilot,2023.1.2,Win32,60.0060006,64d657844666f2cadd27d420,656018846682f3df8008bb8f,656019d193b4b7b965a4edf0,1,13,175,14,1,fourtwo,,,,,,,,,,,,,,,,,,,,,,,,,,,,,,,,,,,,,,,,,,,,,,,,,,,,,,,,,,,,,,,,,,,,,,,,,,,,,,,,,,,,,
64d657844666f2cadd27d420,2023-11-24_03h35.13.247,kallum_motion_pilot,2023.1.2,Win32,60.0060006,64d657844666f2cadd27d420,656018846682f3df8008bb8f,656019d193b4b7b965a4edf0,1,14,176,1,1,onethree,,,,,,,,,,,,,,,,,,,,,,,,,,,,,,,,,,,,,,,,,,,,,,,,,,,,,,,,,,,,,,,,,,,,,,,,,,,,,,,,,,,,,
64d657844666f2cadd27d420,2023-11-24_03h35.13.247,kallum_motion_pilot,2023.1.2,Win32,60.0060006,64d657844666f2cadd27d420,656018846682f3df8008bb8f,656019d193b4b7b965a4edf0,1,15,177,90,1,sixfive,,,,,,,,,,,,,,,,,,,,,,,,,,,,,,,,,,,,,,,,,,,,,,,,,,,,,,,,,,,,,,,,,,,,,,,,,,,,,,,,,,,,,
64d657844666f2cadd27d420,2023-11-24_03h35.13.247,kallum_motion_pilot,2023.1.2,Win32,60.0060006,64d657844666f2cadd27d420,656018846682f3df8008bb8f,656019d193b4b7b965a4edf0,1,16,178,138,1,sixfive,,,,,,,,,,,,,,,,,,,,,,,,,,,,,,,,,,,,,,,,,,,,,,,,,,,,,,,,,,,,,,,,,,,,,,,,,,,,,,,,,,,,,
64d657844666f2cadd27d420,2023-11-24_03h35.13.247,kallum_motion_pilot,2023.1.2,Win32,60.0060006,64d657844666f2cadd27d420,656018846682f3df8008bb8f,656019d193b4b7b965a4edf0,1,17,179,39,1,fourthree,,,,,,,,,,,,,,,,,,,,,,,,,,,,,,,,,,,,,,,,,,,,,,,,,,,,,,,,,,,,,,,,,,,,,,,,,,,,,,,,,,,,,
64d657844666f2cadd27d420,2023-11-24_03h35.13.247,kallum_motion_pilot,2023.1.2,Win32,60.0060006,64d657844666f2cadd27d420,656018846682f3df8008bb8f,656019d193b4b7b965a4edf0,1,18,180,35,1,twofour,,,,,,,,,,,,,,,,,,,,,,,,,,,,,,,,,,,,,,,,,,,,,,,,,,,,,,,,,,,,,,,,,,,,,,,,,,,,,,,,,,,,,
64d657844666f2cadd27d420,2023-11-24_03h35.13.247,kallum_motion_pilot,2023.1.2,Win32,60.0060006,64d657844666f2cadd27d420,656018846682f3df8008bb8f,656019d193b4b7b965a4edf0,1,19,181,78,1,fourtwo,,,,,,,,,,,,,,,,,,,,,,,,,,,,,,,,,,,,,,,,,,,,,,,,,,,,,,,,,,,,,,,,,,,,,,,,,,,,,,,,,,,,,
64d657844666f2cadd27d420,2023-11-24_03h35.13.247,kallum_motion_pilot,2023.1.2,Win32,60.0060006,64d657844666f2cadd27d420,656018846682f3df8008bb8f,656019d193b4b7b965a4edf0,1,20,182,29,1,threefour,,,,,,,,,,,,,,,,,,,,,,,,,,,,,,,,,,,,,,,,,,,,,,,,,,,,,,,,,,,,,,,,,,,,,,,,,,,,,,,,,,,,,
64d657844666f2cadd27d420,2023-11-24_03h35.13.247,kallum_motion_pilot,2023.1.2,Win32,60.0060006,64d657844666f2cadd27d420,656018846682f3df8008bb8f,656019d193b4b7b965a4edf0,1,21,183,17,1,onethree,,,,,,,,,,,,,,,,,,,,,,,,,,,,,,,,,,,,,,,,,,,,,,,,,,,,,,,,,,,,,,,,,,,,,,,,,,,,,,,,,,,,,
64d657844666f2cadd27d420,2023-11-24_03h35.13.247,kallum_motion_pilot,2023.1.2,Win32,60.0060006,64d657844666f2cadd27d420,656018846682f3df8008bb8f,656019d193b4b7b965a4edf0,1,22,184,97,1,fiveseven,,,,,,,,,,,,,,,,,,,,,,,,,,,,,,,,,,,,,,,,,,,,,,,,,,,,,,,,,,,,,,,,,,,,,,,,,,,,,,,,,,,,,
64d657844666f2cadd27d420,2023-11-24_03h35.13.247,kallum_motion_pilot,2023.1.2,Win32,60.0060006,64d657844666f2cadd27d420,656018846682f3df8008bb8f,656019d193b4b7b965a4edf0,1,23,185,113,1,fiveseven,,,,,,,,,,,,,,,,,,,,,,,,,,,,,,,,,,,,,,,,,,,,,,,,,,,,,,,,,,,,,,,,,,,,,,,,,,,,,,,,,,,,,
64d657844666f2cadd27d420,2023-11-24_03h35.13.247,kallum_motion_pilot,2023.1.2,Win32,60.0060006,64d657844666f2cadd27d420,656018846682f3df8008bb8f,656019d193b4b7b965a4edf0,1,24,186,104,1,fivesix,,,,,,,,,,,,,,,,,,,,,,,,,,,,,,,,,,,,,,,,,,,,,,,,,,,,,,,,,,,,,,,,,,,,,,,,,,,,,,,,,,,,,
64d657844666f2cadd27d420,2023-11-24_03h35.13.247,kallum_motion_pilot,2023.1.2,Win32,60.0060006,64d657844666f2cadd27d420,656018846682f3df8008bb8f,656019d193b4b7b965a4edf0,1,25,187,152,1,fivesix,,,,,,,,,,,,,,,,,,,,,,,,,,,,,,,,,,,,,,,,,,,,,,,,,,,,,,,,,,,,,,,,,,,,,,,,,,,,,,,,,,,,,
64d657844666f2cadd27d420,2023-11-24_03h35.13.247,kallum_motion_pilot,2023.1.2,Win32,60.0060006,64d657844666f2cadd27d420,656018846682f3df8008bb8f,656019d193b4b7b965a4edf0,1,26,188,15,1,fourthree,,,,,,,,,,,,,,,,,,,,,,,,,,,,,,,,,,,,,,,,,,,,,,,,,,,,,,,,,,,,,,,,,,,,,,,,,,,,,,,,,,,,,
64d657844666f2cadd27d420,2023-11-24_03h35.13.247,kallum_motion_pilot,2023.1.2,Win32,60.0060006,64d657844666f2cadd27d420,656018846682f3df8008bb8f,656019d193b4b7b965a4edf0,1,27,189,130,1,sixfive,,,,,,,,,,,,,,,,,,,,,,,,,,,,,,,,,,,,,,,,,,,,,,,,,,,,,,,,,,,,,,,,,,,,,,,,,,,,,,,,,,,,,
64d657844666f2cadd27d420,2023-11-24_03h35.13.247,kallum_motion_pilot,2023.1.2,Win32,60.0060006,64d657844666f2cadd27d420,656018846682f3df8008bb8f,656019d193b4b7b965a4edf0,1,28,190,61,1,threefour,,,,,,,,,,,,,,,,,,,,,,,,,,,,,,,,,,,,,,,,,,,,,,,,,,,,,,,,,,,,,,,,,,,,,,,,,,,,,,,,,,,,,
64d657844666f2cadd27d420,2023-11-24_03h35.13.247,kallum_motion_pilot,2023.1.2,Win32,60.0060006,64d657844666f2cadd27d420,656018846682f3df8008bb8f,656019d193b4b7b965a4edf0,1,29,191,62,1,fourtwo,,,,,,,,,,,,,,,,,,,,,,,,,,,,,,,,,,,,,,,,,,,,,,,,,,,,,,,,,,,,,,,,,,,,,,,,,,,,,,,,,,,,,
64d657844666f2cadd27d420,2023-11-24_03h35.13.247,kallum_motion_pilot,2023.1.2,Win32,60.0060006,64d657844666f2cadd27d420,656018846682f3df8008bb8f,656019d193b4b7b965a4edf0,1,30,192,25,1,onethree,,,,,,,,,,,,,,,,,,,,,,,,,,,,,,,,,,,,,,,,,,,,,,,,,,,,,,,,,,,,,,,,,,,,,,,,,,,,,,,,,,,,,
64d657844666f2cadd27d420,2023-11-24_03h35.13.247,kallum_motion_pilot,2023.1.2,Win32,60.0060006,64d657844666f2cadd27d420,656018846682f3df8008bb8f,656019d193b4b7b965a4edf0,1,31,193,38,1,fourtwo,,,,,,,,,,,,,,,,,,,,,,,,,,,,,,,,,,,,,,,,,,,,,,,,,,,,,,,,,,,,,,,,,,,,,,,,,,,,,,,,,,,,,
64d657844666f2cadd27d420,2023-11-24_03h35.13.247,kallum_motion_pilot,2023.1.2,Win32,60.0060006,64d657844666f2cadd27d420,656018846682f3df8008bb8f,656019d193b4b7b965a4edf0,1,32,194,89,1,fiveseven,,,,,,,,,,,,,,,,,,,,,,,,,,,,,,,,,,,,,,,,,,,,,,,,,,,,,,,,,,,,,,,,,,,,,,,,,,,,,,,,,,,,,
64d657844666f2cadd27d420,2023-11-24_03h35.13.247,kallum_motion_pilot,2023.1.2,Win32,60.0060006,64d657844666f2cadd27d420,656018846682f3df8008bb8f,656019d193b4b7b965a4edf0,1,33,195,160,1,fivesix,,,,,,,,,,,,,,,,,,,,,,,,,,,,,,,,,,,,,,,,,,,,,,,,,,,,,,,,,,,,,,,,,,,,,,,,,,,,,,,,,,,,,
64d657844666f2cadd27d420,2023-11-24_03h35.13.247,kallum_motion_pilot,2023.1.2,Win32,60.0060006,64d657844666f2cadd27d420,656018846682f3df8008bb8f,656019d193b4b7b965a4edf0,1,34,196,157,1,seveneight,,,,,,,,,,,,,,,,,,,,,,,,,,,,,,,,,,,,,,,,,,,,,,,,,,,,,,,,,,,,,,,,,,,,,,,,,,,,,,,,,,,,,
64d657844666f2cadd27d420,2023-11-24_03h35.13.247,kallum_motion_pilot,2023.1.2,Win32,60.0060006,64d657844666f2cadd27d420,656018846682f3df8008bb8f,656019d193b4b7b965a4edf0,1,35,197,66,1,twoone,,,,,,,,,,,,,,,,,,,,,,,,,,,,,,,,,,,,,,,,,,,,,,,,,,,,,,,,,,,,,,,,,,,,,,,,,,,,,,,,,,,,,
64d657844666f2cadd27d420,2023-11-24_03h35.13.247,kallum_motion_pilot,2023.1.2,Win32,60.0060006,64d657844666f2cadd27d420,656018846682f3df8008bb8f,656019d193b4b7b965a4edf0,1,36,198,65,1,onethree,,,,,,,,,,,,,,,,,,,,,,,,,,,,,,,,,,,,,,,,,,,,,,,,,,,,,,,,,,,,,,,,,,,,,,,,,,,,,,,,,,,,,
64d657844666f2cadd27d420,2023-11-24_03h35.13.247,kallum_motion_pilot,2023.1.2,Win32,60.0060006,64d657844666f2cadd27d420,656018846682f3df8008bb8f,656019d193b4b7b965a4edf0,1,37,199,99,1,sixeight,,,,,,,,,,,,,,,,,,,,,,,,,,,,,,,,,,,,,,,,,,,,,,,,,,,,,,,,,,,,,,,,,,,,,,,,,,,,,,,,,,,,,
64d657844666f2cadd27d420,2023-11-24_03h35.13.247,kallum_motion_pilot,2023.1.2,Win32,60.0060006,64d657844666f2cadd27d420,656018846682f3df8008bb8f,656019d193b4b7b965a4edf0,1,38,200,44,1,threeone,,,,,,,,,,,,,,,,,,,,,,,,,,,,,,,,,,,,,,,,,,,,,,,,,,,,,,,,,,,,,,,,,,,,,,,,,,,,,,,,,,,,,
64d657844666f2cadd27d420,2023-11-24_03h35.13.247,kallum_motion_pilot,2023.1.2,Win32,60.0060006,64d657844666f2cadd27d420,656018846682f3df8008bb8f,656019d193b4b7b965a4edf0,1,39,201,93,1,seveneight,,,,,,,,,,,,,,,,,,,,,,,,,,,,,,,,,,,,,,,,,,,,,,,,,,,,,,,,,,,,,,,,,,,,,,,,,,,,,,,,,,,,,
64d657844666f2cadd27d420,2023-11-24_03h35.13.247,kallum_motion_pilot,2023.1.2,Win32,60.0060006,64d657844666f2cadd27d420,656018846682f3df8008bb8f,656019d193b4b7b965a4edf0,1,40,202,115,1,sixeight,,,,,,,,,,,,,,,,,,,,,,,,,,,,,,,,,,,,,,,,,,,,,,,,,,,,,,,,,,,,,,,,,,,,,,,,,,,,,,,,,,,,,
64d657844666f2cadd27d420,2023-11-24_03h35.13.247,kallum_motion_pilot,2023.1.2,Win32,60.0060006,64d657844666f2cadd27d420,656018846682f3df8008bb8f,656019d193b4b7b965a4edf0,1,41,203,0,1,onetwo,,,,,,,,,,,,,,,,,,,,,,,,,,,,,,,,,,,,,,,,,,,,,,,,,,,,,,,,,,,,,,,,,,,,,,,,,,,,,,,,,,,,,
64d657844666f2cadd27d420,2023-11-24_03h35.13.247,kallum_motion_pilot,2023.1.2,Win32,60.0060006,64d657844666f2cadd27d420,656018846682f3df8008bb8f,656019d193b4b7b965a4edf0,1,42,204,108,1,sevenfive,,,,,,,,,,,,,,,,,,,,,,,,,,,,,,,,,,,,,,,,,,,,,,,,,,,,,,,,,,,,,,,,,,,,,,,,,,,,,,,,,,,,,
64d657844666f2cadd27d420,2023-11-24_03h35.13.247,kallum_motion_pilot,2023.1.2,Win32,60.0060006,64d657844666f2cadd27d420,656018846682f3df8008bb8f,656019d193b4b7b965a4edf0,1,43,205,120,1,fivesix,,,,,,,,,,,,,,,,,,,,,,,,,,,,,,,,,,,,,,,,,,,,,,,,,,,,,,,,,,,,,,,,,,,,,,,,,,,,,,,,,,,,,
64d657844666f2cadd27d420,2023-11-24_03h35.13.247,kallum_motion_pilot,2023.1.2,Win32,60.0060006,64d657844666f2cadd27d420,656018846682f3df8008bb8f,656019d193b4b7b965a4edf0,1,44,206,27,1,twofour,,,,,,,,,,,,,,,,,,,,,,,,,,,,,,,,,,,,,,,,,,,,,,,,,,,,,,,,,,,,,,,,,,,,,,,,,,,,,,,,,,,,,
64d657844666f2cadd27d420,2023-11-24_03h35.13.247,kallum_motion_pilot,2023.1.2,Win32,60.0060006,64d657844666f2cadd27d420,656018846682f3df8008bb8f,656019d193b4b7b965a4edf0,1,45,207,84,1,sevenfive,,,,,,,,,,,,,,,,,,,,,,,,,,,,,,,,,,,,,,,,,,,,,,,,,,,,,,,,,,,,,,,,,,,,,,,,,,,,,,,,,,,,,
64d657844666f2cadd27d420,2023-11-24_03h35.13.247,kallum_motion_pilot,2023.1.2,Win32,60.0060006,64d657844666f2cadd27d420,656018846682f3df8008bb8f,656019d193b4b7b965a4edf0,1,46,208,161,1,fiveseven,,,,,,,,,,,,,,,,,,,,,,,,,,,,,,,,,,,,,,,,,,,,,,,,,,,,,,,,,,,,,,,,,,,,,,,,,,,,,,,,,,,,,
64d657844666f2cadd27d420,2023-11-24_03h35.13.247,kallum_motion_pilot,2023.1.2,Win32,60.0060006,64d657844666f2cadd27d420,656018846682f3df8008bb8f,656019d193b4b7b965a4edf0,1,47,209,147,1,sixeight,,,,,,,,,,,,,,,,,,,,,,,,,,,,,,,,,,,,,,,,,,,,,,,,,,,,,,,,,,,,,,,,,,,,,,,,,,,,,,,,,,,,,
64d657844666f2cadd27d420,2023-11-24_03h35.13.247,kallum_motion_pilot,2023.1.2,Win32,60.0060006,64d657844666f2cadd27d420,656018846682f3df8008bb8f,656019d193b4b7b965a4edf0,1,48,210,101,1,seveneight,,,,,,,,,,,,,,,,,,,,,,,,,,,,,,,,,,,,,,,,,,,,,,,,,,,,,,,,,,,,,,,,,,,,,,,,,,,,,,,,,,,,,
64d657844666f2cadd27d420,2023-11-24_03h35.13.247,kallum_motion_pilot,2023.1.2,Win32,60.0060006,64d657844666f2cadd27d420,656018846682f3df8008bb8f,656019d193b4b7b965a4edf0,1,49,211,92,1,sevenfive,,,,,,,,,,,,,,,,,,,,,,,,,,,,,,,,,,,,,,,,,,,,,,,,,,,,,,,,,,,,,,,,,,,,,,,,,,,,,,,,,,,,,
64d657844666f2cadd27d420,2023-11-24_03h35.13.247,kallum_motion_pilot,2023.1.2,Win32,60.0060006,64d657844666f2cadd27d420,656018846682f3df8008bb8f,656019d193b4b7b965a4edf0,1,50,212,64,1,onetwo,,,,,,,,,,,,,,,,,,,,,,,,,,,,,,,,,,,,,,,,,,,,,,,,,,,,,,,,,,,,,,,,,,,,,,,,,,,,,,,,,,,,,
64d657844666f2cadd27d420,2023-11-24_03h35.13.247,kallum_motion_pilot,2023.1.2,Win32,60.0060006,64d657844666f2cadd27d420,656018846682f3df8008bb8f,656019d193b4b7b965a4edf0,1,51,213,54,1,fourtwo,,,,,,,,,,,,,,,,,,,,,,,,,,,,,,,,,,,,,,,,,,,,,,,,,,,,,,,,,,,,,,,,,,,,,,,,,,,,,,,,,,,,,
64d657844666f2cadd27d420,2023-11-24_03h35.13.247,kallum_motion_pilot,2023.1.2,Win32,60.0060006,64d657844666f2cadd27d420,656018846682f3df8008bb8f,656019d193b4b7b965a4edf0,1,52,214,72,1,onetwo,,,,,,,,,,,,,,,,,,,,,,,,,,,,,,,,,,,,,,,,,,,,,,,,,,,,,,,,,,,,,,,,,,,,,,,,,,,,,,,,,,,,,
64d657844666f2cadd27d420,2023-11-24_03h35.13.247,kallum_motion_pilot,2023.1.2,Win32,60.0060006,64d657844666f2cadd27d420,656018846682f3df8008bb8f,656019d193b4b7b965a4edf0,1,53,215,2,1,twoone,,,,,,,,,,,,,,,,,,,,,,,,,,,,,,,,,,,,,,,,,,,,,,,,,,,,,,,,,,,,,,,,,,,,,,,,,,,,,,,,,,,,,
64d657844666f2cadd27d420,2023-11-24_03h35.13.247,kallum_motion_pilot,2023.1.2,Win32,60.0060006,64d657844666f2cadd27d420,656018846682f3df8008bb8f,656019d193b4b7b965a4edf0,1,54,216,21,1,threefour,,,,,,,,,,,,,,,,,,,,,,,,,,,,,,,,,,,,,,,,,,,,,,,,,,,,,,,,,,,,,,,,,,,,,,,,,,,,,,,,,,,,,
64d657844666f2cadd27d420,2023-11-24_03h35.13.247,kallum_motion_pilot,2023.1.2,Win32,60.0060006,64d657844666f2cadd27d420,656018846682f3df8008bb8f,656019d193b4b7b965a4edf0,1,55,217,63,1,fourthree,,,,,,,,,,,,,,,,,,,,,,,,,,,,,,,,,,,,,,,,,,,,,,,,,,,,,,,,,,,,,,,,,,,,,,,,,,,,,,,,,,,,,
64d657844666f2cadd27d420,2023-11-24_03h35.13.247,kallum_motion_pilot,2023.1.2,Win32,60.0060006,64d657844666f2cadd27d420,656018846682f3df8008bb8f,656019d193b4b7b965a4edf0,1,56,218,107,1,sixeight,,,,,,,,,,,,,,,,,,,,,,,,,,,,,,,,,,,,,,,,,,,,,,,,,,,,,,,,,,,,,,,,,,,,,,,,,,,,,,,,,,,,,
64d657844666f2cadd27d420,2023-11-24_03h35.13.247,kallum_motion_pilot,2023.1.2,Win32,60.0060006,64d657844666f2cadd27d420,656018846682f3df8008bb8f,656019d193b4b7b965a4edf0,1,57,219,16,1,onetwo,,,,,,,,,,,,,,,,,,,,,,,,,,,,,,,,,,,,,,,,,,,,,,,,,,,,,,,,,,,,,,,,,,,,,,,,,,,,,,,,,,,,,
64d657844666f2cadd27d420,2023-11-24_03h35.13.247,kallum_motion_pilot,2023.1.2,Win32,60.0060006,64d657844666f2cadd27d420,656018846682f3df8008bb8f,656019d193b4b7b965a4edf0,1,58,220,73,1,onethree,,,,,,,,,,,,,,,,,,,,,,,,,,,,,,,,,,,,,,,,,,,,,,,,,,,,,,,,,,,,,,,,,,,,,,,,,,,,,,,,,,,,,
64d657844666f2cadd27d420,2023-11-24_03h35.13.247,kallum_motion_pilot,2023.1.2,Win32,60.0060006,64d657844666f2cadd27d420,656018846682f3df8008bb8f,656019d193b4b7b965a4edf0,1,59,221,149,1,seveneight,,,,,,,,,,,,,,,,,,,,,,,,,,,,,,,,,,,,,,,,,,,,,,,,,,,,,,,,,,,,,,,,,,,,,,,,,,,,,,,,,,,,,
64d657844666f2cadd27d420,2023-11-24_03h35.13.247,kallum_motion_pilot,2023.1.2,Win32,60.0060006,64d657844666f2cadd27d420,656018846682f3df8008bb8f,656019d193b4b7b965a4edf0,1,60,222,69,1,threefour,,,,,,,,,,,,,,,,,,,,,,,,,,,,,,,,,,,,,,,,,,,,,,,,,,,,,,,,,,,,,,,,,,,,,,,,,,,,,,,,,,,,,
64d657844666f2cadd27d420,2023-11-24_03h35.13.247,kallum_motion_pilot,2023.1.2,Win32,60.0060006,64d657844666f2cadd27d420,656018846682f3df8008bb8f,656019d193b4b7b965a4edf0,1,61,223,40,1,onetwo,,,,,,,,,,,,,,,,,,,,,,,,,,,,,,,,,,,,,,,,,,,,,,,,,,,,,,,,,,,,,,,,,,,,,,,,,,,,,,,,,,,,,
64d657844666f2cadd27d420,2023-11-24_03h35.13.247,kallum_motion_pilot,2023.1.2,Win32,60.0060006,64d657844666f2cadd27d420,656018846682f3df8008bb8f,656019d193b4b7b965a4edf0,1,62,224,158,1,eightsix,,,,,,,,,,,,,,,,,,,,,,,,,,,,,,,,,,,,,,,,,,,,,,,,,,,,,,,,,,,,,,,,,,,,,,,,,,,,,,,,,,,,,
64d657844666f2cadd27d420,2023-11-24_03h35.13.247,kallum_motion_pilot,2023.1.2,Win32,60.0060006,64d657844666f2cadd27d420,656018846682f3df8008bb8f,656019d193b4b7b965a4edf0,1,63,225,85,1,seveneight,,,,,,,,,,,,,,,,,,,,,,,,,,,,,,,,,,,,,,,,,,,,,,,,,,,,,,,,,,,,,,,,,,,,,,,,,,,,,,,,,,,,,
64d657844666f2cadd27d420,2023-11-24_03h35.13.247,kallum_motion_pilot,2023.1.2,Win32,60.0060006,64d657844666f2cadd27d420,656018846682f3df8008bb8f,656019d193b4b7b965a4edf0,1,64,226,137,1,fiveseven,,,,,,,,,,,,,,,,,,,,,,,,,,,,,,,,,,,,,,,,,,,,,,,,,,,,,,,,,,,,,,,,,,,,,,,,,,,,,,,,,,,,,
64d657844666f2cadd27d420,2023-11-24_03h35.13.247,kallum_motion_pilot,2023.1.2,Win32,60.0060006,64d657844666f2cadd27d420,656018846682f3df8008bb8f,656019d193b4b7b965a4edf0,1,65,227,23,1,fourthree,,,,,,,,,,,,,,,,,,,,,,,,,,,,,,,,,,,,,,,,,,,,,,,,,,,,,,,,,,,,,,,,,,,,,,,,,,,,,,,,,,,,,
64d657844666f2cadd27d420,2023-11-24_03h35.13.247,kallum_motion_pilot,2023.1.2,Win32,60.0060006,64d657844666f2cadd27d420,656018846682f3df8008bb8f,656019d193b4b7b965a4edf0,1,66,228,96,1,fivesix,,,,,,,,,,,,,,,,,,,,,,,,,,,,,,,,,,,,,,,,,,,,,,,,,,,,,,,,,,,,,,,,,,,,,,,,,,,,,,,,,,,,,
64d657844666f2cadd27d420,2023-11-24_03h35.13.247,kallum_motion_pilot,2023.1.2,Win32,60.0060006,64d657844666f2cadd27d420,656018846682f3df8008bb8f,656019d193b4b7b965a4edf0,1,67,229,79,1,eightseven,,,,,,,,,,,,,,,,,,,,,,,,,,,,,,,,,,,,,,,,,,,,,,,,,,,,,,,,,,,,,,,,,,,,,,,,,,,,,,,,,,,,,
64d657844666f2cadd27d420,2023-11-24_03h35.13.247,kallum_motion_pilot,2023.1.2,Win32,60.0060006,64d657844666f2cadd27d420,656018846682f3df8008bb8f,656019d193b4b7b965a4edf0,1,68,230,153,1,fiveseven,,,,,,,,,,,,,,,,,,,,,,,,,,,,,,,,,,,,,,,,,,,,,,,,,,,,,,,,,,,,,,,,,,,,,,,,,,,,,,,,,,,,,
64d657844666f2cadd27d420,2023-11-24_03h35.13.247,kallum_motion_pilot,2023.1.2,Win32,60.0060006,64d657844666f2cadd27d420,656018846682f3df8008bb8f,656019d193b4b7b965a4edf0,1,69,231,3,1,twofour,,,,,,,,,,,,,,,,,,,,,,,,,,,,,,,,,,,,,,,,,,,,,,,,,,,,,,,,,,,,,,,,,,,,,,,,,,,,,,,,,,,,,
64d657844666f2cadd27d420,2023-11-24_03h35.13.247,kallum_motion_pilot,2023.1.2,Win32,60.0060006,64d657844666f2cadd27d420,656018846682f3df8008bb8f,656019d193b4b7b965a4edf0,1,70,232,56,1,onetwo,,,,,,,,,,,,,,,,,,,,,,,,,,,,,,,,,,,,,,,,,,,,,,,,,,,,,,,,,,,,,,,,,,,,,,,,,,,,,,,,,,,,,
64d657844666f2cadd27d420,2023-11-24_03h35.13.247,kallum_motion_pilot,2023.1.2,Win32,60.0060006,64d657844666f2cadd27d420,656018846682f3df8008bb8f,656019d193b4b7b965a4edf0,1,71,233,142,1,eightsix,,,,,,,,,,,,,,,,,,,,,,,,,,,,,,,,,,,,,,,,,,,,,,,,,,,,,,,,,,,,,,,,,,,,,,,,,,,,,,,,,,,,,
64d657844666f2cadd27d420,2023-11-24_03h35.13.247,kallum_motion_pilot,2023.1.2,Win32,60.0060006,64d657844666f2cadd27d420,656018846682f3df8008bb8f,656019d193b4b7b965a4edf0,1,72,234,37,1,threefour,,,,,,,,,,,,,,,,,,,,,,,,,,,,,,,,,,,,,,,,,,,,,,,,,,,,,,,,,,,,,,,,,,,,,,,,,,,,,,,,,,,,,
64d657844666f2cadd27d420,2023-11-24_03h35.13.247,kallum_motion_pilot,2023.1.2,Win32,60.0060006,64d657844666f2cadd27d420,656018846682f3df8008bb8f,656019d193b4b7b965a4edf0,1,73,235,102,1,eightsix,,,,,,,,,,,,,,,,,,,,,,,,,,,,,,,,,,,,,,,,,,,,,,,,,,,,,,,,,,,,,,,,,,,,,,,,,,,,,,,,,,,,,
64d657844666f2cadd27d420,2023-11-24_03h35.13.247,kallum_motion_pilot,2023.1.2,Win32,60.0060006,64d657844666f2cadd27d420,656018846682f3df8008bb8f,656019d193b4b7b965a4edf0,1,74,236,7,1,fourthree,,,,,,,,,,,,,,,,,,,,,,,,,,,,,,,,,,,,,,,,,,,,,,,,,,,,,,,,,,,,,,,,,,,,,,,,,,,,,,,,,,,,,
64d657844666f2cadd27d420,2023-11-24_03h35.13.247,kallum_motion_pilot,2023.1.2,Win32,60.0060006,64d657844666f2cadd27d420,656018846682f3df8008bb8f,656019d193b4b7b965a4edf0,1,75,237,100,1,sevenfive,,,,,,,,,,,,,,,,,,,,,,,,,,,,,,,,,,,,,,,,,,,,,,,,,,,,,,,,,,,,,,,,,,,,,,,,,,,,,,,,,,,,,
64d657844666f2cadd27d420,2023-11-24_03h35.13.247,kallum_motion_pilot,2023.1.2,Win32,60.0060006,64d657844666f2cadd27d420,656018846682f3df8008bb8f,656019d193b4b7b965a4edf0,1,76,238,116,1,sevenfive,,,,,,,,,,,,,,,,,,,,,,,,,,,,,,,,,,,,,,,,,,,,,,,,,,,,,,,,,,,,,,,,,,,,,,,,,,,,,,,,,,,,,
64d657844666f2cadd27d420,2023-11-24_03h35.13.247,kallum_motion_pilot,2023.1.2,Win32,60.0060006,64d657844666f2cadd27d420,656018846682f3df8008bb8f,656019d193b4b7b965a4edf0,1,77,239,13,1,threefour,,,,,,,,,,,,,,,,,,,,,,,,,,,,,,,,,,,,,,,,,,,,,,,,,,,,,,,,,,,,,,,,,,,,,,,,,,,,,,,,,,,,,
64d657844666f2cadd27d420,2023-11-24_03h35.13.247,kallum_motion_pilot,2023.1.2,Win32,60.0060006,64d657844666f2cadd27d420,656018846682f3df8008bb8f,656019d193b4b7b965a4edf0,1,78,240,57,1,onethree,,,,,,,,,,,,,,,,,,,,,,,,,,,,,,,,,,,,,,,,,,,,,,,,,,,,,,,,,,,,,,,,,,,,,,,,,,,,,,,,,,,,,
64d657844666f2cadd27d420,2023-11-24_03h35.13.247,kallum_motion_pilot,2023.1.2,Win32,60.0060006,64d657844666f2cadd27d420,656018846682f3df8008bb8f,656019d193b4b7b965a4edf0,1,79,241,131,1,sixeight,,,,,,,,,,,,,,,,,,,,,,,,,,,,,,,,,,,,,,,,,,,,,,,,,,,,,,,,,,,,,,,,,,,,,,,,,,,,,,,,,,,,,
64d657844666f2cadd27d420,2023-11-24_03h35.13.247,kallum_motion_pilot,2023.1.2,Win32,60.0060006,64d657844666f2cadd27d420,656018846682f3df8008bb8f,656019d193b4b7b965a4edf0,1,80,242,112,1,fivesix,,,,,,,,,,,,,,,,,,,,,,,,,,,,,,,,,,,,,,,,,,,,,,,,,,,,,,,,,,,,,,,,,,,,,,,,,,,,,,,,,,,,,
64d657844666f2cadd27d420,2023-11-24_03h35.13.247,kallum_motion_pilot,2023.1.2,Win32,60.0060006,64d657844666f2cadd27d420,656018846682f3df8008bb8f,656019d193b4b7b965a4edf0,1,81,243,59,1,twofour,,,,,,,,,,,,,,,,,,,,,,,,,,,,,,,,,,,,,,,,,,,,,,,,,,,,,,,,,,,,,,,,,,,,,,,,,,,,,,,,,,,,,
64d657844666f2cadd27d420,2023-11-24_03h35.13.247,kallum_motion_pilot,2023.1.2,Win32,60.0060006,64d657844666f2cadd27d420,656018846682f3df8008bb8f,656019d193b4b7b965a4edf0,1,82,244,132,1,sevenfive,,,,,,,,,,,,,,,,,,,,,,,,,,,,,,,,,,,,,,,,,,,,,,,,,,,,,,,,,,,,,,,,,,,,,,,,,,,,,,,,,,,,,
64d657844666f2cadd27d420,2023-11-24_03h35.13.247,kallum_motion_pilot,2023.1.2,Win32,60.0060006,64d657844666f2cadd27d420,656018846682f3df8008bb8f,656019d193b4b7b965a4edf0,1,83,245,109,1,seveneight,,,,,,,,,,,,,,,,,,,,,,,,,,,,,,,,,,,,,,,,,,,,,,,,,,,,,,,,,,,,,,,,,,,,,,,,,,,,,,,,,,,,,
64d657844666f2cadd27d420,2023-11-24_03h35.13.247,kallum_motion_pilot,2023.1.2,Win32,60.0060006,64d657844666f2cadd27d420,656018846682f3df8008bb8f,656019d193b4b7b965a4edf0,1,84,246,159,1,eightseven,,,,,,,,,,,,,,,,,,,,,,,,,,,,,,,,,,,,,,,,,,,,,,,,,,,,,,,,,,,,,,,,,,,,,,,,,,,,,,,,,,,,,
64d657844666f2cadd27d420,2023-11-24_03h35.13.247,kallum_motion_pilot,2023.1.2,Win32,60.0060006,64d657844666f2cadd27d420,656018846682f3df8008bb8f,656019d193b4b7b965a4edf0,1,85,247,50,1,twoone,,,,,,,,,,,,,,,,,,,,,,,,,,,,,,,,,,,,,,,,,,,,,,,,,,,,,,,,,,,,,,,,,,,,,,,,,,,,,,,,,,,,,
64d657844666f2cadd27d420,2023-11-24_03h35.13.247,kallum_motion_pilot,2023.1.2,Win32,60.0060006,64d657844666f2cadd27d420,656018846682f3df8008bb8f,656019d193b4b7b965a4edf0,1,86,248,77,1,threefour,,,,,,,,,,,,,,,,,,,,,,,,,,,,,,,,,,,,,,,,,,,,,,,,,,,,,,,,,,,,,,,,,,,,,,,,,,,,,,,,,,,,,
64d657844666f2cadd27d420,2023-11-24_03h35.13.247,kallum_motion_pilot,2023.1.2,Win32,60.0060006,64d657844666f2cadd27d420,656018846682f3df8008bb8f,656019d193b4b7b965a4edf0,1,87,249,36,1,threeone,,,,,,,,,,,,,,,,,,,,,,,,,,,,,,,,,,,,,,,,,,,,,,,,,,,,,,,,,,,,,,,,,,,,,,,,,,,,,,,,,,,,,
64d657844666f2cadd27d420,2023-11-24_03h35.13.247,kallum_motion_pilot,2023.1.2,Win32,60.0060006,64d657844666f2cadd27d420,656018846682f3df8008bb8f,656019d193b4b7b965a4edf0,1,88,250,127,1,eightseven,,,,,,,,,,,,,,,,,,,,,,,,,,,,,,,,,,,,,,,,,,,,,,,,,,,,,,,,,,,,,,,,,,,,,,,,,,,,,,,,,,,,,
64d657844666f2cadd27d420,2023-11-24_03h35.13.247,kallum_motion_pilot,2023.1.2,Win32,60.0060006,64d657844666f2cadd27d420,656018846682f3df8008bb8f,656019d193b4b7b965a4edf0,1,89,251,94,1,eightsix,,,,,,,,,,,,,,,,,,,,,,,,,,,,,,,,,,,,,,,,,,,,,,,,,,,,,,,,,,,,,,,,,,,,,,,,,,,,,,,,,,,,,
64d657844666f2cadd27d420,2023-11-24_03h35.13.247,kallum_motion_pilot,2023.1.2,Win32,60.0060006,64d657844666f2cadd27d420,656018846682f3df8008bb8f,656019d193b4b7b965a4edf0,1,90,252,58,1,twoone,,,,,,,,,,,,,,,,,,,,,,,,,,,,,,,,,,,,,,,,,,,,,,,,,,,,,,,,,,,,,,,,,,,,,,,,,,,,,,,,,,,,,
64d657844666f2cadd27d420,2023-11-24_03h35.13.247,kallum_motion_pilot,2023.1.2,Win32,60.0060006,64d657844666f2cadd27d420,656018846682f3df8008bb8f,656019d193b4b7b965a4edf0,1,91,253,83,1,sixeight,,,,,,,,,,,,,,,,,,,,,,,,,,,,,,,,,,,,,,,,,,,,,,,,,,,,,,,,,,,,,,,,,,,,,,,,,,,,,,,,,,,,,
64d657844666f2cadd27d420,2023-11-24_03h35.13.247,kallum_motion_pilot,2023.1.2,Win32,60.0060006,64d657844666f2cadd27d420,656018846682f3df8008bb8f,656019d193b4b7b965a4edf0,1,92,254,22,1,fourtwo,,,,,,,,,,,,,,,,,,,,,,,,,,,,,,,,,,,,,,,,,,,,,,,,,,,,,,,,,,,,,,,,,,,,,,,,,,,,,,,,,,,,,
64d657844666f2cadd27d420,2023-11-24_03h35.13.247,kallum_motion_pilot,2023.1.2,Win32,60.0060006,64d657844666f2cadd27d420,656018846682f3df8008bb8f,656019d193b4b7b965a4edf0,1,93,255,95,1,eightseven,,,,,,,,,,,,,,,,,,,,,,,,,,,,,,,,,,,,,,,,,,,,,,,,,,,,,,,,,,,,,,,,,,,,,,,,,,,,,,,,,,,,,
64d657844666f2cadd27d420,2023-11-24_03h35.13.247,kallum_motion_pilot,2023.1.2,Win32,60.0060006,64d657844666f2cadd27d420,656018846682f3df8008bb8f,656019d193b4b7b965a4edf0,1,94,256,48,1,onetwo,,,,,,,,,,,,,,,,,,,,,,,,,,,,,,,,,,,,,,,,,,,,,,,,,,,,,,,,,,,,,,,,,,,,,,,,,,,,,,,,,,,,,
64d657844666f2cadd27d420,2023-11-24_03h35.13.247,kallum_motion_pilot,2023.1.2,Win32,60.0060006,64d657844666f2cadd27d420,656018846682f3df8008bb8f,656019d193b4b7b965a4edf0,1,95,257,82,1,sixfive,,,,,,,,,,,,,,,,,,,,,,,,,,,,,,,,,,,,,,,,,,,,,,,,,,,,,,,,,,,,,,,,,,,,,,,,,,,,,,,,,,,,,
64d657844666f2cadd27d420,2023-11-24_03h35.13.247,kallum_motion_pilot,2023.1.2,Win32,60.0060006,64d657844666f2cadd27d420,656018846682f3df8008bb8f,656019d193b4b7b965a4edf0,1,96,258,43,1,twofour,,,,,,,,,,,,,,,,,,,,,,,,,,,,,,,,,,,,,,,,,,,,,,,,,,,,,,,,,,,,,,,,,,,,,,,,,,,,,,,,,,,,,
64d657844666f2cadd27d420,2023-11-24_03h35.13.247,kallum_motion_pilot,2023.1.2,Win32,60.0060006,64d657844666f2cadd27d420,656018846682f3df8008bb8f,656019d193b4b7b965a4edf0,1,97,259,34,1,twoone,,,,,,,,,,,,,,,,,,,,,,,,,,,,,,,,,,,,,,,,,,,,,,,,,,,,,,,,,,,,,,,,,,,,,,,,,,,,,,,,,,,,,
64d657844666f2cadd27d420,2023-11-24_03h35.13.247,kallum_motion_pilot,2023.1.2,Win32,60.0060006,64d657844666f2cadd27d420,656018846682f3df8008bb8f,656019d193b4b7b965a4edf0,1,98,260,53,1,threefour,,,,,,,,,,,,,,,,,,,,,,,,,,,,,,,,,,,,,,,,,,,,,,,,,,,,,,,,,,,,,,,,,,,,,,,,,,,,,,,,,,,,,
64d657844666f2cadd27d420,2023-11-24_03h35.13.247,kallum_motion_pilot,2023.1.2,Win32,60.0060006,64d657844666f2cadd27d420,656018846682f3df8008bb8f,656019d193b4b7b965a4edf0,1,99,261,70,1,fourtwo,,,,,,,,,,,,,,,,,,,,,,,,,,,,,,,,,,,,,,,,,,,,,,,,,,,,,,,,,,,,,,,,,,,,,,,,,,,,,,,,,,,,,
64d657844666f2cadd27d420,2023-11-24_03h35.13.247,kallum_motion_pilot,2023.1.2,Win32,60.0060006,64d657844666f2cadd27d420,656018846682f3df8008bb8f,656019d193b4b7b965a4edf0,1,100,262,47,1,fourthree,,,,,,,,,,,,,,,,,,,,,,,,,,,,,,,,,,,,,,,,,,,,,,,,,,,,,,,,,,,,,,,,,,,,,,,,,,,,,,,,,,,,,
64d657844666f2cadd27d420,2023-11-24_03h35.13.247,kallum_motion_pilot,2023.1.2,Win32,60.0060006,64d657844666f2cadd27d420,656018846682f3df8008bb8f,656019d193b4b7b965a4edf0,1,101,263,46,1,fourtwo,,,,,,,,,,,,,,,,,,,,,,,,,,,,,,,,,,,,,,,,,,,,,,,,,,,,,,,,,,,,,,,,,,,,,,,,,,,,,,,,,,,,,
64d657844666f2cadd27d420,2023-11-24_03h35.13.247,kallum_motion_pilot,2023.1.2,Win32,60.0060006,64d657844666f2cadd27d420,656018846682f3df8008bb8f,656019d193b4b7b965a4edf0,1,102,264,103,1,eightseven,,,,,,,,,,,,,,,,,,,,,,,,,,,,,,,,,,,,,,,,,,,,,,,,,,,,,,,,,,,,,,,,,,,,,,,,,,,,,,,,,,,,,
64d657844666f2cadd27d420,2023-11-24_03h35.13.247,kallum_motion_pilot,2023.1.2,Win32,60.0060006,64d657844666f2cadd27d420,656018846682f3df8008bb8f,656019d193b4b7b965a4edf0,1,103,265,87,1,eightseven,,,,,,,,,,,,,,,,,,,,,,,,,,,,,,,,,,,,,,,,,,,,,,,,,,,,,,,,,,,,,,,,,,,,,,,,,,,,,,,,,,,,,
64d657844666f2cadd27d420,2023-11-24_03h35.13.247,kallum_motion_pilot,2023.1.2,Win32,60.0060006,64d657844666f2cadd27d420,656018846682f3df8008bb8f,656019d193b4b7b965a4edf0,1,104,266,126,1,eightsix,,,,,,,,,,,,,,,,,,,,,,,,,,,,,,,,,,,,,,,,,,,,,,,,,,,,,,,,,,,,,,,,,,,,,,,,,,,,,,,,,,,,,
64d657844666f2cadd27d420,2023-11-24_03h35.13.247,kallum_motion_pilot,2023.1.2,Win32,60.0060006,64d657844666f2cadd27d420,656018846682f3df8008bb8f,656019d193b4b7b965a4edf0,1,105,267,32,1,onetwo,,,,,,,,,,,,,,,,,,,,,,,,,,,,,,,,,,,,,,,,,,,,,,,,,,,,,,,,,,,,,,,,,,,,,,,,,,,,,,,,,,,,,
64d657844666f2cadd27d420,2023-11-24_03h35.13.247,kallum_motion_pilot,2023.1.2,Win32,60.0060006,64d657844666f2cadd27d420,656018846682f3df8008bb8f,656019d193b4b7b965a4edf0,1,106,268,49,1,onethree,,,,,,,,,,,,,,,,,,,,,,,,,,,,,,,,,,,,,,,,,,,,,,,,,,,,,,,,,,,,,,,,,,,,,,,,,,,,,,,,,,,,,
64d657844666f2cadd27d420,2023-11-24_03h35.13.247,kallum_motion_pilot,2023.1.2,Win32,60.0060006,64d657844666f2cadd27d420,656018846682f3df8008bb8f,656019d193b4b7b965a4edf0,1,107,269,33,1,onethree,,,,,,,,,,,,,,,,,,,,,,,,,,,,,,,,,,,,,,,,,,,,,,,,,,,,,,,,,,,,,,,,,,,,,,,,,,,,,,,,,,,,,
64d657844666f2cadd27d420,2023-11-24_03h35.13.247,kallum_motion_pilot,2023.1.2,Win32,60.0060006,64d657844666f2cadd27d420,656018846682f3df8008bb8f,656019d193b4b7b965a4edf0,1,108,270,106,1,sixfive,,,,,,,,,,,,,,,,,,,,,,,,,,,,,,,,,,,,,,,,,,,,,,,,,,,,,,,,,,,,,,,,,,,,,,,,,,,,,,,,,,,,,
64d657844666f2cadd27d420,2023-11-24_03h35.13.247,kallum_motion_pilot,2023.1.2,Win32,60.0060006,64d657844666f2cadd27d420,656018846682f3df8008bb8f,656019d193b4b7b965a4edf0,1,109,271,133,1,seveneight,,,,,,,,,,,,,,,,,,,,,,,,,,,,,,,,,,,,,,,,,,,,,,,,,,,,,,,,,,,,,,,,,,,,,,,,,,,,,,,,,,,,,
64d657844666f2cadd27d420,2023-11-24_03h35.13.247,kallum_motion_pilot,2023.1.2,Win32,60.0060006,64d657844666f2cadd27d420,656018846682f3df8008bb8f,656019d193b4b7b965a4edf0,1,110,272,150,1,eightsix,,,,,,,,,,,,,,,,,,,,,,,,,,,,,,,,,,,,,,,,,,,,,,,,,,,,,,,,,,,,,,,,,,,,,,,,,,,,,,,,,,,,,
64d657844666f2cadd27d420,2023-11-24_03h35.13.247,kallum_motion_pilot,2023.1.2,Win32,60.0060006,64d657844666f2cadd27d420,656018846682f3df8008bb8f,656019d193b4b7b965a4edf0,1,111,273,146,1,sixfive,,,,,,,,,,,,,,,,,,,,,,,,,,,,,,,,,,,,,,,,,,,,,,,,,,,,,,,,,,,,,,,,,,,,,,,,,,,,,,,,,,,,,
64d657844666f2cadd27d420,2023-11-24_03h35.13.247,kallum_motion_pilot,2023.1.2,Win32,60.0060006,64d657844666f2cadd27d420,656018846682f3df8008bb8f,656019d193b4b7b965a4edf0,1,112,274,8,1,onetwo,,,,,,,,,,,,,,,,,,,,,,,,,,,,,,,,,,,,,,,,,,,,,,,,,,,,,,,,,,,,,,,,,,,,,,,,,,,,,,,,,,,,,
64d657844666f2cadd27d420,2023-11-24_03h35.13.247,kallum_motion_pilot,2023.1.2,Win32,60.0060006,64d657844666f2cadd27d420,656018846682f3df8008bb8f,656019d193b4b7b965a4edf0,1,113,275,67,1,twofour,,,,,,,,,,,,,,,,,,,,,,,,,,,,,,,,,,,,,,,,,,,,,,,,,,,,,,,,,,,,,,,,,,,,,,,,,,,,,,,,,,,,,
64d657844666f2cadd27d420,2023-11-24_03h35.13.247,kallum_motion_pilot,2023.1.2,Win32,60.0060006,64d657844666f2cadd27d420,656018846682f3df8008bb8f,656019d193b4b7b965a4edf0,1,114,276,60,1,threeone,,,,,,,,,,,,,,,,,,,,,,,,,,,,,,,,,,,,,,,,,,,,,,,,,,,,,,,,,,,,,,,,,,,,,,,,,,,,,,,,,,,,,
64d657844666f2cadd27d420,2023-11-24_03h35.13.247,kallum_motion_pilot,2023.1.2,Win32,60.0060006,64d657844666f2cadd27d420,656018846682f3df8008bb8f,656019d193b4b7b965a4edf0,1,115,277,19,1,twofour,,,,,,,,,,,,,,,,,,,,,,,,,,,,,,,,,,,,,,,,,,,,,,,,,,,,,,,,,,,,,,,,,,,,,,,,,,,,,,,,,,,,,
64d657844666f2cadd27d420,2023-11-24_03h35.13.247,kallum_motion_pilot,2023.1.2,Win32,60.0060006,64d657844666f2cadd27d420,656018846682f3df8008bb8f,656019d193b4b7b965a4edf0,1,116,278,140,1,sevenfive,,,,,,,,,,,,,,,,,,,,,,,,,,,,,,,,,,,,,,,,,,,,,,,,,,,,,,,,,,,,,,,,,,,,,,,,,,,,,,,,,,,,,
64d657844666f2cadd27d420,2023-11-24_03h35.13.247,kallum_motion_pilot,2023.1.2,Win32,60.0060006,64d657844666f2cadd27d420,656018846682f3df8008bb8f,656019d193b4b7b965a4edf0,1,117,279,117,1,seveneight,,,,,,,,,,,,,,,,,,,,,,,,,,,,,,,,,,,,,,,,,,,,,,,,,,,,,,,,,,,,,,,,,,,,,,,,,,,,,,,,,,,,,
64d657844666f2cadd27d420,2023-11-24_03h35.13.247,kallum_motion_pilot,2023.1.2,Win32,60.0060006,64d657844666f2cadd27d420,656018846682f3df8008bb8f,656019d193b4b7b965a4edf0,1,118,280,12,1,threeone,,,,,,,,,,,,,,,,,,,,,,,,,,,,,,,,,,,,,,,,,,,,,,,,,,,,,,,,,,,,,,,,,,,,,,,,,,,,,,,,,,,,,
64d657844666f2cadd27d420,2023-11-24_03h35.13.247,kallum_motion_pilot,2023.1.2,Win32,60.0060006,64d657844666f2cadd27d420,656018846682f3df8008bb8f,656019d193b4b7b965a4edf0,1,119,281,88,1,fivesix,,,,,,,,,,,,,,,,,,,,,,,,,,,,,,,,,,,,,,,,,,,,,,,,,,,,,,,,,,,,,,,,,,,,,,,,,,,,,,,,,,,,,
64d657844666f2cadd27d420,2023-11-24_03h35.13.247,kallum_motion_pilot,2023.1.2,Win32,60.0060006,64d657844666f2cadd27d420,656018846682f3df8008bb8f,656019d193b4b7b965a4edf0,1,120,282,91,1,sixeight,,,,,,,,,,,,,,,,,,,,,,,,,,,,,,,,,,,,,,,,,,,,,,,,,,,,,,,,,,,,,,,,,,,,,,,,,,,,,,,,,,,,,
64d657844666f2cadd27d420,2023-11-24_03h35.13.247,kallum_motion_pilot,2023.1.2,Win32,60.0060006,64d657844666f2cadd27d420,656018846682f3df8008bb8f,656019d193b4b7b965a4edf0,1,121,283,124,1,sevenfive,,,,,,,,,,,,,,,,,,,,,,,,,,,,,,,,,,,,,,,,,,,,,,,,,,,,,,,,,,,,,,,,,,,,,,,,,,,,,,,,,,,,,
64d657844666f2cadd27d420,2023-11-24_03h35.13.247,kallum_motion_pilot,2023.1.2,Win32,60.0060006,64d657844666f2cadd27d420,656018846682f3df8008bb8f,656019d193b4b7b965a4edf0,1,122,284,141,1,seveneight,,,,,,,,,,,,,,,,,,,,,,,,,,,,,,,,,,,,,,,,,,,,,,,,,,,,,,,,,,,,,,,,,,,,,,,,,,,,,,,,,,,,,
64d657844666f2cadd27d420,2023-11-24_03h35.13.247,kallum_motion_pilot,2023.1.2,Win32,60.0060006,64d657844666f2cadd27d420,656018846682f3df8008bb8f,656019d193b4b7b965a4edf0,1,123,285,51,1,twofour,,,,,,,,,,,,,,,,,,,,,,,,,,,,,,,,,,,,,,,,,,,,,,,,,,,,,,,,,,,,,,,,,,,,,,,,,,,,,,,,,,,,,
64d657844666f2cadd27d420,2023-11-24_03h35.13.247,kallum_motion_pilot,2023.1.2,Win32,60.0060006,64d657844666f2cadd27d420,656018846682f3df8008bb8f,656019d193b4b7b965a4edf0,1,124,286,26,1,twoone,,,,,,,,,,,,,,,,,,,,,,,,,,,,,,,,,,,,,,,,,,,,,,,,,,,,,,,,,,,,,,,,,,,,,,,,,,,,,,,,,,,,,
64d657844666f2cadd27d420,2023-11-24_03h35.13.247,kallum_motion_pilot,2023.1.2,Win32,60.0060006,64d657844666f2cadd27d420,656018846682f3df8008bb8f,656019d193b4b7b965a4edf0,1,125,287,105,1,fiveseven,,,,,,,,,,,,,,,,,,,,,,,,,,,,,,,,,,,,,,,,,,,,,,,,,,,,,,,,,,,,,,,,,,,,,,,,,,,,,,,,,,,,,
64d657844666f2cadd27d420,2023-11-24_03h35.13.247,kallum_motion_pilot,2023.1.2,Win32,60.0060006,64d657844666f2cadd27d420,656018846682f3df8008bb8f,656019d193b4b7b965a4edf0,1,126,288,155,1,sixeight,,,,,,,,,,,,,,,,,,,,,,,,,,,,,,,,,,,,,,,,,,,,,,,,,,,,,,,,,,,,,,,,,,,,,,,,,,,,,,,,,,,,,
64d657844666f2cadd27d420,2023-11-24_03h35.13.247,kallum_motion_pilot,2023.1.2,Win32,60.0060006,64d657844666f2cadd27d420,656018846682f3df8008bb8f,656019d193b4b7b965a4edf0,1,127,289,9,1,onethree,,,,,,,,,,,,,,,,,,,,,,,,,,,,,,,,,,,,,,,,,,,,,,,,,,,,,,,,,,,,,,,,,,,,,,,,,,,,,,,,,,,,,
64d657844666f2cadd27d420,2023-11-24_03h35.13.247,kallum_motion_pilot,2023.1.2,Win32,60.0060006,64d657844666f2cadd27d420,656018846682f3df8008bb8f,656019d193b4b7b965a4edf0,1,128,290,30,1,fourtwo,,,,,,,,,,,,,,,,,,,,,,,,,,,,,,,,,,,,,,,,,,,,,,,,,,,,,,,,,,,,,,,,,,,,,,,,,,,,,,,,,,,,,
64d657844666f2cadd27d420,2023-11-24_03h35.13.247,kallum_motion_pilot,2023.1.2,Win32,60.0060006,64d657844666f2cadd27d420,656018846682f3df8008bb8f,656019d193b4b7b965a4edf0,1,129,291,81,1,fiveseven,,,,,,,,,,,,,,,,,,,,,,,,,,,,,,,,,,,,,,,,,,,,,,,,,,,,,,,,,,,,,,,,,,,,,,,,,,,,,,,,,,,,,
64d657844666f2cadd27d420,2023-11-24_03h35.13.247,kallum_motion_pilot,2023.1.2,Win32,60.0060006,64d657844666f2cadd27d420,656018846682f3df8008bb8f,656019d193b4b7b965a4edf0,1,130,292,111,1,eightseven,,,,,,,,,,,,,,,,,,,,,,,,,,,,,,,,,,,,,,,,,,,,,,,,,,,,,,,,,,,,,,,,,,,,,,,,,,,,,,,,,,,,,
64d657844666f2cadd27d420,2023-11-24_03h35.13.247,kallum_motion_pilot,2023.1.2,Win32,60.0060006,64d657844666f2cadd27d420,656018846682f3df8008bb8f,656019d193b4b7b965a4edf0,1,131,293,86,1,eightsix,,,,,,,,,,,,,,,,,,,,,,,,,,,,,,,,,,,,,,,,,,,,,,,,,,,,,,,,,,,,,,,,,,,,,,,,,,,,,,,,,,,,,
64d657844666f2cadd27d420,2023-11-24_03h35.13.247,kallum_motion_pilot,2023.1.2,Win32,60.0060006,64d657844666f2cadd27d420,656018846682f3df8008bb8f,656019d193b4b7b965a4edf0,1,132,294,24,1,onetwo,,,,,,,,,,,,,,,,,,,,,,,,,,,,,,,,,,,,,,,,,,,,,,,,,,,,,,,,,,,,,,,,,,,,,,,,,,,,,,,,,,,,,
64d657844666f2cadd27d420,2023-11-24_03h35.13.247,kallum_motion_pilot,2023.1.2,Win32,60.0060006,64d657844666f2cadd27d420,656018846682f3df8008bb8f,656019d193b4b7b965a4edf0,1,133,295,76,1,threeone,,,,,,,,,,,,,,,,,,,,,,,,,,,,,,,,,,,,,,,,,,,,,,,,,,,,,,,,,,,,,,,,,,,,,,,,,,,,,,,,,,,,,
64d657844666f2cadd27d420,2023-11-24_03h35.13.247,kallum_motion_pilot,2023.1.2,Win32,60.0060006,64d657844666f2cadd27d420,656018846682f3df8008bb8f,656019d193b4b7b965a4edf0,1,134,296,125,1,seveneight,,,,,,,,,,,,,,,,,,,,,,,,,,,,,,,,,,,,,,,,,,,,,,,,,,,,,,,,,,,,,,,,,,,,,,,,,,,,,,,,,,,,,
64d657844666f2cadd27d420,2023-11-24_03h35.13.247,kallum_motion_pilot,2023.1.2,Win32,60.0060006,64d657844666f2cadd27d420,656018846682f3df8008bb8f,656019d193b4b7b965a4edf0,1,135,297,80,1,fivesix,,,,,,,,,,,,,,,,,,,,,,,,,,,,,,,,,,,,,,,,,,,,,,,,,,,,,,,,,,,,,,,,,,,,,,,,,,,,,,,,,,,,,
64d657844666f2cadd27d420,2023-11-24_03h35.13.247,kallum_motion_pilot,2023.1.2,Win32,60.0060006,64d657844666f2cadd27d420,656018846682f3df8008bb8f,656019d193b4b7b965a4edf0,1,136,298,75,1,twofour,,,,,,,,,,,,,,,,,,,,,,,,,,,,,,,,,,,,,,,,,,,,,,,,,,,,,,,,,,,,,,,,,,,,,,,,,,,,,,,,,,,,,
64d657844666f2cadd27d420,2023-11-24_03h35.13.247,kallum_motion_pilot,2023.1.2,Win32,60.0060006,64d657844666f2cadd27d420,656018846682f3df8008bb8f,656019d193b4b7b965a4edf0,1,137,299,68,1,threeone,,,,,,,,,,,,,,,,,,,,,,,,,,,,,,,,,,,,,,,,,,,,,,,,,,,,,,,,,,,,,,,,,,,,,,,,,,,,,,,,,,,,,
64d657844666f2cadd27d420,2023-11-24_03h35.13.247,kallum_motion_pilot,2023.1.2,Win32,60.0060006,64d657844666f2cadd27d420,656018846682f3df8008bb8f,656019d193b4b7b965a4edf0,1,138,300,41,1,onethree,,,,,,,,,,,,,,,,,,,,,,,,,,,,,,,,,,,,,,,,,,,,,,,,,,,,,,,,,,,,,,,,,,,,,,,,,,,,,,,,,,,,,
64d657844666f2cadd27d420,2023-11-24_03h35.13.247,kallum_motion_pilot,2023.1.2,Win32,60.0060006,64d657844666f2cadd27d420,656018846682f3df8008bb8f,656019d193b4b7b965a4edf0,1,139,301,151,1,eightseven,,,,,,,,,,,,,,,,,,,,,,,,,,,,,,,,,,,,,,,,,,,,,,,,,,,,,,,,,,,,,,,,,,,,,,,,,,,,,,,,,,,,,
64d657844666f2cadd27d420,2023-11-24_03h35.13.247,kallum_motion_pilot,2023.1.2,Win32,60.0060006,64d657844666f2cadd27d420,656018846682f3df8008bb8f,656019d193b4b7b965a4edf0,1,140,302,114,1,sixfive,,,,,,,,,,,,,,,,,,,,,,,,,,,,,,,,,,,,,,,,,,,,,,,,,,,,,,,,,,,,,,,,,,,,,,,,,,,,,,,,,,,,,
64d657844666f2cadd27d420,2023-11-24_03h35.13.247,kallum_motion_pilot,2023.1.2,Win32,60.0060006,64d657844666f2cadd27d420,656018846682f3df8008bb8f,656019d193b4b7b965a4edf0,1,141,303,148,1,sevenfive,,,,,,,,,,,,,,,,,,,,,,,,,,,,,,,,,,,,,,,,,,,,,,,,,,,,,,,,,,,,,,,,,,,,,,,,,,,,,,,,,,,,,
64d657844666f2cadd27d420,2023-11-24_03h35.13.247,kallum_motion_pilot,2023.1.2,Win32,60.0060006,64d657844666f2cadd27d420,656018846682f3df8008bb8f,656019d193b4b7b965a4edf0,1,142,304,156,1,sevenfive,,,,,,,,,,,,,,,,,,,,,,,,,,,,,,,,,,,,,,,,,,,,,,,,,,,,,,,,,,,,,,,,,,,,,,,,,,,,,,,,,,,,,
64d657844666f2cadd27d420,2023-11-24_03h35.13.247,kallum_motion_pilot,2023.1.2,Win32,60.0060006,64d657844666f2cadd27d420,656018846682f3df8008bb8f,656019d193b4b7b965a4edf0,1,143,305,143,1,eightseven,,,,,,,,,,,,,,,,,,,,,,,,,,,,,,,,,,,,,,,,,,,,,,,,,,,,,,,,,,,,,,,,,,,,,,,,,,,,,,,,,,,,,
64d657844666f2cadd27d420,2023-11-24_03h35.13.247,kallum_motion_pilot,2023.1.2,Win32,60.0060006,64d657844666f2cadd27d420,656018846682f3df8008bb8f,656019d193b4b7b965a4edf0,1,144,306,74,1,twoone,,,,,,,,,,,,,,,,,,,,,,,,,,,,,,,,,,,,,,,,,,,,,,,,,,,,,,,,,,,,,,,,,,,,,,,,,,,,,,,,,,,,,
64d657844666f2cadd27d420,2023-11-24_03h35.13.247,kallum_motion_pilot,2023.1.2,Win32,60.0060006,64d657844666f2cadd27d420,656018846682f3df8008bb8f,656019d193b4b7b965a4edf0,1,145,307,45,1,threefour,,,,,,,,,,,,,,,,,,,,,,,,,,,,,,,,,,,,,,,,,,,,,,,,,,,,,,,,,,,,,,,,,,,,,,,,,,,,,,,,,,,,,
64d657844666f2cadd27d420,2023-11-24_03h35.13.247,kallum_motion_pilot,2023.1.2,Win32,60.0060006,64d657844666f2cadd27d420,656018846682f3df8008bb8f,656019d193b4b7b965a4edf0,1,146,308,128,1,fivesix,,,,,,,,,,,,,,,,,,,,,,,,,,,,,,,,,,,,,,,,,,,,,,,,,,,,,,,,,,,,,,,,,,,,,,,,,,,,,,,,,,,,,
64d657844666f2cadd27d420,2023-11-24_03h35.13.247,kallum_motion_pilot,2023.1.2,Win32,60.0060006,64d657844666f2cadd27d420,656018846682f3df8008bb8f,656019d193b4b7b965a4edf0,1,147,309,121,1,fiveseven,,,,,,,,,,,,,,,,,,,,,,,,,,,,,,,,,,,,,,,,,,,,,,,,,,,,,,,,,,,,,,,,,,,,,,,,,,,,,,,,,,,,,
64d657844666f2cadd27d420,2023-11-24_03h35.13.247,kallum_motion_pilot,2023.1.2,Win32,60.0060006,64d657844666f2cadd27d420,656018846682f3df8008bb8f,656019d193b4b7b965a4edf0,1,148,310,18,1,twoone,,,,,,,,,,,,,,,,,,,,,,,,,,,,,,,,,,,,,,,,,,,,,,,,,,,,,,,,,,,,,,,,,,,,,,,,,,,,,,,,,,,,,
64d657844666f2cadd27d420,2023-11-24_03h35.13.247,kallum_motion_pilot,2023.1.2,Win32,60.0060006,64d657844666f2cadd27d420,656018846682f3df8008bb8f,656019d193b4b7b965a4edf0,1,149,311,118,1,eightsix,,,,,,,,,,,,,,,,,,,,,,,,,,,,,,,,,,,,,,,,,,,,,,,,,,,,,,,,,,,,,,,,,,,,,,,,,,,,,,,,,,,,,
64d657844666f2cadd27d420,2023-11-24_03h35.13.247,kallum_motion_pilot,2023.1.2,Win32,60.0060006,64d657844666f2cadd27d420,656018846682f3df8008bb8f,656019d193b4b7b965a4edf0,1,150,312,42,1,twoone,,,,,,,,,,,,,,,,,,,,,,,,,,,,,,,,,,,,,,,,,,,,,,,,,,,,,,,,,,,,,,,,,,,,,,,,,,,,,,,,,,,,,
64d657844666f2cadd27d420,2023-11-24_03h35.13.247,kallum_motion_pilot,2023.1.2,Win32,60.0060006,64d657844666f2cadd27d420,656018846682f3df8008bb8f,656019d193b4b7b965a4edf0,1,151,313,129,1,fiveseven,,,,,,,,,,,,,,,,,,,,,,,,,,,,,,,,,,,,,,,,,,,,,,,,,,,,,,,,,,,,,,,,,,,,,,,,,,,,,,,,,,,,,
64d657844666f2cadd27d420,2023-11-24_03h35.13.247,kallum_motion_pilot,2023.1.2,Win32,60.0060006,64d657844666f2cadd27d420,656018846682f3df8008bb8f,656019d193b4b7b965a4edf0,1,152,314,10,1,twoone,,,,,,,,,,,,,,,,,,,,,,,,,,,,,,,,,,,,,,,,,,,,,,,,,,,,,,,,,,,,,,,,,,,,,,,,,,,,,,,,,,,,,
64d657844666f2cadd27d420,2023-11-24_03h35.13.247,kallum_motion_pilot,2023.1.2,Win32,60.0060006,64d657844666f2cadd27d420,656018846682f3df8008bb8f,656019d193b4b7b965a4edf0,1,153,315,154,1,sixfive,,,,,,,,,,,,,,,,,,,,,,,,,,,,,,,,,,,,,,,,,,,,,,,,,,,,,,,,,,,,,,,,,,,,,,,,,,,,,,,,,,,,,
64d657844666f2cadd27d420,2023-11-24_03h35.13.247,kallum_motion_pilot,2023.1.2,Win32,60.0060006,64d657844666f2cadd27d420,656018846682f3df8008bb8f,656019d193b4b7b965a4edf0,1,154,316,136,1,fivesix,,,,,,,,,,,,,,,,,,,,,,,,,,,,,,,,,,,,,,,,,,,,,,,,,,,,,,,,,,,,,,,,,,,,,,,,,,,,,,,,,,,,,
64d657844666f2cadd27d420,2023-11-24_03h35.13.247,kallum_motion_pilot,2023.1.2,Win32,60.0060006,64d657844666f2cadd27d420,656018846682f3df8008bb8f,656019d193b4b7b965a4edf0,1,155,317,31,1,fourthree,,,,,,,,,,,,,,,,,,,,,,,,,,,,,,,,,,,,,,,,,,,,,,,,,,,,,,,,,,,,,,,,,,,,,,,,,,,,,,,,,,,,,
64d657844666f2cadd27d420,2023-11-24_03h35.13.247,kallum_motion_pilot,2023.1.2,Win32,60.0060006,64d657844666f2cadd27d420,656018846682f3df8008bb8f,656019d193b4b7b965a4edf0,1,156,318,122,1,sixfive,,,,,,,,,,,,,,,,,,,,,,,,,,,,,,,,,,,,,,,,,,,,,,,,,,,,,,,,,,,,,,,,,,,,,,,,,,,,,,,,,,,,,
64d657844666f2cadd27d420,2023-11-24_03h35.13.247,kallum_motion_pilot,2023.1.2,Win32,60.0060006,64d657844666f2cadd27d420,656018846682f3df8008bb8f,656019d193b4b7b965a4edf0,1,157,319,71,1,fourthree,,,,,,,,,,,,,,,,,,,,,,,,,,,,,,,,,,,,,,,,,,,,,,,,,,,,,,,,,,,,,,,,,,,,,,,,,,,,,,,,,,,,,
64d657844666f2cadd27d420,2023-11-24_03h35.13.247,kallum_motion_pilot,2023.1.2,Win32,60.0060006,64d657844666f2cadd27d420,656018846682f3df8008bb8f,656019d193b4b7b965a4edf0,1,158,320,52,1,threeone,,,,,,,,,,,,,,,,,,,,,,,,,,,,,,,,,,,,,,,,,,,,,,,,,,,,,,,,,,,,,,,,,,,,,,,,,,,,,,,,,,,,,
64d657844666f2cadd27d420,2023-11-24_03h35.13.247,kallum_motion_pilot,2023.1.2,Win32,60.0060006,64d657844666f2cadd27d420,656018846682f3df8008bb8f,656019d193b4b7b965a4edf0,1,159,321,20,1,threeone,,,,,,,,,,,,,,,,,,,,,,,,,,,,,,,,,,,,,,,,,,,,,,,,,,,,,,,,,,,,,,,,,,,,,,,,,,,,,,,,,,,,,
64d657844666f2cadd27d420,2023-11-24_03h35.13.247,kallum_motion_pilot,2023.1.2,Win32,60.0060006,64d657844666f2cadd27d420,656018846682f3df8008bb8f,656019d193b4b7b965a4edf0,1,160,322,119,1,eightseven,,,,,,,,,,,,,,,,,,,,,,,,,,,,,,,,,,,,,,,,,,,,,,,,,,,,,,,,,,,,,,,,,,,,,,,,,,,,,,,,,,,,,
64d657844666f2cadd27d420,2023-11-24_03h35.13.247,kallum_motion_pilot,2023.1.2,Win32,60.0060006,64d657844666f2cadd27d420,656018846682f3df8008bb8f,656019d193b4b7b965a4edf0,1,161,323,28,1,threeone,,,,,,,,,,,,,,,,,,,,,,,,,,,,,,,,,,,,,,,,,,,,,,,,,,,,,,,,,,,,,,,,,,,,,,,,,,,,,,,,,,,,,
64d657844666f2cadd27d420,2023-11-24_03h35.13.247,kallum_motion_pilot,2023.1.2,Win32,60.0060006,64d657844666f2cadd27d420,656018846682f3df8008bb8f,656019d193b4b7b965a4edf0,2,0,324,50,1,twoone,,,,,,,,,,,,,,,,,,,,,,,,,,,,,,,,,,,,,,,,,,,,,,,,,,,,,,,,,,,,,,,,,,,,,,,,,,,,,,,,,,,,,
64d657844666f2cadd27d420,2023-11-24_03h35.13.247,kallum_motion_pilot,2023.1.2,Win32,60.0060006,64d657844666f2cadd27d420,656018846682f3df8008bb8f,656019d193b4b7b965a4edf0,2,1,325,114,1,sixfive,,,,,,,,,,,,,,,,,,,,,,,,,,,,,,,,,,,,,,,,,,,,,,,,,,,,,,,,,,,,,,,,,,,,,,,,,,,,,,,,,,,,,
64d657844666f2cadd27d420,2023-11-24_03h35.13.247,kallum_motion_pilot,2023.1.2,Win32,60.0060006,64d657844666f2cadd27d420,656018846682f3df8008bb8f,656019d193b4b7b965a4edf0,2,2,326,122,1,sixfive,,,,,,,,,,,,,,,,,,,,,,,,,,,,,,,,,,,,,,,,,,,,,,,,,,,,,,,,,,,,,,,,,,,,,,,,,,,,,,,,,,,,,
64d657844666f2cadd27d420,2023-11-24_03h35.13.247,kallum_motion_pilot,2023.1.2,Win32,60.0060006,64d657844666f2cadd27d420,656018846682f3df8008bb8f,656019d193b4b7b965a4edf0,2,3,327,88,1,fivesix,,,,,,,,,,,,,,,,,,,,,,,,,,,,,,,,,,,,,,,,,,,,,,,,,,,,,,,,,,,,,,,,,,,,,,,,,,,,,,,,,,,,,
64d657844666f2cadd27d420,2023-11-24_03h35.13.247,kallum_motion_pilot,2023.1.2,Win32,60.0060006,64d657844666f2cadd27d420,656018846682f3df8008bb8f,656019d193b4b7b965a4edf0,2,4,328,2,1,twoone,,,,,,,,,,,,,,,,,,,,,,,,,,,,,,,,,,,,,,,,,,,,,,,,,,,,,,,,,,,,,,,,,,,,,,,,,,,,,,,,,,,,,
64d657844666f2cadd27d420,2023-11-24_03h35.13.247,kallum_motion_pilot,2023.1.2,Win32,60.0060006,64d657844666f2cadd27d420,656018846682f3df8008bb8f,656019d193b4b7b965a4edf0,2,5,329,115,1,sixeight,,,,,,,,,,,,,,,,,,,,,,,,,,,,,,,,,,,,,,,,,,,,,,,,,,,,,,,,,,,,,,,,,,,,,,,,,,,,,,,,,,,,,
64d657844666f2cadd27d420,2023-11-24_03h35.13.247,kallum_motion_pilot,2023.1.2,Win32,60.0060006,64d657844666f2cadd27d420,656018846682f3df8008bb8f,656019d193b4b7b965a4edf0,2,6,330,75,1,twofour,,,,,,,,,,,,,,,,,,,,,,,,,,,,,,,,,,,,,,,,,,,,,,,,,,,,,,,,,,,,,,,,,,,,,,,,,,,,,,,,,,,,,
64d657844666f2cadd27d420,2023-11-24_03h35.13.247,kallum_motion_pilot,2023.1.2,Win32,60.0060006,64d657844666f2cadd27d420,656018846682f3df8008bb8f,656019d193b4b7b965a4edf0,2,7,331,47,1,fourthree,,,,,,,,,,,,,,,,,,,,,,,,,,,,,,,,,,,,,,,,,,,,,,,,,,,,,,,,,,,,,,,,,,,,,,,,,,,,,,,,,,,,,
64d657844666f2cadd27d420,2023-11-24_03h35.13.247,kallum_motion_pilot,2023.1.2,Win32,60.0060006,64d657844666f2cadd27d420,656018846682f3df8008bb8f,656019d193b4b7b965a4edf0,2,8,332,124,1,sevenfive,,,,,,,,,,,,,,,,,,,,,,,,,,,,,,,,,,,,,,,,,,,,,,,,,,,,,,,,,,,,,,,,,,,,,,,,,,,,,,,,,,,,,
64d657844666f2cadd27d420,2023-11-24_03h35.13.247,kallum_motion_pilot,2023.1.2,Win32,60.0060006,64d657844666f2cadd27d420,656018846682f3df8008bb8f,656019d193b4b7b965a4edf0,2,9,333,132,1,sevenfive,,,,,,,,,,,,,,,,,,,,,,,,,,,,,,,,,,,,,,,,,,,,,,,,,,,,,,,,,,,,,,,,,,,,,,,,,,,,,,,,,,,,,
64d657844666f2cadd27d420,2023-11-24_03h35.13.247,kallum_motion_pilot,2023.1.2,Win32,60.0060006,64d657844666f2cadd27d420,656018846682f3df8008bb8f,656019d193b4b7b965a4edf0,2,10,334,127,1,eightseven,,,,,,,,,,,,,,,,,,,,,,,,,,,,,,,,,,,,,,,,,,,,,,,,,,,,,,,,,,,,,,,,,,,,,,,,,,,,,,,,,,,,,
64d657844666f2cadd27d420,2023-11-24_03h35.13.247,kallum_motion_pilot,2023.1.2,Win32,60.0060006,64d657844666f2cadd27d420,656018846682f3df8008bb8f,656019d193b4b7b965a4edf0,2,11,335,156,1,sevenfive,,,,,,,,,,,,,,,,,,,,,,,,,,,,,,,,,,,,,,,,,,,,,,,,,,,,,,,,,,,,,,,,,,,,,,,,,,,,,,,,,,,,,
64d657844666f2cadd27d420,2023-11-24_03h35.13.247,kallum_motion_pilot,2023.1.2,Win32,60.0060006,64d657844666f2cadd27d420,656018846682f3df8008bb8f,656019d193b4b7b965a4edf0,2,12,336,99,1,sixeight,,,,,,,,,,,,,,,,,,,,,,,,,,,,,,,,,,,,,,,,,,,,,,,,,,,,,,,,,,,,,,,,,,,,,,,,,,,,,,,,,,,,,
64d657844666f2cadd27d420,2023-11-24_03h35.13.247,kallum_motion_pilot,2023.1.2,Win32,60.0060006,64d657844666f2cadd27d420,656018846682f3df8008bb8f,656019d193b4b7b965a4edf0,2,13,337,96,1,fivesix,,,,,,,,,,,,,,,,,,,,,,,,,,,,,,,,,,,,,,,,,,,,,,,,,,,,,,,,,,,,,,,,,,,,,,,,,,,,,,,,,,,,,
64d657844666f2cadd27d420,2023-11-24_03h35.13.247,kallum_motion_pilot,2023.1.2,Win32,60.0060006,64d657844666f2cadd27d420,656018846682f3df8008bb8f,656019d193b4b7b965a4edf0,2,14,338,61,1,threefour,,,,,,,,,,,,,,,,,,,,,,,,,,,,,,,,,,,,,,,,,,,,,,,,,,,,,,,,,,,,,,,,,,,,,,,,,,,,,,,,,,,,,
64d657844666f2cadd27d420,2023-11-24_03h35.13.247,kallum_motion_pilot,2023.1.2,Win32,60.0060006,64d657844666f2cadd27d420,656018846682f3df8008bb8f,656019d193b4b7b965a4edf0,2,15,339,79,1,eightseven,,,,,,,,,,,,,,,,,,,,,,,,,,,,,,,,,,,,,,,,,,,,,,,,,,,,,,,,,,,,,,,,,,,,,,,,,,,,,,,,,,,,,
64d657844666f2cadd27d420,2023-11-24_03h35.13.247,kallum_motion_pilot,2023.1.2,Win32,60.0060006,64d657844666f2cadd27d420,656018846682f3df8008bb8f,656019d193b4b7b965a4edf0,2,16,340,133,1,seveneight,,,,,,,,,,,,,,,,,,,,,,,,,,,,,,,,,,,,,,,,,,,,,,,,,,,,,,,,,,,,,,,,,,,,,,,,,,,,,,,,,,,,,
64d657844666f2cadd27d420,2023-11-24_03h35.13.247,kallum_motion_pilot,2023.1.2,Win32,60.0060006,64d657844666f2cadd27d420,656018846682f3df8008bb8f,656019d193b4b7b965a4edf0,2,17,341,85,1,seveneight,,,,,,,,,,,,,,,,,,,,,,,,,,,,,,,,,,,,,,,,,,,,,,,,,,,,,,,,,,,,,,,,,,,,,,,,,,,,,,,,,,,,,
64d657844666f2cadd27d420,2023-11-24_03h35.13.247,kallum_motion_pilot,2023.1.2,Win32,60.0060006,64d657844666f2cadd27d420,656018846682f3df8008bb8f,656019d193b4b7b965a4edf0,2,18,342,140,1,sevenfive,,,,,,,,,,,,,,,,,,,,,,,,,,,,,,,,,,,,,,,,,,,,,,,,,,,,,,,,,,,,,,,,,,,,,,,,,,,,,,,,,,,,,
64d657844666f2cadd27d420,2023-11-24_03h35.13.247,kallum_motion_pilot,2023.1.2,Win32,60.0060006,64d657844666f2cadd27d420,656018846682f3df8008bb8f,656019d193b4b7b965a4edf0,2,19,343,110,1,eightsix,,,,,,,,,,,,,,,,,,,,,,,,,,,,,,,,,,,,,,,,,,,,,,,,,,,,,,,,,,,,,,,,,,,,,,,,,,,,,,,,,,,,,
64d657844666f2cadd27d420,2023-11-24_03h35.13.247,kallum_motion_pilot,2023.1.2,Win32,60.0060006,64d657844666f2cadd27d420,656018846682f3df8008bb8f,656019d193b4b7b965a4edf0,2,20,344,43,1,twofour,,,,,,,,,,,,,,,,,,,,,,,,,,,,,,,,,,,,,,,,,,,,,,,,,,,,,,,,,,,,,,,,,,,,,,,,,,,,,,,,,,,,,
64d657844666f2cadd27d420,2023-11-24_03h35.13.247,kallum_motion_pilot,2023.1.2,Win32,60.0060006,64d657844666f2cadd27d420,656018846682f3df8008bb8f,656019d193b4b7b965a4edf0,2,21,345,101,1,seveneight,,,,,,,,,,,,,,,,,,,,,,,,,,,,,,,,,,,,,,,,,,,,,,,,,,,,,,,,,,,,,,,,,,,,,,,,,,,,,,,,,,,,,
64d657844666f2cadd27d420,2023-11-24_03h35.13.247,kallum_motion_pilot,2023.1.2,Win32,60.0060006,64d657844666f2cadd27d420,656018846682f3df8008bb8f,656019d193b4b7b965a4edf0,2,22,346,82,1,sixfive,,,,,,,,,,,,,,,,,,,,,,,,,,,,,,,,,,,,,,,,,,,,,,,,,,,,,,,,,,,,,,,,,,,,,,,,,,,,,,,,,,,,,
64d657844666f2cadd27d420,2023-11-24_03h35.13.247,kallum_motion_pilot,2023.1.2,Win32,60.0060006,64d657844666f2cadd27d420,656018846682f3df8008bb8f,656019d193b4b7b965a4edf0,2,23,347,126,1,eightsix,,,,,,,,,,,,,,,,,,,,,,,,,,,,,,,,,,,,,,,,,,,,,,,,,,,,,,,,,,,,,,,,,,,,,,,,,,,,,,,,,,,,,
64d657844666f2cadd27d420,2023-11-24_03h35.13.247,kallum_motion_pilot,2023.1.2,Win32,60.0060006,64d657844666f2cadd27d420,656018846682f3df8008bb8f,656019d193b4b7b965a4edf0,2,24,348,13,1,threefour,,,,,,,,,,,,,,,,,,,,,,,,,,,,,,,,,,,,,,,,,,,,,,,,,,,,,,,,,,,,,,,,,,,,,,,,,,,,,,,,,,,,,
64d657844666f2cadd27d420,2023-11-24_03h35.13.247,kallum_motion_pilot,2023.1.2,Win32,60.0060006,64d657844666f2cadd27d420,656018846682f3df8008bb8f,656019d193b4b7b965a4edf0,2,25,349,58,1,twoone,,,,,,,,,,,,,,,,,,,,,,,,,,,,,,,,,,,,,,,,,,,,,,,,,,,,,,,,,,,,,,,,,,,,,,,,,,,,,,,,,,,,,
64d657844666f2cadd27d420,2023-11-24_03h35.13.247,kallum_motion_pilot,2023.1.2,Win32,60.0060006,64d657844666f2cadd27d420,656018846682f3df8008bb8f,656019d193b4b7b965a4edf0,2,26,350,151,1,eightseven,,,,,,,,,,,,,,,,,,,,,,,,,,,,,,,,,,,,,,,,,,,,,,,,,,,,,,,,,,,,,,,,,,,,,,,,,,,,,,,,,,,,,
64d657844666f2cadd27d420,2023-11-24_03h35.13.247,kallum_motion_pilot,2023.1.2,Win32,60.0060006,64d657844666f2cadd27d420,656018846682f3df8008bb8f,656019d193b4b7b965a4edf0,2,27,351,157,1,seveneight,,,,,,,,,,,,,,,,,,,,,,,,,,,,,,,,,,,,,,,,,,,,,,,,,,,,,,,,,,,,,,,,,,,,,,,,,,,,,,,,,,,,,
