Prolific_ID*,date,expName,psychopyVersion,OS,frameRate,PROLIFIC_PID,STUDY_ID,SESSION_ID,hardcoded_stimulus_positions.thisRepN,hardcoded_stimulus_positions.thisTrialN,hardcoded_stimulus_positions.thisN,hardcoded_stimulus_positions.thisIndex,hardcoded_stimulus_positions.ran,StimulusPos,prac_stimorientation_import_loop.thisRepN,prac_stimorientation_import_loop.thisTrialN,prac_stimorientation_import_loop.thisN,prac_stimorientation_import_loop.thisIndex,prac_stimorientation_import_loop.ran,Stimorientation,key_resp.keys,key_resp.rt,key_resp_20.keys,key_resp_20.rt,key_resp_19.keys,key_resp_19.rt,key_resp_15.keys,key_resp_15.rt,key_resp_9.keys,key_resp_9.rt,key_resp_10.keys,key_resp_10.rt,Ecc,Circle1_ori,Circle2_ori,similarity,response_time,mouse_5.x,mouse_5.y,mouse_5.leftButton,mouse_5.midButton,mouse_5.rightButton,mouse_5.clicked_name,mouse_6.x,mouse_6.y,mouse_6.leftButton,mouse_6.midButton,mouse_6.rightButton,mouse_6.clicked_name,duringprac.thisRepN,duringprac.thisTrialN,duringprac.thisN,duringprac.thisIndex,duringprac.ran,key_resp_22.keys,key_resp_22.rt,circle1_ori,circle2_ori,mouse.x,mouse.y,mouse.leftButton,mouse.midButton,mouse.rightButton,mouse.clicked_name,mouse_2.x,mouse_2.y,mouse_2.leftButton,mouse_2.midButton,mouse_2.rightButton,mouse_2.clicked_name,mouse_3.x,mouse_3.y,mouse_3.leftButton,mouse_3.midButton,mouse_3.rightButton,catchresponse,catchnumber,response_time_catch,Catch,mouse_11.x,mouse_11.y,mouse_11.leftButton,mouse_11.midButton,mouse_11.rightButton,main_trial.thisRepN,main_trial.thisTrialN,main_trial.thisN,main_trial.thisIndex,main_trial.ran,Orientationtrialno,xcircle1_ori,xcircle2_ori,double_pass.thisRepN,double_pass.thisTrialN,double_pass.thisN,double_pass.thisIndex,double_pass.ran,key_resp_3.keys,key_resp_3.rt
60be17bce1456e0796cde161,2023-11-24_05h35.16.425,kallum_motion_pilot,2023.1.2,Win32,60.02040694,60be17bce1456e0796cde161,656018846682f3df8008bb8f,656019cfd64dc15b69ecefcf,,,,,,,,,,,,,,,,,,,,,,,,,,,,,,,,,,,,,,,,,,,,,,,,,,,,,,,,,,,,,,,,,,,,,,,,,,,,,,,,,,,,,,,,,,,
60be17bce1456e0796cde161,2023-11-24_05h35.16.425,kallum_motion_pilot,2023.1.2,Win32,60.02040694,60be17bce1456e0796cde161,656018846682f3df8008bb8f,656019cfd64dc15b69ecefcf,0,0,0,21,1,threefour,,,,,,,,,,,,,,,,,,,,,,,,,,,,,,,,,,,,,,,,,,,,,,,,,,,,,,,,,,,,,,,,,,,,,,,,,,,,,,,,,,,,,
60be17bce1456e0796cde161,2023-11-24_05h35.16.425,kallum_motion_pilot,2023.1.2,Win32,60.02040694,60be17bce1456e0796cde161,656018846682f3df8008bb8f,656019cfd64dc15b69ecefcf,0,1,1,25,1,onethree,,,,,,,,,,,,,,,,,,,,,,,,,,,,,,,,,,,,,,,,,,,,,,,,,,,,,,,,,,,,,,,,,,,,,,,,,,,,,,,,,,,,,
60be17bce1456e0796cde161,2023-11-24_05h35.16.425,kallum_motion_pilot,2023.1.2,Win32,60.02040694,60be17bce1456e0796cde161,656018846682f3df8008bb8f,656019cfd64dc15b69ecefcf,0,2,2,154,1,sixfive,,,,,,,,,,,,,,,,,,,,,,,,,,,,,,,,,,,,,,,,,,,,,,,,,,,,,,,,,,,,,,,,,,,,,,,,,,,,,,,,,,,,,
60be17bce1456e0796cde161,2023-11-24_05h35.16.425,kallum_motion_pilot,2023.1.2,Win32,60.02040694,60be17bce1456e0796cde161,656018846682f3df8008bb8f,656019cfd64dc15b69ecefcf,0,3,3,62,1,fourtwo,,,,,,,,,,,,,,,,,,,,,,,,,,,,,,,,,,,,,,,,,,,,,,,,,,,,,,,,,,,,,,,,,,,,,,,,,,,,,,,,,,,,,
60be17bce1456e0796cde161,2023-11-24_05h35.16.425,kallum_motion_pilot,2023.1.2,Win32,60.02040694,60be17bce1456e0796cde161,656018846682f3df8008bb8f,656019cfd64dc15b69ecefcf,0,4,4,67,1,twofour,,,,,,,,,,,,,,,,,,,,,,,,,,,,,,,,,,,,,,,,,,,,,,,,,,,,,,,,,,,,,,,,,,,,,,,,,,,,,,,,,,,,,
60be17bce1456e0796cde161,2023-11-24_05h35.16.425,kallum_motion_pilot,2023.1.2,Win32,60.02040694,60be17bce1456e0796cde161,656018846682f3df8008bb8f,656019cfd64dc15b69ecefcf,0,5,5,53,1,threefour,,,,,,,,,,,,,,,,,,,,,,,,,,,,,,,,,,,,,,,,,,,,,,,,,,,,,,,,,,,,,,,,,,,,,,,,,,,,,,,,,,,,,
60be17bce1456e0796cde161,2023-11-24_05h35.16.425,kallum_motion_pilot,2023.1.2,Win32,60.02040694,60be17bce1456e0796cde161,656018846682f3df8008bb8f,656019cfd64dc15b69ecefcf,0,6,6,92,1,sevenfive,,,,,,,,,,,,,,,,,,,,,,,,,,,,,,,,,,,,,,,,,,,,,,,,,,,,,,,,,,,,,,,,,,,,,,,,,,,,,,,,,,,,,
60be17bce1456e0796cde161,2023-11-24_05h35.16.425,kallum_motion_pilot,2023.1.2,Win32,60.02040694,60be17bce1456e0796cde161,656018846682f3df8008bb8f,656019cfd64dc15b69ecefcf,0,7,7,143,1,eightseven,,,,,,,,,,,,,,,,,,,,,,,,,,,,,,,,,,,,,,,,,,,,,,,,,,,,,,,,,,,,,,,,,,,,,,,,,,,,,,,,,,,,,
60be17bce1456e0796cde161,2023-11-24_05h35.16.425,kallum_motion_pilot,2023.1.2,Win32,60.02040694,60be17bce1456e0796cde161,656018846682f3df8008bb8f,656019cfd64dc15b69ecefcf,0,8,8,87,1,eightseven,,,,,,,,,,,,,,,,,,,,,,,,,,,,,,,,,,,,,,,,,,,,,,,,,,,,,,,,,,,,,,,,,,,,,,,,,,,,,,,,,,,,,
60be17bce1456e0796cde161,2023-11-24_05h35.16.425,kallum_motion_pilot,2023.1.2,Win32,60.02040694,60be17bce1456e0796cde161,656018846682f3df8008bb8f,656019cfd64dc15b69ecefcf,0,9,9,47,1,fourthree,,,,,,,,,,,,,,,,,,,,,,,,,,,,,,,,,,,,,,,,,,,,,,,,,,,,,,,,,,,,,,,,,,,,,,,,,,,,,,,,,,,,,
60be17bce1456e0796cde161,2023-11-24_05h35.16.425,kallum_motion_pilot,2023.1.2,Win32,60.02040694,60be17bce1456e0796cde161,656018846682f3df8008bb8f,656019cfd64dc15b69ecefcf,0,10,10,49,1,onethree,,,,,,,,,,,,,,,,,,,,,,,,,,,,,,,,,,,,,,,,,,,,,,,,,,,,,,,,,,,,,,,,,,,,,,,,,,,,,,,,,,,,,
60be17bce1456e0796cde161,2023-11-24_05h35.16.425,kallum_motion_pilot,2023.1.2,Win32,60.02040694,60be17bce1456e0796cde161,656018846682f3df8008bb8f,656019cfd64dc15b69ecefcf,0,11,11,20,1,threeone,,,,,,,,,,,,,,,,,,,,,,,,,,,,,,,,,,,,,,,,,,,,,,,,,,,,,,,,,,,,,,,,,,,,,,,,,,,,,,,,,,,,,
60be17bce1456e0796cde161,2023-11-24_05h35.16.425,kallum_motion_pilot,2023.1.2,Win32,60.02040694,60be17bce1456e0796cde161,656018846682f3df8008bb8f,656019cfd64dc15b69ecefcf,0,12,12,142,1,eightsix,,,,,,,,,,,,,,,,,,,,,,,,,,,,,,,,,,,,,,,,,,,,,,,,,,,,,,,,,,,,,,,,,,,,,,,,,,,,,,,,,,,,,
60be17bce1456e0796cde161,2023-11-24_05h35.16.425,kallum_motion_pilot,2023.1.2,Win32,60.02040694,60be17bce1456e0796cde161,656018846682f3df8008bb8f,656019cfd64dc15b69ecefcf,0,13,13,115,1,sixeight,,,,,,,,,,,,,,,,,,,,,,,,,,,,,,,,,,,,,,,,,,,,,,,,,,,,,,,,,,,,,,,,,,,,,,,,,,,,,,,,,,,,,
60be17bce1456e0796cde161,2023-11-24_05h35.16.425,kallum_motion_pilot,2023.1.2,Win32,60.02040694,60be17bce1456e0796cde161,656018846682f3df8008bb8f,656019cfd64dc15b69ecefcf,0,14,14,19,1,twofour,,,,,,,,,,,,,,,,,,,,,,,,,,,,,,,,,,,,,,,,,,,,,,,,,,,,,,,,,,,,,,,,,,,,,,,,,,,,,,,,,,,,,
60be17bce1456e0796cde161,2023-11-24_05h35.16.425,kallum_motion_pilot,2023.1.2,Win32,60.02040694,60be17bce1456e0796cde161,656018846682f3df8008bb8f,656019cfd64dc15b69ecefcf,0,15,15,125,1,seveneight,,,,,,,,,,,,,,,,,,,,,,,,,,,,,,,,,,,,,,,,,,,,,,,,,,,,,,,,,,,,,,,,,,,,,,,,,,,,,,,,,,,,,
60be17bce1456e0796cde161,2023-11-24_05h35.16.425,kallum_motion_pilot,2023.1.2,Win32,60.02040694,60be17bce1456e0796cde161,656018846682f3df8008bb8f,656019cfd64dc15b69ecefcf,0,16,16,116,1,sevenfive,,,,,,,,,,,,,,,,,,,,,,,,,,,,,,,,,,,,,,,,,,,,,,,,,,,,,,,,,,,,,,,,,,,,,,,,,,,,,,,,,,,,,
60be17bce1456e0796cde161,2023-11-24_05h35.16.425,kallum_motion_pilot,2023.1.2,Win32,60.02040694,60be17bce1456e0796cde161,656018846682f3df8008bb8f,656019cfd64dc15b69ecefcf,0,17,17,18,1,twoone,,,,,,,,,,,,,,,,,,,,,,,,,,,,,,,,,,,,,,,,,,,,,,,,,,,,,,,,,,,,,,,,,,,,,,,,,,,,,,,,,,,,,
60be17bce1456e0796cde161,2023-11-24_05h35.16.425,kallum_motion_pilot,2023.1.2,Win32,60.02040694,60be17bce1456e0796cde161,656018846682f3df8008bb8f,656019cfd64dc15b69ecefcf,0,18,18,41,1,onethree,,,,,,,,,,,,,,,,,,,,,,,,,,,,,,,,,,,,,,,,,,,,,,,,,,,,,,,,,,,,,,,,,,,,,,,,,,,,,,,,,,,,,
60be17bce1456e0796cde161,2023-11-24_05h35.16.425,kallum_motion_pilot,2023.1.2,Win32,60.02040694,60be17bce1456e0796cde161,656018846682f3df8008bb8f,656019cfd64dc15b69ecefcf,0,19,19,146,1,sixfive,,,,,,,,,,,,,,,,,,,,,,,,,,,,,,,,,,,,,,,,,,,,,,,,,,,,,,,,,,,,,,,,,,,,,,,,,,,,,,,,,,,,,
60be17bce1456e0796cde161,2023-11-24_05h35.16.425,kallum_motion_pilot,2023.1.2,Win32,60.02040694,60be17bce1456e0796cde161,656018846682f3df8008bb8f,656019cfd64dc15b69ecefcf,0,20,20,86,1,eightsix,,,,,,,,,,,,,,,,,,,,,,,,,,,,,,,,,,,,,,,,,,,,,,,,,,,,,,,,,,,,,,,,,,,,,,,,,,,,,,,,,,,,,
60be17bce1456e0796cde161,2023-11-24_05h35.16.425,kallum_motion_pilot,2023.1.2,Win32,60.02040694,60be17bce1456e0796cde161,656018846682f3df8008bb8f,656019cfd64dc15b69ecefcf,0,21,21,27,1,twofour,,,,,,,,,,,,,,,,,,,,,,,,,,,,,,,,,,,,,,,,,,,,,,,,,,,,,,,,,,,,,,,,,,,,,,,,,,,,,,,,,,,,,
60be17bce1456e0796cde161,2023-11-24_05h35.16.425,kallum_motion_pilot,2023.1.2,Win32,60.02040694,60be17bce1456e0796cde161,656018846682f3df8008bb8f,656019cfd64dc15b69ecefcf,0,22,22,85,1,seveneight,,,,,,,,,,,,,,,,,,,,,,,,,,,,,,,,,,,,,,,,,,,,,,,,,,,,,,,,,,,,,,,,,,,,,,,,,,,,,,,,,,,,,
60be17bce1456e0796cde161,2023-11-24_05h35.16.425,kallum_motion_pilot,2023.1.2,Win32,60.02040694,60be17bce1456e0796cde161,656018846682f3df8008bb8f,656019cfd64dc15b69ecefcf,0,23,23,123,1,sixeight,,,,,,,,,,,,,,,,,,,,,,,,,,,,,,,,,,,,,,,,,,,,,,,,,,,,,,,,,,,,,,,,,,,,,,,,,,,,,,,,,,,,,
60be17bce1456e0796cde161,2023-11-24_05h35.16.425,kallum_motion_pilot,2023.1.2,Win32,60.02040694,60be17bce1456e0796cde161,656018846682f3df8008bb8f,656019cfd64dc15b69ecefcf,0,24,24,134,1,eightsix,,,,,,,,,,,,,,,,,,,,,,,,,,,,,,,,,,,,,,,,,,,,,,,,,,,,,,,,,,,,,,,,,,,,,,,,,,,,,,,,,,,,,
60be17bce1456e0796cde161,2023-11-24_05h35.16.425,kallum_motion_pilot,2023.1.2,Win32,60.02040694,60be17bce1456e0796cde161,656018846682f3df8008bb8f,656019cfd64dc15b69ecefcf,0,25,25,59,1,twofour,,,,,,,,,,,,,,,,,,,,,,,,,,,,,,,,,,,,,,,,,,,,,,,,,,,,,,,,,,,,,,,,,,,,,,,,,,,,,,,,,,,,,
60be17bce1456e0796cde161,2023-11-24_05h35.16.425,kallum_motion_pilot,2023.1.2,Win32,60.02040694,60be17bce1456e0796cde161,656018846682f3df8008bb8f,656019cfd64dc15b69ecefcf,0,26,26,90,1,sixfive,,,,,,,,,,,,,,,,,,,,,,,,,,,,,,,,,,,,,,,,,,,,,,,,,,,,,,,,,,,,,,,,,,,,,,,,,,,,,,,,,,,,,
60be17bce1456e0796cde161,2023-11-24_05h35.16.425,kallum_motion_pilot,2023.1.2,Win32,60.02040694,60be17bce1456e0796cde161,656018846682f3df8008bb8f,656019cfd64dc15b69ecefcf,0,27,27,16,1,onetwo,,,,,,,,,,,,,,,,,,,,,,,,,,,,,,,,,,,,,,,,,,,,,,,,,,,,,,,,,,,,,,,,,,,,,,,,,,,,,,,,,,,,,
60be17bce1456e0796cde161,2023-11-24_05h35.16.425,kallum_motion_pilot,2023.1.2,Win32,60.02040694,60be17bce1456e0796cde161,656018846682f3df8008bb8f,656019cfd64dc15b69ecefcf,0,28,28,3,1,twofour,,,,,,,,,,,,,,,,,,,,,,,,,,,,,,,,,,,,,,,,,,,,,,,,,,,,,,,,,,,,,,,,,,,,,,,,,,,,,,,,,,,,,
60be17bce1456e0796cde161,2023-11-24_05h35.16.425,kallum_motion_pilot,2023.1.2,Win32,60.02040694,60be17bce1456e0796cde161,656018846682f3df8008bb8f,656019cfd64dc15b69ecefcf,0,29,29,132,1,sevenfive,,,,,,,,,,,,,,,,,,,,,,,,,,,,,,,,,,,,,,,,,,,,,,,,,,,,,,,,,,,,,,,,,,,,,,,,,,,,,,,,,,,,,
60be17bce1456e0796cde161,2023-11-24_05h35.16.425,kallum_motion_pilot,2023.1.2,Win32,60.02040694,60be17bce1456e0796cde161,656018846682f3df8008bb8f,656019cfd64dc15b69ecefcf,0,30,30,46,1,fourtwo,,,,,,,,,,,,,,,,,,,,,,,,,,,,,,,,,,,,,,,,,,,,,,,,,,,,,,,,,,,,,,,,,,,,,,,,,,,,,,,,,,,,,
60be17bce1456e0796cde161,2023-11-24_05h35.16.425,kallum_motion_pilot,2023.1.2,Win32,60.02040694,60be17bce1456e0796cde161,656018846682f3df8008bb8f,656019cfd64dc15b69ecefcf,0,31,31,100,1,sevenfive,,,,,,,,,,,,,,,,,,,,,,,,,,,,,,,,,,,,,,,,,,,,,,,,,,,,,,,,,,,,,,,,,,,,,,,,,,,,,,,,,,,,,
60be17bce1456e0796cde161,2023-11-24_05h35.16.425,kallum_motion_pilot,2023.1.2,Win32,60.02040694,60be17bce1456e0796cde161,656018846682f3df8008bb8f,656019cfd64dc15b69ecefcf,0,32,32,126,1,eightsix,,,,,,,,,,,,,,,,,,,,,,,,,,,,,,,,,,,,,,,,,,,,,,,,,,,,,,,,,,,,,,,,,,,,,,,,,,,,,,,,,,,,,
60be17bce1456e0796cde161,2023-11-24_05h35.16.425,kallum_motion_pilot,2023.1.2,Win32,60.02040694,60be17bce1456e0796cde161,656018846682f3df8008bb8f,656019cfd64dc15b69ecefcf,0,33,33,120,1,fivesix,,,,,,,,,,,,,,,,,,,,,,,,,,,,,,,,,,,,,,,,,,,,,,,,,,,,,,,,,,,,,,,,,,,,,,,,,,,,,,,,,,,,,
60be17bce1456e0796cde161,2023-11-24_05h35.16.425,kallum_motion_pilot,2023.1.2,Win32,60.02040694,60be17bce1456e0796cde161,656018846682f3df8008bb8f,656019cfd64dc15b69ecefcf,0,34,34,13,1,threefour,,,,,,,,,,,,,,,,,,,,,,,,,,,,,,,,,,,,,,,,,,,,,,,,,,,,,,,,,,,,,,,,,,,,,,,,,,,,,,,,,,,,,
60be17bce1456e0796cde161,2023-11-24_05h35.16.425,kallum_motion_pilot,2023.1.2,Win32,60.02040694,60be17bce1456e0796cde161,656018846682f3df8008bb8f,656019cfd64dc15b69ecefcf,0,35,35,48,1,onetwo,,,,,,,,,,,,,,,,,,,,,,,,,,,,,,,,,,,,,,,,,,,,,,,,,,,,,,,,,,,,,,,,,,,,,,,,,,,,,,,,,,,,,
60be17bce1456e0796cde161,2023-11-24_05h35.16.425,kallum_motion_pilot,2023.1.2,Win32,60.02040694,60be17bce1456e0796cde161,656018846682f3df8008bb8f,656019cfd64dc15b69ecefcf,0,36,36,60,1,threeone,,,,,,,,,,,,,,,,,,,,,,,,,,,,,,,,,,,,,,,,,,,,,,,,,,,,,,,,,,,,,,,,,,,,,,,,,,,,,,,,,,,,,
60be17bce1456e0796cde161,2023-11-24_05h35.16.425,kallum_motion_pilot,2023.1.2,Win32,60.02040694,60be17bce1456e0796cde161,656018846682f3df8008bb8f,656019cfd64dc15b69ecefcf,0,37,37,78,1,fourtwo,,,,,,,,,,,,,,,,,,,,,,,,,,,,,,,,,,,,,,,,,,,,,,,,,,,,,,,,,,,,,,,,,,,,,,,,,,,,,,,,,,,,,
60be17bce1456e0796cde161,2023-11-24_05h35.16.425,kallum_motion_pilot,2023.1.2,Win32,60.02040694,60be17bce1456e0796cde161,656018846682f3df8008bb8f,656019cfd64dc15b69ecefcf,0,38,38,69,1,threefour,,,,,,,,,,,,,,,,,,,,,,,,,,,,,,,,,,,,,,,,,,,,,,,,,,,,,,,,,,,,,,,,,,,,,,,,,,,,,,,,,,,,,
60be17bce1456e0796cde161,2023-11-24_05h35.16.425,kallum_motion_pilot,2023.1.2,Win32,60.02040694,60be17bce1456e0796cde161,656018846682f3df8008bb8f,656019cfd64dc15b69ecefcf,0,39,39,80,1,fivesix,,,,,,,,,,,,,,,,,,,,,,,,,,,,,,,,,,,,,,,,,,,,,,,,,,,,,,,,,,,,,,,,,,,,,,,,,,,,,,,,,,,,,
60be17bce1456e0796cde161,2023-11-24_05h35.16.425,kallum_motion_pilot,2023.1.2,Win32,60.02040694,60be17bce1456e0796cde161,656018846682f3df8008bb8f,656019cfd64dc15b69ecefcf,0,40,40,56,1,onetwo,,,,,,,,,,,,,,,,,,,,,,,,,,,,,,,,,,,,,,,,,,,,,,,,,,,,,,,,,,,,,,,,,,,,,,,,,,,,,,,,,,,,,
60be17bce1456e0796cde161,2023-11-24_05h35.16.425,kallum_motion_pilot,2023.1.2,Win32,60.02040694,60be17bce1456e0796cde161,656018846682f3df8008bb8f,656019cfd64dc15b69ecefcf,0,41,41,158,1,eightsix,,,,,,,,,,,,,,,,,,,,,,,,,,,,,,,,,,,,,,,,,,,,,,,,,,,,,,,,,,,,,,,,,,,,,,,,,,,,,,,,,,,,,
60be17bce1456e0796cde161,2023-11-24_05h35.16.425,kallum_motion_pilot,2023.1.2,Win32,60.02040694,60be17bce1456e0796cde161,656018846682f3df8008bb8f,656019cfd64dc15b69ecefcf,0,42,42,71,1,fourthree,,,,,,,,,,,,,,,,,,,,,,,,,,,,,,,,,,,,,,,,,,,,,,,,,,,,,,,,,,,,,,,,,,,,,,,,,,,,,,,,,,,,,
60be17bce1456e0796cde161,2023-11-24_05h35.16.425,kallum_motion_pilot,2023.1.2,Win32,60.02040694,60be17bce1456e0796cde161,656018846682f3df8008bb8f,656019cfd64dc15b69ecefcf,0,43,43,33,1,onethree,,,,,,,,,,,,,,,,,,,,,,,,,,,,,,,,,,,,,,,,,,,,,,,,,,,,,,,,,,,,,,,,,,,,,,,,,,,,,,,,,,,,,
60be17bce1456e0796cde161,2023-11-24_05h35.16.425,kallum_motion_pilot,2023.1.2,Win32,60.02040694,60be17bce1456e0796cde161,656018846682f3df8008bb8f,656019cfd64dc15b69ecefcf,0,44,44,61,1,threefour,,,,,,,,,,,,,,,,,,,,,,,,,,,,,,,,,,,,,,,,,,,,,,,,,,,,,,,,,,,,,,,,,,,,,,,,,,,,,,,,,,,,,
60be17bce1456e0796cde161,2023-11-24_05h35.16.425,kallum_motion_pilot,2023.1.2,Win32,60.02040694,60be17bce1456e0796cde161,656018846682f3df8008bb8f,656019cfd64dc15b69ecefcf,0,45,45,36,1,threeone,,,,,,,,,,,,,,,,,,,,,,,,,,,,,,,,,,,,,,,,,,,,,,,,,,,,,,,,,,,,,,,,,,,,,,,,,,,,,,,,,,,,,
60be17bce1456e0796cde161,2023-11-24_05h35.16.425,kallum_motion_pilot,2023.1.2,Win32,60.02040694,60be17bce1456e0796cde161,656018846682f3df8008bb8f,656019cfd64dc15b69ecefcf,0,46,46,77,1,threefour,,,,,,,,,,,,,,,,,,,,,,,,,,,,,,,,,,,,,,,,,,,,,,,,,,,,,,,,,,,,,,,,,,,,,,,,,,,,,,,,,,,,,
60be17bce1456e0796cde161,2023-11-24_05h35.16.425,kallum_motion_pilot,2023.1.2,Win32,60.02040694,60be17bce1456e0796cde161,656018846682f3df8008bb8f,656019cfd64dc15b69ecefcf,0,47,47,135,1,eightseven,,,,,,,,,,,,,,,,,,,,,,,,,,,,,,,,,,,,,,,,,,,,,,,,,,,,,,,,,,,,,,,,,,,,,,,,,,,,,,,,,,,,,
60be17bce1456e0796cde161,2023-11-24_05h35.16.425,kallum_motion_pilot,2023.1.2,Win32,60.02040694,60be17bce1456e0796cde161,656018846682f3df8008bb8f,656019cfd64dc15b69ecefcf,0,48,48,11,1,twofour,,,,,,,,,,,,,,,,,,,,,,,,,,,,,,,,,,,,,,,,,,,,,,,,,,,,,,,,,,,,,,,,,,,,,,,,,,,,,,,,,,,,,
60be17bce1456e0796cde161,2023-11-24_05h35.16.425,kallum_motion_pilot,2023.1.2,Win32,60.02040694,60be17bce1456e0796cde161,656018846682f3df8008bb8f,656019cfd64dc15b69ecefcf,0,49,49,153,1,fiveseven,,,,,,,,,,,,,,,,,,,,,,,,,,,,,,,,,,,,,,,,,,,,,,,,,,,,,,,,,,,,,,,,,,,,,,,,,,,,,,,,,,,,,
60be17bce1456e0796cde161,2023-11-24_05h35.16.425,kallum_motion_pilot,2023.1.2,Win32,60.02040694,60be17bce1456e0796cde161,656018846682f3df8008bb8f,656019cfd64dc15b69ecefcf,0,50,50,89,1,fiveseven,,,,,,,,,,,,,,,,,,,,,,,,,,,,,,,,,,,,,,,,,,,,,,,,,,,,,,,,,,,,,,,,,,,,,,,,,,,,,,,,,,,,,
60be17bce1456e0796cde161,2023-11-24_05h35.16.425,kallum_motion_pilot,2023.1.2,Win32,60.02040694,60be17bce1456e0796cde161,656018846682f3df8008bb8f,656019cfd64dc15b69ecefcf,0,51,51,79,1,eightseven,,,,,,,,,,,,,,,,,,,,,,,,,,,,,,,,,,,,,,,,,,,,,,,,,,,,,,,,,,,,,,,,,,,,,,,,,,,,,,,,,,,,,
60be17bce1456e0796cde161,2023-11-24_05h35.16.425,kallum_motion_pilot,2023.1.2,Win32,60.02040694,60be17bce1456e0796cde161,656018846682f3df8008bb8f,656019cfd64dc15b69ecefcf,0,52,52,64,1,onetwo,,,,,,,,,,,,,,,,,,,,,,,,,,,,,,,,,,,,,,,,,,,,,,,,,,,,,,,,,,,,,,,,,,,,,,,,,,,,,,,,,,,,,
60be17bce1456e0796cde161,2023-11-24_05h35.16.425,kallum_motion_pilot,2023.1.2,Win32,60.02040694,60be17bce1456e0796cde161,656018846682f3df8008bb8f,656019cfd64dc15b69ecefcf,0,53,53,156,1,sevenfive,,,,,,,,,,,,,,,,,,,,,,,,,,,,,,,,,,,,,,,,,,,,,,,,,,,,,,,,,,,,,,,,,,,,,,,,,,,,,,,,,,,,,
60be17bce1456e0796cde161,2023-11-24_05h35.16.425,kallum_motion_pilot,2023.1.2,Win32,60.02040694,60be17bce1456e0796cde161,656018846682f3df8008bb8f,656019cfd64dc15b69ecefcf,0,54,54,7,1,fourthree,,,,,,,,,,,,,,,,,,,,,,,,,,,,,,,,,,,,,,,,,,,,,,,,,,,,,,,,,,,,,,,,,,,,,,,,,,,,,,,,,,,,,
60be17bce1456e0796cde161,2023-11-24_05h35.16.425,kallum_motion_pilot,2023.1.2,Win32,60.02040694,60be17bce1456e0796cde161,656018846682f3df8008bb8f,656019cfd64dc15b69ecefcf,0,55,55,45,1,threefour,,,,,,,,,,,,,,,,,,,,,,,,,,,,,,,,,,,,,,,,,,,,,,,,,,,,,,,,,,,,,,,,,,,,,,,,,,,,,,,,,,,,,
60be17bce1456e0796cde161,2023-11-24_05h35.16.425,kallum_motion_pilot,2023.1.2,Win32,60.02040694,60be17bce1456e0796cde161,656018846682f3df8008bb8f,656019cfd64dc15b69ecefcf,0,56,56,14,1,fourtwo,,,,,,,,,,,,,,,,,,,,,,,,,,,,,,,,,,,,,,,,,,,,,,,,,,,,,,,,,,,,,,,,,,,,,,,,,,,,,,,,,,,,,
60be17bce1456e0796cde161,2023-11-24_05h35.16.425,kallum_motion_pilot,2023.1.2,Win32,60.02040694,60be17bce1456e0796cde161,656018846682f3df8008bb8f,656019cfd64dc15b69ecefcf,0,57,57,70,1,fourtwo,,,,,,,,,,,,,,,,,,,,,,,,,,,,,,,,,,,,,,,,,,,,,,,,,,,,,,,,,,,,,,,,,,,,,,,,,,,,,,,,,,,,,
60be17bce1456e0796cde161,2023-11-24_05h35.16.425,kallum_motion_pilot,2023.1.2,Win32,60.02040694,60be17bce1456e0796cde161,656018846682f3df8008bb8f,656019cfd64dc15b69ecefcf,0,58,58,152,1,fivesix,,,,,,,,,,,,,,,,,,,,,,,,,,,,,,,,,,,,,,,,,,,,,,,,,,,,,,,,,,,,,,,,,,,,,,,,,,,,,,,,,,,,,
60be17bce1456e0796cde161,2023-11-24_05h35.16.425,kallum_motion_pilot,2023.1.2,Win32,60.02040694,60be17bce1456e0796cde161,656018846682f3df8008bb8f,656019cfd64dc15b69ecefcf,0,59,59,34,1,twoone,,,,,,,,,,,,,,,,,,,,,,,,,,,,,,,,,,,,,,,,,,,,,,,,,,,,,,,,,,,,,,,,,,,,,,,,,,,,,,,,,,,,,
60be17bce1456e0796cde161,2023-11-24_05h35.16.425,kallum_motion_pilot,2023.1.2,Win32,60.02040694,60be17bce1456e0796cde161,656018846682f3df8008bb8f,656019cfd64dc15b69ecefcf,0,60,60,42,1,twoone,,,,,,,,,,,,,,,,,,,,,,,,,,,,,,,,,,,,,,,,,,,,,,,,,,,,,,,,,,,,,,,,,,,,,,,,,,,,,,,,,,,,,
60be17bce1456e0796cde161,2023-11-24_05h35.16.425,kallum_motion_pilot,2023.1.2,Win32,60.02040694,60be17bce1456e0796cde161,656018846682f3df8008bb8f,656019cfd64dc15b69ecefcf,0,61,61,84,1,sevenfive,,,,,,,,,,,,,,,,,,,,,,,,,,,,,,,,,,,,,,,,,,,,,,,,,,,,,,,,,,,,,,,,,,,,,,,,,,,,,,,,,,,,,
60be17bce1456e0796cde161,2023-11-24_05h35.16.425,kallum_motion_pilot,2023.1.2,Win32,60.02040694,60be17bce1456e0796cde161,656018846682f3df8008bb8f,656019cfd64dc15b69ecefcf,0,62,62,29,1,threefour,,,,,,,,,,,,,,,,,,,,,,,,,,,,,,,,,,,,,,,,,,,,,,,,,,,,,,,,,,,,,,,,,,,,,,,,,,,,,,,,,,,,,
60be17bce1456e0796cde161,2023-11-24_05h35.16.425,kallum_motion_pilot,2023.1.2,Win32,60.02040694,60be17bce1456e0796cde161,656018846682f3df8008bb8f,656019cfd64dc15b69ecefcf,0,63,63,160,1,fivesix,,,,,,,,,,,,,,,,,,,,,,,,,,,,,,,,,,,,,,,,,,,,,,,,,,,,,,,,,,,,,,,,,,,,,,,,,,,,,,,,,,,,,
60be17bce1456e0796cde161,2023-11-24_05h35.16.425,kallum_motion_pilot,2023.1.2,Win32,60.02040694,60be17bce1456e0796cde161,656018846682f3df8008bb8f,656019cfd64dc15b69ecefcf,0,64,64,83,1,sixeight,,,,,,,,,,,,,,,,,,,,,,,,,,,,,,,,,,,,,,,,,,,,,,,,,,,,,,,,,,,,,,,,,,,,,,,,,,,,,,,,,,,,,
60be17bce1456e0796cde161,2023-11-24_05h35.16.425,kallum_motion_pilot,2023.1.2,Win32,60.02040694,60be17bce1456e0796cde161,656018846682f3df8008bb8f,656019cfd64dc15b69ecefcf,0,65,65,35,1,twofour,,,,,,,,,,,,,,,,,,,,,,,,,,,,,,,,,,,,,,,,,,,,,,,,,,,,,,,,,,,,,,,,,,,,,,,,,,,,,,,,,,,,,
60be17bce1456e0796cde161,2023-11-24_05h35.16.425,kallum_motion_pilot,2023.1.2,Win32,60.02040694,60be17bce1456e0796cde161,656018846682f3df8008bb8f,656019cfd64dc15b69ecefcf,0,66,66,131,1,sixeight,,,,,,,,,,,,,,,,,,,,,,,,,,,,,,,,,,,,,,,,,,,,,,,,,,,,,,,,,,,,,,,,,,,,,,,,,,,,,,,,,,,,,
60be17bce1456e0796cde161,2023-11-24_05h35.16.425,kallum_motion_pilot,2023.1.2,Win32,60.02040694,60be17bce1456e0796cde161,656018846682f3df8008bb8f,656019cfd64dc15b69ecefcf,0,67,67,95,1,eightseven,,,,,,,,,,,,,,,,,,,,,,,,,,,,,,,,,,,,,,,,,,,,,,,,,,,,,,,,,,,,,,,,,,,,,,,,,,,,,,,,,,,,,
60be17bce1456e0796cde161,2023-11-24_05h35.16.425,kallum_motion_pilot,2023.1.2,Win32,60.02040694,60be17bce1456e0796cde161,656018846682f3df8008bb8f,656019cfd64dc15b69ecefcf,0,68,68,65,1,onethree,,,,,,,,,,,,,,,,,,,,,,,,,,,,,,,,,,,,,,,,,,,,,,,,,,,,,,,,,,,,,,,,,,,,,,,,,,,,,,,,,,,,,
60be17bce1456e0796cde161,2023-11-24_05h35.16.425,kallum_motion_pilot,2023.1.2,Win32,60.02040694,60be17bce1456e0796cde161,656018846682f3df8008bb8f,656019cfd64dc15b69ecefcf,0,69,69,52,1,threeone,,,,,,,,,,,,,,,,,,,,,,,,,,,,,,,,,,,,,,,,,,,,,,,,,,,,,,,,,,,,,,,,,,,,,,,,,,,,,,,,,,,,,
60be17bce1456e0796cde161,2023-11-24_05h35.16.425,kallum_motion_pilot,2023.1.2,Win32,60.02040694,60be17bce1456e0796cde161,656018846682f3df8008bb8f,656019cfd64dc15b69ecefcf,0,70,70,22,1,fourtwo,,,,,,,,,,,,,,,,,,,,,,,,,,,,,,,,,,,,,,,,,,,,,,,,,,,,,,,,,,,,,,,,,,,,,,,,,,,,,,,,,,,,,
60be17bce1456e0796cde161,2023-11-24_05h35.16.425,kallum_motion_pilot,2023.1.2,Win32,60.02040694,60be17bce1456e0796cde161,656018846682f3df8008bb8f,656019cfd64dc15b69ecefcf,0,71,71,23,1,fourthree,,,,,,,,,,,,,,,,,,,,,,,,,,,,,,,,,,,,,,,,,,,,,,,,,,,,,,,,,,,,,,,,,,,,,,,,,,,,,,,,,,,,,
60be17bce1456e0796cde161,2023-11-24_05h35.16.425,kallum_motion_pilot,2023.1.2,Win32,60.02040694,60be17bce1456e0796cde161,656018846682f3df8008bb8f,656019cfd64dc15b69ecefcf,0,72,72,109,1,seveneight,,,,,,,,,,,,,,,,,,,,,,,,,,,,,,,,,,,,,,,,,,,,,,,,,,,,,,,,,,,,,,,,,,,,,,,,,,,,,,,,,,,,,
60be17bce1456e0796cde161,2023-11-24_05h35.16.425,kallum_motion_pilot,2023.1.2,Win32,60.02040694,60be17bce1456e0796cde161,656018846682f3df8008bb8f,656019cfd64dc15b69ecefcf,0,73,73,15,1,fourthree,,,,,,,,,,,,,,,,,,,,,,,,,,,,,,,,,,,,,,,,,,,,,,,,,,,,,,,,,,,,,,,,,,,,,,,,,,,,,,,,,,,,,
60be17bce1456e0796cde161,2023-11-24_05h35.16.425,kallum_motion_pilot,2023.1.2,Win32,60.02040694,60be17bce1456e0796cde161,656018846682f3df8008bb8f,656019cfd64dc15b69ecefcf,0,74,74,133,1,seveneight,,,,,,,,,,,,,,,,,,,,,,,,,,,,,,,,,,,,,,,,,,,,,,,,,,,,,,,,,,,,,,,,,,,,,,,,,,,,,,,,,,,,,
60be17bce1456e0796cde161,2023-11-24_05h35.16.425,kallum_motion_pilot,2023.1.2,Win32,60.02040694,60be17bce1456e0796cde161,656018846682f3df8008bb8f,656019cfd64dc15b69ecefcf,0,75,75,130,1,sixfive,,,,,,,,,,,,,,,,,,,,,,,,,,,,,,,,,,,,,,,,,,,,,,,,,,,,,,,,,,,,,,,,,,,,,,,,,,,,,,,,,,,,,
60be17bce1456e0796cde161,2023-11-24_05h35.16.425,kallum_motion_pilot,2023.1.2,Win32,60.02040694,60be17bce1456e0796cde161,656018846682f3df8008bb8f,656019cfd64dc15b69ecefcf,0,76,76,122,1,sixfive,,,,,,,,,,,,,,,,,,,,,,,,,,,,,,,,,,,,,,,,,,,,,,,,,,,,,,,,,,,,,,,,,,,,,,,,,,,,,,,,,,,,,
60be17bce1456e0796cde161,2023-11-24_05h35.16.425,kallum_motion_pilot,2023.1.2,Win32,60.02040694,60be17bce1456e0796cde161,656018846682f3df8008bb8f,656019cfd64dc15b69ecefcf,0,77,77,38,1,fourtwo,,,,,,,,,,,,,,,,,,,,,,,,,,,,,,,,,,,,,,,,,,,,,,,,,,,,,,,,,,,,,,,,,,,,,,,,,,,,,,,,,,,,,
60be17bce1456e0796cde161,2023-11-24_05h35.16.425,kallum_motion_pilot,2023.1.2,Win32,60.02040694,60be17bce1456e0796cde161,656018846682f3df8008bb8f,656019cfd64dc15b69ecefcf,0,78,78,137,1,fiveseven,,,,,,,,,,,,,,,,,,,,,,,,,,,,,,,,,,,,,,,,,,,,,,,,,,,,,,,,,,,,,,,,,,,,,,,,,,,,,,,,,,,,,
60be17bce1456e0796cde161,2023-11-24_05h35.16.425,kallum_motion_pilot,2023.1.2,Win32,60.02040694,60be17bce1456e0796cde161,656018846682f3df8008bb8f,656019cfd64dc15b69ecefcf,0,79,79,127,1,eightseven,,,,,,,,,,,,,,,,,,,,,,,,,,,,,,,,,,,,,,,,,,,,,,,,,,,,,,,,,,,,,,,,,,,,,,,,,,,,,,,,,,,,,
60be17bce1456e0796cde161,2023-11-24_05h35.16.425,kallum_motion_pilot,2023.1.2,Win32,60.02040694,60be17bce1456e0796cde161,656018846682f3df8008bb8f,656019cfd64dc15b69ecefcf,0,80,80,66,1,twoone,,,,,,,,,,,,,,,,,,,,,,,,,,,,,,,,,,,,,,,,,,,,,,,,,,,,,,,,,,,,,,,,,,,,,,,,,,,,,,,,,,,,,
60be17bce1456e0796cde161,2023-11-24_05h35.16.425,kallum_motion_pilot,2023.1.2,Win32,60.02040694,60be17bce1456e0796cde161,656018846682f3df8008bb8f,656019cfd64dc15b69ecefcf,0,81,81,96,1,fivesix,,,,,,,,,,,,,,,,,,,,,,,,,,,,,,,,,,,,,,,,,,,,,,,,,,,,,,,,,,,,,,,,,,,,,,,,,,,,,,,,,,,,,
60be17bce1456e0796cde161,2023-11-24_05h35.16.425,kallum_motion_pilot,2023.1.2,Win32,60.02040694,60be17bce1456e0796cde161,656018846682f3df8008bb8f,656019cfd64dc15b69ecefcf,0,82,82,57,1,onethree,,,,,,,,,,,,,,,,,,,,,,,,,,,,,,,,,,,,,,,,,,,,,,,,,,,,,,,,,,,,,,,,,,,,,,,,,,,,,,,,,,,,,
60be17bce1456e0796cde161,2023-11-24_05h35.16.425,kallum_motion_pilot,2023.1.2,Win32,60.02040694,60be17bce1456e0796cde161,656018846682f3df8008bb8f,656019cfd64dc15b69ecefcf,0,83,83,24,1,onetwo,,,,,,,,,,,,,,,,,,,,,,,,,,,,,,,,,,,,,,,,,,,,,,,,,,,,,,,,,,,,,,,,,,,,,,,,,,,,,,,,,,,,,
60be17bce1456e0796cde161,2023-11-24_05h35.16.425,kallum_motion_pilot,2023.1.2,Win32,60.02040694,60be17bce1456e0796cde161,656018846682f3df8008bb8f,656019cfd64dc15b69ecefcf,0,84,84,81,1,fiveseven,,,,,,,,,,,,,,,,,,,,,,,,,,,,,,,,,,,,,,,,,,,,,,,,,,,,,,,,,,,,,,,,,,,,,,,,,,,,,,,,,,,,,
60be17bce1456e0796cde161,2023-11-24_05h35.16.425,kallum_motion_pilot,2023.1.2,Win32,60.02040694,60be17bce1456e0796cde161,656018846682f3df8008bb8f,656019cfd64dc15b69ecefcf,0,85,85,104,1,fivesix,,,,,,,,,,,,,,,,,,,,,,,,,,,,,,,,,,,,,,,,,,,,,,,,,,,,,,,,,,,,,,,,,,,,,,,,,,,,,,,,,,,,,
60be17bce1456e0796cde161,2023-11-24_05h35.16.425,kallum_motion_pilot,2023.1.2,Win32,60.02040694,60be17bce1456e0796cde161,656018846682f3df8008bb8f,656019cfd64dc15b69ecefcf,0,86,86,161,1,fiveseven,,,,,,,,,,,,,,,,,,,,,,,,,,,,,,,,,,,,,,,,,,,,,,,,,,,,,,,,,,,,,,,,,,,,,,,,,,,,,,,,,,,,,
60be17bce1456e0796cde161,2023-11-24_05h35.16.425,kallum_motion_pilot,2023.1.2,Win32,60.02040694,60be17bce1456e0796cde161,656018846682f3df8008bb8f,656019cfd64dc15b69ecefcf,0,87,87,8,1,onetwo,,,,,,,,,,,,,,,,,,,,,,,,,,,,,,,,,,,,,,,,,,,,,,,,,,,,,,,,,,,,,,,,,,,,,,,,,,,,,,,,,,,,,
60be17bce1456e0796cde161,2023-11-24_05h35.16.425,kallum_motion_pilot,2023.1.2,Win32,60.02040694,60be17bce1456e0796cde161,656018846682f3df8008bb8f,656019cfd64dc15b69ecefcf,0,88,88,148,1,sevenfive,,,,,,,,,,,,,,,,,,,,,,,,,,,,,,,,,,,,,,,,,,,,,,,,,,,,,,,,,,,,,,,,,,,,,,,,,,,,,,,,,,,,,
60be17bce1456e0796cde161,2023-11-24_05h35.16.425,kallum_motion_pilot,2023.1.2,Win32,60.02040694,60be17bce1456e0796cde161,656018846682f3df8008bb8f,656019cfd64dc15b69ecefcf,0,89,89,74,1,twoone,,,,,,,,,,,,,,,,,,,,,,,,,,,,,,,,,,,,,,,,,,,,,,,,,,,,,,,,,,,,,,,,,,,,,,,,,,,,,,,,,,,,,
60be17bce1456e0796cde161,2023-11-24_05h35.16.425,kallum_motion_pilot,2023.1.2,Win32,60.02040694,60be17bce1456e0796cde161,656018846682f3df8008bb8f,656019cfd64dc15b69ecefcf,0,90,90,113,1,fiveseven,,,,,,,,,,,,,,,,,,,,,,,,,,,,,,,,,,,,,,,,,,,,,,,,,,,,,,,,,,,,,,,,,,,,,,,,,,,,,,,,,,,,,
60be17bce1456e0796cde161,2023-11-24_05h35.16.425,kallum_motion_pilot,2023.1.2,Win32,60.02040694,60be17bce1456e0796cde161,656018846682f3df8008bb8f,656019cfd64dc15b69ecefcf,0,91,91,145,1,fiveseven,,,,,,,,,,,,,,,,,,,,,,,,,,,,,,,,,,,,,,,,,,,,,,,,,,,,,,,,,,,,,,,,,,,,,,,,,,,,,,,,,,,,,
60be17bce1456e0796cde161,2023-11-24_05h35.16.425,kallum_motion_pilot,2023.1.2,Win32,60.02040694,60be17bce1456e0796cde161,656018846682f3df8008bb8f,656019cfd64dc15b69ecefcf,0,92,92,149,1,seveneight,,,,,,,,,,,,,,,,,,,,,,,,,,,,,,,,,,,,,,,,,,,,,,,,,,,,,,,,,,,,,,,,,,,,,,,,,,,,,,,,,,,,,
60be17bce1456e0796cde161,2023-11-24_05h35.16.425,kallum_motion_pilot,2023.1.2,Win32,60.02040694,60be17bce1456e0796cde161,656018846682f3df8008bb8f,656019cfd64dc15b69ecefcf,0,93,93,0,1,onetwo,,,,,,,,,,,,,,,,,,,,,,,,,,,,,,,,,,,,,,,,,,,,,,,,,,,,,,,,,,,,,,,,,,,,,,,,,,,,,,,,,,,,,
60be17bce1456e0796cde161,2023-11-24_05h35.16.425,kallum_motion_pilot,2023.1.2,Win32,60.02040694,60be17bce1456e0796cde161,656018846682f3df8008bb8f,656019cfd64dc15b69ecefcf,0,94,94,51,1,twofour,,,,,,,,,,,,,,,,,,,,,,,,,,,,,,,,,,,,,,,,,,,,,,,,,,,,,,,,,,,,,,,,,,,,,,,,,,,,,,,,,,,,,
60be17bce1456e0796cde161,2023-11-24_05h35.16.425,kallum_motion_pilot,2023.1.2,Win32,60.02040694,60be17bce1456e0796cde161,656018846682f3df8008bb8f,656019cfd64dc15b69ecefcf,0,95,95,82,1,sixfive,,,,,,,,,,,,,,,,,,,,,,,,,,,,,,,,,,,,,,,,,,,,,,,,,,,,,,,,,,,,,,,,,,,,,,,,,,,,,,,,,,,,,
60be17bce1456e0796cde161,2023-11-24_05h35.16.425,kallum_motion_pilot,2023.1.2,Win32,60.02040694,60be17bce1456e0796cde161,656018846682f3df8008bb8f,656019cfd64dc15b69ecefcf,0,96,96,119,1,eightseven,,,,,,,,,,,,,,,,,,,,,,,,,,,,,,,,,,,,,,,,,,,,,,,,,,,,,,,,,,,,,,,,,,,,,,,,,,,,,,,,,,,,,
60be17bce1456e0796cde161,2023-11-24_05h35.16.425,kallum_motion_pilot,2023.1.2,Win32,60.02040694,60be17bce1456e0796cde161,656018846682f3df8008bb8f,656019cfd64dc15b69ecefcf,0,97,97,105,1,fiveseven,,,,,,,,,,,,,,,,,,,,,,,,,,,,,,,,,,,,,,,,,,,,,,,,,,,,,,,,,,,,,,,,,,,,,,,,,,,,,,,,,,,,,
60be17bce1456e0796cde161,2023-11-24_05h35.16.425,kallum_motion_pilot,2023.1.2,Win32,60.02040694,60be17bce1456e0796cde161,656018846682f3df8008bb8f,656019cfd64dc15b69ecefcf,0,98,98,99,1,sixeight,,,,,,,,,,,,,,,,,,,,,,,,,,,,,,,,,,,,,,,,,,,,,,,,,,,,,,,,,,,,,,,,,,,,,,,,,,,,,,,,,,,,,
60be17bce1456e0796cde161,2023-11-24_05h35.16.425,kallum_motion_pilot,2023.1.2,Win32,60.02040694,60be17bce1456e0796cde161,656018846682f3df8008bb8f,656019cfd64dc15b69ecefcf,0,99,99,112,1,fivesix,,,,,,,,,,,,,,,,,,,,,,,,,,,,,,,,,,,,,,,,,,,,,,,,,,,,,,,,,,,,,,,,,,,,,,,,,,,,,,,,,,,,,
60be17bce1456e0796cde161,2023-11-24_05h35.16.425,kallum_motion_pilot,2023.1.2,Win32,60.02040694,60be17bce1456e0796cde161,656018846682f3df8008bb8f,656019cfd64dc15b69ecefcf,0,100,100,12,1,threeone,,,,,,,,,,,,,,,,,,,,,,,,,,,,,,,,,,,,,,,,,,,,,,,,,,,,,,,,,,,,,,,,,,,,,,,,,,,,,,,,,,,,,
60be17bce1456e0796cde161,2023-11-24_05h35.16.425,kallum_motion_pilot,2023.1.2,Win32,60.02040694,60be17bce1456e0796cde161,656018846682f3df8008bb8f,656019cfd64dc15b69ecefcf,0,101,101,138,1,sixfive,,,,,,,,,,,,,,,,,,,,,,,,,,,,,,,,,,,,,,,,,,,,,,,,,,,,,,,,,,,,,,,,,,,,,,,,,,,,,,,,,,,,,
60be17bce1456e0796cde161,2023-11-24_05h35.16.425,kallum_motion_pilot,2023.1.2,Win32,60.02040694,60be17bce1456e0796cde161,656018846682f3df8008bb8f,656019cfd64dc15b69ecefcf,0,102,102,54,1,fourtwo,,,,,,,,,,,,,,,,,,,,,,,,,,,,,,,,,,,,,,,,,,,,,,,,,,,,,,,,,,,,,,,,,,,,,,,,,,,,,,,,,,,,,
60be17bce1456e0796cde161,2023-11-24_05h35.16.425,kallum_motion_pilot,2023.1.2,Win32,60.02040694,60be17bce1456e0796cde161,656018846682f3df8008bb8f,656019cfd64dc15b69ecefcf,0,103,103,117,1,seveneight,,,,,,,,,,,,,,,,,,,,,,,,,,,,,,,,,,,,,,,,,,,,,,,,,,,,,,,,,,,,,,,,,,,,,,,,,,,,,,,,,,,,,
60be17bce1456e0796cde161,2023-11-24_05h35.16.425,kallum_motion_pilot,2023.1.2,Win32,60.02040694,60be17bce1456e0796cde161,656018846682f3df8008bb8f,656019cfd64dc15b69ecefcf,0,104,104,4,1,threeone,,,,,,,,,,,,,,,,,,,,,,,,,,,,,,,,,,,,,,,,,,,,,,,,,,,,,,,,,,,,,,,,,,,,,,,,,,,,,,,,,,,,,
60be17bce1456e0796cde161,2023-11-24_05h35.16.425,kallum_motion_pilot,2023.1.2,Win32,60.02040694,60be17bce1456e0796cde161,656018846682f3df8008bb8f,656019cfd64dc15b69ecefcf,0,105,105,102,1,eightsix,,,,,,,,,,,,,,,,,,,,,,,,,,,,,,,,,,,,,,,,,,,,,,,,,,,,,,,,,,,,,,,,,,,,,,,,,,,,,,,,,,,,,
60be17bce1456e0796cde161,2023-11-24_05h35.16.425,kallum_motion_pilot,2023.1.2,Win32,60.02040694,60be17bce1456e0796cde161,656018846682f3df8008bb8f,656019cfd64dc15b69ecefcf,0,106,106,141,1,seveneight,,,,,,,,,,,,,,,,,,,,,,,,,,,,,,,,,,,,,,,,,,,,,,,,,,,,,,,,,,,,,,,,,,,,,,,,,,,,,,,,,,,,,
60be17bce1456e0796cde161,2023-11-24_05h35.16.425,kallum_motion_pilot,2023.1.2,Win32,60.02040694,60be17bce1456e0796cde161,656018846682f3df8008bb8f,656019cfd64dc15b69ecefcf,0,107,107,55,1,fourthree,,,,,,,,,,,,,,,,,,,,,,,,,,,,,,,,,,,,,,,,,,,,,,,,,,,,,,,,,,,,,,,,,,,,,,,,,,,,,,,,,,,,,
60be17bce1456e0796cde161,2023-11-24_05h35.16.425,kallum_motion_pilot,2023.1.2,Win32,60.02040694,60be17bce1456e0796cde161,656018846682f3df8008bb8f,656019cfd64dc15b69ecefcf,0,108,108,32,1,onetwo,,,,,,,,,,,,,,,,,,,,,,,,,,,,,,,,,,,,,,,,,,,,,,,,,,,,,,,,,,,,,,,,,,,,,,,,,,,,,,,,,,,,,
60be17bce1456e0796cde161,2023-11-24_05h35.16.425,kallum_motion_pilot,2023.1.2,Win32,60.02040694,60be17bce1456e0796cde161,656018846682f3df8008bb8f,656019cfd64dc15b69ecefcf,0,109,109,88,1,fivesix,,,,,,,,,,,,,,,,,,,,,,,,,,,,,,,,,,,,,,,,,,,,,,,,,,,,,,,,,,,,,,,,,,,,,,,,,,,,,,,,,,,,,
60be17bce1456e0796cde161,2023-11-24_05h35.16.425,kallum_motion_pilot,2023.1.2,Win32,60.02040694,60be17bce1456e0796cde161,656018846682f3df8008bb8f,656019cfd64dc15b69ecefcf,0,110,110,136,1,fivesix,,,,,,,,,,,,,,,,,,,,,,,,,,,,,,,,,,,,,,,,,,,,,,,,,,,,,,,,,,,,,,,,,,,,,,,,,,,,,,,,,,,,,
60be17bce1456e0796cde161,2023-11-24_05h35.16.425,kallum_motion_pilot,2023.1.2,Win32,60.02040694,60be17bce1456e0796cde161,656018846682f3df8008bb8f,656019cfd64dc15b69ecefcf,0,111,111,124,1,sevenfive,,,,,,,,,,,,,,,,,,,,,,,,,,,,,,,,,,,,,,,,,,,,,,,,,,,,,,,,,,,,,,,,,,,,,,,,,,,,,,,,,,,,,
60be17bce1456e0796cde161,2023-11-24_05h35.16.425,kallum_motion_pilot,2023.1.2,Win32,60.02040694,60be17bce1456e0796cde161,656018846682f3df8008bb8f,656019cfd64dc15b69ecefcf,0,112,112,63,1,fourthree,,,,,,,,,,,,,,,,,,,,,,,,,,,,,,,,,,,,,,,,,,,,,,,,,,,,,,,,,,,,,,,,,,,,,,,,,,,,,,,,,,,,,
60be17bce1456e0796cde161,2023-11-24_05h35.16.425,kallum_motion_pilot,2023.1.2,Win32,60.02040694,60be17bce1456e0796cde161,656018846682f3df8008bb8f,656019cfd64dc15b69ecefcf,0,113,113,9,1,onethree,,,,,,,,,,,,,,,,,,,,,,,,,,,,,,,,,,,,,,,,,,,,,,,,,,,,,,,,,,,,,,,,,,,,,,,,,,,,,,,,,,,,,
60be17bce1456e0796cde161,2023-11-24_05h35.16.425,kallum_motion_pilot,2023.1.2,Win32,60.02040694,60be17bce1456e0796cde161,656018846682f3df8008bb8f,656019cfd64dc15b69ecefcf,0,114,114,108,1,sevenfive,,,,,,,,,,,,,,,,,,,,,,,,,,,,,,,,,,,,,,,,,,,,,,,,,,,,,,,,,,,,,,,,,,,,,,,,,,,,,,,,,,,,,
60be17bce1456e0796cde161,2023-11-24_05h35.16.425,kallum_motion_pilot,2023.1.2,Win32,60.02040694,60be17bce1456e0796cde161,656018846682f3df8008bb8f,656019cfd64dc15b69ecefcf,0,115,115,103,1,eightseven,,,,,,,,,,,,,,,,,,,,,,,,,,,,,,,,,,,,,,,,,,,,,,,,,,,,,,,,,,,,,,,,,,,,,,,,,,,,,,,,,,,,,
60be17bce1456e0796cde161,2023-11-24_05h35.16.425,kallum_motion_pilot,2023.1.2,Win32,60.02040694,60be17bce1456e0796cde161,656018846682f3df8008bb8f,656019cfd64dc15b69ecefcf,0,116,116,159,1,eightseven,,,,,,,,,,,,,,,,,,,,,,,,,,,,,,,,,,,,,,,,,,,,,,,,,,,,,,,,,,,,,,,,,,,,,,,,,,,,,,,,,,,,,
60be17bce1456e0796cde161,2023-11-24_05h35.16.425,kallum_motion_pilot,2023.1.2,Win32,60.02040694,60be17bce1456e0796cde161,656018846682f3df8008bb8f,656019cfd64dc15b69ecefcf,0,117,117,157,1,seveneight,,,,,,,,,,,,,,,,,,,,,,,,,,,,,,,,,,,,,,,,,,,,,,,,,,,,,,,,,,,,,,,,,,,,,,,,,,,,,,,,,,,,,
60be17bce1456e0796cde161,2023-11-24_05h35.16.425,kallum_motion_pilot,2023.1.2,Win32,60.02040694,60be17bce1456e0796cde161,656018846682f3df8008bb8f,656019cfd64dc15b69ecefcf,0,118,118,93,1,seveneight,,,,,,,,,,,,,,,,,,,,,,,,,,,,,,,,,,,,,,,,,,,,,,,,,,,,,,,,,,,,,,,,,,,,,,,,,,,,,,,,,,,,,
60be17bce1456e0796cde161,2023-11-24_05h35.16.425,kallum_motion_pilot,2023.1.2,Win32,60.02040694,60be17bce1456e0796cde161,656018846682f3df8008bb8f,656019cfd64dc15b69ecefcf,0,119,119,139,1,sixeight,,,,,,,,,,,,,,,,,,,,,,,,,,,,,,,,,,,,,,,,,,,,,,,,,,,,,,,,,,,,,,,,,,,,,,,,,,,,,,,,,,,,,
60be17bce1456e0796cde161,2023-11-24_05h35.16.425,kallum_motion_pilot,2023.1.2,Win32,60.02040694,60be17bce1456e0796cde161,656018846682f3df8008bb8f,656019cfd64dc15b69ecefcf,0,120,120,39,1,fourthree,,,,,,,,,,,,,,,,,,,,,,,,,,,,,,,,,,,,,,,,,,,,,,,,,,,,,,,,,,,,,,,,,,,,,,,,,,,,,,,,,,,,,
60be17bce1456e0796cde161,2023-11-24_05h35.16.425,kallum_motion_pilot,2023.1.2,Win32,60.02040694,60be17bce1456e0796cde161,656018846682f3df8008bb8f,656019cfd64dc15b69ecefcf,0,121,121,75,1,twofour,,,,,,,,,,,,,,,,,,,,,,,,,,,,,,,,,,,,,,,,,,,,,,,,,,,,,,,,,,,,,,,,,,,,,,,,,,,,,,,,,,,,,
60be17bce1456e0796cde161,2023-11-24_05h35.16.425,kallum_motion_pilot,2023.1.2,Win32,60.02040694,60be17bce1456e0796cde161,656018846682f3df8008bb8f,656019cfd64dc15b69ecefcf,0,122,122,111,1,eightseven,,,,,,,,,,,,,,,,,,,,,,,,,,,,,,,,,,,,,,,,,,,,,,,,,,,,,,,,,,,,,,,,,,,,,,,,,,,,,,,,,,,,,
60be17bce1456e0796cde161,2023-11-24_05h35.16.425,kallum_motion_pilot,2023.1.2,Win32,60.02040694,60be17bce1456e0796cde161,656018846682f3df8008bb8f,656019cfd64dc15b69ecefcf,0,123,123,121,1,fiveseven,,,,,,,,,,,,,,,,,,,,,,,,,,,,,,,,,,,,,,,,,,,,,,,,,,,,,,,,,,,,,,,,,,,,,,,,,,,,,,,,,,,,,
60be17bce1456e0796cde161,2023-11-24_05h35.16.425,kallum_motion_pilot,2023.1.2,Win32,60.02040694,60be17bce1456e0796cde161,656018846682f3df8008bb8f,656019cfd64dc15b69ecefcf,0,124,124,151,1,eightseven,,,,,,,,,,,,,,,,,,,,,,,,,,,,,,,,,,,,,,,,,,,,,,,,,,,,,,,,,,,,,,,,,,,,,,,,,,,,,,,,,,,,,
60be17bce1456e0796cde161,2023-11-24_05h35.16.425,kallum_motion_pilot,2023.1.2,Win32,60.02040694,60be17bce1456e0796cde161,656018846682f3df8008bb8f,656019cfd64dc15b69ecefcf,0,125,125,5,1,threefour,,,,,,,,,,,,,,,,,,,,,,,,,,,,,,,,,,,,,,,,,,,,,,,,,,,,,,,,,,,,,,,,,,,,,,,,,,,,,,,,,,,,,
60be17bce1456e0796cde161,2023-11-24_05h35.16.425,kallum_motion_pilot,2023.1.2,Win32,60.02040694,60be17bce1456e0796cde161,656018846682f3df8008bb8f,656019cfd64dc15b69ecefcf,0,126,126,147,1,sixeight,,,,,,,,,,,,,,,,,,,,,,,,,,,,,,,,,,,,,,,,,,,,,,,,,,,,,,,,,,,,,,,,,,,,,,,,,,,,,,,,,,,,,
60be17bce1456e0796cde161,2023-11-24_05h35.16.425,kallum_motion_pilot,2023.1.2,Win32,60.02040694,60be17bce1456e0796cde161,656018846682f3df8008bb8f,656019cfd64dc15b69ecefcf,0,127,127,107,1,sixeight,,,,,,,,,,,,,,,,,,,,,,,,,,,,,,,,,,,,,,,,,,,,,,,,,,,,,,,,,,,,,,,,,,,,,,,,,,,,,,,,,,,,,
60be17bce1456e0796cde161,2023-11-24_05h35.16.425,kallum_motion_pilot,2023.1.2,Win32,60.02040694,60be17bce1456e0796cde161,656018846682f3df8008bb8f,656019cfd64dc15b69ecefcf,0,128,128,30,1,fourtwo,,,,,,,,,,,,,,,,,,,,,,,,,,,,,,,,,,,,,,,,,,,,,,,,,,,,,,,,,,,,,,,,,,,,,,,,,,,,,,,,,,,,,
60be17bce1456e0796cde161,2023-11-24_05h35.16.425,kallum_motion_pilot,2023.1.2,Win32,60.02040694,60be17bce1456e0796cde161,656018846682f3df8008bb8f,656019cfd64dc15b69ecefcf,0,129,129,6,1,fourtwo,,,,,,,,,,,,,,,,,,,,,,,,,,,,,,,,,,,,,,,,,,,,,,,,,,,,,,,,,,,,,,,,,,,,,,,,,,,,,,,,,,,,,
60be17bce1456e0796cde161,2023-11-24_05h35.16.425,kallum_motion_pilot,2023.1.2,Win32,60.02040694,60be17bce1456e0796cde161,656018846682f3df8008bb8f,656019cfd64dc15b69ecefcf,0,130,130,101,1,seveneight,,,,,,,,,,,,,,,,,,,,,,,,,,,,,,,,,,,,,,,,,,,,,,,,,,,,,,,,,,,,,,,,,,,,,,,,,,,,,,,,,,,,,
60be17bce1456e0796cde161,2023-11-24_05h35.16.425,kallum_motion_pilot,2023.1.2,Win32,60.02040694,60be17bce1456e0796cde161,656018846682f3df8008bb8f,656019cfd64dc15b69ecefcf,0,131,131,73,1,onethree,,,,,,,,,,,,,,,,,,,,,,,,,,,,,,,,,,,,,,,,,,,,,,,,,,,,,,,,,,,,,,,,,,,,,,,,,,,,,,,,,,,,,
60be17bce1456e0796cde161,2023-11-24_05h35.16.425,kallum_motion_pilot,2023.1.2,Win32,60.02040694,60be17bce1456e0796cde161,656018846682f3df8008bb8f,656019cfd64dc15b69ecefcf,0,132,132,10,1,twoone,,,,,,,,,,,,,,,,,,,,,,,,,,,,,,,,,,,,,,,,,,,,,,,,,,,,,,,,,,,,,,,,,,,,,,,,,,,,,,,,,,,,,
60be17bce1456e0796cde161,2023-11-24_05h35.16.425,kallum_motion_pilot,2023.1.2,Win32,60.02040694,60be17bce1456e0796cde161,656018846682f3df8008bb8f,656019cfd64dc15b69ecefcf,0,133,133,106,1,sixfive,,,,,,,,,,,,,,,,,,,,,,,,,,,,,,,,,,,,,,,,,,,,,,,,,,,,,,,,,,,,,,,,,,,,,,,,,,,,,,,,,,,,,
60be17bce1456e0796cde161,2023-11-24_05h35.16.425,kallum_motion_pilot,2023.1.2,Win32,60.02040694,60be17bce1456e0796cde161,656018846682f3df8008bb8f,656019cfd64dc15b69ecefcf,0,134,134,91,1,sixeight,,,,,,,,,,,,,,,,,,,,,,,,,,,,,,,,,,,,,,,,,,,,,,,,,,,,,,,,,,,,,,,,,,,,,,,,,,,,,,,,,,,,,
60be17bce1456e0796cde161,2023-11-24_05h35.16.425,kallum_motion_pilot,2023.1.2,Win32,60.02040694,60be17bce1456e0796cde161,656018846682f3df8008bb8f,656019cfd64dc15b69ecefcf,0,135,135,17,1,onethree,,,,,,,,,,,,,,,,,,,,,,,,,,,,,,,,,,,,,,,,,,,,,,,,,,,,,,,,,,,,,,,,,,,,,,,,,,,,,,,,,,,,,
60be17bce1456e0796cde161,2023-11-24_05h35.16.425,kallum_motion_pilot,2023.1.2,Win32,60.02040694,60be17bce1456e0796cde161,656018846682f3df8008bb8f,656019cfd64dc15b69ecefcf,0,136,136,150,1,eightsix,,,,,,,,,,,,,,,,,,,,,,,,,,,,,,,,,,,,,,,,,,,,,,,,,,,,,,,,,,,,,,,,,,,,,,,,,,,,,,,,,,,,,
60be17bce1456e0796cde161,2023-11-24_05h35.16.425,kallum_motion_pilot,2023.1.2,Win32,60.02040694,60be17bce1456e0796cde161,656018846682f3df8008bb8f,656019cfd64dc15b69ecefcf,0,137,137,155,1,sixeight,,,,,,,,,,,,,,,,,,,,,,,,,,,,,,,,,,,,,,,,,,,,,,,,,,,,,,,,,,,,,,,,,,,,,,,,,,,,,,,,,,,,,
60be17bce1456e0796cde161,2023-11-24_05h35.16.425,kallum_motion_pilot,2023.1.2,Win32,60.02040694,60be17bce1456e0796cde161,656018846682f3df8008bb8f,656019cfd64dc15b69ecefcf,0,138,138,118,1,eightsix,,,,,,,,,,,,,,,,,,,,,,,,,,,,,,,,,,,,,,,,,,,,,,,,,,,,,,,,,,,,,,,,,,,,,,,,,,,,,,,,,,,,,
60be17bce1456e0796cde161,2023-11-24_05h35.16.425,kallum_motion_pilot,2023.1.2,Win32,60.02040694,60be17bce1456e0796cde161,656018846682f3df8008bb8f,656019cfd64dc15b69ecefcf,0,139,139,144,1,fivesix,,,,,,,,,,,,,,,,,,,,,,,,,,,,,,,,,,,,,,,,,,,,,,,,,,,,,,,,,,,,,,,,,,,,,,,,,,,,,,,,,,,,,
60be17bce1456e0796cde161,2023-11-24_05h35.16.425,kallum_motion_pilot,2023.1.2,Win32,60.02040694,60be17bce1456e0796cde161,656018846682f3df8008bb8f,656019cfd64dc15b69ecefcf,0,140,140,114,1,sixfive,,,,,,,,,,,,,,,,,,,,,,,,,,,,,,,,,,,,,,,,,,,,,,,,,,,,,,,,,,,,,,,,,,,,,,,,,,,,,,,,,,,,,
60be17bce1456e0796cde161,2023-11-24_05h35.16.425,kallum_motion_pilot,2023.1.2,Win32,60.02040694,60be17bce1456e0796cde161,656018846682f3df8008bb8f,656019cfd64dc15b69ecefcf,0,141,141,31,1,fourthree,,,,,,,,,,,,,,,,,,,,,,,,,,,,,,,,,,,,,,,,,,,,,,,,,,,,,,,,,,,,,,,,,,,,,,,,,,,,,,,,,,,,,
60be17bce1456e0796cde161,2023-11-24_05h35.16.425,kallum_motion_pilot,2023.1.2,Win32,60.02040694,60be17bce1456e0796cde161,656018846682f3df8008bb8f,656019cfd64dc15b69ecefcf,0,142,142,1,1,onethree,,,,,,,,,,,,,,,,,,,,,,,,,,,,,,,,,,,,,,,,,,,,,,,,,,,,,,,,,,,,,,,,,,,,,,,,,,,,,,,,,,,,,
60be17bce1456e0796cde161,2023-11-24_05h35.16.425,kallum_motion_pilot,2023.1.2,Win32,60.02040694,60be17bce1456e0796cde161,656018846682f3df8008bb8f,656019cfd64dc15b69ecefcf,0,143,143,26,1,twoone,,,,,,,,,,,,,,,,,,,,,,,,,,,,,,,,,,,,,,,,,,,,,,,,,,,,,,,,,,,,,,,,,,,,,,,,,,,,,,,,,,,,,
60be17bce1456e0796cde161,2023-11-24_05h35.16.425,kallum_motion_pilot,2023.1.2,Win32,60.02040694,60be17bce1456e0796cde161,656018846682f3df8008bb8f,656019cfd64dc15b69ecefcf,0,144,144,43,1,twofour,,,,,,,,,,,,,,,,,,,,,,,,,,,,,,,,,,,,,,,,,,,,,,,,,,,,,,,,,,,,,,,,,,,,,,,,,,,,,,,,,,,,,
60be17bce1456e0796cde161,2023-11-24_05h35.16.425,kallum_motion_pilot,2023.1.2,Win32,60.02040694,60be17bce1456e0796cde161,656018846682f3df8008bb8f,656019cfd64dc15b69ecefcf,0,145,145,2,1,twoone,,,,,,,,,,,,,,,,,,,,,,,,,,,,,,,,,,,,,,,,,,,,,,,,,,,,,,,,,,,,,,,,,,,,,,,,,,,,,,,,,,,,,
60be17bce1456e0796cde161,2023-11-24_05h35.16.425,kallum_motion_pilot,2023.1.2,Win32,60.02040694,60be17bce1456e0796cde161,656018846682f3df8008bb8f,656019cfd64dc15b69ecefcf,0,146,146,110,1,eightsix,,,,,,,,,,,,,,,,,,,,,,,,,,,,,,,,,,,,,,,,,,,,,,,,,,,,,,,,,,,,,,,,,,,,,,,,,,,,,,,,,,,,,
60be17bce1456e0796cde161,2023-11-24_05h35.16.425,kallum_motion_pilot,2023.1.2,Win32,60.02040694,60be17bce1456e0796cde161,656018846682f3df8008bb8f,656019cfd64dc15b69ecefcf,0,147,147,58,1,twoone,,,,,,,,,,,,,,,,,,,,,,,,,,,,,,,,,,,,,,,,,,,,,,,,,,,,,,,,,,,,,,,,,,,,,,,,,,,,,,,,,,,,,
60be17bce1456e0796cde161,2023-11-24_05h35.16.425,kallum_motion_pilot,2023.1.2,Win32,60.02040694,60be17bce1456e0796cde161,656018846682f3df8008bb8f,656019cfd64dc15b69ecefcf,0,148,148,37,1,threefour,,,,,,,,,,,,,,,,,,,,,,,,,,,,,,,,,,,,,,,,,,,,,,,,,,,,,,,,,,,,,,,,,,,,,,,,,,,,,,,,,,,,,
60be17bce1456e0796cde161,2023-11-24_05h35.16.425,kallum_motion_pilot,2023.1.2,Win32,60.02040694,60be17bce1456e0796cde161,656018846682f3df8008bb8f,656019cfd64dc15b69ecefcf,0,149,149,98,1,sixfive,,,,,,,,,,,,,,,,,,,,,,,,,,,,,,,,,,,,,,,,,,,,,,,,,,,,,,,,,,,,,,,,,,,,,,,,,,,,,,,,,,,,,
60be17bce1456e0796cde161,2023-11-24_05h35.16.425,kallum_motion_pilot,2023.1.2,Win32,60.02040694,60be17bce1456e0796cde161,656018846682f3df8008bb8f,656019cfd64dc15b69ecefcf,0,150,150,94,1,eightsix,,,,,,,,,,,,,,,,,,,,,,,,,,,,,,,,,,,,,,,,,,,,,,,,,,,,,,,,,,,,,,,,,,,,,,,,,,,,,,,,,,,,,
60be17bce1456e0796cde161,2023-11-24_05h35.16.425,kallum_motion_pilot,2023.1.2,Win32,60.02040694,60be17bce1456e0796cde161,656018846682f3df8008bb8f,656019cfd64dc15b69ecefcf,0,151,151,128,1,fivesix,,,,,,,,,,,,,,,,,,,,,,,,,,,,,,,,,,,,,,,,,,,,,,,,,,,,,,,,,,,,,,,,,,,,,,,,,,,,,,,,,,,,,
60be17bce1456e0796cde161,2023-11-24_05h35.16.425,kallum_motion_pilot,2023.1.2,Win32,60.02040694,60be17bce1456e0796cde161,656018846682f3df8008bb8f,656019cfd64dc15b69ecefcf,0,152,152,129,1,fiveseven,,,,,,,,,,,,,,,,,,,,,,,,,,,,,,,,,,,,,,,,,,,,,,,,,,,,,,,,,,,,,,,,,,,,,,,,,,,,,,,,,,,,,
60be17bce1456e0796cde161,2023-11-24_05h35.16.425,kallum_motion_pilot,2023.1.2,Win32,60.02040694,60be17bce1456e0796cde161,656018846682f3df8008bb8f,656019cfd64dc15b69ecefcf,0,153,153,140,1,sevenfive,,,,,,,,,,,,,,,,,,,,,,,,,,,,,,,,,,,,,,,,,,,,,,,,,,,,,,,,,,,,,,,,,,,,,,,,,,,,,,,,,,,,,
60be17bce1456e0796cde161,2023-11-24_05h35.16.425,kallum_motion_pilot,2023.1.2,Win32,60.02040694,60be17bce1456e0796cde161,656018846682f3df8008bb8f,656019cfd64dc15b69ecefcf,0,154,154,50,1,twoone,,,,,,,,,,,,,,,,,,,,,,,,,,,,,,,,,,,,,,,,,,,,,,,,,,,,,,,,,,,,,,,,,,,,,,,,,,,,,,,,,,,,,
60be17bce1456e0796cde161,2023-11-24_05h35.16.425,kallum_motion_pilot,2023.1.2,Win32,60.02040694,60be17bce1456e0796cde161,656018846682f3df8008bb8f,656019cfd64dc15b69ecefcf,0,155,155,40,1,onetwo,,,,,,,,,,,,,,,,,,,,,,,,,,,,,,,,,,,,,,,,,,,,,,,,,,,,,,,,,,,,,,,,,,,,,,,,,,,,,,,,,,,,,
60be17bce1456e0796cde161,2023-11-24_05h35.16.425,kallum_motion_pilot,2023.1.2,Win32,60.02040694,60be17bce1456e0796cde161,656018846682f3df8008bb8f,656019cfd64dc15b69ecefcf,0,156,156,72,1,onetwo,,,,,,,,,,,,,,,,,,,,,,,,,,,,,,,,,,,,,,,,,,,,,,,,,,,,,,,,,,,,,,,,,,,,,,,,,,,,,,,,,,,,,
60be17bce1456e0796cde161,2023-11-24_05h35.16.425,kallum_motion_pilot,2023.1.2,Win32,60.02040694,60be17bce1456e0796cde161,656018846682f3df8008bb8f,656019cfd64dc15b69ecefcf,0,157,157,68,1,threeone,,,,,,,,,,,,,,,,,,,,,,,,,,,,,,,,,,,,,,,,,,,,,,,,,,,,,,,,,,,,,,,,,,,,,,,,,,,,,,,,,,,,,
60be17bce1456e0796cde161,2023-11-24_05h35.16.425,kallum_motion_pilot,2023.1.2,Win32,60.02040694,60be17bce1456e0796cde161,656018846682f3df8008bb8f,656019cfd64dc15b69ecefcf,0,158,158,28,1,threeone,,,,,,,,,,,,,,,,,,,,,,,,,,,,,,,,,,,,,,,,,,,,,,,,,,,,,,,,,,,,,,,,,,,,,,,,,,,,,,,,,,,,,
60be17bce1456e0796cde161,2023-11-24_05h35.16.425,kallum_motion_pilot,2023.1.2,Win32,60.02040694,60be17bce1456e0796cde161,656018846682f3df8008bb8f,656019cfd64dc15b69ecefcf,0,159,159,97,1,fiveseven,,,,,,,,,,,,,,,,,,,,,,,,,,,,,,,,,,,,,,,,,,,,,,,,,,,,,,,,,,,,,,,,,,,,,,,,,,,,,,,,,,,,,
60be17bce1456e0796cde161,2023-11-24_05h35.16.425,kallum_motion_pilot,2023.1.2,Win32,60.02040694,60be17bce1456e0796cde161,656018846682f3df8008bb8f,656019cfd64dc15b69ecefcf,0,160,160,76,1,threeone,,,,,,,,,,,,,,,,,,,,,,,,,,,,,,,,,,,,,,,,,,,,,,,,,,,,,,,,,,,,,,,,,,,,,,,,,,,,,,,,,,,,,
60be17bce1456e0796cde161,2023-11-24_05h35.16.425,kallum_motion_pilot,2023.1.2,Win32,60.02040694,60be17bce1456e0796cde161,656018846682f3df8008bb8f,656019cfd64dc15b69ecefcf,0,161,161,44,1,threeone,,,,,,,,,,,,,,,,,,,,,,,,,,,,,,,,,,,,,,,,,,,,,,,,,,,,,,,,,,,,,,,,,,,,,,,,,,,,,,,,,,,,,
60be17bce1456e0796cde161,2023-11-24_05h35.16.425,kallum_motion_pilot,2023.1.2,Win32,60.02040694,60be17bce1456e0796cde161,656018846682f3df8008bb8f,656019cfd64dc15b69ecefcf,1,0,162,13,1,threefour,,,,,,,,,,,,,,,,,,,,,,,,,,,,,,,,,,,,,,,,,,,,,,,,,,,,,,,,,,,,,,,,,,,,,,,,,,,,,,,,,,,,,
60be17bce1456e0796cde161,2023-11-24_05h35.16.425,kallum_motion_pilot,2023.1.2,Win32,60.02040694,60be17bce1456e0796cde161,656018846682f3df8008bb8f,656019cfd64dc15b69ecefcf,1,1,163,125,1,seveneight,,,,,,,,,,,,,,,,,,,,,,,,,,,,,,,,,,,,,,,,,,,,,,,,,,,,,,,,,,,,,,,,,,,,,,,,,,,,,,,,,,,,,
60be17bce1456e0796cde161,2023-11-24_05h35.16.425,kallum_motion_pilot,2023.1.2,Win32,60.02040694,60be17bce1456e0796cde161,656018846682f3df8008bb8f,656019cfd64dc15b69ecefcf,1,2,164,60,1,threeone,,,,,,,,,,,,,,,,,,,,,,,,,,,,,,,,,,,,,,,,,,,,,,,,,,,,,,,,,,,,,,,,,,,,,,,,,,,,,,,,,,,,,
60be17bce1456e0796cde161,2023-11-24_05h35.16.425,kallum_motion_pilot,2023.1.2,Win32,60.02040694,60be17bce1456e0796cde161,656018846682f3df8008bb8f,656019cfd64dc15b69ecefcf,1,3,165,20,1,threeone,,,,,,,,,,,,,,,,,,,,,,,,,,,,,,,,,,,,,,,,,,,,,,,,,,,,,,,,,,,,,,,,,,,,,,,,,,,,,,,,,,,,,
60be17bce1456e0796cde161,2023-11-24_05h35.16.425,kallum_motion_pilot,2023.1.2,Win32,60.02040694,60be17bce1456e0796cde161,656018846682f3df8008bb8f,656019cfd64dc15b69ecefcf,1,4,166,19,1,twofour,,,,,,,,,,,,,,,,,,,,,,,,,,,,,,,,,,,,,,,,,,,,,,,,,,,,,,,,,,,,,,,,,,,,,,,,,,,,,,,,,,,,,
60be17bce1456e0796cde161,2023-11-24_05h35.16.425,kallum_motion_pilot,2023.1.2,Win32,60.02040694,60be17bce1456e0796cde161,656018846682f3df8008bb8f,656019cfd64dc15b69ecefcf,1,5,167,12,1,threeone,,,,,,,,,,,,,,,,,,,,,,,,,,,,,,,,,,,,,,,,,,,,,,,,,,,,,,,,,,,,,,,,,,,,,,,,,,,,,,,,,,,,,
60be17bce1456e0796cde161,2023-11-24_05h35.16.425,kallum_motion_pilot,2023.1.2,Win32,60.02040694,60be17bce1456e0796cde161,656018846682f3df8008bb8f,656019cfd64dc15b69ecefcf,1,6,168,6,1,fourtwo,,,,,,,,,,,,,,,,,,,,,,,,,,,,,,,,,,,,,,,,,,,,,,,,,,,,,,,,,,,,,,,,,,,,,,,,,,,,,,,,,,,,,
60be17bce1456e0796cde161,2023-11-24_05h35.16.425,kallum_motion_pilot,2023.1.2,Win32,60.02040694,60be17bce1456e0796cde161,656018846682f3df8008bb8f,656019cfd64dc15b69ecefcf,1,7,169,108,1,sevenfive,,,,,,,,,,,,,,,,,,,,,,,,,,,,,,,,,,,,,,,,,,,,,,,,,,,,,,,,,,,,,,,,,,,,,,,,,,,,,,,,,,,,,
60be17bce1456e0796cde161,2023-11-24_05h35.16.425,kallum_motion_pilot,2023.1.2,Win32,60.02040694,60be17bce1456e0796cde161,656018846682f3df8008bb8f,656019cfd64dc15b69ecefcf,1,8,170,160,1,fivesix,,,,,,,,,,,,,,,,,,,,,,,,,,,,,,,,,,,,,,,,,,,,,,,,,,,,,,,,,,,,,,,,,,,,,,,,,,,,,,,,,,,,,
60be17bce1456e0796cde161,2023-11-24_05h35.16.425,kallum_motion_pilot,2023.1.2,Win32,60.02040694,60be17bce1456e0796cde161,656018846682f3df8008bb8f,656019cfd64dc15b69ecefcf,1,9,171,96,1,fivesix,,,,,,,,,,,,,,,,,,,,,,,,,,,,,,,,,,,,,,,,,,,,,,,,,,,,,,,,,,,,,,,,,,,,,,,,,,,,,,,,,,,,,
60be17bce1456e0796cde161,2023-11-24_05h35.16.425,kallum_motion_pilot,2023.1.2,Win32,60.02040694,60be17bce1456e0796cde161,656018846682f3df8008bb8f,656019cfd64dc15b69ecefcf,1,10,172,130,1,sixfive,,,,,,,,,,,,,,,,,,,,,,,,,,,,,,,,,,,,,,,,,,,,,,,,,,,,,,,,,,,,,,,,,,,,,,,,,,,,,,,,,,,,,
60be17bce1456e0796cde161,2023-11-24_05h35.16.425,kallum_motion_pilot,2023.1.2,Win32,60.02040694,60be17bce1456e0796cde161,656018846682f3df8008bb8f,656019cfd64dc15b69ecefcf,1,11,173,41,1,onethree,,,,,,,,,,,,,,,,,,,,,,,,,,,,,,,,,,,,,,,,,,,,,,,,,,,,,,,,,,,,,,,,,,,,,,,,,,,,,,,,,,,,,
60be17bce1456e0796cde161,2023-11-24_05h35.16.425,kallum_motion_pilot,2023.1.2,Win32,60.02040694,60be17bce1456e0796cde161,656018846682f3df8008bb8f,656019cfd64dc15b69ecefcf,1,12,174,124,1,sevenfive,,,,,,,,,,,,,,,,,,,,,,,,,,,,,,,,,,,,,,,,,,,,,,,,,,,,,,,,,,,,,,,,,,,,,,,,,,,,,,,,,,,,,
60be17bce1456e0796cde161,2023-11-24_05h35.16.425,kallum_motion_pilot,2023.1.2,Win32,60.02040694,60be17bce1456e0796cde161,656018846682f3df8008bb8f,656019cfd64dc15b69ecefcf,1,13,175,14,1,fourtwo,,,,,,,,,,,,,,,,,,,,,,,,,,,,,,,,,,,,,,,,,,,,,,,,,,,,,,,,,,,,,,,,,,,,,,,,,,,,,,,,,,,,,
60be17bce1456e0796cde161,2023-11-24_05h35.16.425,kallum_motion_pilot,2023.1.2,Win32,60.02040694,60be17bce1456e0796cde161,656018846682f3df8008bb8f,656019cfd64dc15b69ecefcf,1,14,176,148,1,sevenfive,,,,,,,,,,,,,,,,,,,,,,,,,,,,,,,,,,,,,,,,,,,,,,,,,,,,,,,,,,,,,,,,,,,,,,,,,,,,,,,,,,,,,
60be17bce1456e0796cde161,2023-11-24_05h35.16.425,kallum_motion_pilot,2023.1.2,Win32,60.02040694,60be17bce1456e0796cde161,656018846682f3df8008bb8f,656019cfd64dc15b69ecefcf,1,15,177,8,1,onetwo,,,,,,,,,,,,,,,,,,,,,,,,,,,,,,,,,,,,,,,,,,,,,,,,,,,,,,,,,,,,,,,,,,,,,,,,,,,,,,,,,,,,,
60be17bce1456e0796cde161,2023-11-24_05h35.16.425,kallum_motion_pilot,2023.1.2,Win32,60.02040694,60be17bce1456e0796cde161,656018846682f3df8008bb8f,656019cfd64dc15b69ecefcf,1,16,178,53,1,threefour,,,,,,,,,,,,,,,,,,,,,,,,,,,,,,,,,,,,,,,,,,,,,,,,,,,,,,,,,,,,,,,,,,,,,,,,,,,,,,,,,,,,,
60be17bce1456e0796cde161,2023-11-24_05h35.16.425,kallum_motion_pilot,2023.1.2,Win32,60.02040694,60be17bce1456e0796cde161,656018846682f3df8008bb8f,656019cfd64dc15b69ecefcf,1,17,179,98,1,sixfive,,,,,,,,,,,,,,,,,,,,,,,,,,,,,,,,,,,,,,,,,,,,,,,,,,,,,,,,,,,,,,,,,,,,,,,,,,,,,,,,,,,,,
60be17bce1456e0796cde161,2023-11-24_05h35.16.425,kallum_motion_pilot,2023.1.2,Win32,60.02040694,60be17bce1456e0796cde161,656018846682f3df8008bb8f,656019cfd64dc15b69ecefcf,1,18,180,69,1,threefour,,,,,,,,,,,,,,,,,,,,,,,,,,,,,,,,,,,,,,,,,,,,,,,,,,,,,,,,,,,,,,,,,,,,,,,,,,,,,,,,,,,,,
60be17bce1456e0796cde161,2023-11-24_05h35.16.425,kallum_motion_pilot,2023.1.2,Win32,60.02040694,60be17bce1456e0796cde161,656018846682f3df8008bb8f,656019cfd64dc15b69ecefcf,1,19,181,116,1,sevenfive,,,,,,,,,,,,,,,,,,,,,,,,,,,,,,,,,,,,,,,,,,,,,,,,,,,,,,,,,,,,,,,,,,,,,,,,,,,,,,,,,,,,,
60be17bce1456e0796cde161,2023-11-24_05h35.16.425,kallum_motion_pilot,2023.1.2,Win32,60.02040694,60be17bce1456e0796cde161,656018846682f3df8008bb8f,656019cfd64dc15b69ecefcf,1,20,182,127,1,eightseven,,,,,,,,,,,,,,,,,,,,,,,,,,,,,,,,,,,,,,,,,,,,,,,,,,,,,,,,,,,,,,,,,,,,,,,,,,,,,,,,,,,,,
60be17bce1456e0796cde161,2023-11-24_05h35.16.425,kallum_motion_pilot,2023.1.2,Win32,60.02040694,60be17bce1456e0796cde161,656018846682f3df8008bb8f,656019cfd64dc15b69ecefcf,1,21,183,88,1,fivesix,,,,,,,,,,,,,,,,,,,,,,,,,,,,,,,,,,,,,,,,,,,,,,,,,,,,,,,,,,,,,,,,,,,,,,,,,,,,,,,,,,,,,
60be17bce1456e0796cde161,2023-11-24_05h35.16.425,kallum_motion_pilot,2023.1.2,Win32,60.02040694,60be17bce1456e0796cde161,656018846682f3df8008bb8f,656019cfd64dc15b69ecefcf,1,22,184,56,1,onetwo,,,,,,,,,,,,,,,,,,,,,,,,,,,,,,,,,,,,,,,,,,,,,,,,,,,,,,,,,,,,,,,,,,,,,,,,,,,,,,,,,,,,,
60be17bce1456e0796cde161,2023-11-24_05h35.16.425,kallum_motion_pilot,2023.1.2,Win32,60.02040694,60be17bce1456e0796cde161,656018846682f3df8008bb8f,656019cfd64dc15b69ecefcf,1,23,185,113,1,fiveseven,,,,,,,,,,,,,,,,,,,,,,,,,,,,,,,,,,,,,,,,,,,,,,,,,,,,,,,,,,,,,,,,,,,,,,,,,,,,,,,,,,,,,
60be17bce1456e0796cde161,2023-11-24_05h35.16.425,kallum_motion_pilot,2023.1.2,Win32,60.02040694,60be17bce1456e0796cde161,656018846682f3df8008bb8f,656019cfd64dc15b69ecefcf,1,24,186,78,1,fourtwo,,,,,,,,,,,,,,,,,,,,,,,,,,,,,,,,,,,,,,,,,,,,,,,,,,,,,,,,,,,,,,,,,,,,,,,,,,,,,,,,,,,,,
60be17bce1456e0796cde161,2023-11-24_05h35.16.425,kallum_motion_pilot,2023.1.2,Win32,60.02040694,60be17bce1456e0796cde161,656018846682f3df8008bb8f,656019cfd64dc15b69ecefcf,1,25,187,154,1,sixfive,,,,,,,,,,,,,,,,,,,,,,,,,,,,,,,,,,,,,,,,,,,,,,,,,,,,,,,,,,,,,,,,,,,,,,,,,,,,,,,,,,,,,
60be17bce1456e0796cde161,2023-11-24_05h35.16.425,kallum_motion_pilot,2023.1.2,Win32,60.02040694,60be17bce1456e0796cde161,656018846682f3df8008bb8f,656019cfd64dc15b69ecefcf,1,26,188,147,1,sixeight,,,,,,,,,,,,,,,,,,,,,,,,,,,,,,,,,,,,,,,,,,,,,,,,,,,,,,,,,,,,,,,,,,,,,,,,,,,,,,,,,,,,,
60be17bce1456e0796cde161,2023-11-24_05h35.16.425,kallum_motion_pilot,2023.1.2,Win32,60.02040694,60be17bce1456e0796cde161,656018846682f3df8008bb8f,656019cfd64dc15b69ecefcf,1,27,189,118,1,eightsix,,,,,,,,,,,,,,,,,,,,,,,,,,,,,,,,,,,,,,,,,,,,,,,,,,,,,,,,,,,,,,,,,,,,,,,,,,,,,,,,,,,,,
60be17bce1456e0796cde161,2023-11-24_05h35.16.425,kallum_motion_pilot,2023.1.2,Win32,60.02040694,60be17bce1456e0796cde161,656018846682f3df8008bb8f,656019cfd64dc15b69ecefcf,1,28,190,10,1,twoone,,,,,,,,,,,,,,,,,,,,,,,,,,,,,,,,,,,,,,,,,,,,,,,,,,,,,,,,,,,,,,,,,,,,,,,,,,,,,,,,,,,,,
60be17bce1456e0796cde161,2023-11-24_05h35.16.425,kallum_motion_pilot,2023.1.2,Win32,60.02040694,60be17bce1456e0796cde161,656018846682f3df8008bb8f,656019cfd64dc15b69ecefcf,1,29,191,84,1,sevenfive,,,,,,,,,,,,,,,,,,,,,,,,,,,,,,,,,,,,,,,,,,,,,,,,,,,,,,,,,,,,,,,,,,,,,,,,,,,,,,,,,,,,,
60be17bce1456e0796cde161,2023-11-24_05h35.16.425,kallum_motion_pilot,2023.1.2,Win32,60.02040694,60be17bce1456e0796cde161,656018846682f3df8008bb8f,656019cfd64dc15b69ecefcf,1,30,192,152,1,fivesix,,,,,,,,,,,,,,,,,,,,,,,,,,,,,,,,,,,,,,,,,,,,,,,,,,,,,,,,,,,,,,,,,,,,,,,,,,,,,,,,,,,,,
60be17bce1456e0796cde161,2023-11-24_05h35.16.425,kallum_motion_pilot,2023.1.2,Win32,60.02040694,60be17bce1456e0796cde161,656018846682f3df8008bb8f,656019cfd64dc15b69ecefcf,1,31,193,2,1,twoone,,,,,,,,,,,,,,,,,,,,,,,,,,,,,,,,,,,,,,,,,,,,,,,,,,,,,,,,,,,,,,,,,,,,,,,,,,,,,,,,,,,,,
60be17bce1456e0796cde161,2023-11-24_05h35.16.425,kallum_motion_pilot,2023.1.2,Win32,60.02040694,60be17bce1456e0796cde161,656018846682f3df8008bb8f,656019cfd64dc15b69ecefcf,1,32,194,5,1,threefour,,,,,,,,,,,,,,,,,,,,,,,,,,,,,,,,,,,,,,,,,,,,,,,,,,,,,,,,,,,,,,,,,,,,,,,,,,,,,,,,,,,,,
60be17bce1456e0796cde161,2023-11-24_05h35.16.425,kallum_motion_pilot,2023.1.2,Win32,60.02040694,60be17bce1456e0796cde161,656018846682f3df8008bb8f,656019cfd64dc15b69ecefcf,1,33,195,24,1,onetwo,,,,,,,,,,,,,,,,,,,,,,,,,,,,,,,,,,,,,,,,,,,,,,,,,,,,,,,,,,,,,,,,,,,,,,,,,,,,,,,,,,,,,
60be17bce1456e0796cde161,2023-11-24_05h35.16.425,kallum_motion_pilot,2023.1.2,Win32,60.02040694,60be17bce1456e0796cde161,656018846682f3df8008bb8f,656019cfd64dc15b69ecefcf,1,34,196,135,1,eightseven,,,,,,,,,,,,,,,,,,,,,,,,,,,,,,,,,,,,,,,,,,,,,,,,,,,,,,,,,,,,,,,,,,,,,,,,,,,,,,,,,,,,,
60be17bce1456e0796cde161,2023-11-24_05h35.16.425,kallum_motion_pilot,2023.1.2,Win32,60.02040694,60be17bce1456e0796cde161,656018846682f3df8008bb8f,656019cfd64dc15b69ecefcf,1,35,197,139,1,sixeight,,,,,,,,,,,,,,,,,,,,,,,,,,,,,,,,,,,,,,,,,,,,,,,,,,,,,,,,,,,,,,,,,,,,,,,,,,,,,,,,,,,,,
60be17bce1456e0796cde161,2023-11-24_05h35.16.425,kallum_motion_pilot,2023.1.2,Win32,60.02040694,60be17bce1456e0796cde161,656018846682f3df8008bb8f,656019cfd64dc15b69ecefcf,1,36,198,92,1,sevenfive,,,,,,,,,,,,,,,,,,,,,,,,,,,,,,,,,,,,,,,,,,,,,,,,,,,,,,,,,,,,,,,,,,,,,,,,,,,,,,,,,,,,,
60be17bce1456e0796cde161,2023-11-24_05h35.16.425,kallum_motion_pilot,2023.1.2,Win32,60.02040694,60be17bce1456e0796cde161,656018846682f3df8008bb8f,656019cfd64dc15b69ecefcf,1,37,199,68,1,threeone,,,,,,,,,,,,,,,,,,,,,,,,,,,,,,,,,,,,,,,,,,,,,,,,,,,,,,,,,,,,,,,,,,,,,,,,,,,,,,,,,,,,,
60be17bce1456e0796cde161,2023-11-24_05h35.16.425,kallum_motion_pilot,2023.1.2,Win32,60.02040694,60be17bce1456e0796cde161,656018846682f3df8008bb8f,656019cfd64dc15b69ecefcf,1,38,200,37,1,threefour,,,,,,,,,,,,,,,,,,,,,,,,,,,,,,,,,,,,,,,,,,,,,,,,,,,,,,,,,,,,,,,,,,,,,,,,,,,,,,,,,,,,,
60be17bce1456e0796cde161,2023-11-24_05h35.16.425,kallum_motion_pilot,2023.1.2,Win32,60.02040694,60be17bce1456e0796cde161,656018846682f3df8008bb8f,656019cfd64dc15b69ecefcf,1,39,201,27,1,twofour,,,,,,,,,,,,,,,,,,,,,,,,,,,,,,,,,,,,,,,,,,,,,,,,,,,,,,,,,,,,,,,,,,,,,,,,,,,,,,,,,,,,,
60be17bce1456e0796cde161,2023-11-24_05h35.16.425,kallum_motion_pilot,2023.1.2,Win32,60.02040694,60be17bce1456e0796cde161,656018846682f3df8008bb8f,656019cfd64dc15b69ecefcf,1,40,202,111,1,eightseven,,,,,,,,,,,,,,,,,,,,,,,,,,,,,,,,,,,,,,,,,,,,,,,,,,,,,,,,,,,,,,,,,,,,,,,,,,,,,,,,,,,,,
60be17bce1456e0796cde161,2023-11-24_05h35.16.425,kallum_motion_pilot,2023.1.2,Win32,60.02040694,60be17bce1456e0796cde161,656018846682f3df8008bb8f,656019cfd64dc15b69ecefcf,1,41,203,149,1,seveneight,,,,,,,,,,,,,,,,,,,,,,,,,,,,,,,,,,,,,,,,,,,,,,,,,,,,,,,,,,,,,,,,,,,,,,,,,,,,,,,,,,,,,
60be17bce1456e0796cde161,2023-11-24_05h35.16.425,kallum_motion_pilot,2023.1.2,Win32,60.02040694,60be17bce1456e0796cde161,656018846682f3df8008bb8f,656019cfd64dc15b69ecefcf,1,42,204,90,1,sixfive,,,,,,,,,,,,,,,,,,,,,,,,,,,,,,,,,,,,,,,,,,,,,,,,,,,,,,,,,,,,,,,,,,,,,,,,,,,,,,,,,,,,,
60be17bce1456e0796cde161,2023-11-24_05h35.16.425,kallum_motion_pilot,2023.1.2,Win32,60.02040694,60be17bce1456e0796cde161,656018846682f3df8008bb8f,656019cfd64dc15b69ecefcf,1,43,205,43,1,twofour,,,,,,,,,,,,,,,,,,,,,,,,,,,,,,,,,,,,,,,,,,,,,,,,,,,,,,,,,,,,,,,,,,,,,,,,,,,,,,,,,,,,,
60be17bce1456e0796cde161,2023-11-24_05h35.16.425,kallum_motion_pilot,2023.1.2,Win32,60.02040694,60be17bce1456e0796cde161,656018846682f3df8008bb8f,656019cfd64dc15b69ecefcf,1,44,206,138,1,sixfive,,,,,,,,,,,,,,,,,,,,,,,,,,,,,,,,,,,,,,,,,,,,,,,,,,,,,,,,,,,,,,,,,,,,,,,,,,,,,,,,,,,,,
60be17bce1456e0796cde161,2023-11-24_05h35.16.425,kallum_motion_pilot,2023.1.2,Win32,60.02040694,60be17bce1456e0796cde161,656018846682f3df8008bb8f,656019cfd64dc15b69ecefcf,1,45,207,73,1,onethree,,,,,,,,,,,,,,,,,,,,,,,,,,,,,,,,,,,,,,,,,,,,,,,,,,,,,,,,,,,,,,,,,,,,,,,,,,,,,,,,,,,,,
60be17bce1456e0796cde161,2023-11-24_05h35.16.425,kallum_motion_pilot,2023.1.2,Win32,60.02040694,60be17bce1456e0796cde161,656018846682f3df8008bb8f,656019cfd64dc15b69ecefcf,1,46,208,80,1,fivesix,,,,,,,,,,,,,,,,,,,,,,,,,,,,,,,,,,,,,,,,,,,,,,,,,,,,,,,,,,,,,,,,,,,,,,,,,,,,,,,,,,,,,
60be17bce1456e0796cde161,2023-11-24_05h35.16.425,kallum_motion_pilot,2023.1.2,Win32,60.02040694,60be17bce1456e0796cde161,656018846682f3df8008bb8f,656019cfd64dc15b69ecefcf,1,47,209,79,1,eightseven,,,,,,,,,,,,,,,,,,,,,,,,,,,,,,,,,,,,,,,,,,,,,,,,,,,,,,,,,,,,,,,,,,,,,,,,,,,,,,,,,,,,,
60be17bce1456e0796cde161,2023-11-24_05h35.16.425,kallum_motion_pilot,2023.1.2,Win32,60.02040694,60be17bce1456e0796cde161,656018846682f3df8008bb8f,656019cfd64dc15b69ecefcf,1,48,210,55,1,fourthree,,,,,,,,,,,,,,,,,,,,,,,,,,,,,,,,,,,,,,,,,,,,,,,,,,,,,,,,,,,,,,,,,,,,,,,,,,,,,,,,,,,,,
60be17bce1456e0796cde161,2023-11-24_05h35.16.425,kallum_motion_pilot,2023.1.2,Win32,60.02040694,60be17bce1456e0796cde161,656018846682f3df8008bb8f,656019cfd64dc15b69ecefcf,1,49,211,131,1,sixeight,,,,,,,,,,,,,,,,,,,,,,,,,,,,,,,,,,,,,,,,,,,,,,,,,,,,,,,,,,,,,,,,,,,,,,,,,,,,,,,,,,,,,
60be17bce1456e0796cde161,2023-11-24_05h35.16.425,kallum_motion_pilot,2023.1.2,Win32,60.02040694,60be17bce1456e0796cde161,656018846682f3df8008bb8f,656019cfd64dc15b69ecefcf,1,50,212,35,1,twofour,,,,,,,,,,,,,,,,,,,,,,,,,,,,,,,,,,,,,,,,,,,,,,,,,,,,,,,,,,,,,,,,,,,,,,,,,,,,,,,,,,,,,
60be17bce1456e0796cde161,2023-11-24_05h35.16.425,kallum_motion_pilot,2023.1.2,Win32,60.02040694,60be17bce1456e0796cde161,656018846682f3df8008bb8f,656019cfd64dc15b69ecefcf,1,51,213,100,1,sevenfive,,,,,,,,,,,,,,,,,,,,,,,,,,,,,,,,,,,,,,,,,,,,,,,,,,,,,,,,,,,,,,,,,,,,,,,,,,,,,,,,,,,,,
60be17bce1456e0796cde161,2023-11-24_05h35.16.425,kallum_motion_pilot,2023.1.2,Win32,60.02040694,60be17bce1456e0796cde161,656018846682f3df8008bb8f,656019cfd64dc15b69ecefcf,1,52,214,58,1,twoone,,,,,,,,,,,,,,,,,,,,,,,,,,,,,,,,,,,,,,,,,,,,,,,,,,,,,,,,,,,,,,,,,,,,,,,,,,,,,,,,,,,,,
60be17bce1456e0796cde161,2023-11-24_05h35.16.425,kallum_motion_pilot,2023.1.2,Win32,60.02040694,60be17bce1456e0796cde161,656018846682f3df8008bb8f,656019cfd64dc15b69ecefcf,1,53,215,9,1,onethree,,,,,,,,,,,,,,,,,,,,,,,,,,,,,,,,,,,,,,,,,,,,,,,,,,,,,,,,,,,,,,,,,,,,,,,,,,,,,,,,,,,,,
60be17bce1456e0796cde161,2023-11-24_05h35.16.425,kallum_motion_pilot,2023.1.2,Win32,60.02040694,60be17bce1456e0796cde161,656018846682f3df8008bb8f,656019cfd64dc15b69ecefcf,1,54,216,114,1,sixfive,,,,,,,,,,,,,,,,,,,,,,,,,,,,,,,,,,,,,,,,,,,,,,,,,,,,,,,,,,,,,,,,,,,,,,,,,,,,,,,,,,,,,
60be17bce1456e0796cde161,2023-11-24_05h35.16.425,kallum_motion_pilot,2023.1.2,Win32,60.02040694,60be17bce1456e0796cde161,656018846682f3df8008bb8f,656019cfd64dc15b69ecefcf,1,55,217,66,1,twoone,,,,,,,,,,,,,,,,,,,,,,,,,,,,,,,,,,,,,,,,,,,,,,,,,,,,,,,,,,,,,,,,,,,,,,,,,,,,,,,,,,,,,
60be17bce1456e0796cde161,2023-11-24_05h35.16.425,kallum_motion_pilot,2023.1.2,Win32,60.02040694,60be17bce1456e0796cde161,656018846682f3df8008bb8f,656019cfd64dc15b69ecefcf,1,56,218,145,1,fiveseven,,,,,,,,,,,,,,,,,,,,,,,,,,,,,,,,,,,,,,,,,,,,,,,,,,,,,,,,,,,,,,,,,,,,,,,,,,,,,,,,,,,,,
60be17bce1456e0796cde161,2023-11-24_05h35.16.425,kallum_motion_pilot,2023.1.2,Win32,60.02040694,60be17bce1456e0796cde161,656018846682f3df8008bb8f,656019cfd64dc15b69ecefcf,1,57,219,94,1,eightsix,,,,,,,,,,,,,,,,,,,,,,,,,,,,,,,,,,,,,,,,,,,,,,,,,,,,,,,,,,,,,,,,,,,,,,,,,,,,,,,,,,,,,
60be17bce1456e0796cde161,2023-11-24_05h35.16.425,kallum_motion_pilot,2023.1.2,Win32,60.02040694,60be17bce1456e0796cde161,656018846682f3df8008bb8f,656019cfd64dc15b69ecefcf,1,58,220,61,1,threefour,,,,,,,,,,,,,,,,,,,,,,,,,,,,,,,,,,,,,,,,,,,,,,,,,,,,,,,,,,,,,,,,,,,,,,,,,,,,,,,,,,,,,
60be17bce1456e0796cde161,2023-11-24_05h35.16.425,kallum_motion_pilot,2023.1.2,Win32,60.02040694,60be17bce1456e0796cde161,656018846682f3df8008bb8f,656019cfd64dc15b69ecefcf,1,59,221,25,1,onethree,,,,,,,,,,,,,,,,,,,,,,,,,,,,,,,,,,,,,,,,,,,,,,,,,,,,,,,,,,,,,,,,,,,,,,,,,,,,,,,,,,,,,
60be17bce1456e0796cde161,2023-11-24_05h35.16.425,kallum_motion_pilot,2023.1.2,Win32,60.02040694,60be17bce1456e0796cde161,656018846682f3df8008bb8f,656019cfd64dc15b69ecefcf,1,60,222,122,1,sixfive,,,,,,,,,,,,,,,,,,,,,,,,,,,,,,,,,,,,,,,,,,,,,,,,,,,,,,,,,,,,,,,,,,,,,,,,,,,,,,,,,,,,,
60be17bce1456e0796cde161,2023-11-24_05h35.16.425,kallum_motion_pilot,2023.1.2,Win32,60.02040694,60be17bce1456e0796cde161,656018846682f3df8008bb8f,656019cfd64dc15b69ecefcf,1,61,223,123,1,sixeight,,,,,,,,,,,,,,,,,,,,,,,,,,,,,,,,,,,,,,,,,,,,,,,,,,,,,,,,,,,,,,,,,,,,,,,,,,,,,,,,,,,,,
60be17bce1456e0796cde161,2023-11-24_05h35.16.425,kallum_motion_pilot,2023.1.2,Win32,60.02040694,60be17bce1456e0796cde161,656018846682f3df8008bb8f,656019cfd64dc15b69ecefcf,1,62,224,31,1,fourthree,,,,,,,,,,,,,,,,,,,,,,,,,,,,,,,,,,,,,,,,,,,,,,,,,,,,,,,,,,,,,,,,,,,,,,,,,,,,,,,,,,,,,
60be17bce1456e0796cde161,2023-11-24_05h35.16.425,kallum_motion_pilot,2023.1.2,Win32,60.02040694,60be17bce1456e0796cde161,656018846682f3df8008bb8f,656019cfd64dc15b69ecefcf,1,63,225,143,1,eightseven,,,,,,,,,,,,,,,,,,,,,,,,,,,,,,,,,,,,,,,,,,,,,,,,,,,,,,,,,,,,,,,,,,,,,,,,,,,,,,,,,,,,,
60be17bce1456e0796cde161,2023-11-24_05h35.16.425,kallum_motion_pilot,2023.1.2,Win32,60.02040694,60be17bce1456e0796cde161,656018846682f3df8008bb8f,656019cfd64dc15b69ecefcf,1,64,226,65,1,onethree,,,,,,,,,,,,,,,,,,,,,,,,,,,,,,,,,,,,,,,,,,,,,,,,,,,,,,,,,,,,,,,,,,,,,,,,,,,,,,,,,,,,,
60be17bce1456e0796cde161,2023-11-24_05h35.16.425,kallum_motion_pilot,2023.1.2,Win32,60.02040694,60be17bce1456e0796cde161,656018846682f3df8008bb8f,656019cfd64dc15b69ecefcf,1,65,227,75,1,twofour,,,,,,,,,,,,,,,,,,,,,,,,,,,,,,,,,,,,,,,,,,,,,,,,,,,,,,,,,,,,,,,,,,,,,,,,,,,,,,,,,,,,,
60be17bce1456e0796cde161,2023-11-24_05h35.16.425,kallum_motion_pilot,2023.1.2,Win32,60.02040694,60be17bce1456e0796cde161,656018846682f3df8008bb8f,656019cfd64dc15b69ecefcf,1,66,228,133,1,seveneight,,,,,,,,,,,,,,,,,,,,,,,,,,,,,,,,,,,,,,,,,,,,,,,,,,,,,,,,,,,,,,,,,,,,,,,,,,,,,,,,,,,,,
60be17bce1456e0796cde161,2023-11-24_05h35.16.425,kallum_motion_pilot,2023.1.2,Win32,60.02040694,60be17bce1456e0796cde161,656018846682f3df8008bb8f,656019cfd64dc15b69ecefcf,1,67,229,119,1,eightseven,,,,,,,,,,,,,,,,,,,,,,,,,,,,,,,,,,,,,,,,,,,,,,,,,,,,,,,,,,,,,,,,,,,,,,,,,,,,,,,,,,,,,
60be17bce1456e0796cde161,2023-11-24_05h35.16.425,kallum_motion_pilot,2023.1.2,Win32,60.02040694,60be17bce1456e0796cde161,656018846682f3df8008bb8f,656019cfd64dc15b69ecefcf,1,68,230,39,1,fourthree,,,,,,,,,,,,,,,,,,,,,,,,,,,,,,,,,,,,,,,,,,,,,,,,,,,,,,,,,,,,,,,,,,,,,,,,,,,,,,,,,,,,,
60be17bce1456e0796cde161,2023-11-24_05h35.16.425,kallum_motion_pilot,2023.1.2,Win32,60.02040694,60be17bce1456e0796cde161,656018846682f3df8008bb8f,656019cfd64dc15b69ecefcf,1,69,231,140,1,sevenfive,,,,,,,,,,,,,,,,,,,,,,,,,,,,,,,,,,,,,,,,,,,,,,,,,,,,,,,,,,,,,,,,,,,,,,,,,,,,,,,,,,,,,
60be17bce1456e0796cde161,2023-11-24_05h35.16.425,kallum_motion_pilot,2023.1.2,Win32,60.02040694,60be17bce1456e0796cde161,656018846682f3df8008bb8f,656019cfd64dc15b69ecefcf,1,70,232,87,1,eightseven,,,,,,,,,,,,,,,,,,,,,,,,,,,,,,,,,,,,,,,,,,,,,,,,,,,,,,,,,,,,,,,,,,,,,,,,,,,,,,,,,,,,,
60be17bce1456e0796cde161,2023-11-24_05h35.16.425,kallum_motion_pilot,2023.1.2,Win32,60.02040694,60be17bce1456e0796cde161,656018846682f3df8008bb8f,656019cfd64dc15b69ecefcf,1,71,233,155,1,sixeight,,,,,,,,,,,,,,,,,,,,,,,,,,,,,,,,,,,,,,,,,,,,,,,,,,,,,,,,,,,,,,,,,,,,,,,,,,,,,,,,,,,,,
60be17bce1456e0796cde161,2023-11-24_05h35.16.425,kallum_motion_pilot,2023.1.2,Win32,60.02040694,60be17bce1456e0796cde161,656018846682f3df8008bb8f,656019cfd64dc15b69ecefcf,1,72,234,11,1,twofour,,,,,,,,,,,,,,,,,,,,,,,,,,,,,,,,,,,,,,,,,,,,,,,,,,,,,,,,,,,,,,,,,,,,,,,,,,,,,,,,,,,,,
60be17bce1456e0796cde161,2023-11-24_05h35.16.425,kallum_motion_pilot,2023.1.2,Win32,60.02040694,60be17bce1456e0796cde161,656018846682f3df8008bb8f,656019cfd64dc15b69ecefcf,1,73,235,97,1,fiveseven,,,,,,,,,,,,,,,,,,,,,,,,,,,,,,,,,,,,,,,,,,,,,,,,,,,,,,,,,,,,,,,,,,,,,,,,,,,,,,,,,,,,,
60be17bce1456e0796cde161,2023-11-24_05h35.16.425,kallum_motion_pilot,2023.1.2,Win32,60.02040694,60be17bce1456e0796cde161,656018846682f3df8008bb8f,656019cfd64dc15b69ecefcf,1,74,236,48,1,onetwo,,,,,,,,,,,,,,,,,,,,,,,,,,,,,,,,,,,,,,,,,,,,,,,,,,,,,,,,,,,,,,,,,,,,,,,,,,,,,,,,,,,,,
60be17bce1456e0796cde161,2023-11-24_05h35.16.425,kallum_motion_pilot,2023.1.2,Win32,60.02040694,60be17bce1456e0796cde161,656018846682f3df8008bb8f,656019cfd64dc15b69ecefcf,1,75,237,63,1,fourthree,,,,,,,,,,,,,,,,,,,,,,,,,,,,,,,,,,,,,,,,,,,,,,,,,,,,,,,,,,,,,,,,,,,,,,,,,,,,,,,,,,,,,
60be17bce1456e0796cde161,2023-11-24_05h35.16.425,kallum_motion_pilot,2023.1.2,Win32,60.02040694,60be17bce1456e0796cde161,656018846682f3df8008bb8f,656019cfd64dc15b69ecefcf,1,76,238,159,1,eightseven,,,,,,,,,,,,,,,,,,,,,,,,,,,,,,,,,,,,,,,,,,,,,,,,,,,,,,,,,,,,,,,,,,,,,,,,,,,,,,,,,,,,,
60be17bce1456e0796cde161,2023-11-24_05h35.16.425,kallum_motion_pilot,2023.1.2,Win32,60.02040694,60be17bce1456e0796cde161,656018846682f3df8008bb8f,656019cfd64dc15b69ecefcf,1,77,239,46,1,fourtwo,,,,,,,,,,,,,,,,,,,,,,,,,,,,,,,,,,,,,,,,,,,,,,,,,,,,,,,,,,,,,,,,,,,,,,,,,,,,,,,,,,,,,
60be17bce1456e0796cde161,2023-11-24_05h35.16.425,kallum_motion_pilot,2023.1.2,Win32,60.02040694,60be17bce1456e0796cde161,656018846682f3df8008bb8f,656019cfd64dc15b69ecefcf,1,78,240,16,1,onetwo,,,,,,,,,,,,,,,,,,,,,,,,,,,,,,,,,,,,,,,,,,,,,,,,,,,,,,,,,,,,,,,,,,,,,,,,,,,,,,,,,,,,,
60be17bce1456e0796cde161,2023-11-24_05h35.16.425,kallum_motion_pilot,2023.1.2,Win32,60.02040694,60be17bce1456e0796cde161,656018846682f3df8008bb8f,656019cfd64dc15b69ecefcf,1,79,241,117,1,seveneight,,,,,,,,,,,,,,,,,,,,,,,,,,,,,,,,,,,,,,,,,,,,,,,,,,,,,,,,,,,,,,,,,,,,,,,,,,,,,,,,,,,,,
60be17bce1456e0796cde161,2023-11-24_05h35.16.425,kallum_motion_pilot,2023.1.2,Win32,60.02040694,60be17bce1456e0796cde161,656018846682f3df8008bb8f,656019cfd64dc15b69ecefcf,1,80,242,36,1,threeone,,,,,,,,,,,,,,,,,,,,,,,,,,,,,,,,,,,,,,,,,,,,,,,,,,,,,,,,,,,,,,,,,,,,,,,,,,,,,,,,,,,,,
60be17bce1456e0796cde161,2023-11-24_05h35.16.425,kallum_motion_pilot,2023.1.2,Win32,60.02040694,60be17bce1456e0796cde161,656018846682f3df8008bb8f,656019cfd64dc15b69ecefcf,1,81,243,4,1,threeone,,,,,,,,,,,,,,,,,,,,,,,,,,,,,,,,,,,,,,,,,,,,,,,,,,,,,,,,,,,,,,,,,,,,,,,,,,,,,,,,,,,,,
60be17bce1456e0796cde161,2023-11-24_05h35.16.425,kallum_motion_pilot,2023.1.2,Win32,60.02040694,60be17bce1456e0796cde161,656018846682f3df8008bb8f,656019cfd64dc15b69ecefcf,1,82,244,158,1,eightsix,,,,,,,,,,,,,,,,,,,,,,,,,,,,,,,,,,,,,,,,,,,,,,,,,,,,,,,,,,,,,,,,,,,,,,,,,,,,,,,,,,,,,
60be17bce1456e0796cde161,2023-11-24_05h35.16.425,kallum_motion_pilot,2023.1.2,Win32,60.02040694,60be17bce1456e0796cde161,656018846682f3df8008bb8f,656019cfd64dc15b69ecefcf,1,83,245,72,1,onetwo,,,,,,,,,,,,,,,,,,,,,,,,,,,,,,,,,,,,,,,,,,,,,,,,,,,,,,,,,,,,,,,,,,,,,,,,,,,,,,,,,,,,,
60be17bce1456e0796cde161,2023-11-24_05h35.16.425,kallum_motion_pilot,2023.1.2,Win32,60.02040694,60be17bce1456e0796cde161,656018846682f3df8008bb8f,656019cfd64dc15b69ecefcf,1,84,246,59,1,twofour,,,,,,,,,,,,,,,,,,,,,,,,,,,,,,,,,,,,,,,,,,,,,,,,,,,,,,,,,,,,,,,,,,,,,,,,,,,,,,,,,,,,,
60be17bce1456e0796cde161,2023-11-24_05h35.16.425,kallum_motion_pilot,2023.1.2,Win32,60.02040694,60be17bce1456e0796cde161,656018846682f3df8008bb8f,656019cfd64dc15b69ecefcf,1,85,247,74,1,twoone,,,,,,,,,,,,,,,,,,,,,,,,,,,,,,,,,,,,,,,,,,,,,,,,,,,,,,,,,,,,,,,,,,,,,,,,,,,,,,,,,,,,,
60be17bce1456e0796cde161,2023-11-24_05h35.16.425,kallum_motion_pilot,2023.1.2,Win32,60.02040694,60be17bce1456e0796cde161,656018846682f3df8008bb8f,656019cfd64dc15b69ecefcf,1,86,248,93,1,seveneight,,,,,,,,,,,,,,,,,,,,,,,,,,,,,,,,,,,,,,,,,,,,,,,,,,,,,,,,,,,,,,,,,,,,,,,,,,,,,,,,,,,,,
60be17bce1456e0796cde161,2023-11-24_05h35.16.425,kallum_motion_pilot,2023.1.2,Win32,60.02040694,60be17bce1456e0796cde161,656018846682f3df8008bb8f,656019cfd64dc15b69ecefcf,1,87,249,115,1,sixeight,,,,,,,,,,,,,,,,,,,,,,,,,,,,,,,,,,,,,,,,,,,,,,,,,,,,,,,,,,,,,,,,,,,,,,,,,,,,,,,,,,,,,
60be17bce1456e0796cde161,2023-11-24_05h35.16.425,kallum_motion_pilot,2023.1.2,Win32,60.02040694,60be17bce1456e0796cde161,656018846682f3df8008bb8f,656019cfd64dc15b69ecefcf,1,88,250,22,1,fourtwo,,,,,,,,,,,,,,,,,,,,,,,,,,,,,,,,,,,,,,,,,,,,,,,,,,,,,,,,,,,,,,,,,,,,,,,,,,,,,,,,,,,,,
60be17bce1456e0796cde161,2023-11-24_05h35.16.425,kallum_motion_pilot,2023.1.2,Win32,60.02040694,60be17bce1456e0796cde161,656018846682f3df8008bb8f,656019cfd64dc15b69ecefcf,1,89,251,54,1,fourtwo,,,,,,,,,,,,,,,,,,,,,,,,,,,,,,,,,,,,,,,,,,,,,,,,,,,,,,,,,,,,,,,,,,,,,,,,,,,,,,,,,,,,,
60be17bce1456e0796cde161,2023-11-24_05h35.16.425,kallum_motion_pilot,2023.1.2,Win32,60.02040694,60be17bce1456e0796cde161,656018846682f3df8008bb8f,656019cfd64dc15b69ecefcf,1,90,252,95,1,eightseven,,,,,,,,,,,,,,,,,,,,,,,,,,,,,,,,,,,,,,,,,,,,,,,,,,,,,,,,,,,,,,,,,,,,,,,,,,,,,,,,,,,,,
60be17bce1456e0796cde161,2023-11-24_05h35.16.425,kallum_motion_pilot,2023.1.2,Win32,60.02040694,60be17bce1456e0796cde161,656018846682f3df8008bb8f,656019cfd64dc15b69ecefcf,1,91,253,83,1,sixeight,,,,,,,,,,,,,,,,,,,,,,,,,,,,,,,,,,,,,,,,,,,,,,,,,,,,,,,,,,,,,,,,,,,,,,,,,,,,,,,,,,,,,
60be17bce1456e0796cde161,2023-11-24_05h35.16.425,kallum_motion_pilot,2023.1.2,Win32,60.02040694,60be17bce1456e0796cde161,656018846682f3df8008bb8f,656019cfd64dc15b69ecefcf,1,92,254,64,1,onetwo,,,,,,,,,,,,,,,,,,,,,,,,,,,,,,,,,,,,,,,,,,,,,,,,,,,,,,,,,,,,,,,,,,,,,,,,,,,,,,,,,,,,,
60be17bce1456e0796cde161,2023-11-24_05h35.16.425,kallum_motion_pilot,2023.1.2,Win32,60.02040694,60be17bce1456e0796cde161,656018846682f3df8008bb8f,656019cfd64dc15b69ecefcf,1,93,255,71,1,fourthree,,,,,,,,,,,,,,,,,,,,,,,,,,,,,,,,,,,,,,,,,,,,,,,,,,,,,,,,,,,,,,,,,,,,,,,,,,,,,,,,,,,,,
60be17bce1456e0796cde161,2023-11-24_05h35.16.425,kallum_motion_pilot,2023.1.2,Win32,60.02040694,60be17bce1456e0796cde161,656018846682f3df8008bb8f,656019cfd64dc15b69ecefcf,1,94,256,161,1,fiveseven,,,,,,,,,,,,,,,,,,,,,,,,,,,,,,,,,,,,,,,,,,,,,,,,,,,,,,,,,,,,,,,,,,,,,,,,,,,,,,,,,,,,,
60be17bce1456e0796cde161,2023-11-24_05h35.16.425,kallum_motion_pilot,2023.1.2,Win32,60.02040694,60be17bce1456e0796cde161,656018846682f3df8008bb8f,656019cfd64dc15b69ecefcf,1,95,257,26,1,twoone,,,,,,,,,,,,,,,,,,,,,,,,,,,,,,,,,,,,,,,,,,,,,,,,,,,,,,,,,,,,,,,,,,,,,,,,,,,,,,,,,,,,,
60be17bce1456e0796cde161,2023-11-24_05h35.16.425,kallum_motion_pilot,2023.1.2,Win32,60.02040694,60be17bce1456e0796cde161,656018846682f3df8008bb8f,656019cfd64dc15b69ecefcf,1,96,258,15,1,fourthree,,,,,,,,,,,,,,,,,,,,,,,,,,,,,,,,,,,,,,,,,,,,,,,,,,,,,,,,,,,,,,,,,,,,,,,,,,,,,,,,,,,,,
60be17bce1456e0796cde161,2023-11-24_05h35.16.425,kallum_motion_pilot,2023.1.2,Win32,60.02040694,60be17bce1456e0796cde161,656018846682f3df8008bb8f,656019cfd64dc15b69ecefcf,1,97,259,7,1,fourthree,,,,,,,,,,,,,,,,,,,,,,,,,,,,,,,,,,,,,,,,,,,,,,,,,,,,,,,,,,,,,,,,,,,,,,,,,,,,,,,,,,,,,
60be17bce1456e0796cde161,2023-11-24_05h35.16.425,kallum_motion_pilot,2023.1.2,Win32,60.02040694,60be17bce1456e0796cde161,656018846682f3df8008bb8f,656019cfd64dc15b69ecefcf,1,98,260,120,1,fivesix,,,,,,,,,,,,,,,,,,,,,,,,,,,,,,,,,,,,,,,,,,,,,,,,,,,,,,,,,,,,,,,,,,,,,,,,,,,,,,,,,,,,,
60be17bce1456e0796cde161,2023-11-24_05h35.16.425,kallum_motion_pilot,2023.1.2,Win32,60.02040694,60be17bce1456e0796cde161,656018846682f3df8008bb8f,656019cfd64dc15b69ecefcf,1,99,261,0,1,onetwo,,,,,,,,,,,,,,,,,,,,,,,,,,,,,,,,,,,,,,,,,,,,,,,,,,,,,,,,,,,,,,,,,,,,,,,,,,,,,,,,,,,,,
60be17bce1456e0796cde161,2023-11-24_05h35.16.425,kallum_motion_pilot,2023.1.2,Win32,60.02040694,60be17bce1456e0796cde161,656018846682f3df8008bb8f,656019cfd64dc15b69ecefcf,1,100,262,128,1,fivesix,,,,,,,,,,,,,,,,,,,,,,,,,,,,,,,,,,,,,,,,,,,,,,,,,,,,,,,,,,,,,,,,,,,,,,,,,,,,,,,,,,,,,
60be17bce1456e0796cde161,2023-11-24_05h35.16.425,kallum_motion_pilot,2023.1.2,Win32,60.02040694,60be17bce1456e0796cde161,656018846682f3df8008bb8f,656019cfd64dc15b69ecefcf,1,101,263,44,1,threeone,,,,,,,,,,,,,,,,,,,,,,,,,,,,,,,,,,,,,,,,,,,,,,,,,,,,,,,,,,,,,,,,,,,,,,,,,,,,,,,,,,,,,
60be17bce1456e0796cde161,2023-11-24_05h35.16.425,kallum_motion_pilot,2023.1.2,Win32,60.02040694,60be17bce1456e0796cde161,656018846682f3df8008bb8f,656019cfd64dc15b69ecefcf,1,102,264,146,1,sixfive,,,,,,,,,,,,,,,,,,,,,,,,,,,,,,,,,,,,,,,,,,,,,,,,,,,,,,,,,,,,,,,,,,,,,,,,,,,,,,,,,,,,,
60be17bce1456e0796cde161,2023-11-24_05h35.16.425,kallum_motion_pilot,2023.1.2,Win32,60.02040694,60be17bce1456e0796cde161,656018846682f3df8008bb8f,656019cfd64dc15b69ecefcf,1,103,265,141,1,seveneight,,,,,,,,,,,,,,,,,,,,,,,,,,,,,,,,,,,,,,,,,,,,,,,,,,,,,,,,,,,,,,,,,,,,,,,,,,,,,,,,,,,,,
60be17bce1456e0796cde161,2023-11-24_05h35.16.425,kallum_motion_pilot,2023.1.2,Win32,60.02040694,60be17bce1456e0796cde161,656018846682f3df8008bb8f,656019cfd64dc15b69ecefcf,1,104,266,107,1,sixeight,,,,,,,,,,,,,,,,,,,,,,,,,,,,,,,,,,,,,,,,,,,,,,,,,,,,,,,,,,,,,,,,,,,,,,,,,,,,,,,,,,,,,
60be17bce1456e0796cde161,2023-11-24_05h35.16.425,kallum_motion_pilot,2023.1.2,Win32,60.02040694,60be17bce1456e0796cde161,656018846682f3df8008bb8f,656019cfd64dc15b69ecefcf,1,105,267,121,1,fiveseven,,,,,,,,,,,,,,,,,,,,,,,,,,,,,,,,,,,,,,,,,,,,,,,,,,,,,,,,,,,,,,,,,,,,,,,,,,,,,,,,,,,,,
60be17bce1456e0796cde161,2023-11-24_05h35.16.425,kallum_motion_pilot,2023.1.2,Win32,60.02040694,60be17bce1456e0796cde161,656018846682f3df8008bb8f,656019cfd64dc15b69ecefcf,1,106,268,132,1,sevenfive,,,,,,,,,,,,,,,,,,,,,,,,,,,,,,,,,,,,,,,,,,,,,,,,,,,,,,,,,,,,,,,,,,,,,,,,,,,,,,,,,,,,,
60be17bce1456e0796cde161,2023-11-24_05h35.16.425,kallum_motion_pilot,2023.1.2,Win32,60.02040694,60be17bce1456e0796cde161,656018846682f3df8008bb8f,656019cfd64dc15b69ecefcf,1,107,269,32,1,onetwo,,,,,,,,,,,,,,,,,,,,,,,,,,,,,,,,,,,,,,,,,,,,,,,,,,,,,,,,,,,,,,,,,,,,,,,,,,,,,,,,,,,,,
60be17bce1456e0796cde161,2023-11-24_05h35.16.425,kallum_motion_pilot,2023.1.2,Win32,60.02040694,60be17bce1456e0796cde161,656018846682f3df8008bb8f,656019cfd64dc15b69ecefcf,1,108,270,47,1,fourthree,,,,,,,,,,,,,,,,,,,,,,,,,,,,,,,,,,,,,,,,,,,,,,,,,,,,,,,,,,,,,,,,,,,,,,,,,,,,,,,,,,,,,
60be17bce1456e0796cde161,2023-11-24_05h35.16.425,kallum_motion_pilot,2023.1.2,Win32,60.02040694,60be17bce1456e0796cde161,656018846682f3df8008bb8f,656019cfd64dc15b69ecefcf,1,109,271,40,1,onetwo,,,,,,,,,,,,,,,,,,,,,,,,,,,,,,,,,,,,,,,,,,,,,,,,,,,,,,,,,,,,,,,,,,,,,,,,,,,,,,,,,,,,,
60be17bce1456e0796cde161,2023-11-24_05h35.16.425,kallum_motion_pilot,2023.1.2,Win32,60.02040694,60be17bce1456e0796cde161,656018846682f3df8008bb8f,656019cfd64dc15b69ecefcf,1,110,272,151,1,eightseven,,,,,,,,,,,,,,,,,,,,,,,,,,,,,,,,,,,,,,,,,,,,,,,,,,,,,,,,,,,,,,,,,,,,,,,,,,,,,,,,,,,,,
60be17bce1456e0796cde161,2023-11-24_05h35.16.425,kallum_motion_pilot,2023.1.2,Win32,60.02040694,60be17bce1456e0796cde161,656018846682f3df8008bb8f,656019cfd64dc15b69ecefcf,1,111,273,129,1,fiveseven,,,,,,,,,,,,,,,,,,,,,,,,,,,,,,,,,,,,,,,,,,,,,,,,,,,,,,,,,,,,,,,,,,,,,,,,,,,,,,,,,,,,,
60be17bce1456e0796cde161,2023-11-24_05h35.16.425,kallum_motion_pilot,2023.1.2,Win32,60.02040694,60be17bce1456e0796cde161,656018846682f3df8008bb8f,656019cfd64dc15b69ecefcf,1,112,274,30,1,fourtwo,,,,,,,,,,,,,,,,,,,,,,,,,,,,,,,,,,,,,,,,,,,,,,,,,,,,,,,,,,,,,,,,,,,,,,,,,,,,,,,,,,,,,
60be17bce1456e0796cde161,2023-11-24_05h35.16.425,kallum_motion_pilot,2023.1.2,Win32,60.02040694,60be17bce1456e0796cde161,656018846682f3df8008bb8f,656019cfd64dc15b69ecefcf,1,113,275,52,1,threeone,,,,,,,,,,,,,,,,,,,,,,,,,,,,,,,,,,,,,,,,,,,,,,,,,,,,,,,,,,,,,,,,,,,,,,,,,,,,,,,,,,,,,
60be17bce1456e0796cde161,2023-11-24_05h35.16.425,kallum_motion_pilot,2023.1.2,Win32,60.02040694,60be17bce1456e0796cde161,656018846682f3df8008bb8f,656019cfd64dc15b69ecefcf,1,114,276,103,1,eightseven,,,,,,,,,,,,,,,,,,,,,,,,,,,,,,,,,,,,,,,,,,,,,,,,,,,,,,,,,,,,,,,,,,,,,,,,,,,,,,,,,,,,,
60be17bce1456e0796cde161,2023-11-24_05h35.16.425,kallum_motion_pilot,2023.1.2,Win32,60.02040694,60be17bce1456e0796cde161,656018846682f3df8008bb8f,656019cfd64dc15b69ecefcf,1,115,277,3,1,twofour,,,,,,,,,,,,,,,,,,,,,,,,,,,,,,,,,,,,,,,,,,,,,,,,,,,,,,,,,,,,,,,,,,,,,,,,,,,,,,,,,,,,,
60be17bce1456e0796cde161,2023-11-24_05h35.16.425,kallum_motion_pilot,2023.1.2,Win32,60.02040694,60be17bce1456e0796cde161,656018846682f3df8008bb8f,656019cfd64dc15b69ecefcf,1,116,278,89,1,fiveseven,,,,,,,,,,,,,,,,,,,,,,,,,,,,,,,,,,,,,,,,,,,,,,,,,,,,,,,,,,,,,,,,,,,,,,,,,,,,,,,,,,,,,
60be17bce1456e0796cde161,2023-11-24_05h35.16.425,kallum_motion_pilot,2023.1.2,Win32,60.02040694,60be17bce1456e0796cde161,656018846682f3df8008bb8f,656019cfd64dc15b69ecefcf,1,117,279,82,1,sixfive,,,,,,,,,,,,,,,,,,,,,,,,,,,,,,,,,,,,,,,,,,,,,,,,,,,,,,,,,,,,,,,,,,,,,,,,,,,,,,,,,,,,,
60be17bce1456e0796cde161,2023-11-24_05h35.16.425,kallum_motion_pilot,2023.1.2,Win32,60.02040694,60be17bce1456e0796cde161,656018846682f3df8008bb8f,656019cfd64dc15b69ecefcf,1,118,280,34,1,twoone,,,,,,,,,,,,,,,,,,,,,,,,,,,,,,,,,,,,,,,,,,,,,,,,,,,,,,,,,,,,,,,,,,,,,,,,,,,,,,,,,,,,,
60be17bce1456e0796cde161,2023-11-24_05h35.16.425,kallum_motion_pilot,2023.1.2,Win32,60.02040694,60be17bce1456e0796cde161,656018846682f3df8008bb8f,656019cfd64dc15b69ecefcf,1,119,281,38,1,fourtwo,,,,,,,,,,,,,,,,,,,,,,,,,,,,,,,,,,,,,,,,,,,,,,,,,,,,,,,,,,,,,,,,,,,,,,,,,,,,,,,,,,,,,
60be17bce1456e0796cde161,2023-11-24_05h35.16.425,kallum_motion_pilot,2023.1.2,Win32,60.02040694,60be17bce1456e0796cde161,656018846682f3df8008bb8f,656019cfd64dc15b69ecefcf,1,120,282,70,1,fourtwo,,,,,,,,,,,,,,,,,,,,,,,,,,,,,,,,,,,,,,,,,,,,,,,,,,,,,,,,,,,,,,,,,,,,,,,,,,,,,,,,,,,,,
60be17bce1456e0796cde161,2023-11-24_05h35.16.425,kallum_motion_pilot,2023.1.2,Win32,60.02040694,60be17bce1456e0796cde161,656018846682f3df8008bb8f,656019cfd64dc15b69ecefcf,1,121,283,102,1,eightsix,,,,,,,,,,,,,,,,,,,,,,,,,,,,,,,,,,,,,,,,,,,,,,,,,,,,,,,,,,,,,,,,,,,,,,,,,,,,,,,,,,,,,
60be17bce1456e0796cde161,2023-11-24_05h35.16.425,kallum_motion_pilot,2023.1.2,Win32,60.02040694,60be17bce1456e0796cde161,656018846682f3df8008bb8f,656019cfd64dc15b69ecefcf,1,122,284,33,1,onethree,,,,,,,,,,,,,,,,,,,,,,,,,,,,,,,,,,,,,,,,,,,,,,,,,,,,,,,,,,,,,,,,,,,,,,,,,,,,,,,,,,,,,
60be17bce1456e0796cde161,2023-11-24_05h35.16.425,kallum_motion_pilot,2023.1.2,Win32,60.02040694,60be17bce1456e0796cde161,656018846682f3df8008bb8f,656019cfd64dc15b69ecefcf,1,123,285,112,1,fivesix,,,,,,,,,,,,,,,,,,,,,,,,,,,,,,,,,,,,,,,,,,,,,,,,,,,,,,,,,,,,,,,,,,,,,,,,,,,,,,,,,,,,,
60be17bce1456e0796cde161,2023-11-24_05h35.16.425,kallum_motion_pilot,2023.1.2,Win32,60.02040694,60be17bce1456e0796cde161,656018846682f3df8008bb8f,656019cfd64dc15b69ecefcf,1,124,286,126,1,eightsix,,,,,,,,,,,,,,,,,,,,,,,,,,,,,,,,,,,,,,,,,,,,,,,,,,,,,,,,,,,,,,,,,,,,,,,,,,,,,,,,,,,,,
60be17bce1456e0796cde161,2023-11-24_05h35.16.425,kallum_motion_pilot,2023.1.2,Win32,60.02040694,60be17bce1456e0796cde161,656018846682f3df8008bb8f,656019cfd64dc15b69ecefcf,1,125,287,134,1,eightsix,,,,,,,,,,,,,,,,,,,,,,,,,,,,,,,,,,,,,,,,,,,,,,,,,,,,,,,,,,,,,,,,,,,,,,,,,,,,,,,,,,,,,
60be17bce1456e0796cde161,2023-11-24_05h35.16.425,kallum_motion_pilot,2023.1.2,Win32,60.02040694,60be17bce1456e0796cde161,656018846682f3df8008bb8f,656019cfd64dc15b69ecefcf,1,126,288,99,1,sixeight,,,,,,,,,,,,,,,,,,,,,,,,,,,,,,,,,,,,,,,,,,,,,,,,,,,,,,,,,,,,,,,,,,,,,,,,,,,,,,,,,,,,,
60be17bce1456e0796cde161,2023-11-24_05h35.16.425,kallum_motion_pilot,2023.1.2,Win32,60.02040694,60be17bce1456e0796cde161,656018846682f3df8008bb8f,656019cfd64dc15b69ecefcf,1,127,289,29,1,threefour,,,,,,,,,,,,,,,,,,,,,,,,,,,,,,,,,,,,,,,,,,,,,,,,,,,,,,,,,,,,,,,,,,,,,,,,,,,,,,,,,,,,,
60be17bce1456e0796cde161,2023-11-24_05h35.16.425,kallum_motion_pilot,2023.1.2,Win32,60.02040694,60be17bce1456e0796cde161,656018846682f3df8008bb8f,656019cfd64dc15b69ecefcf,1,128,290,91,1,sixeight,,,,,,,,,,,,,,,,,,,,,,,,,,,,,,,,,,,,,,,,,,,,,,,,,,,,,,,,,,,,,,,,,,,,,,,,,,,,,,,,,,,,,
60be17bce1456e0796cde161,2023-11-24_05h35.16.425,kallum_motion_pilot,2023.1.2,Win32,60.02040694,60be17bce1456e0796cde161,656018846682f3df8008bb8f,656019cfd64dc15b69ecefcf,1,129,291,105,1,fiveseven,,,,,,,,,,,,,,,,,,,,,,,,,,,,,,,,,,,,,,,,,,,,,,,,,,,,,,,,,,,,,,,,,,,,,,,,,,,,,,,,,,,,,
60be17bce1456e0796cde161,2023-11-24_05h35.16.425,kallum_motion_pilot,2023.1.2,Win32,60.02040694,60be17bce1456e0796cde161,656018846682f3df8008bb8f,656019cfd64dc15b69ecefcf,1,130,292,85,1,seveneight,,,,,,,,,,,,,,,,,,,,,,,,,,,,,,,,,,,,,,,,,,,,,,,,,,,,,,,,,,,,,,,,,,,,,,,,,,,,,,,,,,,,,
60be17bce1456e0796cde161,2023-11-24_05h35.16.425,kallum_motion_pilot,2023.1.2,Win32,60.02040694,60be17bce1456e0796cde161,656018846682f3df8008bb8f,656019cfd64dc15b69ecefcf,1,131,293,110,1,eightsix,,,,,,,,,,,,,,,,,,,,,,,,,,,,,,,,,,,,,,,,,,,,,,,,,,,,,,,,,,,,,,,,,,,,,,,,,,,,,,,,,,,,,
60be17bce1456e0796cde161,2023-11-24_05h35.16.425,kallum_motion_pilot,2023.1.2,Win32,60.02040694,60be17bce1456e0796cde161,656018846682f3df8008bb8f,656019cfd64dc15b69ecefcf,1,132,294,137,1,fiveseven,,,,,,,,,,,,,,,,,,,,,,,,,,,,,,,,,,,,,,,,,,,,,,,,,,,,,,,,,,,,,,,,,,,,,,,,,,,,,,,,,,,,,
60be17bce1456e0796cde161,2023-11-24_05h35.16.425,kallum_motion_pilot,2023.1.2,Win32,60.02040694,60be17bce1456e0796cde161,656018846682f3df8008bb8f,656019cfd64dc15b69ecefcf,1,133,295,101,1,seveneight,,,,,,,,,,,,,,,,,,,,,,,,,,,,,,,,,,,,,,,,,,,,,,,,,,,,,,,,,,,,,,,,,,,,,,,,,,,,,,,,,,,,,
60be17bce1456e0796cde161,2023-11-24_05h35.16.425,kallum_motion_pilot,2023.1.2,Win32,60.02040694,60be17bce1456e0796cde161,656018846682f3df8008bb8f,656019cfd64dc15b69ecefcf,1,134,296,157,1,seveneight,,,,,,,,,,,,,,,,,,,,,,,,,,,,,,,,,,,,,,,,,,,,,,,,,,,,,,,,,,,,,,,,,,,,,,,,,,,,,,,,,,,,,
60be17bce1456e0796cde161,2023-11-24_05h35.16.425,kallum_motion_pilot,2023.1.2,Win32,60.02040694,60be17bce1456e0796cde161,656018846682f3df8008bb8f,656019cfd64dc15b69ecefcf,1,135,297,109,1,seveneight,,,,,,,,,,,,,,,,,,,,,,,,,,,,,,,,,,,,,,,,,,,,,,,,,,,,,,,,,,,,,,,,,,,,,,,,,,,,,,,,,,,,,
60be17bce1456e0796cde161,2023-11-24_05h35.16.425,kallum_motion_pilot,2023.1.2,Win32,60.02040694,60be17bce1456e0796cde161,656018846682f3df8008bb8f,656019cfd64dc15b69ecefcf,1,136,298,104,1,fivesix,,,,,,,,,,,,,,,,,,,,,,,,,,,,,,,,,,,,,,,,,,,,,,,,,,,,,,,,,,,,,,,,,,,,,,,,,,,,,,,,,,,,,
60be17bce1456e0796cde161,2023-11-24_05h35.16.425,kallum_motion_pilot,2023.1.2,Win32,60.02040694,60be17bce1456e0796cde161,656018846682f3df8008bb8f,656019cfd64dc15b69ecefcf,1,137,299,86,1,eightsix,,,,,,,,,,,,,,,,,,,,,,,,,,,,,,,,,,,,,,,,,,,,,,,,,,,,,,,,,,,,,,,,,,,,,,,,,,,,,,,,,,,,,
60be17bce1456e0796cde161,2023-11-24_05h35.16.425,kallum_motion_pilot,2023.1.2,Win32,60.02040694,60be17bce1456e0796cde161,656018846682f3df8008bb8f,656019cfd64dc15b69ecefcf,1,138,300,18,1,twoone,,,,,,,,,,,,,,,,,,,,,,,,,,,,,,,,,,,,,,,,,,,,,,,,,,,,,,,,,,,,,,,,,,,,,,,,,,,,,,,,,,,,,
60be17bce1456e0796cde161,2023-11-24_05h35.16.425,kallum_motion_pilot,2023.1.2,Win32,60.02040694,60be17bce1456e0796cde161,656018846682f3df8008bb8f,656019cfd64dc15b69ecefcf,1,139,301,17,1,onethree,,,,,,,,,,,,,,,,,,,,,,,,,,,,,,,,,,,,,,,,,,,,,,,,,,,,,,,,,,,,,,,,,,,,,,,,,,,,,,,,,,,,,
60be17bce1456e0796cde161,2023-11-24_05h35.16.425,kallum_motion_pilot,2023.1.2,Win32,60.02040694,60be17bce1456e0796cde161,656018846682f3df8008bb8f,656019cfd64dc15b69ecefcf,1,140,302,150,1,eightsix,,,,,,,,,,,,,,,,,,,,,,,,,,,,,,,,,,,,,,,,,,,,,,,,,,,,,,,,,,,,,,,,,,,,,,,,,,,,,,,,,,,,,
60be17bce1456e0796cde161,2023-11-24_05h35.16.425,kallum_motion_pilot,2023.1.2,Win32,60.02040694,60be17bce1456e0796cde161,656018846682f3df8008bb8f,656019cfd64dc15b69ecefcf,1,141,303,76,1,threeone,,,,,,,,,,,,,,,,,,,,,,,,,,,,,,,,,,,,,,,,,,,,,,,,,,,,,,,,,,,,,,,,,,,,,,,,,,,,,,,,,,,,,
60be17bce1456e0796cde161,2023-11-24_05h35.16.425,kallum_motion_pilot,2023.1.2,Win32,60.02040694,60be17bce1456e0796cde161,656018846682f3df8008bb8f,656019cfd64dc15b69ecefcf,1,142,304,57,1,onethree,,,,,,,,,,,,,,,,,,,,,,,,,,,,,,,,,,,,,,,,,,,,,,,,,,,,,,,,,,,,,,,,,,,,,,,,,,,,,,,,,,,,,
60be17bce1456e0796cde161,2023-11-24_05h35.16.425,kallum_motion_pilot,2023.1.2,Win32,60.02040694,60be17bce1456e0796cde161,656018846682f3df8008bb8f,656019cfd64dc15b69ecefcf,1,143,305,156,1,sevenfive,,,,,,,,,,,,,,,,,,,,,,,,,,,,,,,,,,,,,,,,,,,,,,,,,,,,,,,,,,,,,,,,,,,,,,,,,,,,,,,,,,,,,
60be17bce1456e0796cde161,2023-11-24_05h35.16.425,kallum_motion_pilot,2023.1.2,Win32,60.02040694,60be17bce1456e0796cde161,656018846682f3df8008bb8f,656019cfd64dc15b69ecefcf,1,144,306,142,1,eightsix,,,,,,,,,,,,,,,,,,,,,,,,,,,,,,,,,,,,,,,,,,,,,,,,,,,,,,,,,,,,,,,,,,,,,,,,,,,,,,,,,,,,,
60be17bce1456e0796cde161,2023-11-24_05h35.16.425,kallum_motion_pilot,2023.1.2,Win32,60.02040694,60be17bce1456e0796cde161,656018846682f3df8008bb8f,656019cfd64dc15b69ecefcf,1,145,307,49,1,onethree,,,,,,,,,,,,,,,,,,,,,,,,,,,,,,,,,,,,,,,,,,,,,,,,,,,,,,,,,,,,,,,,,,,,,,,,,,,,,,,,,,,,,
60be17bce1456e0796cde161,2023-11-24_05h35.16.425,kallum_motion_pilot,2023.1.2,Win32,60.02040694,60be17bce1456e0796cde161,656018846682f3df8008bb8f,656019cfd64dc15b69ecefcf,1,146,308,28,1,threeone,,,,,,,,,,,,,,,,,,,,,,,,,,,,,,,,,,,,,,,,,,,,,,,,,,,,,,,,,,,,,,,,,,,,,,,,,,,,,,,,,,,,,
60be17bce1456e0796cde161,2023-11-24_05h35.16.425,kallum_motion_pilot,2023.1.2,Win32,60.02040694,60be17bce1456e0796cde161,656018846682f3df8008bb8f,656019cfd64dc15b69ecefcf,1,147,309,136,1,fivesix,,,,,,,,,,,,,,,,,,,,,,,,,,,,,,,,,,,,,,,,,,,,,,,,,,,,,,,,,,,,,,,,,,,,,,,,,,,,,,,,,,,,,
60be17bce1456e0796cde161,2023-11-24_05h35.16.425,kallum_motion_pilot,2023.1.2,Win32,60.02040694,60be17bce1456e0796cde161,656018846682f3df8008bb8f,656019cfd64dc15b69ecefcf,1,148,310,81,1,fiveseven,,,,,,,,,,,,,,,,,,,,,,,,,,,,,,,,,,,,,,,,,,,,,,,,,,,,,,,,,,,,,,,,,,,,,,,,,,,,,,,,,,,,,
60be17bce1456e0796cde161,2023-11-24_05h35.16.425,kallum_motion_pilot,2023.1.2,Win32,60.02040694,60be17bce1456e0796cde161,656018846682f3df8008bb8f,656019cfd64dc15b69ecefcf,1,149,311,50,1,twoone,,,,,,,,,,,,,,,,,,,,,,,,,,,,,,,,,,,,,,,,,,,,,,,,,,,,,,,,,,,,,,,,,,,,,,,,,,,,,,,,,,,,,
60be17bce1456e0796cde161,2023-11-24_05h35.16.425,kallum_motion_pilot,2023.1.2,Win32,60.02040694,60be17bce1456e0796cde161,656018846682f3df8008bb8f,656019cfd64dc15b69ecefcf,1,150,312,144,1,fivesix,,,,,,,,,,,,,,,,,,,,,,,,,,,,,,,,,,,,,,,,,,,,,,,,,,,,,,,,,,,,,,,,,,,,,,,,,,,,,,,,,,,,,
60be17bce1456e0796cde161,2023-11-24_05h35.16.425,kallum_motion_pilot,2023.1.2,Win32,60.02040694,60be17bce1456e0796cde161,656018846682f3df8008bb8f,656019cfd64dc15b69ecefcf,1,151,313,42,1,twoone,,,,,,,,,,,,,,,,,,,,,,,,,,,,,,,,,,,,,,,,,,,,,,,,,,,,,,,,,,,,,,,,,,,,,,,,,,,,,,,,,,,,,
60be17bce1456e0796cde161,2023-11-24_05h35.16.425,kallum_motion_pilot,2023.1.2,Win32,60.02040694,60be17bce1456e0796cde161,656018846682f3df8008bb8f,656019cfd64dc15b69ecefcf,1,152,314,23,1,fourthree,,,,,,,,,,,,,,,,,,,,,,,,,,,,,,,,,,,,,,,,,,,,,,,,,,,,,,,,,,,,,,,,,,,,,,,,,,,,,,,,,,,,,
60be17bce1456e0796cde161,2023-11-24_05h35.16.425,kallum_motion_pilot,2023.1.2,Win32,60.02040694,60be17bce1456e0796cde161,656018846682f3df8008bb8f,656019cfd64dc15b69ecefcf,1,153,315,106,1,sixfive,,,,,,,,,,,,,,,,,,,,,,,,,,,,,,,,,,,,,,,,,,,,,,,,,,,,,,,,,,,,,,,,,,,,,,,,,,,,,,,,,,,,,
60be17bce1456e0796cde161,2023-11-24_05h35.16.425,kallum_motion_pilot,2023.1.2,Win32,60.02040694,60be17bce1456e0796cde161,656018846682f3df8008bb8f,656019cfd64dc15b69ecefcf,1,154,316,62,1,fourtwo,,,,,,,,,,,,,,,,,,,,,,,,,,,,,,,,,,,,,,,,,,,,,,,,,,,,,,,,,,,,,,,,,,,,,,,,,,,,,,,,,,,,,
60be17bce1456e0796cde161,2023-11-24_05h35.16.425,kallum_motion_pilot,2023.1.2,Win32,60.02040694,60be17bce1456e0796cde161,656018846682f3df8008bb8f,656019cfd64dc15b69ecefcf,1,155,317,77,1,threefour,,,,,,,,,,,,,,,,,,,,,,,,,,,,,,,,,,,,,,,,,,,,,,,,,,,,,,,,,,,,,,,,,,,,,,,,,,,,,,,,,,,,,
60be17bce1456e0796cde161,2023-11-24_05h35.16.425,kallum_motion_pilot,2023.1.2,Win32,60.02040694,60be17bce1456e0796cde161,656018846682f3df8008bb8f,656019cfd64dc15b69ecefcf,1,156,318,153,1,fiveseven,,,,,,,,,,,,,,,,,,,,,,,,,,,,,,,,,,,,,,,,,,,,,,,,,,,,,,,,,,,,,,,,,,,,,,,,,,,,,,,,,,,,,
60be17bce1456e0796cde161,2023-11-24_05h35.16.425,kallum_motion_pilot,2023.1.2,Win32,60.02040694,60be17bce1456e0796cde161,656018846682f3df8008bb8f,656019cfd64dc15b69ecefcf,1,157,319,21,1,threefour,,,,,,,,,,,,,,,,,,,,,,,,,,,,,,,,,,,,,,,,,,,,,,,,,,,,,,,,,,,,,,,,,,,,,,,,,,,,,,,,,,,,,
60be17bce1456e0796cde161,2023-11-24_05h35.16.425,kallum_motion_pilot,2023.1.2,Win32,60.02040694,60be17bce1456e0796cde161,656018846682f3df8008bb8f,656019cfd64dc15b69ecefcf,1,158,320,1,1,onethree,,,,,,,,,,,,,,,,,,,,,,,,,,,,,,,,,,,,,,,,,,,,,,,,,,,,,,,,,,,,,,,,,,,,,,,,,,,,,,,,,,,,,
60be17bce1456e0796cde161,2023-11-24_05h35.16.425,kallum_motion_pilot,2023.1.2,Win32,60.02040694,60be17bce1456e0796cde161,656018846682f3df8008bb8f,656019cfd64dc15b69ecefcf,1,159,321,67,1,twofour,,,,,,,,,,,,,,,,,,,,,,,,,,,,,,,,,,,,,,,,,,,,,,,,,,,,,,,,,,,,,,,,,,,,,,,,,,,,,,,,,,,,,
60be17bce1456e0796cde161,2023-11-24_05h35.16.425,kallum_motion_pilot,2023.1.2,Win32,60.02040694,60be17bce1456e0796cde161,656018846682f3df8008bb8f,656019cfd64dc15b69ecefcf,1,160,322,51,1,twofour,,,,,,,,,,,,,,,,,,,,,,,,,,,,,,,,,,,,,,,,,,,,,,,,,,,,,,,,,,,,,,,,,,,,,,,,,,,,,,,,,,,,,
60be17bce1456e0796cde161,2023-11-24_05h35.16.425,kallum_motion_pilot,2023.1.2,Win32,60.02040694,60be17bce1456e0796cde161,656018846682f3df8008bb8f,656019cfd64dc15b69ecefcf,1,161,323,45,1,threefour,,,,,,,,,,,,,,,,,,,,,,,,,,,,,,,,,,,,,,,,,,,,,,,,,,,,,,,,,,,,,,,,,,,,,,,,,,,,,,,,,,,,,
60be17bce1456e0796cde161,2023-11-24_05h35.16.425,kallum_motion_pilot,2023.1.2,Win32,60.02040694,60be17bce1456e0796cde161,656018846682f3df8008bb8f,656019cfd64dc15b69ecefcf,2,0,324,36,1,threeone,,,,,,,,,,,,,,,,,,,,,,,,,,,,,,,,,,,,,,,,,,,,,,,,,,,,,,,,,,,,,,,,,,,,,,,,,,,,,,,,,,,,,
60be17bce1456e0796cde161,2023-11-24_05h35.16.425,kallum_motion_pilot,2023.1.2,Win32,60.02040694,60be17bce1456e0796cde161,656018846682f3df8008bb8f,656019cfd64dc15b69ecefcf,2,1,325,131,1,sixeight,,,,,,,,,,,,,,,,,,,,,,,,,,,,,,,,,,,,,,,,,,,,,,,,,,,,,,,,,,,,,,,,,,,,,,,,,,,,,,,,,,,,,
60be17bce1456e0796cde161,2023-11-24_05h35.16.425,kallum_motion_pilot,2023.1.2,Win32,60.02040694,60be17bce1456e0796cde161,656018846682f3df8008bb8f,656019cfd64dc15b69ecefcf,2,2,326,66,1,twoone,,,,,,,,,,,,,,,,,,,,,,,,,,,,,,,,,,,,,,,,,,,,,,,,,,,,,,,,,,,,,,,,,,,,,,,,,,,,,,,,,,,,,
60be17bce1456e0796cde161,2023-11-24_05h35.16.425,kallum_motion_pilot,2023.1.2,Win32,60.02040694,60be17bce1456e0796cde161,656018846682f3df8008bb8f,656019cfd64dc15b69ecefcf,2,3,327,41,1,onethree,,,,,,,,,,,,,,,,,,,,,,,,,,,,,,,,,,,,,,,,,,,,,,,,,,,,,,,,,,,,,,,,,,,,,,,,,,,,,,,,,,,,,
60be17bce1456e0796cde161,2023-11-24_05h35.16.425,kallum_motion_pilot,2023.1.2,Win32,60.02040694,60be17bce1456e0796cde161,656018846682f3df8008bb8f,656019cfd64dc15b69ecefcf,2,4,328,15,1,fourthree,,,,,,,,,,,,,,,,,,,,,,,,,,,,,,,,,,,,,,,,,,,,,,,,,,,,,,,,,,,,,,,,,,,,,,,,,,,,,,,,,,,,,
60be17bce1456e0796cde161,2023-11-24_05h35.16.425,kallum_motion_pilot,2023.1.2,Win32,60.02040694,60be17bce1456e0796cde161,656018846682f3df8008bb8f,656019cfd64dc15b69ecefcf,2,5,329,10,1,twoone,,,,,,,,,,,,,,,,,,,,,,,,,,,,,,,,,,,,,,,,,,,,,,,,,,,,,,,,,,,,,,,,,,,,,,,,,,,,,,,,,,,,,
60be17bce1456e0796cde161,2023-11-24_05h35.16.425,kallum_motion_pilot,2023.1.2,Win32,60.02040694,60be17bce1456e0796cde161,656018846682f3df8008bb8f,656019cfd64dc15b69ecefcf,2,6,330,34,1,twoone,,,,,,,,,,,,,,,,,,,,,,,,,,,,,,,,,,,,,,,,,,,,,,,,,,,,,,,,,,,,,,,,,,,,,,,,,,,,,,,,,,,,,
60be17bce1456e0796cde161,2023-11-24_05h35.16.425,kallum_motion_pilot,2023.1.2,Win32,60.02040694,60be17bce1456e0796cde161,656018846682f3df8008bb8f,656019cfd64dc15b69ecefcf,2,7,331,51,1,twofour,,,,,,,,,,,,,,,,,,,,,,,,,,,,,,,,,,,,,,,,,,,,,,,,,,,,,,,,,,,,,,,,,,,,,,,,,,,,,,,,,,,,,
60be17bce1456e0796cde161,2023-11-24_05h35.16.425,kallum_motion_pilot,2023.1.2,Win32,60.02040694,60be17bce1456e0796cde161,656018846682f3df8008bb8f,656019cfd64dc15b69ecefcf,2,8,332,144,1,fivesix,,,,,,,,,,,,,,,,,,,,,,,,,,,,,,,,,,,,,,,,,,,,,,,,,,,,,,,,,,,,,,,,,,,,,,,,,,,,,,,,,,,,,
60be17bce1456e0796cde161,2023-11-24_05h35.16.425,kallum_motion_pilot,2023.1.2,Win32,60.02040694,60be17bce1456e0796cde161,656018846682f3df8008bb8f,656019cfd64dc15b69ecefcf,2,9,333,95,1,eightseven,,,,,,,,,,,,,,,,,,,,,,,,,,,,,,,,,,,,,,,,,,,,,,,,,,,,,,,,,,,,,,,,,,,,,,,,,,,,,,,,,,,,,
60be17bce1456e0796cde161,2023-11-24_05h35.16.425,kallum_motion_pilot,2023.1.2,Win32,60.02040694,60be17bce1456e0796cde161,656018846682f3df8008bb8f,656019cfd64dc15b69ecefcf,2,10,334,103,1,eightseven,,,,,,,,,,,,,,,,,,,,,,,,,,,,,,,,,,,,,,,,,,,,,,,,,,,,,,,,,,,,,,,,,,,,,,,,,,,,,,,,,,,,,
60be17bce1456e0796cde161,2023-11-24_05h35.16.425,kallum_motion_pilot,2023.1.2,Win32,60.02040694,60be17bce1456e0796cde161,656018846682f3df8008bb8f,656019cfd64dc15b69ecefcf,2,11,335,16,1,onetwo,,,,,,,,,,,,,,,,,,,,,,,,,,,,,,,,,,,,,,,,,,,,,,,,,,,,,,,,,,,,,,,,,,,,,,,,,,,,,,,,,,,,,
60be17bce1456e0796cde161,2023-11-24_05h35.16.425,kallum_motion_pilot,2023.1.2,Win32,60.02040694,60be17bce1456e0796cde161,656018846682f3df8008bb8f,656019cfd64dc15b69ecefcf,2,12,336,23,1,fourthree,,,,,,,,,,,,,,,,,,,,,,,,,,,,,,,,,,,,,,,,,,,,,,,,,,,,,,,,,,,,,,,,,,,,,,,,,,,,,,,,,,,,,
60be17bce1456e0796cde161,2023-11-24_05h35.16.425,kallum_motion_pilot,2023.1.2,Win32,60.02040694,60be17bce1456e0796cde161,656018846682f3df8008bb8f,656019cfd64dc15b69ecefcf,2,13,337,25,1,onethree,,,,,,,,,,,,,,,,,,,,,,,,,,,,,,,,,,,,,,,,,,,,,,,,,,,,,,,,,,,,,,,,,,,,,,,,,,,,,,,,,,,,,
60be17bce1456e0796cde161,2023-11-24_05h35.16.425,kallum_motion_pilot,2023.1.2,Win32,60.02040694,60be17bce1456e0796cde161,656018846682f3df8008bb8f,656019cfd64dc15b69ecefcf,2,14,338,42,1,twoone,,,,,,,,,,,,,,,,,,,,,,,,,,,,,,,,,,,,,,,,,,,,,,,,,,,,,,,,,,,,,,,,,,,,,,,,,,,,,,,,,,,,,
60be17bce1456e0796cde161,2023-11-24_05h35.16.425,kallum_motion_pilot,2023.1.2,Win32,60.02040694,60be17bce1456e0796cde161,656018846682f3df8008bb8f,656019cfd64dc15b69ecefcf,2,15,339,156,1,sevenfive,,,,,,,,,,,,,,,,,,,,,,,,,,,,,,,,,,,,,,,,,,,,,,,,,,,,,,,,,,,,,,,,,,,,,,,,,,,,,,,,,,,,,
60be17bce1456e0796cde161,2023-11-24_05h35.16.425,kallum_motion_pilot,2023.1.2,Win32,60.02040694,60be17bce1456e0796cde161,656018846682f3df8008bb8f,656019cfd64dc15b69ecefcf,2,16,340,20,1,threeone,,,,,,,,,,,,,,,,,,,,,,,,,,,,,,,,,,,,,,,,,,,,,,,,,,,,,,,,,,,,,,,,,,,,,,,,,,,,,,,,,,,,,
60be17bce1456e0796cde161,2023-11-24_05h35.16.425,kallum_motion_pilot,2023.1.2,Win32,60.02040694,60be17bce1456e0796cde161,656018846682f3df8008bb8f,656019cfd64dc15b69ecefcf,2,17,341,8,1,onetwo,,,,,,,,,,,,,,,,,,,,,,,,,,,,,,,,,,,,,,,,,,,,,,,,,,,,,,,,,,,,,,,,,,,,,,,,,,,,,,,,,,,,,
60be17bce1456e0796cde161,2023-11-24_05h35.16.425,kallum_motion_pilot,2023.1.2,Win32,60.02040694,60be17bce1456e0796cde161,656018846682f3df8008bb8f,656019cfd64dc15b69ecefcf,2,18,342,109,1,seveneight,,,,,,,,,,,,,,,,,,,,,,,,,,,,,,,,,,,,,,,,,,,,,,,,,,,,,,,,,,,,,,,,,,,,,,,,,,,,,,,,,,,,,
60be17bce1456e0796cde161,2023-11-24_05h35.16.425,kallum_motion_pilot,2023.1.2,Win32,60.02040694,60be17bce1456e0796cde161,656018846682f3df8008bb8f,656019cfd64dc15b69ecefcf,2,19,343,3,1,twofour,,,,,,,,,,,,,,,,,,,,,,,,,,,,,,,,,,,,,,,,,,,,,,,,,,,,,,,,,,,,,,,,,,,,,,,,,,,,,,,,,,,,,
60be17bce1456e0796cde161,2023-11-24_05h35.16.425,kallum_motion_pilot,2023.1.2,Win32,60.02040694,60be17bce1456e0796cde161,656018846682f3df8008bb8f,656019cfd64dc15b69ecefcf,2,20,344,32,1,onetwo,,,,,,,,,,,,,,,,,,,,,,,,,,,,,,,,,,,,,,,,,,,,,,,,,,,,,,,,,,,,,,,,,,,,,,,,,,,,,,,,,,,,,
60be17bce1456e0796cde161,2023-11-24_05h35.16.425,kallum_motion_pilot,2023.1.2,Win32,60.02040694,60be17bce1456e0796cde161,656018846682f3df8008bb8f,656019cfd64dc15b69ecefcf,2,21,345,37,1,threefour,,,,,,,,,,,,,,,,,,,,,,,,,,,,,,,,,,,,,,,,,,,,,,,,,,,,,,,,,,,,,,,,,,,,,,,,,,,,,,,,,,,,,
60be17bce1456e0796cde161,2023-11-24_05h35.16.425,kallum_motion_pilot,2023.1.2,Win32,60.02040694,60be17bce1456e0796cde161,656018846682f3df8008bb8f,656019cfd64dc15b69ecefcf,2,22,346,62,1,fourtwo,,,,,,,,,,,,,,,,,,,,,,,,,,,,,,,,,,,,,,,,,,,,,,,,,,,,,,,,,,,,,,,,,,,,,,,,,,,,,,,,,,,,,
60be17bce1456e0796cde161,2023-11-24_05h35.16.425,kallum_motion_pilot,2023.1.2,Win32,60.02040694,60be17bce1456e0796cde161,656018846682f3df8008bb8f,656019cfd64dc15b69ecefcf,2,23,347,134,1,eightsix,,,,,,,,,,,,,,,,,,,,,,,,,,,,,,,,,,,,,,,,,,,,,,,,,,,,,,,,,,,,,,,,,,,,,,,,,,,,,,,,,,,,,
60be17bce1456e0796cde161,2023-11-24_05h35.16.425,kallum_motion_pilot,2023.1.2,Win32,60.02040694,60be17bce1456e0796cde161,656018846682f3df8008bb8f,656019cfd64dc15b69ecefcf,2,24,348,153,1,fiveseven,,,,,,,,,,,,,,,,,,,,,,,,,,,,,,,,,,,,,,,,,,,,,,,,,,,,,,,,,,,,,,,,,,,,,,,,,,,,,,,,,,,,,
60be17bce1456e0796cde161,2023-11-24_05h35.16.425,kallum_motion_pilot,2023.1.2,Win32,60.02040694,60be17bce1456e0796cde161,656018846682f3df8008bb8f,656019cfd64dc15b69ecefcf,2,25,349,115,1,sixeight,,,,,,,,,,,,,,,,,,,,,,,,,,,,,,,,,,,,,,,,,,,,,,,,,,,,,,,,,,,,,,,,,,,,,,,,,,,,,,,,,,,,,
