Prolific_ID*,date,expName,psychopyVersion,OS,frameRate,PROLIFIC_PID,STUDY_ID,SESSION_ID,hardcoded_stimulus_positions.thisRepN,hardcoded_stimulus_positions.thisTrialN,hardcoded_stimulus_positions.thisN,hardcoded_stimulus_positions.thisIndex,hardcoded_stimulus_positions.ran,StimulusPos,prac_stimorientation_import_loop.thisRepN,prac_stimorientation_import_loop.thisTrialN,prac_stimorientation_import_loop.thisN,prac_stimorientation_import_loop.thisIndex,prac_stimorientation_import_loop.ran,Stimorientation,key_resp.keys,key_resp.rt,key_resp_20.keys,key_resp_20.rt,key_resp_19.keys,key_resp_19.rt,key_resp_15.keys,key_resp_15.rt,key_resp_9.keys,key_resp_9.rt,key_resp_10.keys,key_resp_10.rt,Ecc,Circle1_ori,Circle2_ori,similarity,response_time,mouse_5.x,mouse_5.y,mouse_5.leftButton,mouse_5.midButton,mouse_5.rightButton,mouse_5.clicked_name,mouse_6.x,mouse_6.y,mouse_6.leftButton,mouse_6.midButton,mouse_6.rightButton,mouse_6.clicked_name,duringprac.thisRepN,duringprac.thisTrialN,duringprac.thisN,duringprac.thisIndex,duringprac.ran,key_resp_22.keys,key_resp_22.rt,circle1_ori,circle2_ori,mouse.x,mouse.y,mouse.leftButton,mouse.midButton,mouse.rightButton,mouse.clicked_name,mouse_2.x,mouse_2.y,mouse_2.leftButton,mouse_2.midButton,mouse_2.rightButton,mouse_2.clicked_name,mouse_3.x,mouse_3.y,mouse_3.leftButton,mouse_3.midButton,mouse_3.rightButton,catchresponse,catchnumber,response_time_catch,Catch,mouse_11.x,mouse_11.y,mouse_11.leftButton,mouse_11.midButton,mouse_11.rightButton,main_trial.thisRepN,main_trial.thisTrialN,main_trial.thisN,main_trial.thisIndex,main_trial.ran,Orientationtrialno,xcircle1_ori,xcircle2_ori,double_pass.thisRepN,double_pass.thisTrialN,double_pass.thisN,double_pass.thisIndex,double_pass.ran,key_resp_3.keys,key_resp_3.rt
5c842b246a4b9b0014c84c30,2023-11-24_24h33.28.345,kallum_motion_pilot,2023.1.2,Win32,60.33546519,5c842b246a4b9b0014c84c30,656018846682f3df8008bb8f,6560196ab6541fd121ba539b,,,,,,,,,,,,,,,,,,,,,,,,,,,,,,,,,,,,,,,,,,,,,,,,,,,,,,,,,,,,,,,,,,,,,,,,,,,,,,,,,,,,,,,,,,,
5c842b246a4b9b0014c84c30,2023-11-24_24h33.28.345,kallum_motion_pilot,2023.1.2,Win32,60.33546519,5c842b246a4b9b0014c84c30,656018846682f3df8008bb8f,6560196ab6541fd121ba539b,0,0,0,31,1,fourthree,,,,,,,,,,,,,,,,,,,,,,,,,,,,,,,,,,,,,,,,,,,,,,,,,,,,,,,,,,,,,,,,,,,,,,,,,,,,,,,,,,,,,
5c842b246a4b9b0014c84c30,2023-11-24_24h33.28.345,kallum_motion_pilot,2023.1.2,Win32,60.33546519,5c842b246a4b9b0014c84c30,656018846682f3df8008bb8f,6560196ab6541fd121ba539b,0,1,1,139,1,sixeight,,,,,,,,,,,,,,,,,,,,,,,,,,,,,,,,,,,,,,,,,,,,,,,,,,,,,,,,,,,,,,,,,,,,,,,,,,,,,,,,,,,,,
5c842b246a4b9b0014c84c30,2023-11-24_24h33.28.345,kallum_motion_pilot,2023.1.2,Win32,60.33546519,5c842b246a4b9b0014c84c30,656018846682f3df8008bb8f,6560196ab6541fd121ba539b,0,2,2,41,1,onethree,,,,,,,,,,,,,,,,,,,,,,,,,,,,,,,,,,,,,,,,,,,,,,,,,,,,,,,,,,,,,,,,,,,,,,,,,,,,,,,,,,,,,
5c842b246a4b9b0014c84c30,2023-11-24_24h33.28.345,kallum_motion_pilot,2023.1.2,Win32,60.33546519,5c842b246a4b9b0014c84c30,656018846682f3df8008bb8f,6560196ab6541fd121ba539b,0,3,3,129,1,fiveseven,,,,,,,,,,,,,,,,,,,,,,,,,,,,,,,,,,,,,,,,,,,,,,,,,,,,,,,,,,,,,,,,,,,,,,,,,,,,,,,,,,,,,
5c842b246a4b9b0014c84c30,2023-11-24_24h33.28.345,kallum_motion_pilot,2023.1.2,Win32,60.33546519,5c842b246a4b9b0014c84c30,656018846682f3df8008bb8f,6560196ab6541fd121ba539b,0,4,4,0,1,onetwo,,,,,,,,,,,,,,,,,,,,,,,,,,,,,,,,,,,,,,,,,,,,,,,,,,,,,,,,,,,,,,,,,,,,,,,,,,,,,,,,,,,,,
5c842b246a4b9b0014c84c30,2023-11-24_24h33.28.345,kallum_motion_pilot,2023.1.2,Win32,60.33546519,5c842b246a4b9b0014c84c30,656018846682f3df8008bb8f,6560196ab6541fd121ba539b,0,5,5,28,1,threeone,,,,,,,,,,,,,,,,,,,,,,,,,,,,,,,,,,,,,,,,,,,,,,,,,,,,,,,,,,,,,,,,,,,,,,,,,,,,,,,,,,,,,
5c842b246a4b9b0014c84c30,2023-11-24_24h33.28.345,kallum_motion_pilot,2023.1.2,Win32,60.33546519,5c842b246a4b9b0014c84c30,656018846682f3df8008bb8f,6560196ab6541fd121ba539b,0,6,6,23,1,fourthree,,,,,,,,,,,,,,,,,,,,,,,,,,,,,,,,,,,,,,,,,,,,,,,,,,,,,,,,,,,,,,,,,,,,,,,,,,,,,,,,,,,,,
5c842b246a4b9b0014c84c30,2023-11-24_24h33.28.345,kallum_motion_pilot,2023.1.2,Win32,60.33546519,5c842b246a4b9b0014c84c30,656018846682f3df8008bb8f,6560196ab6541fd121ba539b,0,7,7,59,1,twofour,,,,,,,,,,,,,,,,,,,,,,,,,,,,,,,,,,,,,,,,,,,,,,,,,,,,,,,,,,,,,,,,,,,,,,,,,,,,,,,,,,,,,
5c842b246a4b9b0014c84c30,2023-11-24_24h33.28.345,kallum_motion_pilot,2023.1.2,Win32,60.33546519,5c842b246a4b9b0014c84c30,656018846682f3df8008bb8f,6560196ab6541fd121ba539b,0,8,8,126,1,eightsix,,,,,,,,,,,,,,,,,,,,,,,,,,,,,,,,,,,,,,,,,,,,,,,,,,,,,,,,,,,,,,,,,,,,,,,,,,,,,,,,,,,,,
5c842b246a4b9b0014c84c30,2023-11-24_24h33.28.345,kallum_motion_pilot,2023.1.2,Win32,60.33546519,5c842b246a4b9b0014c84c30,656018846682f3df8008bb8f,6560196ab6541fd121ba539b,0,9,9,57,1,onethree,,,,,,,,,,,,,,,,,,,,,,,,,,,,,,,,,,,,,,,,,,,,,,,,,,,,,,,,,,,,,,,,,,,,,,,,,,,,,,,,,,,,,
5c842b246a4b9b0014c84c30,2023-11-24_24h33.28.345,kallum_motion_pilot,2023.1.2,Win32,60.33546519,5c842b246a4b9b0014c84c30,656018846682f3df8008bb8f,6560196ab6541fd121ba539b,0,10,10,145,1,fiveseven,,,,,,,,,,,,,,,,,,,,,,,,,,,,,,,,,,,,,,,,,,,,,,,,,,,,,,,,,,,,,,,,,,,,,,,,,,,,,,,,,,,,,
5c842b246a4b9b0014c84c30,2023-11-24_24h33.28.345,kallum_motion_pilot,2023.1.2,Win32,60.33546519,5c842b246a4b9b0014c84c30,656018846682f3df8008bb8f,6560196ab6541fd121ba539b,0,11,11,84,1,sevenfive,,,,,,,,,,,,,,,,,,,,,,,,,,,,,,,,,,,,,,,,,,,,,,,,,,,,,,,,,,,,,,,,,,,,,,,,,,,,,,,,,,,,,
5c842b246a4b9b0014c84c30,2023-11-24_24h33.28.345,kallum_motion_pilot,2023.1.2,Win32,60.33546519,5c842b246a4b9b0014c84c30,656018846682f3df8008bb8f,6560196ab6541fd121ba539b,0,12,12,19,1,twofour,,,,,,,,,,,,,,,,,,,,,,,,,,,,,,,,,,,,,,,,,,,,,,,,,,,,,,,,,,,,,,,,,,,,,,,,,,,,,,,,,,,,,
5c842b246a4b9b0014c84c30,2023-11-24_24h33.28.345,kallum_motion_pilot,2023.1.2,Win32,60.33546519,5c842b246a4b9b0014c84c30,656018846682f3df8008bb8f,6560196ab6541fd121ba539b,0,13,13,113,1,fiveseven,,,,,,,,,,,,,,,,,,,,,,,,,,,,,,,,,,,,,,,,,,,,,,,,,,,,,,,,,,,,,,,,,,,,,,,,,,,,,,,,,,,,,
5c842b246a4b9b0014c84c30,2023-11-24_24h33.28.345,kallum_motion_pilot,2023.1.2,Win32,60.33546519,5c842b246a4b9b0014c84c30,656018846682f3df8008bb8f,6560196ab6541fd121ba539b,0,14,14,70,1,fourtwo,,,,,,,,,,,,,,,,,,,,,,,,,,,,,,,,,,,,,,,,,,,,,,,,,,,,,,,,,,,,,,,,,,,,,,,,,,,,,,,,,,,,,
5c842b246a4b9b0014c84c30,2023-11-24_24h33.28.345,kallum_motion_pilot,2023.1.2,Win32,60.33546519,5c842b246a4b9b0014c84c30,656018846682f3df8008bb8f,6560196ab6541fd121ba539b,0,15,15,125,1,seveneight,,,,,,,,,,,,,,,,,,,,,,,,,,,,,,,,,,,,,,,,,,,,,,,,,,,,,,,,,,,,,,,,,,,,,,,,,,,,,,,,,,,,,
5c842b246a4b9b0014c84c30,2023-11-24_24h33.28.345,kallum_motion_pilot,2023.1.2,Win32,60.33546519,5c842b246a4b9b0014c84c30,656018846682f3df8008bb8f,6560196ab6541fd121ba539b,0,16,16,157,1,seveneight,,,,,,,,,,,,,,,,,,,,,,,,,,,,,,,,,,,,,,,,,,,,,,,,,,,,,,,,,,,,,,,,,,,,,,,,,,,,,,,,,,,,,
5c842b246a4b9b0014c84c30,2023-11-24_24h33.28.345,kallum_motion_pilot,2023.1.2,Win32,60.33546519,5c842b246a4b9b0014c84c30,656018846682f3df8008bb8f,6560196ab6541fd121ba539b,0,17,17,64,1,onetwo,,,,,,,,,,,,,,,,,,,,,,,,,,,,,,,,,,,,,,,,,,,,,,,,,,,,,,,,,,,,,,,,,,,,,,,,,,,,,,,,,,,,,
5c842b246a4b9b0014c84c30,2023-11-24_24h33.28.345,kallum_motion_pilot,2023.1.2,Win32,60.33546519,5c842b246a4b9b0014c84c30,656018846682f3df8008bb8f,6560196ab6541fd121ba539b,0,18,18,52,1,threeone,,,,,,,,,,,,,,,,,,,,,,,,,,,,,,,,,,,,,,,,,,,,,,,,,,,,,,,,,,,,,,,,,,,,,,,,,,,,,,,,,,,,,
5c842b246a4b9b0014c84c30,2023-11-24_24h33.28.345,kallum_motion_pilot,2023.1.2,Win32,60.33546519,5c842b246a4b9b0014c84c30,656018846682f3df8008bb8f,6560196ab6541fd121ba539b,0,19,19,26,1,twoone,,,,,,,,,,,,,,,,,,,,,,,,,,,,,,,,,,,,,,,,,,,,,,,,,,,,,,,,,,,,,,,,,,,,,,,,,,,,,,,,,,,,,
5c842b246a4b9b0014c84c30,2023-11-24_24h33.28.345,kallum_motion_pilot,2023.1.2,Win32,60.33546519,5c842b246a4b9b0014c84c30,656018846682f3df8008bb8f,6560196ab6541fd121ba539b,0,20,20,42,1,twoone,,,,,,,,,,,,,,,,,,,,,,,,,,,,,,,,,,,,,,,,,,,,,,,,,,,,,,,,,,,,,,,,,,,,,,,,,,,,,,,,,,,,,
5c842b246a4b9b0014c84c30,2023-11-24_24h33.28.345,kallum_motion_pilot,2023.1.2,Win32,60.33546519,5c842b246a4b9b0014c84c30,656018846682f3df8008bb8f,6560196ab6541fd121ba539b,0,21,21,63,1,fourthree,,,,,,,,,,,,,,,,,,,,,,,,,,,,,,,,,,,,,,,,,,,,,,,,,,,,,,,,,,,,,,,,,,,,,,,,,,,,,,,,,,,,,
5c842b246a4b9b0014c84c30,2023-11-24_24h33.28.345,kallum_motion_pilot,2023.1.2,Win32,60.33546519,5c842b246a4b9b0014c84c30,656018846682f3df8008bb8f,6560196ab6541fd121ba539b,0,22,22,71,1,fourthree,,,,,,,,,,,,,,,,,,,,,,,,,,,,,,,,,,,,,,,,,,,,,,,,,,,,,,,,,,,,,,,,,,,,,,,,,,,,,,,,,,,,,
5c842b246a4b9b0014c84c30,2023-11-24_24h33.28.345,kallum_motion_pilot,2023.1.2,Win32,60.33546519,5c842b246a4b9b0014c84c30,656018846682f3df8008bb8f,6560196ab6541fd121ba539b,0,23,23,96,1,fivesix,,,,,,,,,,,,,,,,,,,,,,,,,,,,,,,,,,,,,,,,,,,,,,,,,,,,,,,,,,,,,,,,,,,,,,,,,,,,,,,,,,,,,
5c842b246a4b9b0014c84c30,2023-11-24_24h33.28.345,kallum_motion_pilot,2023.1.2,Win32,60.33546519,5c842b246a4b9b0014c84c30,656018846682f3df8008bb8f,6560196ab6541fd121ba539b,0,24,24,104,1,fivesix,,,,,,,,,,,,,,,,,,,,,,,,,,,,,,,,,,,,,,,,,,,,,,,,,,,,,,,,,,,,,,,,,,,,,,,,,,,,,,,,,,,,,
5c842b246a4b9b0014c84c30,2023-11-24_24h33.28.345,kallum_motion_pilot,2023.1.2,Win32,60.33546519,5c842b246a4b9b0014c84c30,656018846682f3df8008bb8f,6560196ab6541fd121ba539b,0,25,25,151,1,eightseven,,,,,,,,,,,,,,,,,,,,,,,,,,,,,,,,,,,,,,,,,,,,,,,,,,,,,,,,,,,,,,,,,,,,,,,,,,,,,,,,,,,,,
5c842b246a4b9b0014c84c30,2023-11-24_24h33.28.345,kallum_motion_pilot,2023.1.2,Win32,60.33546519,5c842b246a4b9b0014c84c30,656018846682f3df8008bb8f,6560196ab6541fd121ba539b,0,26,26,89,1,fiveseven,,,,,,,,,,,,,,,,,,,,,,,,,,,,,,,,,,,,,,,,,,,,,,,,,,,,,,,,,,,,,,,,,,,,,,,,,,,,,,,,,,,,,
5c842b246a4b9b0014c84c30,2023-11-24_24h33.28.345,kallum_motion_pilot,2023.1.2,Win32,60.33546519,5c842b246a4b9b0014c84c30,656018846682f3df8008bb8f,6560196ab6541fd121ba539b,0,27,27,130,1,sixfive,,,,,,,,,,,,,,,,,,,,,,,,,,,,,,,,,,,,,,,,,,,,,,,,,,,,,,,,,,,,,,,,,,,,,,,,,,,,,,,,,,,,,
5c842b246a4b9b0014c84c30,2023-11-24_24h33.28.345,kallum_motion_pilot,2023.1.2,Win32,60.33546519,5c842b246a4b9b0014c84c30,656018846682f3df8008bb8f,6560196ab6541fd121ba539b,0,28,28,18,1,twoone,,,,,,,,,,,,,,,,,,,,,,,,,,,,,,,,,,,,,,,,,,,,,,,,,,,,,,,,,,,,,,,,,,,,,,,,,,,,,,,,,,,,,
5c842b246a4b9b0014c84c30,2023-11-24_24h33.28.345,kallum_motion_pilot,2023.1.2,Win32,60.33546519,5c842b246a4b9b0014c84c30,656018846682f3df8008bb8f,6560196ab6541fd121ba539b,0,29,29,142,1,eightsix,,,,,,,,,,,,,,,,,,,,,,,,,,,,,,,,,,,,,,,,,,,,,,,,,,,,,,,,,,,,,,,,,,,,,,,,,,,,,,,,,,,,,
5c842b246a4b9b0014c84c30,2023-11-24_24h33.28.345,kallum_motion_pilot,2023.1.2,Win32,60.33546519,5c842b246a4b9b0014c84c30,656018846682f3df8008bb8f,6560196ab6541fd121ba539b,0,30,30,9,1,onethree,,,,,,,,,,,,,,,,,,,,,,,,,,,,,,,,,,,,,,,,,,,,,,,,,,,,,,,,,,,,,,,,,,,,,,,,,,,,,,,,,,,,,
5c842b246a4b9b0014c84c30,2023-11-24_24h33.28.345,kallum_motion_pilot,2023.1.2,Win32,60.33546519,5c842b246a4b9b0014c84c30,656018846682f3df8008bb8f,6560196ab6541fd121ba539b,0,31,31,65,1,onethree,,,,,,,,,,,,,,,,,,,,,,,,,,,,,,,,,,,,,,,,,,,,,,,,,,,,,,,,,,,,,,,,,,,,,,,,,,,,,,,,,,,,,
5c842b246a4b9b0014c84c30,2023-11-24_24h33.28.345,kallum_motion_pilot,2023.1.2,Win32,60.33546519,5c842b246a4b9b0014c84c30,656018846682f3df8008bb8f,6560196ab6541fd121ba539b,0,32,32,82,1,sixfive,,,,,,,,,,,,,,,,,,,,,,,,,,,,,,,,,,,,,,,,,,,,,,,,,,,,,,,,,,,,,,,,,,,,,,,,,,,,,,,,,,,,,
5c842b246a4b9b0014c84c30,2023-11-24_24h33.28.345,kallum_motion_pilot,2023.1.2,Win32,60.33546519,5c842b246a4b9b0014c84c30,656018846682f3df8008bb8f,6560196ab6541fd121ba539b,0,33,33,76,1,threeone,,,,,,,,,,,,,,,,,,,,,,,,,,,,,,,,,,,,,,,,,,,,,,,,,,,,,,,,,,,,,,,,,,,,,,,,,,,,,,,,,,,,,
5c842b246a4b9b0014c84c30,2023-11-24_24h33.28.345,kallum_motion_pilot,2023.1.2,Win32,60.33546519,5c842b246a4b9b0014c84c30,656018846682f3df8008bb8f,6560196ab6541fd121ba539b,0,34,34,60,1,threeone,,,,,,,,,,,,,,,,,,,,,,,,,,,,,,,,,,,,,,,,,,,,,,,,,,,,,,,,,,,,,,,,,,,,,,,,,,,,,,,,,,,,,
5c842b246a4b9b0014c84c30,2023-11-24_24h33.28.345,kallum_motion_pilot,2023.1.2,Win32,60.33546519,5c842b246a4b9b0014c84c30,656018846682f3df8008bb8f,6560196ab6541fd121ba539b,0,35,35,81,1,fiveseven,,,,,,,,,,,,,,,,,,,,,,,,,,,,,,,,,,,,,,,,,,,,,,,,,,,,,,,,,,,,,,,,,,,,,,,,,,,,,,,,,,,,,
5c842b246a4b9b0014c84c30,2023-11-24_24h33.28.345,kallum_motion_pilot,2023.1.2,Win32,60.33546519,5c842b246a4b9b0014c84c30,656018846682f3df8008bb8f,6560196ab6541fd121ba539b,0,36,36,153,1,fiveseven,,,,,,,,,,,,,,,,,,,,,,,,,,,,,,,,,,,,,,,,,,,,,,,,,,,,,,,,,,,,,,,,,,,,,,,,,,,,,,,,,,,,,
5c842b246a4b9b0014c84c30,2023-11-24_24h33.28.345,kallum_motion_pilot,2023.1.2,Win32,60.33546519,5c842b246a4b9b0014c84c30,656018846682f3df8008bb8f,6560196ab6541fd121ba539b,0,37,37,67,1,twofour,,,,,,,,,,,,,,,,,,,,,,,,,,,,,,,,,,,,,,,,,,,,,,,,,,,,,,,,,,,,,,,,,,,,,,,,,,,,,,,,,,,,,
5c842b246a4b9b0014c84c30,2023-11-24_24h33.28.345,kallum_motion_pilot,2023.1.2,Win32,60.33546519,5c842b246a4b9b0014c84c30,656018846682f3df8008bb8f,6560196ab6541fd121ba539b,0,38,38,143,1,eightseven,,,,,,,,,,,,,,,,,,,,,,,,,,,,,,,,,,,,,,,,,,,,,,,,,,,,,,,,,,,,,,,,,,,,,,,,,,,,,,,,,,,,,
5c842b246a4b9b0014c84c30,2023-11-24_24h33.28.345,kallum_motion_pilot,2023.1.2,Win32,60.33546519,5c842b246a4b9b0014c84c30,656018846682f3df8008bb8f,6560196ab6541fd121ba539b,0,39,39,135,1,eightseven,,,,,,,,,,,,,,,,,,,,,,,,,,,,,,,,,,,,,,,,,,,,,,,,,,,,,,,,,,,,,,,,,,,,,,,,,,,,,,,,,,,,,
5c842b246a4b9b0014c84c30,2023-11-24_24h33.28.345,kallum_motion_pilot,2023.1.2,Win32,60.33546519,5c842b246a4b9b0014c84c30,656018846682f3df8008bb8f,6560196ab6541fd121ba539b,0,40,40,75,1,twofour,,,,,,,,,,,,,,,,,,,,,,,,,,,,,,,,,,,,,,,,,,,,,,,,,,,,,,,,,,,,,,,,,,,,,,,,,,,,,,,,,,,,,
5c842b246a4b9b0014c84c30,2023-11-24_24h33.28.345,kallum_motion_pilot,2023.1.2,Win32,60.33546519,5c842b246a4b9b0014c84c30,656018846682f3df8008bb8f,6560196ab6541fd121ba539b,0,41,41,22,1,fourtwo,,,,,,,,,,,,,,,,,,,,,,,,,,,,,,,,,,,,,,,,,,,,,,,,,,,,,,,,,,,,,,,,,,,,,,,,,,,,,,,,,,,,,
5c842b246a4b9b0014c84c30,2023-11-24_24h33.28.345,kallum_motion_pilot,2023.1.2,Win32,60.33546519,5c842b246a4b9b0014c84c30,656018846682f3df8008bb8f,6560196ab6541fd121ba539b,0,42,42,27,1,twofour,,,,,,,,,,,,,,,,,,,,,,,,,,,,,,,,,,,,,,,,,,,,,,,,,,,,,,,,,,,,,,,,,,,,,,,,,,,,,,,,,,,,,
5c842b246a4b9b0014c84c30,2023-11-24_24h33.28.345,kallum_motion_pilot,2023.1.2,Win32,60.33546519,5c842b246a4b9b0014c84c30,656018846682f3df8008bb8f,6560196ab6541fd121ba539b,0,43,43,108,1,sevenfive,,,,,,,,,,,,,,,,,,,,,,,,,,,,,,,,,,,,,,,,,,,,,,,,,,,,,,,,,,,,,,,,,,,,,,,,,,,,,,,,,,,,,
5c842b246a4b9b0014c84c30,2023-11-24_24h33.28.345,kallum_motion_pilot,2023.1.2,Win32,60.33546519,5c842b246a4b9b0014c84c30,656018846682f3df8008bb8f,6560196ab6541fd121ba539b,0,44,44,114,1,sixfive,,,,,,,,,,,,,,,,,,,,,,,,,,,,,,,,,,,,,,,,,,,,,,,,,,,,,,,,,,,,,,,,,,,,,,,,,,,,,,,,,,,,,
5c842b246a4b9b0014c84c30,2023-11-24_24h33.28.345,kallum_motion_pilot,2023.1.2,Win32,60.33546519,5c842b246a4b9b0014c84c30,656018846682f3df8008bb8f,6560196ab6541fd121ba539b,0,45,45,39,1,fourthree,,,,,,,,,,,,,,,,,,,,,,,,,,,,,,,,,,,,,,,,,,,,,,,,,,,,,,,,,,,,,,,,,,,,,,,,,,,,,,,,,,,,,
5c842b246a4b9b0014c84c30,2023-11-24_24h33.28.345,kallum_motion_pilot,2023.1.2,Win32,60.33546519,5c842b246a4b9b0014c84c30,656018846682f3df8008bb8f,6560196ab6541fd121ba539b,0,46,46,24,1,onetwo,,,,,,,,,,,,,,,,,,,,,,,,,,,,,,,,,,,,,,,,,,,,,,,,,,,,,,,,,,,,,,,,,,,,,,,,,,,,,,,,,,,,,
5c842b246a4b9b0014c84c30,2023-11-24_24h33.28.345,kallum_motion_pilot,2023.1.2,Win32,60.33546519,5c842b246a4b9b0014c84c30,656018846682f3df8008bb8f,6560196ab6541fd121ba539b,0,47,47,20,1,threeone,,,,,,,,,,,,,,,,,,,,,,,,,,,,,,,,,,,,,,,,,,,,,,,,,,,,,,,,,,,,,,,,,,,,,,,,,,,,,,,,,,,,,
5c842b246a4b9b0014c84c30,2023-11-24_24h33.28.345,kallum_motion_pilot,2023.1.2,Win32,60.33546519,5c842b246a4b9b0014c84c30,656018846682f3df8008bb8f,6560196ab6541fd121ba539b,0,48,48,53,1,threefour,,,,,,,,,,,,,,,,,,,,,,,,,,,,,,,,,,,,,,,,,,,,,,,,,,,,,,,,,,,,,,,,,,,,,,,,,,,,,,,,,,,,,
5c842b246a4b9b0014c84c30,2023-11-24_24h33.28.345,kallum_motion_pilot,2023.1.2,Win32,60.33546519,5c842b246a4b9b0014c84c30,656018846682f3df8008bb8f,6560196ab6541fd121ba539b,0,49,49,16,1,onetwo,,,,,,,,,,,,,,,,,,,,,,,,,,,,,,,,,,,,,,,,,,,,,,,,,,,,,,,,,,,,,,,,,,,,,,,,,,,,,,,,,,,,,
5c842b246a4b9b0014c84c30,2023-11-24_24h33.28.345,kallum_motion_pilot,2023.1.2,Win32,60.33546519,5c842b246a4b9b0014c84c30,656018846682f3df8008bb8f,6560196ab6541fd121ba539b,0,50,50,127,1,eightseven,,,,,,,,,,,,,,,,,,,,,,,,,,,,,,,,,,,,,,,,,,,,,,,,,,,,,,,,,,,,,,,,,,,,,,,,,,,,,,,,,,,,,
5c842b246a4b9b0014c84c30,2023-11-24_24h33.28.345,kallum_motion_pilot,2023.1.2,Win32,60.33546519,5c842b246a4b9b0014c84c30,656018846682f3df8008bb8f,6560196ab6541fd121ba539b,0,51,51,43,1,twofour,,,,,,,,,,,,,,,,,,,,,,,,,,,,,,,,,,,,,,,,,,,,,,,,,,,,,,,,,,,,,,,,,,,,,,,,,,,,,,,,,,,,,
5c842b246a4b9b0014c84c30,2023-11-24_24h33.28.345,kallum_motion_pilot,2023.1.2,Win32,60.33546519,5c842b246a4b9b0014c84c30,656018846682f3df8008bb8f,6560196ab6541fd121ba539b,0,52,52,156,1,sevenfive,,,,,,,,,,,,,,,,,,,,,,,,,,,,,,,,,,,,,,,,,,,,,,,,,,,,,,,,,,,,,,,,,,,,,,,,,,,,,,,,,,,,,
5c842b246a4b9b0014c84c30,2023-11-24_24h33.28.345,kallum_motion_pilot,2023.1.2,Win32,60.33546519,5c842b246a4b9b0014c84c30,656018846682f3df8008bb8f,6560196ab6541fd121ba539b,0,53,53,5,1,threefour,,,,,,,,,,,,,,,,,,,,,,,,,,,,,,,,,,,,,,,,,,,,,,,,,,,,,,,,,,,,,,,,,,,,,,,,,,,,,,,,,,,,,
5c842b246a4b9b0014c84c30,2023-11-24_24h33.28.345,kallum_motion_pilot,2023.1.2,Win32,60.33546519,5c842b246a4b9b0014c84c30,656018846682f3df8008bb8f,6560196ab6541fd121ba539b,0,54,54,83,1,sixeight,,,,,,,,,,,,,,,,,,,,,,,,,,,,,,,,,,,,,,,,,,,,,,,,,,,,,,,,,,,,,,,,,,,,,,,,,,,,,,,,,,,,,
5c842b246a4b9b0014c84c30,2023-11-24_24h33.28.345,kallum_motion_pilot,2023.1.2,Win32,60.33546519,5c842b246a4b9b0014c84c30,656018846682f3df8008bb8f,6560196ab6541fd121ba539b,0,55,55,2,1,twoone,,,,,,,,,,,,,,,,,,,,,,,,,,,,,,,,,,,,,,,,,,,,,,,,,,,,,,,,,,,,,,,,,,,,,,,,,,,,,,,,,,,,,
5c842b246a4b9b0014c84c30,2023-11-24_24h33.28.345,kallum_motion_pilot,2023.1.2,Win32,60.33546519,5c842b246a4b9b0014c84c30,656018846682f3df8008bb8f,6560196ab6541fd121ba539b,0,56,56,128,1,fivesix,,,,,,,,,,,,,,,,,,,,,,,,,,,,,,,,,,,,,,,,,,,,,,,,,,,,,,,,,,,,,,,,,,,,,,,,,,,,,,,,,,,,,
5c842b246a4b9b0014c84c30,2023-11-24_24h33.28.345,kallum_motion_pilot,2023.1.2,Win32,60.33546519,5c842b246a4b9b0014c84c30,656018846682f3df8008bb8f,6560196ab6541fd121ba539b,0,57,57,134,1,eightsix,,,,,,,,,,,,,,,,,,,,,,,,,,,,,,,,,,,,,,,,,,,,,,,,,,,,,,,,,,,,,,,,,,,,,,,,,,,,,,,,,,,,,
5c842b246a4b9b0014c84c30,2023-11-24_24h33.28.345,kallum_motion_pilot,2023.1.2,Win32,60.33546519,5c842b246a4b9b0014c84c30,656018846682f3df8008bb8f,6560196ab6541fd121ba539b,0,58,58,110,1,eightsix,,,,,,,,,,,,,,,,,,,,,,,,,,,,,,,,,,,,,,,,,,,,,,,,,,,,,,,,,,,,,,,,,,,,,,,,,,,,,,,,,,,,,
5c842b246a4b9b0014c84c30,2023-11-24_24h33.28.345,kallum_motion_pilot,2023.1.2,Win32,60.33546519,5c842b246a4b9b0014c84c30,656018846682f3df8008bb8f,6560196ab6541fd121ba539b,0,59,59,124,1,sevenfive,,,,,,,,,,,,,,,,,,,,,,,,,,,,,,,,,,,,,,,,,,,,,,,,,,,,,,,,,,,,,,,,,,,,,,,,,,,,,,,,,,,,,
5c842b246a4b9b0014c84c30,2023-11-24_24h33.28.345,kallum_motion_pilot,2023.1.2,Win32,60.33546519,5c842b246a4b9b0014c84c30,656018846682f3df8008bb8f,6560196ab6541fd121ba539b,0,60,60,58,1,twoone,,,,,,,,,,,,,,,,,,,,,,,,,,,,,,,,,,,,,,,,,,,,,,,,,,,,,,,,,,,,,,,,,,,,,,,,,,,,,,,,,,,,,
5c842b246a4b9b0014c84c30,2023-11-24_24h33.28.345,kallum_motion_pilot,2023.1.2,Win32,60.33546519,5c842b246a4b9b0014c84c30,656018846682f3df8008bb8f,6560196ab6541fd121ba539b,0,61,61,55,1,fourthree,,,,,,,,,,,,,,,,,,,,,,,,,,,,,,,,,,,,,,,,,,,,,,,,,,,,,,,,,,,,,,,,,,,,,,,,,,,,,,,,,,,,,
5c842b246a4b9b0014c84c30,2023-11-24_24h33.28.345,kallum_motion_pilot,2023.1.2,Win32,60.33546519,5c842b246a4b9b0014c84c30,656018846682f3df8008bb8f,6560196ab6541fd121ba539b,0,62,62,54,1,fourtwo,,,,,,,,,,,,,,,,,,,,,,,,,,,,,,,,,,,,,,,,,,,,,,,,,,,,,,,,,,,,,,,,,,,,,,,,,,,,,,,,,,,,,
5c842b246a4b9b0014c84c30,2023-11-24_24h33.28.345,kallum_motion_pilot,2023.1.2,Win32,60.33546519,5c842b246a4b9b0014c84c30,656018846682f3df8008bb8f,6560196ab6541fd121ba539b,0,63,63,155,1,sixeight,,,,,,,,,,,,,,,,,,,,,,,,,,,,,,,,,,,,,,,,,,,,,,,,,,,,,,,,,,,,,,,,,,,,,,,,,,,,,,,,,,,,,
5c842b246a4b9b0014c84c30,2023-11-24_24h33.28.345,kallum_motion_pilot,2023.1.2,Win32,60.33546519,5c842b246a4b9b0014c84c30,656018846682f3df8008bb8f,6560196ab6541fd121ba539b,0,64,64,133,1,seveneight,,,,,,,,,,,,,,,,,,,,,,,,,,,,,,,,,,,,,,,,,,,,,,,,,,,,,,,,,,,,,,,,,,,,,,,,,,,,,,,,,,,,,
5c842b246a4b9b0014c84c30,2023-11-24_24h33.28.345,kallum_motion_pilot,2023.1.2,Win32,60.33546519,5c842b246a4b9b0014c84c30,656018846682f3df8008bb8f,6560196ab6541fd121ba539b,0,65,65,62,1,fourtwo,,,,,,,,,,,,,,,,,,,,,,,,,,,,,,,,,,,,,,,,,,,,,,,,,,,,,,,,,,,,,,,,,,,,,,,,,,,,,,,,,,,,,
5c842b246a4b9b0014c84c30,2023-11-24_24h33.28.345,kallum_motion_pilot,2023.1.2,Win32,60.33546519,5c842b246a4b9b0014c84c30,656018846682f3df8008bb8f,6560196ab6541fd121ba539b,0,66,66,150,1,eightsix,,,,,,,,,,,,,,,,,,,,,,,,,,,,,,,,,,,,,,,,,,,,,,,,,,,,,,,,,,,,,,,,,,,,,,,,,,,,,,,,,,,,,
5c842b246a4b9b0014c84c30,2023-11-24_24h33.28.345,kallum_motion_pilot,2023.1.2,Win32,60.33546519,5c842b246a4b9b0014c84c30,656018846682f3df8008bb8f,6560196ab6541fd121ba539b,0,67,67,144,1,fivesix,,,,,,,,,,,,,,,,,,,,,,,,,,,,,,,,,,,,,,,,,,,,,,,,,,,,,,,,,,,,,,,,,,,,,,,,,,,,,,,,,,,,,
5c842b246a4b9b0014c84c30,2023-11-24_24h33.28.345,kallum_motion_pilot,2023.1.2,Win32,60.33546519,5c842b246a4b9b0014c84c30,656018846682f3df8008bb8f,6560196ab6541fd121ba539b,0,68,68,92,1,sevenfive,,,,,,,,,,,,,,,,,,,,,,,,,,,,,,,,,,,,,,,,,,,,,,,,,,,,,,,,,,,,,,,,,,,,,,,,,,,,,,,,,,,,,
5c842b246a4b9b0014c84c30,2023-11-24_24h33.28.345,kallum_motion_pilot,2023.1.2,Win32,60.33546519,5c842b246a4b9b0014c84c30,656018846682f3df8008bb8f,6560196ab6541fd121ba539b,0,69,69,74,1,twoone,,,,,,,,,,,,,,,,,,,,,,,,,,,,,,,,,,,,,,,,,,,,,,,,,,,,,,,,,,,,,,,,,,,,,,,,,,,,,,,,,,,,,
5c842b246a4b9b0014c84c30,2023-11-24_24h33.28.345,kallum_motion_pilot,2023.1.2,Win32,60.33546519,5c842b246a4b9b0014c84c30,656018846682f3df8008bb8f,6560196ab6541fd121ba539b,0,70,70,40,1,onetwo,,,,,,,,,,,,,,,,,,,,,,,,,,,,,,,,,,,,,,,,,,,,,,,,,,,,,,,,,,,,,,,,,,,,,,,,,,,,,,,,,,,,,
5c842b246a4b9b0014c84c30,2023-11-24_24h33.28.345,kallum_motion_pilot,2023.1.2,Win32,60.33546519,5c842b246a4b9b0014c84c30,656018846682f3df8008bb8f,6560196ab6541fd121ba539b,0,71,71,4,1,threeone,,,,,,,,,,,,,,,,,,,,,,,,,,,,,,,,,,,,,,,,,,,,,,,,,,,,,,,,,,,,,,,,,,,,,,,,,,,,,,,,,,,,,
5c842b246a4b9b0014c84c30,2023-11-24_24h33.28.345,kallum_motion_pilot,2023.1.2,Win32,60.33546519,5c842b246a4b9b0014c84c30,656018846682f3df8008bb8f,6560196ab6541fd121ba539b,0,72,72,80,1,fivesix,,,,,,,,,,,,,,,,,,,,,,,,,,,,,,,,,,,,,,,,,,,,,,,,,,,,,,,,,,,,,,,,,,,,,,,,,,,,,,,,,,,,,
5c842b246a4b9b0014c84c30,2023-11-24_24h33.28.345,kallum_motion_pilot,2023.1.2,Win32,60.33546519,5c842b246a4b9b0014c84c30,656018846682f3df8008bb8f,6560196ab6541fd121ba539b,0,73,73,85,1,seveneight,,,,,,,,,,,,,,,,,,,,,,,,,,,,,,,,,,,,,,,,,,,,,,,,,,,,,,,,,,,,,,,,,,,,,,,,,,,,,,,,,,,,,
5c842b246a4b9b0014c84c30,2023-11-24_24h33.28.345,kallum_motion_pilot,2023.1.2,Win32,60.33546519,5c842b246a4b9b0014c84c30,656018846682f3df8008bb8f,6560196ab6541fd121ba539b,0,74,74,136,1,fivesix,,,,,,,,,,,,,,,,,,,,,,,,,,,,,,,,,,,,,,,,,,,,,,,,,,,,,,,,,,,,,,,,,,,,,,,,,,,,,,,,,,,,,
5c842b246a4b9b0014c84c30,2023-11-24_24h33.28.345,kallum_motion_pilot,2023.1.2,Win32,60.33546519,5c842b246a4b9b0014c84c30,656018846682f3df8008bb8f,6560196ab6541fd121ba539b,0,75,75,120,1,fivesix,,,,,,,,,,,,,,,,,,,,,,,,,,,,,,,,,,,,,,,,,,,,,,,,,,,,,,,,,,,,,,,,,,,,,,,,,,,,,,,,,,,,,
5c842b246a4b9b0014c84c30,2023-11-24_24h33.28.345,kallum_motion_pilot,2023.1.2,Win32,60.33546519,5c842b246a4b9b0014c84c30,656018846682f3df8008bb8f,6560196ab6541fd121ba539b,0,76,76,121,1,fiveseven,,,,,,,,,,,,,,,,,,,,,,,,,,,,,,,,,,,,,,,,,,,,,,,,,,,,,,,,,,,,,,,,,,,,,,,,,,,,,,,,,,,,,
5c842b246a4b9b0014c84c30,2023-11-24_24h33.28.345,kallum_motion_pilot,2023.1.2,Win32,60.33546519,5c842b246a4b9b0014c84c30,656018846682f3df8008bb8f,6560196ab6541fd121ba539b,0,77,77,115,1,sixeight,,,,,,,,,,,,,,,,,,,,,,,,,,,,,,,,,,,,,,,,,,,,,,,,,,,,,,,,,,,,,,,,,,,,,,,,,,,,,,,,,,,,,
5c842b246a4b9b0014c84c30,2023-11-24_24h33.28.345,kallum_motion_pilot,2023.1.2,Win32,60.33546519,5c842b246a4b9b0014c84c30,656018846682f3df8008bb8f,6560196ab6541fd121ba539b,0,78,78,68,1,threeone,,,,,,,,,,,,,,,,,,,,,,,,,,,,,,,,,,,,,,,,,,,,,,,,,,,,,,,,,,,,,,,,,,,,,,,,,,,,,,,,,,,,,
5c842b246a4b9b0014c84c30,2023-11-24_24h33.28.345,kallum_motion_pilot,2023.1.2,Win32,60.33546519,5c842b246a4b9b0014c84c30,656018846682f3df8008bb8f,6560196ab6541fd121ba539b,0,79,79,1,1,onethree,,,,,,,,,,,,,,,,,,,,,,,,,,,,,,,,,,,,,,,,,,,,,,,,,,,,,,,,,,,,,,,,,,,,,,,,,,,,,,,,,,,,,
5c842b246a4b9b0014c84c30,2023-11-24_24h33.28.345,kallum_motion_pilot,2023.1.2,Win32,60.33546519,5c842b246a4b9b0014c84c30,656018846682f3df8008bb8f,6560196ab6541fd121ba539b,0,80,80,111,1,eightseven,,,,,,,,,,,,,,,,,,,,,,,,,,,,,,,,,,,,,,,,,,,,,,,,,,,,,,,,,,,,,,,,,,,,,,,,,,,,,,,,,,,,,
5c842b246a4b9b0014c84c30,2023-11-24_24h33.28.345,kallum_motion_pilot,2023.1.2,Win32,60.33546519,5c842b246a4b9b0014c84c30,656018846682f3df8008bb8f,6560196ab6541fd121ba539b,0,81,81,29,1,threefour,,,,,,,,,,,,,,,,,,,,,,,,,,,,,,,,,,,,,,,,,,,,,,,,,,,,,,,,,,,,,,,,,,,,,,,,,,,,,,,,,,,,,
5c842b246a4b9b0014c84c30,2023-11-24_24h33.28.345,kallum_motion_pilot,2023.1.2,Win32,60.33546519,5c842b246a4b9b0014c84c30,656018846682f3df8008bb8f,6560196ab6541fd121ba539b,0,82,82,100,1,sevenfive,,,,,,,,,,,,,,,,,,,,,,,,,,,,,,,,,,,,,,,,,,,,,,,,,,,,,,,,,,,,,,,,,,,,,,,,,,,,,,,,,,,,,
5c842b246a4b9b0014c84c30,2023-11-24_24h33.28.345,kallum_motion_pilot,2023.1.2,Win32,60.33546519,5c842b246a4b9b0014c84c30,656018846682f3df8008bb8f,6560196ab6541fd121ba539b,0,83,83,146,1,sixfive,,,,,,,,,,,,,,,,,,,,,,,,,,,,,,,,,,,,,,,,,,,,,,,,,,,,,,,,,,,,,,,,,,,,,,,,,,,,,,,,,,,,,
5c842b246a4b9b0014c84c30,2023-11-24_24h33.28.345,kallum_motion_pilot,2023.1.2,Win32,60.33546519,5c842b246a4b9b0014c84c30,656018846682f3df8008bb8f,6560196ab6541fd121ba539b,0,84,84,21,1,threefour,,,,,,,,,,,,,,,,,,,,,,,,,,,,,,,,,,,,,,,,,,,,,,,,,,,,,,,,,,,,,,,,,,,,,,,,,,,,,,,,,,,,,
5c842b246a4b9b0014c84c30,2023-11-24_24h33.28.345,kallum_motion_pilot,2023.1.2,Win32,60.33546519,5c842b246a4b9b0014c84c30,656018846682f3df8008bb8f,6560196ab6541fd121ba539b,0,85,85,94,1,eightsix,,,,,,,,,,,,,,,,,,,,,,,,,,,,,,,,,,,,,,,,,,,,,,,,,,,,,,,,,,,,,,,,,,,,,,,,,,,,,,,,,,,,,
5c842b246a4b9b0014c84c30,2023-11-24_24h33.28.345,kallum_motion_pilot,2023.1.2,Win32,60.33546519,5c842b246a4b9b0014c84c30,656018846682f3df8008bb8f,6560196ab6541fd121ba539b,0,86,86,90,1,sixfive,,,,,,,,,,,,,,,,,,,,,,,,,,,,,,,,,,,,,,,,,,,,,,,,,,,,,,,,,,,,,,,,,,,,,,,,,,,,,,,,,,,,,
5c842b246a4b9b0014c84c30,2023-11-24_24h33.28.345,kallum_motion_pilot,2023.1.2,Win32,60.33546519,5c842b246a4b9b0014c84c30,656018846682f3df8008bb8f,6560196ab6541fd121ba539b,0,87,87,149,1,seveneight,,,,,,,,,,,,,,,,,,,,,,,,,,,,,,,,,,,,,,,,,,,,,,,,,,,,,,,,,,,,,,,,,,,,,,,,,,,,,,,,,,,,,
5c842b246a4b9b0014c84c30,2023-11-24_24h33.28.345,kallum_motion_pilot,2023.1.2,Win32,60.33546519,5c842b246a4b9b0014c84c30,656018846682f3df8008bb8f,6560196ab6541fd121ba539b,0,88,88,109,1,seveneight,,,,,,,,,,,,,,,,,,,,,,,,,,,,,,,,,,,,,,,,,,,,,,,,,,,,,,,,,,,,,,,,,,,,,,,,,,,,,,,,,,,,,
5c842b246a4b9b0014c84c30,2023-11-24_24h33.28.345,kallum_motion_pilot,2023.1.2,Win32,60.33546519,5c842b246a4b9b0014c84c30,656018846682f3df8008bb8f,6560196ab6541fd121ba539b,0,89,89,33,1,onethree,,,,,,,,,,,,,,,,,,,,,,,,,,,,,,,,,,,,,,,,,,,,,,,,,,,,,,,,,,,,,,,,,,,,,,,,,,,,,,,,,,,,,
5c842b246a4b9b0014c84c30,2023-11-24_24h33.28.345,kallum_motion_pilot,2023.1.2,Win32,60.33546519,5c842b246a4b9b0014c84c30,656018846682f3df8008bb8f,6560196ab6541fd121ba539b,0,90,90,95,1,eightseven,,,,,,,,,,,,,,,,,,,,,,,,,,,,,,,,,,,,,,,,,,,,,,,,,,,,,,,,,,,,,,,,,,,,,,,,,,,,,,,,,,,,,
5c842b246a4b9b0014c84c30,2023-11-24_24h33.28.345,kallum_motion_pilot,2023.1.2,Win32,60.33546519,5c842b246a4b9b0014c84c30,656018846682f3df8008bb8f,6560196ab6541fd121ba539b,0,91,91,119,1,eightseven,,,,,,,,,,,,,,,,,,,,,,,,,,,,,,,,,,,,,,,,,,,,,,,,,,,,,,,,,,,,,,,,,,,,,,,,,,,,,,,,,,,,,
5c842b246a4b9b0014c84c30,2023-11-24_24h33.28.345,kallum_motion_pilot,2023.1.2,Win32,60.33546519,5c842b246a4b9b0014c84c30,656018846682f3df8008bb8f,6560196ab6541fd121ba539b,0,92,92,86,1,eightsix,,,,,,,,,,,,,,,,,,,,,,,,,,,,,,,,,,,,,,,,,,,,,,,,,,,,,,,,,,,,,,,,,,,,,,,,,,,,,,,,,,,,,
5c842b246a4b9b0014c84c30,2023-11-24_24h33.28.345,kallum_motion_pilot,2023.1.2,Win32,60.33546519,5c842b246a4b9b0014c84c30,656018846682f3df8008bb8f,6560196ab6541fd121ba539b,0,93,93,131,1,sixeight,,,,,,,,,,,,,,,,,,,,,,,,,,,,,,,,,,,,,,,,,,,,,,,,,,,,,,,,,,,,,,,,,,,,,,,,,,,,,,,,,,,,,
5c842b246a4b9b0014c84c30,2023-11-24_24h33.28.345,kallum_motion_pilot,2023.1.2,Win32,60.33546519,5c842b246a4b9b0014c84c30,656018846682f3df8008bb8f,6560196ab6541fd121ba539b,0,94,94,78,1,fourtwo,,,,,,,,,,,,,,,,,,,,,,,,,,,,,,,,,,,,,,,,,,,,,,,,,,,,,,,,,,,,,,,,,,,,,,,,,,,,,,,,,,,,,
5c842b246a4b9b0014c84c30,2023-11-24_24h33.28.345,kallum_motion_pilot,2023.1.2,Win32,60.33546519,5c842b246a4b9b0014c84c30,656018846682f3df8008bb8f,6560196ab6541fd121ba539b,0,95,95,56,1,onetwo,,,,,,,,,,,,,,,,,,,,,,,,,,,,,,,,,,,,,,,,,,,,,,,,,,,,,,,,,,,,,,,,,,,,,,,,,,,,,,,,,,,,,
5c842b246a4b9b0014c84c30,2023-11-24_24h33.28.345,kallum_motion_pilot,2023.1.2,Win32,60.33546519,5c842b246a4b9b0014c84c30,656018846682f3df8008bb8f,6560196ab6541fd121ba539b,0,96,96,72,1,onetwo,,,,,,,,,,,,,,,,,,,,,,,,,,,,,,,,,,,,,,,,,,,,,,,,,,,,,,,,,,,,,,,,,,,,,,,,,,,,,,,,,,,,,
5c842b246a4b9b0014c84c30,2023-11-24_24h33.28.345,kallum_motion_pilot,2023.1.2,Win32,60.33546519,5c842b246a4b9b0014c84c30,656018846682f3df8008bb8f,6560196ab6541fd121ba539b,0,97,97,15,1,fourthree,,,,,,,,,,,,,,,,,,,,,,,,,,,,,,,,,,,,,,,,,,,,,,,,,,,,,,,,,,,,,,,,,,,,,,,,,,,,,,,,,,,,,
5c842b246a4b9b0014c84c30,2023-11-24_24h33.28.345,kallum_motion_pilot,2023.1.2,Win32,60.33546519,5c842b246a4b9b0014c84c30,656018846682f3df8008bb8f,6560196ab6541fd121ba539b,0,98,98,140,1,sevenfive,,,,,,,,,,,,,,,,,,,,,,,,,,,,,,,,,,,,,,,,,,,,,,,,,,,,,,,,,,,,,,,,,,,,,,,,,,,,,,,,,,,,,
5c842b246a4b9b0014c84c30,2023-11-24_24h33.28.345,kallum_motion_pilot,2023.1.2,Win32,60.33546519,5c842b246a4b9b0014c84c30,656018846682f3df8008bb8f,6560196ab6541fd121ba539b,0,99,99,77,1,threefour,,,,,,,,,,,,,,,,,,,,,,,,,,,,,,,,,,,,,,,,,,,,,,,,,,,,,,,,,,,,,,,,,,,,,,,,,,,,,,,,,,,,,
5c842b246a4b9b0014c84c30,2023-11-24_24h33.28.345,kallum_motion_pilot,2023.1.2,Win32,60.33546519,5c842b246a4b9b0014c84c30,656018846682f3df8008bb8f,6560196ab6541fd121ba539b,0,100,100,116,1,sevenfive,,,,,,,,,,,,,,,,,,,,,,,,,,,,,,,,,,,,,,,,,,,,,,,,,,,,,,,,,,,,,,,,,,,,,,,,,,,,,,,,,,,,,
5c842b246a4b9b0014c84c30,2023-11-24_24h33.28.345,kallum_motion_pilot,2023.1.2,Win32,60.33546519,5c842b246a4b9b0014c84c30,656018846682f3df8008bb8f,6560196ab6541fd121ba539b,0,101,101,160,1,fivesix,,,,,,,,,,,,,,,,,,,,,,,,,,,,,,,,,,,,,,,,,,,,,,,,,,,,,,,,,,,,,,,,,,,,,,,,,,,,,,,,,,,,,
5c842b246a4b9b0014c84c30,2023-11-24_24h33.28.345,kallum_motion_pilot,2023.1.2,Win32,60.33546519,5c842b246a4b9b0014c84c30,656018846682f3df8008bb8f,6560196ab6541fd121ba539b,0,102,102,46,1,fourtwo,,,,,,,,,,,,,,,,,,,,,,,,,,,,,,,,,,,,,,,,,,,,,,,,,,,,,,,,,,,,,,,,,,,,,,,,,,,,,,,,,,,,,
5c842b246a4b9b0014c84c30,2023-11-24_24h33.28.345,kallum_motion_pilot,2023.1.2,Win32,60.33546519,5c842b246a4b9b0014c84c30,656018846682f3df8008bb8f,6560196ab6541fd121ba539b,0,103,103,152,1,fivesix,,,,,,,,,,,,,,,,,,,,,,,,,,,,,,,,,,,,,,,,,,,,,,,,,,,,,,,,,,,,,,,,,,,,,,,,,,,,,,,,,,,,,
5c842b246a4b9b0014c84c30,2023-11-24_24h33.28.345,kallum_motion_pilot,2023.1.2,Win32,60.33546519,5c842b246a4b9b0014c84c30,656018846682f3df8008bb8f,6560196ab6541fd121ba539b,0,104,104,141,1,seveneight,,,,,,,,,,,,,,,,,,,,,,,,,,,,,,,,,,,,,,,,,,,,,,,,,,,,,,,,,,,,,,,,,,,,,,,,,,,,,,,,,,,,,
5c842b246a4b9b0014c84c30,2023-11-24_24h33.28.345,kallum_motion_pilot,2023.1.2,Win32,60.33546519,5c842b246a4b9b0014c84c30,656018846682f3df8008bb8f,6560196ab6541fd121ba539b,0,105,105,118,1,eightsix,,,,,,,,,,,,,,,,,,,,,,,,,,,,,,,,,,,,,,,,,,,,,,,,,,,,,,,,,,,,,,,,,,,,,,,,,,,,,,,,,,,,,
5c842b246a4b9b0014c84c30,2023-11-24_24h33.28.345,kallum_motion_pilot,2023.1.2,Win32,60.33546519,5c842b246a4b9b0014c84c30,656018846682f3df8008bb8f,6560196ab6541fd121ba539b,0,106,106,69,1,threefour,,,,,,,,,,,,,,,,,,,,,,,,,,,,,,,,,,,,,,,,,,,,,,,,,,,,,,,,,,,,,,,,,,,,,,,,,,,,,,,,,,,,,
5c842b246a4b9b0014c84c30,2023-11-24_24h33.28.345,kallum_motion_pilot,2023.1.2,Win32,60.33546519,5c842b246a4b9b0014c84c30,656018846682f3df8008bb8f,6560196ab6541fd121ba539b,0,107,107,98,1,sixfive,,,,,,,,,,,,,,,,,,,,,,,,,,,,,,,,,,,,,,,,,,,,,,,,,,,,,,,,,,,,,,,,,,,,,,,,,,,,,,,,,,,,,
5c842b246a4b9b0014c84c30,2023-11-24_24h33.28.345,kallum_motion_pilot,2023.1.2,Win32,60.33546519,5c842b246a4b9b0014c84c30,656018846682f3df8008bb8f,6560196ab6541fd121ba539b,0,108,108,79,1,eightseven,,,,,,,,,,,,,,,,,,,,,,,,,,,,,,,,,,,,,,,,,,,,,,,,,,,,,,,,,,,,,,,,,,,,,,,,,,,,,,,,,,,,,
5c842b246a4b9b0014c84c30,2023-11-24_24h33.28.345,kallum_motion_pilot,2023.1.2,Win32,60.33546519,5c842b246a4b9b0014c84c30,656018846682f3df8008bb8f,6560196ab6541fd121ba539b,0,109,109,105,1,fiveseven,,,,,,,,,,,,,,,,,,,,,,,,,,,,,,,,,,,,,,,,,,,,,,,,,,,,,,,,,,,,,,,,,,,,,,,,,,,,,,,,,,,,,
5c842b246a4b9b0014c84c30,2023-11-24_24h33.28.345,kallum_motion_pilot,2023.1.2,Win32,60.33546519,5c842b246a4b9b0014c84c30,656018846682f3df8008bb8f,6560196ab6541fd121ba539b,0,110,110,132,1,sevenfive,,,,,,,,,,,,,,,,,,,,,,,,,,,,,,,,,,,,,,,,,,,,,,,,,,,,,,,,,,,,,,,,,,,,,,,,,,,,,,,,,,,,,
5c842b246a4b9b0014c84c30,2023-11-24_24h33.28.345,kallum_motion_pilot,2023.1.2,Win32,60.33546519,5c842b246a4b9b0014c84c30,656018846682f3df8008bb8f,6560196ab6541fd121ba539b,0,111,111,44,1,threeone,,,,,,,,,,,,,,,,,,,,,,,,,,,,,,,,,,,,,,,,,,,,,,,,,,,,,,,,,,,,,,,,,,,,,,,,,,,,,,,,,,,,,
5c842b246a4b9b0014c84c30,2023-11-24_24h33.28.345,kallum_motion_pilot,2023.1.2,Win32,60.33546519,5c842b246a4b9b0014c84c30,656018846682f3df8008bb8f,6560196ab6541fd121ba539b,0,112,112,36,1,threeone,,,,,,,,,,,,,,,,,,,,,,,,,,,,,,,,,,,,,,,,,,,,,,,,,,,,,,,,,,,,,,,,,,,,,,,,,,,,,,,,,,,,,
5c842b246a4b9b0014c84c30,2023-11-24_24h33.28.345,kallum_motion_pilot,2023.1.2,Win32,60.33546519,5c842b246a4b9b0014c84c30,656018846682f3df8008bb8f,6560196ab6541fd121ba539b,0,113,113,87,1,eightseven,,,,,,,,,,,,,,,,,,,,,,,,,,,,,,,,,,,,,,,,,,,,,,,,,,,,,,,,,,,,,,,,,,,,,,,,,,,,,,,,,,,,,
5c842b246a4b9b0014c84c30,2023-11-24_24h33.28.345,kallum_motion_pilot,2023.1.2,Win32,60.33546519,5c842b246a4b9b0014c84c30,656018846682f3df8008bb8f,6560196ab6541fd121ba539b,0,114,114,147,1,sixeight,,,,,,,,,,,,,,,,,,,,,,,,,,,,,,,,,,,,,,,,,,,,,,,,,,,,,,,,,,,,,,,,,,,,,,,,,,,,,,,,,,,,,
5c842b246a4b9b0014c84c30,2023-11-24_24h33.28.345,kallum_motion_pilot,2023.1.2,Win32,60.33546519,5c842b246a4b9b0014c84c30,656018846682f3df8008bb8f,6560196ab6541fd121ba539b,0,115,115,138,1,sixfive,,,,,,,,,,,,,,,,,,,,,,,,,,,,,,,,,,,,,,,,,,,,,,,,,,,,,,,,,,,,,,,,,,,,,,,,,,,,,,,,,,,,,
5c842b246a4b9b0014c84c30,2023-11-24_24h33.28.345,kallum_motion_pilot,2023.1.2,Win32,60.33546519,5c842b246a4b9b0014c84c30,656018846682f3df8008bb8f,6560196ab6541fd121ba539b,0,116,116,8,1,onetwo,,,,,,,,,,,,,,,,,,,,,,,,,,,,,,,,,,,,,,,,,,,,,,,,,,,,,,,,,,,,,,,,,,,,,,,,,,,,,,,,,,,,,
5c842b246a4b9b0014c84c30,2023-11-24_24h33.28.345,kallum_motion_pilot,2023.1.2,Win32,60.33546519,5c842b246a4b9b0014c84c30,656018846682f3df8008bb8f,6560196ab6541fd121ba539b,0,117,117,91,1,sixeight,,,,,,,,,,,,,,,,,,,,,,,,,,,,,,,,,,,,,,,,,,,,,,,,,,,,,,,,,,,,,,,,,,,,,,,,,,,,,,,,,,,,,
5c842b246a4b9b0014c84c30,2023-11-24_24h33.28.345,kallum_motion_pilot,2023.1.2,Win32,60.33546519,5c842b246a4b9b0014c84c30,656018846682f3df8008bb8f,6560196ab6541fd121ba539b,0,118,118,45,1,threefour,,,,,,,,,,,,,,,,,,,,,,,,,,,,,,,,,,,,,,,,,,,,,,,,,,,,,,,,,,,,,,,,,,,,,,,,,,,,,,,,,,,,,
5c842b246a4b9b0014c84c30,2023-11-24_24h33.28.345,kallum_motion_pilot,2023.1.2,Win32,60.33546519,5c842b246a4b9b0014c84c30,656018846682f3df8008bb8f,6560196ab6541fd121ba539b,0,119,119,107,1,sixeight,,,,,,,,,,,,,,,,,,,,,,,,,,,,,,,,,,,,,,,,,,,,,,,,,,,,,,,,,,,,,,,,,,,,,,,,,,,,,,,,,,,,,
5c842b246a4b9b0014c84c30,2023-11-24_24h33.28.345,kallum_motion_pilot,2023.1.2,Win32,60.33546519,5c842b246a4b9b0014c84c30,656018846682f3df8008bb8f,6560196ab6541fd121ba539b,0,120,120,38,1,fourtwo,,,,,,,,,,,,,,,,,,,,,,,,,,,,,,,,,,,,,,,,,,,,,,,,,,,,,,,,,,,,,,,,,,,,,,,,,,,,,,,,,,,,,
5c842b246a4b9b0014c84c30,2023-11-24_24h33.28.345,kallum_motion_pilot,2023.1.2,Win32,60.33546519,5c842b246a4b9b0014c84c30,656018846682f3df8008bb8f,6560196ab6541fd121ba539b,0,121,121,12,1,threeone,,,,,,,,,,,,,,,,,,,,,,,,,,,,,,,,,,,,,,,,,,,,,,,,,,,,,,,,,,,,,,,,,,,,,,,,,,,,,,,,,,,,,
5c842b246a4b9b0014c84c30,2023-11-24_24h33.28.345,kallum_motion_pilot,2023.1.2,Win32,60.33546519,5c842b246a4b9b0014c84c30,656018846682f3df8008bb8f,6560196ab6541fd121ba539b,0,122,122,99,1,sixeight,,,,,,,,,,,,,,,,,,,,,,,,,,,,,,,,,,,,,,,,,,,,,,,,,,,,,,,,,,,,,,,,,,,,,,,,,,,,,,,,,,,,,
5c842b246a4b9b0014c84c30,2023-11-24_24h33.28.345,kallum_motion_pilot,2023.1.2,Win32,60.33546519,5c842b246a4b9b0014c84c30,656018846682f3df8008bb8f,6560196ab6541fd121ba539b,0,123,123,101,1,seveneight,,,,,,,,,,,,,,,,,,,,,,,,,,,,,,,,,,,,,,,,,,,,,,,,,,,,,,,,,,,,,,,,,,,,,,,,,,,,,,,,,,,,,
5c842b246a4b9b0014c84c30,2023-11-24_24h33.28.345,kallum_motion_pilot,2023.1.2,Win32,60.33546519,5c842b246a4b9b0014c84c30,656018846682f3df8008bb8f,6560196ab6541fd121ba539b,0,124,124,137,1,fiveseven,,,,,,,,,,,,,,,,,,,,,,,,,,,,,,,,,,,,,,,,,,,,,,,,,,,,,,,,,,,,,,,,,,,,,,,,,,,,,,,,,,,,,
5c842b246a4b9b0014c84c30,2023-11-24_24h33.28.345,kallum_motion_pilot,2023.1.2,Win32,60.33546519,5c842b246a4b9b0014c84c30,656018846682f3df8008bb8f,6560196ab6541fd121ba539b,0,125,125,6,1,fourtwo,,,,,,,,,,,,,,,,,,,,,,,,,,,,,,,,,,,,,,,,,,,,,,,,,,,,,,,,,,,,,,,,,,,,,,,,,,,,,,,,,,,,,
5c842b246a4b9b0014c84c30,2023-11-24_24h33.28.345,kallum_motion_pilot,2023.1.2,Win32,60.33546519,5c842b246a4b9b0014c84c30,656018846682f3df8008bb8f,6560196ab6541fd121ba539b,0,126,126,112,1,fivesix,,,,,,,,,,,,,,,,,,,,,,,,,,,,,,,,,,,,,,,,,,,,,,,,,,,,,,,,,,,,,,,,,,,,,,,,,,,,,,,,,,,,,
5c842b246a4b9b0014c84c30,2023-11-24_24h33.28.345,kallum_motion_pilot,2023.1.2,Win32,60.33546519,5c842b246a4b9b0014c84c30,656018846682f3df8008bb8f,6560196ab6541fd121ba539b,0,127,127,123,1,sixeight,,,,,,,,,,,,,,,,,,,,,,,,,,,,,,,,,,,,,,,,,,,,,,,,,,,,,,,,,,,,,,,,,,,,,,,,,,,,,,,,,,,,,
5c842b246a4b9b0014c84c30,2023-11-24_24h33.28.345,kallum_motion_pilot,2023.1.2,Win32,60.33546519,5c842b246a4b9b0014c84c30,656018846682f3df8008bb8f,6560196ab6541fd121ba539b,0,128,128,47,1,fourthree,,,,,,,,,,,,,,,,,,,,,,,,,,,,,,,,,,,,,,,,,,,,,,,,,,,,,,,,,,,,,,,,,,,,,,,,,,,,,,,,,,,,,
5c842b246a4b9b0014c84c30,2023-11-24_24h33.28.345,kallum_motion_pilot,2023.1.2,Win32,60.33546519,5c842b246a4b9b0014c84c30,656018846682f3df8008bb8f,6560196ab6541fd121ba539b,0,129,129,103,1,eightseven,,,,,,,,,,,,,,,,,,,,,,,,,,,,,,,,,,,,,,,,,,,,,,,,,,,,,,,,,,,,,,,,,,,,,,,,,,,,,,,,,,,,,
5c842b246a4b9b0014c84c30,2023-11-24_24h33.28.345,kallum_motion_pilot,2023.1.2,Win32,60.33546519,5c842b246a4b9b0014c84c30,656018846682f3df8008bb8f,6560196ab6541fd121ba539b,0,130,130,10,1,twoone,,,,,,,,,,,,,,,,,,,,,,,,,,,,,,,,,,,,,,,,,,,,,,,,,,,,,,,,,,,,,,,,,,,,,,,,,,,,,,,,,,,,,
5c842b246a4b9b0014c84c30,2023-11-24_24h33.28.345,kallum_motion_pilot,2023.1.2,Win32,60.33546519,5c842b246a4b9b0014c84c30,656018846682f3df8008bb8f,6560196ab6541fd121ba539b,0,131,131,13,1,threefour,,,,,,,,,,,,,,,,,,,,,,,,,,,,,,,,,,,,,,,,,,,,,,,,,,,,,,,,,,,,,,,,,,,,,,,,,,,,,,,,,,,,,
5c842b246a4b9b0014c84c30,2023-11-24_24h33.28.345,kallum_motion_pilot,2023.1.2,Win32,60.33546519,5c842b246a4b9b0014c84c30,656018846682f3df8008bb8f,6560196ab6541fd121ba539b,0,132,132,61,1,threefour,,,,,,,,,,,,,,,,,,,,,,,,,,,,,,,,,,,,,,,,,,,,,,,,,,,,,,,,,,,,,,,,,,,,,,,,,,,,,,,,,,,,,
5c842b246a4b9b0014c84c30,2023-11-24_24h33.28.345,kallum_motion_pilot,2023.1.2,Win32,60.33546519,5c842b246a4b9b0014c84c30,656018846682f3df8008bb8f,6560196ab6541fd121ba539b,0,133,133,102,1,eightsix,,,,,,,,,,,,,,,,,,,,,,,,,,,,,,,,,,,,,,,,,,,,,,,,,,,,,,,,,,,,,,,,,,,,,,,,,,,,,,,,,,,,,
5c842b246a4b9b0014c84c30,2023-11-24_24h33.28.345,kallum_motion_pilot,2023.1.2,Win32,60.33546519,5c842b246a4b9b0014c84c30,656018846682f3df8008bb8f,6560196ab6541fd121ba539b,0,134,134,88,1,fivesix,,,,,,,,,,,,,,,,,,,,,,,,,,,,,,,,,,,,,,,,,,,,,,,,,,,,,,,,,,,,,,,,,,,,,,,,,,,,,,,,,,,,,
5c842b246a4b9b0014c84c30,2023-11-24_24h33.28.345,kallum_motion_pilot,2023.1.2,Win32,60.33546519,5c842b246a4b9b0014c84c30,656018846682f3df8008bb8f,6560196ab6541fd121ba539b,0,135,135,25,1,onethree,,,,,,,,,,,,,,,,,,,,,,,,,,,,,,,,,,,,,,,,,,,,,,,,,,,,,,,,,,,,,,,,,,,,,,,,,,,,,,,,,,,,,
5c842b246a4b9b0014c84c30,2023-11-24_24h33.28.345,kallum_motion_pilot,2023.1.2,Win32,60.33546519,5c842b246a4b9b0014c84c30,656018846682f3df8008bb8f,6560196ab6541fd121ba539b,0,136,136,49,1,onethree,,,,,,,,,,,,,,,,,,,,,,,,,,,,,,,,,,,,,,,,,,,,,,,,,,,,,,,,,,,,,,,,,,,,,,,,,,,,,,,,,,,,,
5c842b246a4b9b0014c84c30,2023-11-24_24h33.28.345,kallum_motion_pilot,2023.1.2,Win32,60.33546519,5c842b246a4b9b0014c84c30,656018846682f3df8008bb8f,6560196ab6541fd121ba539b,0,137,137,66,1,twoone,,,,,,,,,,,,,,,,,,,,,,,,,,,,,,,,,,,,,,,,,,,,,,,,,,,,,,,,,,,,,,,,,,,,,,,,,,,,,,,,,,,,,
5c842b246a4b9b0014c84c30,2023-11-24_24h33.28.345,kallum_motion_pilot,2023.1.2,Win32,60.33546519,5c842b246a4b9b0014c84c30,656018846682f3df8008bb8f,6560196ab6541fd121ba539b,0,138,138,122,1,sixfive,,,,,,,,,,,,,,,,,,,,,,,,,,,,,,,,,,,,,,,,,,,,,,,,,,,,,,,,,,,,,,,,,,,,,,,,,,,,,,,,,,,,,
5c842b246a4b9b0014c84c30,2023-11-24_24h33.28.345,kallum_motion_pilot,2023.1.2,Win32,60.33546519,5c842b246a4b9b0014c84c30,656018846682f3df8008bb8f,6560196ab6541fd121ba539b,0,139,139,34,1,twoone,,,,,,,,,,,,,,,,,,,,,,,,,,,,,,,,,,,,,,,,,,,,,,,,,,,,,,,,,,,,,,,,,,,,,,,,,,,,,,,,,,,,,
5c842b246a4b9b0014c84c30,2023-11-24_24h33.28.345,kallum_motion_pilot,2023.1.2,Win32,60.33546519,5c842b246a4b9b0014c84c30,656018846682f3df8008bb8f,6560196ab6541fd121ba539b,0,140,140,37,1,threefour,,,,,,,,,,,,,,,,,,,,,,,,,,,,,,,,,,,,,,,,,,,,,,,,,,,,,,,,,,,,,,,,,,,,,,,,,,,,,,,,,,,,,
5c842b246a4b9b0014c84c30,2023-11-24_24h33.28.345,kallum_motion_pilot,2023.1.2,Win32,60.33546519,5c842b246a4b9b0014c84c30,656018846682f3df8008bb8f,6560196ab6541fd121ba539b,0,141,141,17,1,onethree,,,,,,,,,,,,,,,,,,,,,,,,,,,,,,,,,,,,,,,,,,,,,,,,,,,,,,,,,,,,,,,,,,,,,,,,,,,,,,,,,,,,,
5c842b246a4b9b0014c84c30,2023-11-24_24h33.28.345,kallum_motion_pilot,2023.1.2,Win32,60.33546519,5c842b246a4b9b0014c84c30,656018846682f3df8008bb8f,6560196ab6541fd121ba539b,0,142,142,148,1,sevenfive,,,,,,,,,,,,,,,,,,,,,,,,,,,,,,,,,,,,,,,,,,,,,,,,,,,,,,,,,,,,,,,,,,,,,,,,,,,,,,,,,,,,,
5c842b246a4b9b0014c84c30,2023-11-24_24h33.28.345,kallum_motion_pilot,2023.1.2,Win32,60.33546519,5c842b246a4b9b0014c84c30,656018846682f3df8008bb8f,6560196ab6541fd121ba539b,0,143,143,73,1,onethree,,,,,,,,,,,,,,,,,,,,,,,,,,,,,,,,,,,,,,,,,,,,,,,,,,,,,,,,,,,,,,,,,,,,,,,,,,,,,,,,,,,,,
5c842b246a4b9b0014c84c30,2023-11-24_24h33.28.345,kallum_motion_pilot,2023.1.2,Win32,60.33546519,5c842b246a4b9b0014c84c30,656018846682f3df8008bb8f,6560196ab6541fd121ba539b,0,144,144,14,1,fourtwo,,,,,,,,,,,,,,,,,,,,,,,,,,,,,,,,,,,,,,,,,,,,,,,,,,,,,,,,,,,,,,,,,,,,,,,,,,,,,,,,,,,,,
5c842b246a4b9b0014c84c30,2023-11-24_24h33.28.345,kallum_motion_pilot,2023.1.2,Win32,60.33546519,5c842b246a4b9b0014c84c30,656018846682f3df8008bb8f,6560196ab6541fd121ba539b,0,145,145,35,1,twofour,,,,,,,,,,,,,,,,,,,,,,,,,,,,,,,,,,,,,,,,,,,,,,,,,,,,,,,,,,,,,,,,,,,,,,,,,,,,,,,,,,,,,
5c842b246a4b9b0014c84c30,2023-11-24_24h33.28.345,kallum_motion_pilot,2023.1.2,Win32,60.33546519,5c842b246a4b9b0014c84c30,656018846682f3df8008bb8f,6560196ab6541fd121ba539b,0,146,146,3,1,twofour,,,,,,,,,,,,,,,,,,,,,,,,,,,,,,,,,,,,,,,,,,,,,,,,,,,,,,,,,,,,,,,,,,,,,,,,,,,,,,,,,,,,,
5c842b246a4b9b0014c84c30,2023-11-24_24h33.28.345,kallum_motion_pilot,2023.1.2,Win32,60.33546519,5c842b246a4b9b0014c84c30,656018846682f3df8008bb8f,6560196ab6541fd121ba539b,0,147,147,11,1,twofour,,,,,,,,,,,,,,,,,,,,,,,,,,,,,,,,,,,,,,,,,,,,,,,,,,,,,,,,,,,,,,,,,,,,,,,,,,,,,,,,,,,,,
5c842b246a4b9b0014c84c30,2023-11-24_24h33.28.345,kallum_motion_pilot,2023.1.2,Win32,60.33546519,5c842b246a4b9b0014c84c30,656018846682f3df8008bb8f,6560196ab6541fd121ba539b,0,148,148,97,1,fiveseven,,,,,,,,,,,,,,,,,,,,,,,,,,,,,,,,,,,,,,,,,,,,,,,,,,,,,,,,,,,,,,,,,,,,,,,,,,,,,,,,,,,,,
5c842b246a4b9b0014c84c30,2023-11-24_24h33.28.345,kallum_motion_pilot,2023.1.2,Win32,60.33546519,5c842b246a4b9b0014c84c30,656018846682f3df8008bb8f,6560196ab6541fd121ba539b,0,149,149,30,1,fourtwo,,,,,,,,,,,,,,,,,,,,,,,,,,,,,,,,,,,,,,,,,,,,,,,,,,,,,,,,,,,,,,,,,,,,,,,,,,,,,,,,,,,,,
5c842b246a4b9b0014c84c30,2023-11-24_24h33.28.345,kallum_motion_pilot,2023.1.2,Win32,60.33546519,5c842b246a4b9b0014c84c30,656018846682f3df8008bb8f,6560196ab6541fd121ba539b,0,150,150,158,1,eightsix,,,,,,,,,,,,,,,,,,,,,,,,,,,,,,,,,,,,,,,,,,,,,,,,,,,,,,,,,,,,,,,,,,,,,,,,,,,,,,,,,,,,,
5c842b246a4b9b0014c84c30,2023-11-24_24h33.28.345,kallum_motion_pilot,2023.1.2,Win32,60.33546519,5c842b246a4b9b0014c84c30,656018846682f3df8008bb8f,6560196ab6541fd121ba539b,0,151,151,117,1,seveneight,,,,,,,,,,,,,,,,,,,,,,,,,,,,,,,,,,,,,,,,,,,,,,,,,,,,,,,,,,,,,,,,,,,,,,,,,,,,,,,,,,,,,
5c842b246a4b9b0014c84c30,2023-11-24_24h33.28.345,kallum_motion_pilot,2023.1.2,Win32,60.33546519,5c842b246a4b9b0014c84c30,656018846682f3df8008bb8f,6560196ab6541fd121ba539b,0,152,152,50,1,twoone,,,,,,,,,,,,,,,,,,,,,,,,,,,,,,,,,,,,,,,,,,,,,,,,,,,,,,,,,,,,,,,,,,,,,,,,,,,,,,,,,,,,,
5c842b246a4b9b0014c84c30,2023-11-24_24h33.28.345,kallum_motion_pilot,2023.1.2,Win32,60.33546519,5c842b246a4b9b0014c84c30,656018846682f3df8008bb8f,6560196ab6541fd121ba539b,0,153,153,154,1,sixfive,,,,,,,,,,,,,,,,,,,,,,,,,,,,,,,,,,,,,,,,,,,,,,,,,,,,,,,,,,,,,,,,,,,,,,,,,,,,,,,,,,,,,
5c842b246a4b9b0014c84c30,2023-11-24_24h33.28.345,kallum_motion_pilot,2023.1.2,Win32,60.33546519,5c842b246a4b9b0014c84c30,656018846682f3df8008bb8f,6560196ab6541fd121ba539b,0,154,154,93,1,seveneight,,,,,,,,,,,,,,,,,,,,,,,,,,,,,,,,,,,,,,,,,,,,,,,,,,,,,,,,,,,,,,,,,,,,,,,,,,,,,,,,,,,,,
5c842b246a4b9b0014c84c30,2023-11-24_24h33.28.345,kallum_motion_pilot,2023.1.2,Win32,60.33546519,5c842b246a4b9b0014c84c30,656018846682f3df8008bb8f,6560196ab6541fd121ba539b,0,155,155,7,1,fourthree,,,,,,,,,,,,,,,,,,,,,,,,,,,,,,,,,,,,,,,,,,,,,,,,,,,,,,,,,,,,,,,,,,,,,,,,,,,,,,,,,,,,,
5c842b246a4b9b0014c84c30,2023-11-24_24h33.28.345,kallum_motion_pilot,2023.1.2,Win32,60.33546519,5c842b246a4b9b0014c84c30,656018846682f3df8008bb8f,6560196ab6541fd121ba539b,0,156,156,48,1,onetwo,,,,,,,,,,,,,,,,,,,,,,,,,,,,,,,,,,,,,,,,,,,,,,,,,,,,,,,,,,,,,,,,,,,,,,,,,,,,,,,,,,,,,
5c842b246a4b9b0014c84c30,2023-11-24_24h33.28.345,kallum_motion_pilot,2023.1.2,Win32,60.33546519,5c842b246a4b9b0014c84c30,656018846682f3df8008bb8f,6560196ab6541fd121ba539b,0,157,157,32,1,onetwo,,,,,,,,,,,,,,,,,,,,,,,,,,,,,,,,,,,,,,,,,,,,,,,,,,,,,,,,,,,,,,,,,,,,,,,,,,,,,,,,,,,,,
5c842b246a4b9b0014c84c30,2023-11-24_24h33.28.345,kallum_motion_pilot,2023.1.2,Win32,60.33546519,5c842b246a4b9b0014c84c30,656018846682f3df8008bb8f,6560196ab6541fd121ba539b,0,158,158,51,1,twofour,,,,,,,,,,,,,,,,,,,,,,,,,,,,,,,,,,,,,,,,,,,,,,,,,,,,,,,,,,,,,,,,,,,,,,,,,,,,,,,,,,,,,
5c842b246a4b9b0014c84c30,2023-11-24_24h33.28.345,kallum_motion_pilot,2023.1.2,Win32,60.33546519,5c842b246a4b9b0014c84c30,656018846682f3df8008bb8f,6560196ab6541fd121ba539b,0,159,159,106,1,sixfive,,,,,,,,,,,,,,,,,,,,,,,,,,,,,,,,,,,,,,,,,,,,,,,,,,,,,,,,,,,,,,,,,,,,,,,,,,,,,,,,,,,,,
5c842b246a4b9b0014c84c30,2023-11-24_24h33.28.345,kallum_motion_pilot,2023.1.2,Win32,60.33546519,5c842b246a4b9b0014c84c30,656018846682f3df8008bb8f,6560196ab6541fd121ba539b,0,160,160,161,1,fiveseven,,,,,,,,,,,,,,,,,,,,,,,,,,,,,,,,,,,,,,,,,,,,,,,,,,,,,,,,,,,,,,,,,,,,,,,,,,,,,,,,,,,,,
5c842b246a4b9b0014c84c30,2023-11-24_24h33.28.345,kallum_motion_pilot,2023.1.2,Win32,60.33546519,5c842b246a4b9b0014c84c30,656018846682f3df8008bb8f,6560196ab6541fd121ba539b,0,161,161,159,1,eightseven,,,,,,,,,,,,,,,,,,,,,,,,,,,,,,,,,,,,,,,,,,,,,,,,,,,,,,,,,,,,,,,,,,,,,,,,,,,,,,,,,,,,,
5c842b246a4b9b0014c84c30,2023-11-24_24h33.28.345,kallum_motion_pilot,2023.1.2,Win32,60.33546519,5c842b246a4b9b0014c84c30,656018846682f3df8008bb8f,6560196ab6541fd121ba539b,1,0,162,64,1,onetwo,,,,,,,,,,,,,,,,,,,,,,,,,,,,,,,,,,,,,,,,,,,,,,,,,,,,,,,,,,,,,,,,,,,,,,,,,,,,,,,,,,,,,
5c842b246a4b9b0014c84c30,2023-11-24_24h33.28.345,kallum_motion_pilot,2023.1.2,Win32,60.33546519,5c842b246a4b9b0014c84c30,656018846682f3df8008bb8f,6560196ab6541fd121ba539b,1,1,163,113,1,fiveseven,,,,,,,,,,,,,,,,,,,,,,,,,,,,,,,,,,,,,,,,,,,,,,,,,,,,,,,,,,,,,,,,,,,,,,,,,,,,,,,,,,,,,
5c842b246a4b9b0014c84c30,2023-11-24_24h33.28.345,kallum_motion_pilot,2023.1.2,Win32,60.33546519,5c842b246a4b9b0014c84c30,656018846682f3df8008bb8f,6560196ab6541fd121ba539b,1,2,164,58,1,twoone,,,,,,,,,,,,,,,,,,,,,,,,,,,,,,,,,,,,,,,,,,,,,,,,,,,,,,,,,,,,,,,,,,,,,,,,,,,,,,,,,,,,,
5c842b246a4b9b0014c84c30,2023-11-24_24h33.28.345,kallum_motion_pilot,2023.1.2,Win32,60.33546519,5c842b246a4b9b0014c84c30,656018846682f3df8008bb8f,6560196ab6541fd121ba539b,1,3,165,146,1,sixfive,,,,,,,,,,,,,,,,,,,,,,,,,,,,,,,,,,,,,,,,,,,,,,,,,,,,,,,,,,,,,,,,,,,,,,,,,,,,,,,,,,,,,
5c842b246a4b9b0014c84c30,2023-11-24_24h33.28.345,kallum_motion_pilot,2023.1.2,Win32,60.33546519,5c842b246a4b9b0014c84c30,656018846682f3df8008bb8f,6560196ab6541fd121ba539b,1,4,166,6,1,fourtwo,,,,,,,,,,,,,,,,,,,,,,,,,,,,,,,,,,,,,,,,,,,,,,,,,,,,,,,,,,,,,,,,,,,,,,,,,,,,,,,,,,,,,
5c842b246a4b9b0014c84c30,2023-11-24_24h33.28.345,kallum_motion_pilot,2023.1.2,Win32,60.33546519,5c842b246a4b9b0014c84c30,656018846682f3df8008bb8f,6560196ab6541fd121ba539b,1,5,167,100,1,sevenfive,,,,,,,,,,,,,,,,,,,,,,,,,,,,,,,,,,,,,,,,,,,,,,,,,,,,,,,,,,,,,,,,,,,,,,,,,,,,,,,,,,,,,
5c842b246a4b9b0014c84c30,2023-11-24_24h33.28.345,kallum_motion_pilot,2023.1.2,Win32,60.33546519,5c842b246a4b9b0014c84c30,656018846682f3df8008bb8f,6560196ab6541fd121ba539b,1,6,168,67,1,twofour,,,,,,,,,,,,,,,,,,,,,,,,,,,,,,,,,,,,,,,,,,,,,,,,,,,,,,,,,,,,,,,,,,,,,,,,,,,,,,,,,,,,,
5c842b246a4b9b0014c84c30,2023-11-24_24h33.28.345,kallum_motion_pilot,2023.1.2,Win32,60.33546519,5c842b246a4b9b0014c84c30,656018846682f3df8008bb8f,6560196ab6541fd121ba539b,1,7,169,105,1,fiveseven,,,,,,,,,,,,,,,,,,,,,,,,,,,,,,,,,,,,,,,,,,,,,,,,,,,,,,,,,,,,,,,,,,,,,,,,,,,,,,,,,,,,,
5c842b246a4b9b0014c84c30,2023-11-24_24h33.28.345,kallum_motion_pilot,2023.1.2,Win32,60.33546519,5c842b246a4b9b0014c84c30,656018846682f3df8008bb8f,6560196ab6541fd121ba539b,1,8,170,111,1,eightseven,,,,,,,,,,,,,,,,,,,,,,,,,,,,,,,,,,,,,,,,,,,,,,,,,,,,,,,,,,,,,,,,,,,,,,,,,,,,,,,,,,,,,
5c842b246a4b9b0014c84c30,2023-11-24_24h33.28.345,kallum_motion_pilot,2023.1.2,Win32,60.33546519,5c842b246a4b9b0014c84c30,656018846682f3df8008bb8f,6560196ab6541fd121ba539b,1,9,171,48,1,onetwo,,,,,,,,,,,,,,,,,,,,,,,,,,,,,,,,,,,,,,,,,,,,,,,,,,,,,,,,,,,,,,,,,,,,,,,,,,,,,,,,,,,,,
5c842b246a4b9b0014c84c30,2023-11-24_24h33.28.345,kallum_motion_pilot,2023.1.2,Win32,60.33546519,5c842b246a4b9b0014c84c30,656018846682f3df8008bb8f,6560196ab6541fd121ba539b,1,10,172,108,1,sevenfive,,,,,,,,,,,,,,,,,,,,,,,,,,,,,,,,,,,,,,,,,,,,,,,,,,,,,,,,,,,,,,,,,,,,,,,,,,,,,,,,,,,,,
5c842b246a4b9b0014c84c30,2023-11-24_24h33.28.345,kallum_motion_pilot,2023.1.2,Win32,60.33546519,5c842b246a4b9b0014c84c30,656018846682f3df8008bb8f,6560196ab6541fd121ba539b,1,11,173,149,1,seveneight,,,,,,,,,,,,,,,,,,,,,,,,,,,,,,,,,,,,,,,,,,,,,,,,,,,,,,,,,,,,,,,,,,,,,,,,,,,,,,,,,,,,,
5c842b246a4b9b0014c84c30,2023-11-24_24h33.28.345,kallum_motion_pilot,2023.1.2,Win32,60.33546519,5c842b246a4b9b0014c84c30,656018846682f3df8008bb8f,6560196ab6541fd121ba539b,1,12,174,4,1,threeone,,,,,,,,,,,,,,,,,,,,,,,,,,,,,,,,,,,,,,,,,,,,,,,,,,,,,,,,,,,,,,,,,,,,,,,,,,,,,,,,,,,,,
5c842b246a4b9b0014c84c30,2023-11-24_24h33.28.345,kallum_motion_pilot,2023.1.2,Win32,60.33546519,5c842b246a4b9b0014c84c30,656018846682f3df8008bb8f,6560196ab6541fd121ba539b,1,13,175,139,1,sixeight,,,,,,,,,,,,,,,,,,,,,,,,,,,,,,,,,,,,,,,,,,,,,,,,,,,,,,,,,,,,,,,,,,,,,,,,,,,,,,,,,,,,,
5c842b246a4b9b0014c84c30,2023-11-24_24h33.28.345,kallum_motion_pilot,2023.1.2,Win32,60.33546519,5c842b246a4b9b0014c84c30,656018846682f3df8008bb8f,6560196ab6541fd121ba539b,1,14,176,18,1,twoone,,,,,,,,,,,,,,,,,,,,,,,,,,,,,,,,,,,,,,,,,,,,,,,,,,,,,,,,,,,,,,,,,,,,,,,,,,,,,,,,,,,,,
5c842b246a4b9b0014c84c30,2023-11-24_24h33.28.345,kallum_motion_pilot,2023.1.2,Win32,60.33546519,5c842b246a4b9b0014c84c30,656018846682f3df8008bb8f,6560196ab6541fd121ba539b,1,15,177,9,1,onethree,,,,,,,,,,,,,,,,,,,,,,,,,,,,,,,,,,,,,,,,,,,,,,,,,,,,,,,,,,,,,,,,,,,,,,,,,,,,,,,,,,,,,
5c842b246a4b9b0014c84c30,2023-11-24_24h33.28.345,kallum_motion_pilot,2023.1.2,Win32,60.33546519,5c842b246a4b9b0014c84c30,656018846682f3df8008bb8f,6560196ab6541fd121ba539b,1,16,178,89,1,fiveseven,,,,,,,,,,,,,,,,,,,,,,,,,,,,,,,,,,,,,,,,,,,,,,,,,,,,,,,,,,,,,,,,,,,,,,,,,,,,,,,,,,,,,
5c842b246a4b9b0014c84c30,2023-11-24_24h33.28.345,kallum_motion_pilot,2023.1.2,Win32,60.33546519,5c842b246a4b9b0014c84c30,656018846682f3df8008bb8f,6560196ab6541fd121ba539b,1,17,179,71,1,fourthree,,,,,,,,,,,,,,,,,,,,,,,,,,,,,,,,,,,,,,,,,,,,,,,,,,,,,,,,,,,,,,,,,,,,,,,,,,,,,,,,,,,,,
5c842b246a4b9b0014c84c30,2023-11-24_24h33.28.345,kallum_motion_pilot,2023.1.2,Win32,60.33546519,5c842b246a4b9b0014c84c30,656018846682f3df8008bb8f,6560196ab6541fd121ba539b,1,18,180,7,1,fourthree,,,,,,,,,,,,,,,,,,,,,,,,,,,,,,,,,,,,,,,,,,,,,,,,,,,,,,,,,,,,,,,,,,,,,,,,,,,,,,,,,,,,,
5c842b246a4b9b0014c84c30,2023-11-24_24h33.28.345,kallum_motion_pilot,2023.1.2,Win32,60.33546519,5c842b246a4b9b0014c84c30,656018846682f3df8008bb8f,6560196ab6541fd121ba539b,1,19,181,59,1,twofour,,,,,,,,,,,,,,,,,,,,,,,,,,,,,,,,,,,,,,,,,,,,,,,,,,,,,,,,,,,,,,,,,,,,,,,,,,,,,,,,,,,,,
5c842b246a4b9b0014c84c30,2023-11-24_24h33.28.345,kallum_motion_pilot,2023.1.2,Win32,60.33546519,5c842b246a4b9b0014c84c30,656018846682f3df8008bb8f,6560196ab6541fd121ba539b,1,20,182,86,1,eightsix,,,,,,,,,,,,,,,,,,,,,,,,,,,,,,,,,,,,,,,,,,,,,,,,,,,,,,,,,,,,,,,,,,,,,,,,,,,,,,,,,,,,,
5c842b246a4b9b0014c84c30,2023-11-24_24h33.28.345,kallum_motion_pilot,2023.1.2,Win32,60.33546519,5c842b246a4b9b0014c84c30,656018846682f3df8008bb8f,6560196ab6541fd121ba539b,1,21,183,66,1,twoone,,,,,,,,,,,,,,,,,,,,,,,,,,,,,,,,,,,,,,,,,,,,,,,,,,,,,,,,,,,,,,,,,,,,,,,,,,,,,,,,,,,,,
5c842b246a4b9b0014c84c30,2023-11-24_24h33.28.345,kallum_motion_pilot,2023.1.2,Win32,60.33546519,5c842b246a4b9b0014c84c30,656018846682f3df8008bb8f,6560196ab6541fd121ba539b,1,22,184,12,1,threeone,,,,,,,,,,,,,,,,,,,,,,,,,,,,,,,,,,,,,,,,,,,,,,,,,,,,,,,,,,,,,,,,,,,,,,,,,,,,,,,,,,,,,
5c842b246a4b9b0014c84c30,2023-11-24_24h33.28.345,kallum_motion_pilot,2023.1.2,Win32,60.33546519,5c842b246a4b9b0014c84c30,656018846682f3df8008bb8f,6560196ab6541fd121ba539b,1,23,185,41,1,onethree,,,,,,,,,,,,,,,,,,,,,,,,,,,,,,,,,,,,,,,,,,,,,,,,,,,,,,,,,,,,,,,,,,,,,,,,,,,,,,,,,,,,,
5c842b246a4b9b0014c84c30,2023-11-24_24h33.28.345,kallum_motion_pilot,2023.1.2,Win32,60.33546519,5c842b246a4b9b0014c84c30,656018846682f3df8008bb8f,6560196ab6541fd121ba539b,1,24,186,28,1,threeone,,,,,,,,,,,,,,,,,,,,,,,,,,,,,,,,,,,,,,,,,,,,,,,,,,,,,,,,,,,,,,,,,,,,,,,,,,,,,,,,,,,,,
5c842b246a4b9b0014c84c30,2023-11-24_24h33.28.345,kallum_motion_pilot,2023.1.2,Win32,60.33546519,5c842b246a4b9b0014c84c30,656018846682f3df8008bb8f,6560196ab6541fd121ba539b,1,25,187,43,1,twofour,,,,,,,,,,,,,,,,,,,,,,,,,,,,,,,,,,,,,,,,,,,,,,,,,,,,,,,,,,,,,,,,,,,,,,,,,,,,,,,,,,,,,
5c842b246a4b9b0014c84c30,2023-11-24_24h33.28.345,kallum_motion_pilot,2023.1.2,Win32,60.33546519,5c842b246a4b9b0014c84c30,656018846682f3df8008bb8f,6560196ab6541fd121ba539b,1,26,188,160,1,fivesix,,,,,,,,,,,,,,,,,,,,,,,,,,,,,,,,,,,,,,,,,,,,,,,,,,,,,,,,,,,,,,,,,,,,,,,,,,,,,,,,,,,,,
5c842b246a4b9b0014c84c30,2023-11-24_24h33.28.345,kallum_motion_pilot,2023.1.2,Win32,60.33546519,5c842b246a4b9b0014c84c30,656018846682f3df8008bb8f,6560196ab6541fd121ba539b,1,27,189,42,1,twoone,,,,,,,,,,,,,,,,,,,,,,,,,,,,,,,,,,,,,,,,,,,,,,,,,,,,,,,,,,,,,,,,,,,,,,,,,,,,,,,,,,,,,
5c842b246a4b9b0014c84c30,2023-11-24_24h33.28.345,kallum_motion_pilot,2023.1.2,Win32,60.33546519,5c842b246a4b9b0014c84c30,656018846682f3df8008bb8f,6560196ab6541fd121ba539b,1,28,190,154,1,sixfive,,,,,,,,,,,,,,,,,,,,,,,,,,,,,,,,,,,,,,,,,,,,,,,,,,,,,,,,,,,,,,,,,,,,,,,,,,,,,,,,,,,,,
5c842b246a4b9b0014c84c30,2023-11-24_24h33.28.345,kallum_motion_pilot,2023.1.2,Win32,60.33546519,5c842b246a4b9b0014c84c30,656018846682f3df8008bb8f,6560196ab6541fd121ba539b,1,29,191,129,1,fiveseven,,,,,,,,,,,,,,,,,,,,,,,,,,,,,,,,,,,,,,,,,,,,,,,,,,,,,,,,,,,,,,,,,,,,,,,,,,,,,,,,,,,,,
5c842b246a4b9b0014c84c30,2023-11-24_24h33.28.345,kallum_motion_pilot,2023.1.2,Win32,60.33546519,5c842b246a4b9b0014c84c30,656018846682f3df8008bb8f,6560196ab6541fd121ba539b,1,30,192,91,1,sixeight,,,,,,,,,,,,,,,,,,,,,,,,,,,,,,,,,,,,,,,,,,,,,,,,,,,,,,,,,,,,,,,,,,,,,,,,,,,,,,,,,,,,,
5c842b246a4b9b0014c84c30,2023-11-24_24h33.28.345,kallum_motion_pilot,2023.1.2,Win32,60.33546519,5c842b246a4b9b0014c84c30,656018846682f3df8008bb8f,6560196ab6541fd121ba539b,1,31,193,144,1,fivesix,,,,,,,,,,,,,,,,,,,,,,,,,,,,,,,,,,,,,,,,,,,,,,,,,,,,,,,,,,,,,,,,,,,,,,,,,,,,,,,,,,,,,
5c842b246a4b9b0014c84c30,2023-11-24_24h33.28.345,kallum_motion_pilot,2023.1.2,Win32,60.33546519,5c842b246a4b9b0014c84c30,656018846682f3df8008bb8f,6560196ab6541fd121ba539b,1,32,194,94,1,eightsix,,,,,,,,,,,,,,,,,,,,,,,,,,,,,,,,,,,,,,,,,,,,,,,,,,,,,,,,,,,,,,,,,,,,,,,,,,,,,,,,,,,,,
5c842b246a4b9b0014c84c30,2023-11-24_24h33.28.345,kallum_motion_pilot,2023.1.2,Win32,60.33546519,5c842b246a4b9b0014c84c30,656018846682f3df8008bb8f,6560196ab6541fd121ba539b,1,33,195,87,1,eightseven,,,,,,,,,,,,,,,,,,,,,,,,,,,,,,,,,,,,,,,,,,,,,,,,,,,,,,,,,,,,,,,,,,,,,,,,,,,,,,,,,,,,,
5c842b246a4b9b0014c84c30,2023-11-24_24h33.28.345,kallum_motion_pilot,2023.1.2,Win32,60.33546519,5c842b246a4b9b0014c84c30,656018846682f3df8008bb8f,6560196ab6541fd121ba539b,1,34,196,114,1,sixfive,,,,,,,,,,,,,,,,,,,,,,,,,,,,,,,,,,,,,,,,,,,,,,,,,,,,,,,,,,,,,,,,,,,,,,,,,,,,,,,,,,,,,
5c842b246a4b9b0014c84c30,2023-11-24_24h33.28.345,kallum_motion_pilot,2023.1.2,Win32,60.33546519,5c842b246a4b9b0014c84c30,656018846682f3df8008bb8f,6560196ab6541fd121ba539b,1,35,197,96,1,fivesix,,,,,,,,,,,,,,,,,,,,,,,,,,,,,,,,,,,,,,,,,,,,,,,,,,,,,,,,,,,,,,,,,,,,,,,,,,,,,,,,,,,,,
5c842b246a4b9b0014c84c30,2023-11-24_24h33.28.345,kallum_motion_pilot,2023.1.2,Win32,60.33546519,5c842b246a4b9b0014c84c30,656018846682f3df8008bb8f,6560196ab6541fd121ba539b,1,36,198,25,1,onethree,,,,,,,,,,,,,,,,,,,,,,,,,,,,,,,,,,,,,,,,,,,,,,,,,,,,,,,,,,,,,,,,,,,,,,,,,,,,,,,,,,,,,
5c842b246a4b9b0014c84c30,2023-11-24_24h33.28.345,kallum_motion_pilot,2023.1.2,Win32,60.33546519,5c842b246a4b9b0014c84c30,656018846682f3df8008bb8f,6560196ab6541fd121ba539b,1,37,199,109,1,seveneight,,,,,,,,,,,,,,,,,,,,,,,,,,,,,,,,,,,,,,,,,,,,,,,,,,,,,,,,,,,,,,,,,,,,,,,,,,,,,,,,,,,,,
5c842b246a4b9b0014c84c30,2023-11-24_24h33.28.345,kallum_motion_pilot,2023.1.2,Win32,60.33546519,5c842b246a4b9b0014c84c30,656018846682f3df8008bb8f,6560196ab6541fd121ba539b,1,38,200,152,1,fivesix,,,,,,,,,,,,,,,,,,,,,,,,,,,,,,,,,,,,,,,,,,,,,,,,,,,,,,,,,,,,,,,,,,,,,,,,,,,,,,,,,,,,,
5c842b246a4b9b0014c84c30,2023-11-24_24h33.28.345,kallum_motion_pilot,2023.1.2,Win32,60.33546519,5c842b246a4b9b0014c84c30,656018846682f3df8008bb8f,6560196ab6541fd121ba539b,1,39,201,0,1,onetwo,,,,,,,,,,,,,,,,,,,,,,,,,,,,,,,,,,,,,,,,,,,,,,,,,,,,,,,,,,,,,,,,,,,,,,,,,,,,,,,,,,,,,
5c842b246a4b9b0014c84c30,2023-11-24_24h33.28.345,kallum_motion_pilot,2023.1.2,Win32,60.33546519,5c842b246a4b9b0014c84c30,656018846682f3df8008bb8f,6560196ab6541fd121ba539b,1,40,202,11,1,twofour,,,,,,,,,,,,,,,,,,,,,,,,,,,,,,,,,,,,,,,,,,,,,,,,,,,,,,,,,,,,,,,,,,,,,,,,,,,,,,,,,,,,,
5c842b246a4b9b0014c84c30,2023-11-24_24h33.28.345,kallum_motion_pilot,2023.1.2,Win32,60.33546519,5c842b246a4b9b0014c84c30,656018846682f3df8008bb8f,6560196ab6541fd121ba539b,1,41,203,39,1,fourthree,,,,,,,,,,,,,,,,,,,,,,,,,,,,,,,,,,,,,,,,,,,,,,,,,,,,,,,,,,,,,,,,,,,,,,,,,,,,,,,,,,,,,
5c842b246a4b9b0014c84c30,2023-11-24_24h33.28.345,kallum_motion_pilot,2023.1.2,Win32,60.33546519,5c842b246a4b9b0014c84c30,656018846682f3df8008bb8f,6560196ab6541fd121ba539b,1,42,204,23,1,fourthree,,,,,,,,,,,,,,,,,,,,,,,,,,,,,,,,,,,,,,,,,,,,,,,,,,,,,,,,,,,,,,,,,,,,,,,,,,,,,,,,,,,,,
5c842b246a4b9b0014c84c30,2023-11-24_24h33.28.345,kallum_motion_pilot,2023.1.2,Win32,60.33546519,5c842b246a4b9b0014c84c30,656018846682f3df8008bb8f,6560196ab6541fd121ba539b,1,43,205,127,1,eightseven,,,,,,,,,,,,,,,,,,,,,,,,,,,,,,,,,,,,,,,,,,,,,,,,,,,,,,,,,,,,,,,,,,,,,,,,,,,,,,,,,,,,,
5c842b246a4b9b0014c84c30,2023-11-24_24h33.28.345,kallum_motion_pilot,2023.1.2,Win32,60.33546519,5c842b246a4b9b0014c84c30,656018846682f3df8008bb8f,6560196ab6541fd121ba539b,1,44,206,95,1,eightseven,,,,,,,,,,,,,,,,,,,,,,,,,,,,,,,,,,,,,,,,,,,,,,,,,,,,,,,,,,,,,,,,,,,,,,,,,,,,,,,,,,,,,
5c842b246a4b9b0014c84c30,2023-11-24_24h33.28.345,kallum_motion_pilot,2023.1.2,Win32,60.33546519,5c842b246a4b9b0014c84c30,656018846682f3df8008bb8f,6560196ab6541fd121ba539b,1,45,207,117,1,seveneight,,,,,,,,,,,,,,,,,,,,,,,,,,,,,,,,,,,,,,,,,,,,,,,,,,,,,,,,,,,,,,,,,,,,,,,,,,,,,,,,,,,,,
5c842b246a4b9b0014c84c30,2023-11-24_24h33.28.345,kallum_motion_pilot,2023.1.2,Win32,60.33546519,5c842b246a4b9b0014c84c30,656018846682f3df8008bb8f,6560196ab6541fd121ba539b,1,46,208,80,1,fivesix,,,,,,,,,,,,,,,,,,,,,,,,,,,,,,,,,,,,,,,,,,,,,,,,,,,,,,,,,,,,,,,,,,,,,,,,,,,,,,,,,,,,,
5c842b246a4b9b0014c84c30,2023-11-24_24h33.28.345,kallum_motion_pilot,2023.1.2,Win32,60.33546519,5c842b246a4b9b0014c84c30,656018846682f3df8008bb8f,6560196ab6541fd121ba539b,1,47,209,151,1,eightseven,,,,,,,,,,,,,,,,,,,,,,,,,,,,,,,,,,,,,,,,,,,,,,,,,,,,,,,,,,,,,,,,,,,,,,,,,,,,,,,,,,,,,
5c842b246a4b9b0014c84c30,2023-11-24_24h33.28.345,kallum_motion_pilot,2023.1.2,Win32,60.33546519,5c842b246a4b9b0014c84c30,656018846682f3df8008bb8f,6560196ab6541fd121ba539b,1,48,210,106,1,sixfive,,,,,,,,,,,,,,,,,,,,,,,,,,,,,,,,,,,,,,,,,,,,,,,,,,,,,,,,,,,,,,,,,,,,,,,,,,,,,,,,,,,,,
5c842b246a4b9b0014c84c30,2023-11-24_24h33.28.345,kallum_motion_pilot,2023.1.2,Win32,60.33546519,5c842b246a4b9b0014c84c30,656018846682f3df8008bb8f,6560196ab6541fd121ba539b,1,49,211,123,1,sixeight,,,,,,,,,,,,,,,,,,,,,,,,,,,,,,,,,,,,,,,,,,,,,,,,,,,,,,,,,,,,,,,,,,,,,,,,,,,,,,,,,,,,,
5c842b246a4b9b0014c84c30,2023-11-24_24h33.28.345,kallum_motion_pilot,2023.1.2,Win32,60.33546519,5c842b246a4b9b0014c84c30,656018846682f3df8008bb8f,6560196ab6541fd121ba539b,1,50,212,65,1,onethree,,,,,,,,,,,,,,,,,,,,,,,,,,,,,,,,,,,,,,,,,,,,,,,,,,,,,,,,,,,,,,,,,,,,,,,,,,,,,,,,,,,,,
5c842b246a4b9b0014c84c30,2023-11-24_24h33.28.345,kallum_motion_pilot,2023.1.2,Win32,60.33546519,5c842b246a4b9b0014c84c30,656018846682f3df8008bb8f,6560196ab6541fd121ba539b,1,51,213,90,1,sixfive,,,,,,,,,,,,,,,,,,,,,,,,,,,,,,,,,,,,,,,,,,,,,,,,,,,,,,,,,,,,,,,,,,,,,,,,,,,,,,,,,,,,,
5c842b246a4b9b0014c84c30,2023-11-24_24h33.28.345,kallum_motion_pilot,2023.1.2,Win32,60.33546519,5c842b246a4b9b0014c84c30,656018846682f3df8008bb8f,6560196ab6541fd121ba539b,1,52,214,44,1,threeone,,,,,,,,,,,,,,,,,,,,,,,,,,,,,,,,,,,,,,,,,,,,,,,,,,,,,,,,,,,,,,,,,,,,,,,,,,,,,,,,,,,,,
5c842b246a4b9b0014c84c30,2023-11-24_24h33.28.345,kallum_motion_pilot,2023.1.2,Win32,60.33546519,5c842b246a4b9b0014c84c30,656018846682f3df8008bb8f,6560196ab6541fd121ba539b,1,53,215,83,1,sixeight,,,,,,,,,,,,,,,,,,,,,,,,,,,,,,,,,,,,,,,,,,,,,,,,,,,,,,,,,,,,,,,,,,,,,,,,,,,,,,,,,,,,,
5c842b246a4b9b0014c84c30,2023-11-24_24h33.28.345,kallum_motion_pilot,2023.1.2,Win32,60.33546519,5c842b246a4b9b0014c84c30,656018846682f3df8008bb8f,6560196ab6541fd121ba539b,1,54,216,21,1,threefour,,,,,,,,,,,,,,,,,,,,,,,,,,,,,,,,,,,,,,,,,,,,,,,,,,,,,,,,,,,,,,,,,,,,,,,,,,,,,,,,,,,,,
5c842b246a4b9b0014c84c30,2023-11-24_24h33.28.345,kallum_motion_pilot,2023.1.2,Win32,60.33546519,5c842b246a4b9b0014c84c30,656018846682f3df8008bb8f,6560196ab6541fd121ba539b,1,55,217,33,1,onethree,,,,,,,,,,,,,,,,,,,,,,,,,,,,,,,,,,,,,,,,,,,,,,,,,,,,,,,,,,,,,,,,,,,,,,,,,,,,,,,,,,,,,
5c842b246a4b9b0014c84c30,2023-11-24_24h33.28.345,kallum_motion_pilot,2023.1.2,Win32,60.33546519,5c842b246a4b9b0014c84c30,656018846682f3df8008bb8f,6560196ab6541fd121ba539b,1,56,218,45,1,threefour,,,,,,,,,,,,,,,,,,,,,,,,,,,,,,,,,,,,,,,,,,,,,,,,,,,,,,,,,,,,,,,,,,,,,,,,,,,,,,,,,,,,,
5c842b246a4b9b0014c84c30,2023-11-24_24h33.28.345,kallum_motion_pilot,2023.1.2,Win32,60.33546519,5c842b246a4b9b0014c84c30,656018846682f3df8008bb8f,6560196ab6541fd121ba539b,1,57,219,81,1,fiveseven,,,,,,,,,,,,,,,,,,,,,,,,,,,,,,,,,,,,,,,,,,,,,,,,,,,,,,,,,,,,,,,,,,,,,,,,,,,,,,,,,,,,,
5c842b246a4b9b0014c84c30,2023-11-24_24h33.28.345,kallum_motion_pilot,2023.1.2,Win32,60.33546519,5c842b246a4b9b0014c84c30,656018846682f3df8008bb8f,6560196ab6541fd121ba539b,1,58,220,30,1,fourtwo,,,,,,,,,,,,,,,,,,,,,,,,,,,,,,,,,,,,,,,,,,,,,,,,,,,,,,,,,,,,,,,,,,,,,,,,,,,,,,,,,,,,,
5c842b246a4b9b0014c84c30,2023-11-24_24h33.28.345,kallum_motion_pilot,2023.1.2,Win32,60.33546519,5c842b246a4b9b0014c84c30,656018846682f3df8008bb8f,6560196ab6541fd121ba539b,1,59,221,26,1,twoone,,,,,,,,,,,,,,,,,,,,,,,,,,,,,,,,,,,,,,,,,,,,,,,,,,,,,,,,,,,,,,,,,,,,,,,,,,,,,,,,,,,,,
5c842b246a4b9b0014c84c30,2023-11-24_24h33.28.345,kallum_motion_pilot,2023.1.2,Win32,60.33546519,5c842b246a4b9b0014c84c30,656018846682f3df8008bb8f,6560196ab6541fd121ba539b,1,60,222,132,1,sevenfive,,,,,,,,,,,,,,,,,,,,,,,,,,,,,,,,,,,,,,,,,,,,,,,,,,,,,,,,,,,,,,,,,,,,,,,,,,,,,,,,,,,,,
5c842b246a4b9b0014c84c30,2023-11-24_24h33.28.345,kallum_motion_pilot,2023.1.2,Win32,60.33546519,5c842b246a4b9b0014c84c30,656018846682f3df8008bb8f,6560196ab6541fd121ba539b,1,61,223,55,1,fourthree,,,,,,,,,,,,,,,,,,,,,,,,,,,,,,,,,,,,,,,,,,,,,,,,,,,,,,,,,,,,,,,,,,,,,,,,,,,,,,,,,,,,,
5c842b246a4b9b0014c84c30,2023-11-24_24h33.28.345,kallum_motion_pilot,2023.1.2,Win32,60.33546519,5c842b246a4b9b0014c84c30,656018846682f3df8008bb8f,6560196ab6541fd121ba539b,1,62,224,156,1,sevenfive,,,,,,,,,,,,,,,,,,,,,,,,,,,,,,,,,,,,,,,,,,,,,,,,,,,,,,,,,,,,,,,,,,,,,,,,,,,,,,,,,,,,,
5c842b246a4b9b0014c84c30,2023-11-24_24h33.28.345,kallum_motion_pilot,2023.1.2,Win32,60.33546519,5c842b246a4b9b0014c84c30,656018846682f3df8008bb8f,6560196ab6541fd121ba539b,1,63,225,69,1,threefour,,,,,,,,,,,,,,,,,,,,,,,,,,,,,,,,,,,,,,,,,,,,,,,,,,,,,,,,,,,,,,,,,,,,,,,,,,,,,,,,,,,,,
5c842b246a4b9b0014c84c30,2023-11-24_24h33.28.345,kallum_motion_pilot,2023.1.2,Win32,60.33546519,5c842b246a4b9b0014c84c30,656018846682f3df8008bb8f,6560196ab6541fd121ba539b,1,64,226,72,1,onetwo,,,,,,,,,,,,,,,,,,,,,,,,,,,,,,,,,,,,,,,,,,,,,,,,,,,,,,,,,,,,,,,,,,,,,,,,,,,,,,,,,,,,,
5c842b246a4b9b0014c84c30,2023-11-24_24h33.28.345,kallum_motion_pilot,2023.1.2,Win32,60.33546519,5c842b246a4b9b0014c84c30,656018846682f3df8008bb8f,6560196ab6541fd121ba539b,1,65,227,32,1,onetwo,,,,,,,,,,,,,,,,,,,,,,,,,,,,,,,,,,,,,,,,,,,,,,,,,,,,,,,,,,,,,,,,,,,,,,,,,,,,,,,,,,,,,
5c842b246a4b9b0014c84c30,2023-11-24_24h33.28.345,kallum_motion_pilot,2023.1.2,Win32,60.33546519,5c842b246a4b9b0014c84c30,656018846682f3df8008bb8f,6560196ab6541fd121ba539b,1,66,228,107,1,sixeight,,,,,,,,,,,,,,,,,,,,,,,,,,,,,,,,,,,,,,,,,,,,,,,,,,,,,,,,,,,,,,,,,,,,,,,,,,,,,,,,,,,,,
5c842b246a4b9b0014c84c30,2023-11-24_24h33.28.345,kallum_motion_pilot,2023.1.2,Win32,60.33546519,5c842b246a4b9b0014c84c30,656018846682f3df8008bb8f,6560196ab6541fd121ba539b,1,67,229,79,1,eightseven,,,,,,,,,,,,,,,,,,,,,,,,,,,,,,,,,,,,,,,,,,,,,,,,,,,,,,,,,,,,,,,,,,,,,,,,,,,,,,,,,,,,,
5c842b246a4b9b0014c84c30,2023-11-24_24h33.28.345,kallum_motion_pilot,2023.1.2,Win32,60.33546519,5c842b246a4b9b0014c84c30,656018846682f3df8008bb8f,6560196ab6541fd121ba539b,1,68,230,5,1,threefour,,,,,,,,,,,,,,,,,,,,,,,,,,,,,,,,,,,,,,,,,,,,,,,,,,,,,,,,,,,,,,,,,,,,,,,,,,,,,,,,,,,,,
5c842b246a4b9b0014c84c30,2023-11-24_24h33.28.345,kallum_motion_pilot,2023.1.2,Win32,60.33546519,5c842b246a4b9b0014c84c30,656018846682f3df8008bb8f,6560196ab6541fd121ba539b,1,69,231,2,1,twoone,,,,,,,,,,,,,,,,,,,,,,,,,,,,,,,,,,,,,,,,,,,,,,,,,,,,,,,,,,,,,,,,,,,,,,,,,,,,,,,,,,,,,
5c842b246a4b9b0014c84c30,2023-11-24_24h33.28.345,kallum_motion_pilot,2023.1.2,Win32,60.33546519,5c842b246a4b9b0014c84c30,656018846682f3df8008bb8f,6560196ab6541fd121ba539b,1,70,232,84,1,sevenfive,,,,,,,,,,,,,,,,,,,,,,,,,,,,,,,,,,,,,,,,,,,,,,,,,,,,,,,,,,,,,,,,,,,,,,,,,,,,,,,,,,,,,
5c842b246a4b9b0014c84c30,2023-11-24_24h33.28.345,kallum_motion_pilot,2023.1.2,Win32,60.33546519,5c842b246a4b9b0014c84c30,656018846682f3df8008bb8f,6560196ab6541fd121ba539b,1,71,233,157,1,seveneight,,,,,,,,,,,,,,,,,,,,,,,,,,,,,,,,,,,,,,,,,,,,,,,,,,,,,,,,,,,,,,,,,,,,,,,,,,,,,,,,,,,,,
5c842b246a4b9b0014c84c30,2023-11-24_24h33.28.345,kallum_motion_pilot,2023.1.2,Win32,60.33546519,5c842b246a4b9b0014c84c30,656018846682f3df8008bb8f,6560196ab6541fd121ba539b,1,72,234,122,1,sixfive,,,,,,,,,,,,,,,,,,,,,,,,,,,,,,,,,,,,,,,,,,,,,,,,,,,,,,,,,,,,,,,,,,,,,,,,,,,,,,,,,,,,,
5c842b246a4b9b0014c84c30,2023-11-24_24h33.28.345,kallum_motion_pilot,2023.1.2,Win32,60.33546519,5c842b246a4b9b0014c84c30,656018846682f3df8008bb8f,6560196ab6541fd121ba539b,1,73,235,40,1,onetwo,,,,,,,,,,,,,,,,,,,,,,,,,,,,,,,,,,,,,,,,,,,,,,,,,,,,,,,,,,,,,,,,,,,,,,,,,,,,,,,,,,,,,
5c842b246a4b9b0014c84c30,2023-11-24_24h33.28.345,kallum_motion_pilot,2023.1.2,Win32,60.33546519,5c842b246a4b9b0014c84c30,656018846682f3df8008bb8f,6560196ab6541fd121ba539b,1,74,236,68,1,threeone,,,,,,,,,,,,,,,,,,,,,,,,,,,,,,,,,,,,,,,,,,,,,,,,,,,,,,,,,,,,,,,,,,,,,,,,,,,,,,,,,,,,,
5c842b246a4b9b0014c84c30,2023-11-24_24h33.28.345,kallum_motion_pilot,2023.1.2,Win32,60.33546519,5c842b246a4b9b0014c84c30,656018846682f3df8008bb8f,6560196ab6541fd121ba539b,1,75,237,19,1,twofour,,,,,,,,,,,,,,,,,,,,,,,,,,,,,,,,,,,,,,,,,,,,,,,,,,,,,,,,,,,,,,,,,,,,,,,,,,,,,,,,,,,,,
5c842b246a4b9b0014c84c30,2023-11-24_24h33.28.345,kallum_motion_pilot,2023.1.2,Win32,60.33546519,5c842b246a4b9b0014c84c30,656018846682f3df8008bb8f,6560196ab6541fd121ba539b,1,76,238,38,1,fourtwo,,,,,,,,,,,,,,,,,,,,,,,,,,,,,,,,,,,,,,,,,,,,,,,,,,,,,,,,,,,,,,,,,,,,,,,,,,,,,,,,,,,,,
5c842b246a4b9b0014c84c30,2023-11-24_24h33.28.345,kallum_motion_pilot,2023.1.2,Win32,60.33546519,5c842b246a4b9b0014c84c30,656018846682f3df8008bb8f,6560196ab6541fd121ba539b,1,77,239,52,1,threeone,,,,,,,,,,,,,,,,,,,,,,,,,,,,,,,,,,,,,,,,,,,,,,,,,,,,,,,,,,,,,,,,,,,,,,,,,,,,,,,,,,,,,
5c842b246a4b9b0014c84c30,2023-11-24_24h33.28.345,kallum_motion_pilot,2023.1.2,Win32,60.33546519,5c842b246a4b9b0014c84c30,656018846682f3df8008bb8f,6560196ab6541fd121ba539b,1,78,240,153,1,fiveseven,,,,,,,,,,,,,,,,,,,,,,,,,,,,,,,,,,,,,,,,,,,,,,,,,,,,,,,,,,,,,,,,,,,,,,,,,,,,,,,,,,,,,
5c842b246a4b9b0014c84c30,2023-11-24_24h33.28.345,kallum_motion_pilot,2023.1.2,Win32,60.33546519,5c842b246a4b9b0014c84c30,656018846682f3df8008bb8f,6560196ab6541fd121ba539b,1,79,241,49,1,onethree,,,,,,,,,,,,,,,,,,,,,,,,,,,,,,,,,,,,,,,,,,,,,,,,,,,,,,,,,,,,,,,,,,,,,,,,,,,,,,,,,,,,,
5c842b246a4b9b0014c84c30,2023-11-24_24h33.28.345,kallum_motion_pilot,2023.1.2,Win32,60.33546519,5c842b246a4b9b0014c84c30,656018846682f3df8008bb8f,6560196ab6541fd121ba539b,1,80,242,56,1,onetwo,,,,,,,,,,,,,,,,,,,,,,,,,,,,,,,,,,,,,,,,,,,,,,,,,,,,,,,,,,,,,,,,,,,,,,,,,,,,,,,,,,,,,
5c842b246a4b9b0014c84c30,2023-11-24_24h33.28.345,kallum_motion_pilot,2023.1.2,Win32,60.33546519,5c842b246a4b9b0014c84c30,656018846682f3df8008bb8f,6560196ab6541fd121ba539b,1,81,243,53,1,threefour,,,,,,,,,,,,,,,,,,,,,,,,,,,,,,,,,,,,,,,,,,,,,,,,,,,,,,,,,,,,,,,,,,,,,,,,,,,,,,,,,,,,,
5c842b246a4b9b0014c84c30,2023-11-24_24h33.28.345,kallum_motion_pilot,2023.1.2,Win32,60.33546519,5c842b246a4b9b0014c84c30,656018846682f3df8008bb8f,6560196ab6541fd121ba539b,1,82,244,17,1,onethree,,,,,,,,,,,,,,,,,,,,,,,,,,,,,,,,,,,,,,,,,,,,,,,,,,,,,,,,,,,,,,,,,,,,,,,,,,,,,,,,,,,,,
5c842b246a4b9b0014c84c30,2023-11-24_24h33.28.345,kallum_motion_pilot,2023.1.2,Win32,60.33546519,5c842b246a4b9b0014c84c30,656018846682f3df8008bb8f,6560196ab6541fd121ba539b,1,83,245,46,1,fourtwo,,,,,,,,,,,,,,,,,,,,,,,,,,,,,,,,,,,,,,,,,,,,,,,,,,,,,,,,,,,,,,,,,,,,,,,,,,,,,,,,,,,,,
5c842b246a4b9b0014c84c30,2023-11-24_24h33.28.345,kallum_motion_pilot,2023.1.2,Win32,60.33546519,5c842b246a4b9b0014c84c30,656018846682f3df8008bb8f,6560196ab6541fd121ba539b,1,84,246,119,1,eightseven,,,,,,,,,,,,,,,,,,,,,,,,,,,,,,,,,,,,,,,,,,,,,,,,,,,,,,,,,,,,,,,,,,,,,,,,,,,,,,,,,,,,,
5c842b246a4b9b0014c84c30,2023-11-24_24h33.28.345,kallum_motion_pilot,2023.1.2,Win32,60.33546519,5c842b246a4b9b0014c84c30,656018846682f3df8008bb8f,6560196ab6541fd121ba539b,1,85,247,63,1,fourthree,,,,,,,,,,,,,,,,,,,,,,,,,,,,,,,,,,,,,,,,,,,,,,,,,,,,,,,,,,,,,,,,,,,,,,,,,,,,,,,,,,,,,
5c842b246a4b9b0014c84c30,2023-11-24_24h33.28.345,kallum_motion_pilot,2023.1.2,Win32,60.33546519,5c842b246a4b9b0014c84c30,656018846682f3df8008bb8f,6560196ab6541fd121ba539b,1,86,248,74,1,twoone,,,,,,,,,,,,,,,,,,,,,,,,,,,,,,,,,,,,,,,,,,,,,,,,,,,,,,,,,,,,,,,,,,,,,,,,,,,,,,,,,,,,,
5c842b246a4b9b0014c84c30,2023-11-24_24h33.28.345,kallum_motion_pilot,2023.1.2,Win32,60.33546519,5c842b246a4b9b0014c84c30,656018846682f3df8008bb8f,6560196ab6541fd121ba539b,1,87,249,13,1,threefour,,,,,,,,,,,,,,,,,,,,,,,,,,,,,,,,,,,,,,,,,,,,,,,,,,,,,,,,,,,,,,,,,,,,,,,,,,,,,,,,,,,,,
5c842b246a4b9b0014c84c30,2023-11-24_24h33.28.345,kallum_motion_pilot,2023.1.2,Win32,60.33546519,5c842b246a4b9b0014c84c30,656018846682f3df8008bb8f,6560196ab6541fd121ba539b,1,88,250,115,1,sixeight,,,,,,,,,,,,,,,,,,,,,,,,,,,,,,,,,,,,,,,,,,,,,,,,,,,,,,,,,,,,,,,,,,,,,,,,,,,,,,,,,,,,,
5c842b246a4b9b0014c84c30,2023-11-24_24h33.28.345,kallum_motion_pilot,2023.1.2,Win32,60.33546519,5c842b246a4b9b0014c84c30,656018846682f3df8008bb8f,6560196ab6541fd121ba539b,1,89,251,75,1,twofour,,,,,,,,,,,,,,,,,,,,,,,,,,,,,,,,,,,,,,,,,,,,,,,,,,,,,,,,,,,,,,,,,,,,,,,,,,,,,,,,,,,,,
5c842b246a4b9b0014c84c30,2023-11-24_24h33.28.345,kallum_motion_pilot,2023.1.2,Win32,60.33546519,5c842b246a4b9b0014c84c30,656018846682f3df8008bb8f,6560196ab6541fd121ba539b,1,90,252,98,1,sixfive,,,,,,,,,,,,,,,,,,,,,,,,,,,,,,,,,,,,,,,,,,,,,,,,,,,,,,,,,,,,,,,,,,,,,,,,,,,,,,,,,,,,,
5c842b246a4b9b0014c84c30,2023-11-24_24h33.28.345,kallum_motion_pilot,2023.1.2,Win32,60.33546519,5c842b246a4b9b0014c84c30,656018846682f3df8008bb8f,6560196ab6541fd121ba539b,1,91,253,133,1,seveneight,,,,,,,,,,,,,,,,,,,,,,,,,,,,,,,,,,,,,,,,,,,,,,,,,,,,,,,,,,,,,,,,,,,,,,,,,,,,,,,,,,,,,
5c842b246a4b9b0014c84c30,2023-11-24_24h33.28.345,kallum_motion_pilot,2023.1.2,Win32,60.33546519,5c842b246a4b9b0014c84c30,656018846682f3df8008bb8f,6560196ab6541fd121ba539b,1,92,254,101,1,seveneight,,,,,,,,,,,,,,,,,,,,,,,,,,,,,,,,,,,,,,,,,,,,,,,,,,,,,,,,,,,,,,,,,,,,,,,,,,,,,,,,,,,,,
5c842b246a4b9b0014c84c30,2023-11-24_24h33.28.345,kallum_motion_pilot,2023.1.2,Win32,60.33546519,5c842b246a4b9b0014c84c30,656018846682f3df8008bb8f,6560196ab6541fd121ba539b,1,93,255,31,1,fourthree,,,,,,,,,,,,,,,,,,,,,,,,,,,,,,,,,,,,,,,,,,,,,,,,,,,,,,,,,,,,,,,,,,,,,,,,,,,,,,,,,,,,,
5c842b246a4b9b0014c84c30,2023-11-24_24h33.28.345,kallum_motion_pilot,2023.1.2,Win32,60.33546519,5c842b246a4b9b0014c84c30,656018846682f3df8008bb8f,6560196ab6541fd121ba539b,1,94,256,37,1,threefour,,,,,,,,,,,,,,,,,,,,,,,,,,,,,,,,,,,,,,,,,,,,,,,,,,,,,,,,,,,,,,,,,,,,,,,,,,,,,,,,,,,,,
5c842b246a4b9b0014c84c30,2023-11-24_24h33.28.345,kallum_motion_pilot,2023.1.2,Win32,60.33546519,5c842b246a4b9b0014c84c30,656018846682f3df8008bb8f,6560196ab6541fd121ba539b,1,95,257,77,1,threefour,,,,,,,,,,,,,,,,,,,,,,,,,,,,,,,,,,,,,,,,,,,,,,,,,,,,,,,,,,,,,,,,,,,,,,,,,,,,,,,,,,,,,
5c842b246a4b9b0014c84c30,2023-11-24_24h33.28.345,kallum_motion_pilot,2023.1.2,Win32,60.33546519,5c842b246a4b9b0014c84c30,656018846682f3df8008bb8f,6560196ab6541fd121ba539b,1,96,258,88,1,fivesix,,,,,,,,,,,,,,,,,,,,,,,,,,,,,,,,,,,,,,,,,,,,,,,,,,,,,,,,,,,,,,,,,,,,,,,,,,,,,,,,,,,,,
5c842b246a4b9b0014c84c30,2023-11-24_24h33.28.345,kallum_motion_pilot,2023.1.2,Win32,60.33546519,5c842b246a4b9b0014c84c30,656018846682f3df8008bb8f,6560196ab6541fd121ba539b,1,97,259,14,1,fourtwo,,,,,,,,,,,,,,,,,,,,,,,,,,,,,,,,,,,,,,,,,,,,,,,,,,,,,,,,,,,,,,,,,,,,,,,,,,,,,,,,,,,,,
5c842b246a4b9b0014c84c30,2023-11-24_24h33.28.345,kallum_motion_pilot,2023.1.2,Win32,60.33546519,5c842b246a4b9b0014c84c30,656018846682f3df8008bb8f,6560196ab6541fd121ba539b,1,98,260,99,1,sixeight,,,,,,,,,,,,,,,,,,,,,,,,,,,,,,,,,,,,,,,,,,,,,,,,,,,,,,,,,,,,,,,,,,,,,,,,,,,,,,,,,,,,,
5c842b246a4b9b0014c84c30,2023-11-24_24h33.28.345,kallum_motion_pilot,2023.1.2,Win32,60.33546519,5c842b246a4b9b0014c84c30,656018846682f3df8008bb8f,6560196ab6541fd121ba539b,1,99,261,155,1,sixeight,,,,,,,,,,,,,,,,,,,,,,,,,,,,,,,,,,,,,,,,,,,,,,,,,,,,,,,,,,,,,,,,,,,,,,,,,,,,,,,,,,,,,
5c842b246a4b9b0014c84c30,2023-11-24_24h33.28.345,kallum_motion_pilot,2023.1.2,Win32,60.33546519,5c842b246a4b9b0014c84c30,656018846682f3df8008bb8f,6560196ab6541fd121ba539b,1,100,262,141,1,seveneight,,,,,,,,,,,,,,,,,,,,,,,,,,,,,,,,,,,,,,,,,,,,,,,,,,,,,,,,,,,,,,,,,,,,,,,,,,,,,,,,,,,,,
5c842b246a4b9b0014c84c30,2023-11-24_24h33.28.345,kallum_motion_pilot,2023.1.2,Win32,60.33546519,5c842b246a4b9b0014c84c30,656018846682f3df8008bb8f,6560196ab6541fd121ba539b,1,101,263,3,1,twofour,,,,,,,,,,,,,,,,,,,,,,,,,,,,,,,,,,,,,,,,,,,,,,,,,,,,,,,,,,,,,,,,,,,,,,,,,,,,,,,,,,,,,
5c842b246a4b9b0014c84c30,2023-11-24_24h33.28.345,kallum_motion_pilot,2023.1.2,Win32,60.33546519,5c842b246a4b9b0014c84c30,656018846682f3df8008bb8f,6560196ab6541fd121ba539b,1,102,264,1,1,onethree,,,,,,,,,,,,,,,,,,,,,,,,,,,,,,,,,,,,,,,,,,,,,,,,,,,,,,,,,,,,,,,,,,,,,,,,,,,,,,,,,,,,,
5c842b246a4b9b0014c84c30,2023-11-24_24h33.28.345,kallum_motion_pilot,2023.1.2,Win32,60.33546519,5c842b246a4b9b0014c84c30,656018846682f3df8008bb8f,6560196ab6541fd121ba539b,1,103,265,15,1,fourthree,,,,,,,,,,,,,,,,,,,,,,,,,,,,,,,,,,,,,,,,,,,,,,,,,,,,,,,,,,,,,,,,,,,,,,,,,,,,,,,,,,,,,
5c842b246a4b9b0014c84c30,2023-11-24_24h33.28.345,kallum_motion_pilot,2023.1.2,Win32,60.33546519,5c842b246a4b9b0014c84c30,656018846682f3df8008bb8f,6560196ab6541fd121ba539b,1,104,266,137,1,fiveseven,,,,,,,,,,,,,,,,,,,,,,,,,,,,,,,,,,,,,,,,,,,,,,,,,,,,,,,,,,,,,,,,,,,,,,,,,,,,,,,,,,,,,
5c842b246a4b9b0014c84c30,2023-11-24_24h33.28.345,kallum_motion_pilot,2023.1.2,Win32,60.33546519,5c842b246a4b9b0014c84c30,656018846682f3df8008bb8f,6560196ab6541fd121ba539b,1,105,267,50,1,twoone,,,,,,,,,,,,,,,,,,,,,,,,,,,,,,,,,,,,,,,,,,,,,,,,,,,,,,,,,,,,,,,,,,,,,,,,,,,,,,,,,,,,,
5c842b246a4b9b0014c84c30,2023-11-24_24h33.28.345,kallum_motion_pilot,2023.1.2,Win32,60.33546519,5c842b246a4b9b0014c84c30,656018846682f3df8008bb8f,6560196ab6541fd121ba539b,1,106,268,20,1,threeone,,,,,,,,,,,,,,,,,,,,,,,,,,,,,,,,,,,,,,,,,,,,,,,,,,,,,,,,,,,,,,,,,,,,,,,,,,,,,,,,,,,,,
5c842b246a4b9b0014c84c30,2023-11-24_24h33.28.345,kallum_motion_pilot,2023.1.2,Win32,60.33546519,5c842b246a4b9b0014c84c30,656018846682f3df8008bb8f,6560196ab6541fd121ba539b,1,107,269,70,1,fourtwo,,,,,,,,,,,,,,,,,,,,,,,,,,,,,,,,,,,,,,,,,,,,,,,,,,,,,,,,,,,,,,,,,,,,,,,,,,,,,,,,,,,,,
5c842b246a4b9b0014c84c30,2023-11-24_24h33.28.345,kallum_motion_pilot,2023.1.2,Win32,60.33546519,5c842b246a4b9b0014c84c30,656018846682f3df8008bb8f,6560196ab6541fd121ba539b,1,108,270,93,1,seveneight,,,,,,,,,,,,,,,,,,,,,,,,,,,,,,,,,,,,,,,,,,,,,,,,,,,,,,,,,,,,,,,,,,,,,,,,,,,,,,,,,,,,,
5c842b246a4b9b0014c84c30,2023-11-24_24h33.28.345,kallum_motion_pilot,2023.1.2,Win32,60.33546519,5c842b246a4b9b0014c84c30,656018846682f3df8008bb8f,6560196ab6541fd121ba539b,1,109,271,78,1,fourtwo,,,,,,,,,,,,,,,,,,,,,,,,,,,,,,,,,,,,,,,,,,,,,,,,,,,,,,,,,,,,,,,,,,,,,,,,,,,,,,,,,,,,,
5c842b246a4b9b0014c84c30,2023-11-24_24h33.28.345,kallum_motion_pilot,2023.1.2,Win32,60.33546519,5c842b246a4b9b0014c84c30,656018846682f3df8008bb8f,6560196ab6541fd121ba539b,1,110,272,131,1,sixeight,,,,,,,,,,,,,,,,,,,,,,,,,,,,,,,,,,,,,,,,,,,,,,,,,,,,,,,,,,,,,,,,,,,,,,,,,,,,,,,,,,,,,
5c842b246a4b9b0014c84c30,2023-11-24_24h33.28.345,kallum_motion_pilot,2023.1.2,Win32,60.33546519,5c842b246a4b9b0014c84c30,656018846682f3df8008bb8f,6560196ab6541fd121ba539b,1,111,273,126,1,eightsix,,,,,,,,,,,,,,,,,,,,,,,,,,,,,,,,,,,,,,,,,,,,,,,,,,,,,,,,,,,,,,,,,,,,,,,,,,,,,,,,,,,,,
5c842b246a4b9b0014c84c30,2023-11-24_24h33.28.345,kallum_motion_pilot,2023.1.2,Win32,60.33546519,5c842b246a4b9b0014c84c30,656018846682f3df8008bb8f,6560196ab6541fd121ba539b,1,112,274,102,1,eightsix,,,,,,,,,,,,,,,,,,,,,,,,,,,,,,,,,,,,,,,,,,,,,,,,,,,,,,,,,,,,,,,,,,,,,,,,,,,,,,,,,,,,,
5c842b246a4b9b0014c84c30,2023-11-24_24h33.28.345,kallum_motion_pilot,2023.1.2,Win32,60.33546519,5c842b246a4b9b0014c84c30,656018846682f3df8008bb8f,6560196ab6541fd121ba539b,1,113,275,103,1,eightseven,,,,,,,,,,,,,,,,,,,,,,,,,,,,,,,,,,,,,,,,,,,,,,,,,,,,,,,,,,,,,,,,,,,,,,,,,,,,,,,,,,,,,
5c842b246a4b9b0014c84c30,2023-11-24_24h33.28.345,kallum_motion_pilot,2023.1.2,Win32,60.33546519,5c842b246a4b9b0014c84c30,656018846682f3df8008bb8f,6560196ab6541fd121ba539b,1,114,276,57,1,onethree,,,,,,,,,,,,,,,,,,,,,,,,,,,,,,,,,,,,,,,,,,,,,,,,,,,,,,,,,,,,,,,,,,,,,,,,,,,,,,,,,,,,,
5c842b246a4b9b0014c84c30,2023-11-24_24h33.28.345,kallum_motion_pilot,2023.1.2,Win32,60.33546519,5c842b246a4b9b0014c84c30,656018846682f3df8008bb8f,6560196ab6541fd121ba539b,1,115,277,85,1,seveneight,,,,,,,,,,,,,,,,,,,,,,,,,,,,,,,,,,,,,,,,,,,,,,,,,,,,,,,,,,,,,,,,,,,,,,,,,,,,,,,,,,,,,
5c842b246a4b9b0014c84c30,2023-11-24_24h33.28.345,kallum_motion_pilot,2023.1.2,Win32,60.33546519,5c842b246a4b9b0014c84c30,656018846682f3df8008bb8f,6560196ab6541fd121ba539b,1,116,278,161,1,fiveseven,,,,,,,,,,,,,,,,,,,,,,,,,,,,,,,,,,,,,,,,,,,,,,,,,,,,,,,,,,,,,,,,,,,,,,,,,,,,,,,,,,,,,
5c842b246a4b9b0014c84c30,2023-11-24_24h33.28.345,kallum_motion_pilot,2023.1.2,Win32,60.33546519,5c842b246a4b9b0014c84c30,656018846682f3df8008bb8f,6560196ab6541fd121ba539b,1,117,279,47,1,fourthree,,,,,,,,,,,,,,,,,,,,,,,,,,,,,,,,,,,,,,,,,,,,,,,,,,,,,,,,,,,,,,,,,,,,,,,,,,,,,,,,,,,,,
5c842b246a4b9b0014c84c30,2023-11-24_24h33.28.345,kallum_motion_pilot,2023.1.2,Win32,60.33546519,5c842b246a4b9b0014c84c30,656018846682f3df8008bb8f,6560196ab6541fd121ba539b,1,118,280,120,1,fivesix,,,,,,,,,,,,,,,,,,,,,,,,,,,,,,,,,,,,,,,,,,,,,,,,,,,,,,,,,,,,,,,,,,,,,,,,,,,,,,,,,,,,,
5c842b246a4b9b0014c84c30,2023-11-24_24h33.28.345,kallum_motion_pilot,2023.1.2,Win32,60.33546519,5c842b246a4b9b0014c84c30,656018846682f3df8008bb8f,6560196ab6541fd121ba539b,1,119,281,128,1,fivesix,,,,,,,,,,,,,,,,,,,,,,,,,,,,,,,,,,,,,,,,,,,,,,,,,,,,,,,,,,,,,,,,,,,,,,,,,,,,,,,,,,,,,
5c842b246a4b9b0014c84c30,2023-11-24_24h33.28.345,kallum_motion_pilot,2023.1.2,Win32,60.33546519,5c842b246a4b9b0014c84c30,656018846682f3df8008bb8f,6560196ab6541fd121ba539b,1,120,282,135,1,eightseven,,,,,,,,,,,,,,,,,,,,,,,,,,,,,,,,,,,,,,,,,,,,,,,,,,,,,,,,,,,,,,,,,,,,,,,,,,,,,,,,,,,,,
5c842b246a4b9b0014c84c30,2023-11-24_24h33.28.345,kallum_motion_pilot,2023.1.2,Win32,60.33546519,5c842b246a4b9b0014c84c30,656018846682f3df8008bb8f,6560196ab6541fd121ba539b,1,121,283,51,1,twofour,,,,,,,,,,,,,,,,,,,,,,,,,,,,,,,,,,,,,,,,,,,,,,,,,,,,,,,,,,,,,,,,,,,,,,,,,,,,,,,,,,,,,
5c842b246a4b9b0014c84c30,2023-11-24_24h33.28.345,kallum_motion_pilot,2023.1.2,Win32,60.33546519,5c842b246a4b9b0014c84c30,656018846682f3df8008bb8f,6560196ab6541fd121ba539b,1,122,284,104,1,fivesix,,,,,,,,,,,,,,,,,,,,,,,,,,,,,,,,,,,,,,,,,,,,,,,,,,,,,,,,,,,,,,,,,,,,,,,,,,,,,,,,,,,,,
5c842b246a4b9b0014c84c30,2023-11-24_24h33.28.345,kallum_motion_pilot,2023.1.2,Win32,60.33546519,5c842b246a4b9b0014c84c30,656018846682f3df8008bb8f,6560196ab6541fd121ba539b,1,123,285,29,1,threefour,,,,,,,,,,,,,,,,,,,,,,,,,,,,,,,,,,,,,,,,,,,,,,,,,,,,,,,,,,,,,,,,,,,,,,,,,,,,,,,,,,,,,
5c842b246a4b9b0014c84c30,2023-11-24_24h33.28.345,kallum_motion_pilot,2023.1.2,Win32,60.33546519,5c842b246a4b9b0014c84c30,656018846682f3df8008bb8f,6560196ab6541fd121ba539b,1,124,286,61,1,threefour,,,,,,,,,,,,,,,,,,,,,,,,,,,,,,,,,,,,,,,,,,,,,,,,,,,,,,,,,,,,,,,,,,,,,,,,,,,,,,,,,,,,,
5c842b246a4b9b0014c84c30,2023-11-24_24h33.28.345,kallum_motion_pilot,2023.1.2,Win32,60.33546519,5c842b246a4b9b0014c84c30,656018846682f3df8008bb8f,6560196ab6541fd121ba539b,1,125,287,35,1,twofour,,,,,,,,,,,,,,,,,,,,,,,,,,,,,,,,,,,,,,,,,,,,,,,,,,,,,,,,,,,,,,,,,,,,,,,,,,,,,,,,,,,,,
5c842b246a4b9b0014c84c30,2023-11-24_24h33.28.345,kallum_motion_pilot,2023.1.2,Win32,60.33546519,5c842b246a4b9b0014c84c30,656018846682f3df8008bb8f,6560196ab6541fd121ba539b,1,126,288,159,1,eightseven,,,,,,,,,,,,,,,,,,,,,,,,,,,,,,,,,,,,,,,,,,,,,,,,,,,,,,,,,,,,,,,,,,,,,,,,,,,,,,,,,,,,,
5c842b246a4b9b0014c84c30,2023-11-24_24h33.28.345,kallum_motion_pilot,2023.1.2,Win32,60.33546519,5c842b246a4b9b0014c84c30,656018846682f3df8008bb8f,6560196ab6541fd121ba539b,1,127,289,92,1,sevenfive,,,,,,,,,,,,,,,,,,,,,,,,,,,,,,,,,,,,,,,,,,,,,,,,,,,,,,,,,,,,,,,,,,,,,,,,,,,,,,,,,,,,,
5c842b246a4b9b0014c84c30,2023-11-24_24h33.28.345,kallum_motion_pilot,2023.1.2,Win32,60.33546519,5c842b246a4b9b0014c84c30,656018846682f3df8008bb8f,6560196ab6541fd121ba539b,1,128,290,62,1,fourtwo,,,,,,,,,,,,,,,,,,,,,,,,,,,,,,,,,,,,,,,,,,,,,,,,,,,,,,,,,,,,,,,,,,,,,,,,,,,,,,,,,,,,,
5c842b246a4b9b0014c84c30,2023-11-24_24h33.28.345,kallum_motion_pilot,2023.1.2,Win32,60.33546519,5c842b246a4b9b0014c84c30,656018846682f3df8008bb8f,6560196ab6541fd121ba539b,1,129,291,143,1,eightseven,,,,,,,,,,,,,,,,,,,,,,,,,,,,,,,,,,,,,,,,,,,,,,,,,,,,,,,,,,,,,,,,,,,,,,,,,,,,,,,,,,,,,
5c842b246a4b9b0014c84c30,2023-11-24_24h33.28.345,kallum_motion_pilot,2023.1.2,Win32,60.33546519,5c842b246a4b9b0014c84c30,656018846682f3df8008bb8f,6560196ab6541fd121ba539b,1,130,292,73,1,onethree,,,,,,,,,,,,,,,,,,,,,,,,,,,,,,,,,,,,,,,,,,,,,,,,,,,,,,,,,,,,,,,,,,,,,,,,,,,,,,,,,,,,,
5c842b246a4b9b0014c84c30,2023-11-24_24h33.28.345,kallum_motion_pilot,2023.1.2,Win32,60.33546519,5c842b246a4b9b0014c84c30,656018846682f3df8008bb8f,6560196ab6541fd121ba539b,1,131,293,82,1,sixfive,,,,,,,,,,,,,,,,,,,,,,,,,,,,,,,,,,,,,,,,,,,,,,,,,,,,,,,,,,,,,,,,,,,,,,,,,,,,,,,,,,,,,
5c842b246a4b9b0014c84c30,2023-11-24_24h33.28.345,kallum_motion_pilot,2023.1.2,Win32,60.33546519,5c842b246a4b9b0014c84c30,656018846682f3df8008bb8f,6560196ab6541fd121ba539b,1,132,294,34,1,twoone,,,,,,,,,,,,,,,,,,,,,,,,,,,,,,,,,,,,,,,,,,,,,,,,,,,,,,,,,,,,,,,,,,,,,,,,,,,,,,,,,,,,,
5c842b246a4b9b0014c84c30,2023-11-24_24h33.28.345,kallum_motion_pilot,2023.1.2,Win32,60.33546519,5c842b246a4b9b0014c84c30,656018846682f3df8008bb8f,6560196ab6541fd121ba539b,1,133,295,8,1,onetwo,,,,,,,,,,,,,,,,,,,,,,,,,,,,,,,,,,,,,,,,,,,,,,,,,,,,,,,,,,,,,,,,,,,,,,,,,,,,,,,,,,,,,
5c842b246a4b9b0014c84c30,2023-11-24_24h33.28.345,kallum_motion_pilot,2023.1.2,Win32,60.33546519,5c842b246a4b9b0014c84c30,656018846682f3df8008bb8f,6560196ab6541fd121ba539b,1,134,296,124,1,sevenfive,,,,,,,,,,,,,,,,,,,,,,,,,,,,,,,,,,,,,,,,,,,,,,,,,,,,,,,,,,,,,,,,,,,,,,,,,,,,,,,,,,,,,
5c842b246a4b9b0014c84c30,2023-11-24_24h33.28.345,kallum_motion_pilot,2023.1.2,Win32,60.33546519,5c842b246a4b9b0014c84c30,656018846682f3df8008bb8f,6560196ab6541fd121ba539b,1,135,297,22,1,fourtwo,,,,,,,,,,,,,,,,,,,,,,,,,,,,,,,,,,,,,,,,,,,,,,,,,,,,,,,,,,,,,,,,,,,,,,,,,,,,,,,,,,,,,
5c842b246a4b9b0014c84c30,2023-11-24_24h33.28.345,kallum_motion_pilot,2023.1.2,Win32,60.33546519,5c842b246a4b9b0014c84c30,656018846682f3df8008bb8f,6560196ab6541fd121ba539b,1,136,298,121,1,fiveseven,,,,,,,,,,,,,,,,,,,,,,,,,,,,,,,,,,,,,,,,,,,,,,,,,,,,,,,,,,,,,,,,,,,,,,,,,,,,,,,,,,,,,
5c842b246a4b9b0014c84c30,2023-11-24_24h33.28.345,kallum_motion_pilot,2023.1.2,Win32,60.33546519,5c842b246a4b9b0014c84c30,656018846682f3df8008bb8f,6560196ab6541fd121ba539b,1,137,299,134,1,eightsix,,,,,,,,,,,,,,,,,,,,,,,,,,,,,,,,,,,,,,,,,,,,,,,,,,,,,,,,,,,,,,,,,,,,,,,,,,,,,,,,,,,,,
5c842b246a4b9b0014c84c30,2023-11-24_24h33.28.345,kallum_motion_pilot,2023.1.2,Win32,60.33546519,5c842b246a4b9b0014c84c30,656018846682f3df8008bb8f,6560196ab6541fd121ba539b,1,138,300,24,1,onetwo,,,,,,,,,,,,,,,,,,,,,,,,,,,,,,,,,,,,,,,,,,,,,,,,,,,,,,,,,,,,,,,,,,,,,,,,,,,,,,,,,,,,,
5c842b246a4b9b0014c84c30,2023-11-24_24h33.28.345,kallum_motion_pilot,2023.1.2,Win32,60.33546519,5c842b246a4b9b0014c84c30,656018846682f3df8008bb8f,6560196ab6541fd121ba539b,1,139,301,110,1,eightsix,,,,,,,,,,,,,,,,,,,,,,,,,,,,,,,,,,,,,,,,,,,,,,,,,,,,,,,,,,,,,,,,,,,,,,,,,,,,,,,,,,,,,
5c842b246a4b9b0014c84c30,2023-11-24_24h33.28.345,kallum_motion_pilot,2023.1.2,Win32,60.33546519,5c842b246a4b9b0014c84c30,656018846682f3df8008bb8f,6560196ab6541fd121ba539b,1,140,302,125,1,seveneight,,,,,,,,,,,,,,,,,,,,,,,,,,,,,,,,,,,,,,,,,,,,,,,,,,,,,,,,,,,,,,,,,,,,,,,,,,,,,,,,,,,,,
5c842b246a4b9b0014c84c30,2023-11-24_24h33.28.345,kallum_motion_pilot,2023.1.2,Win32,60.33546519,5c842b246a4b9b0014c84c30,656018846682f3df8008bb8f,6560196ab6541fd121ba539b,1,141,303,116,1,sevenfive,,,,,,,,,,,,,,,,,,,,,,,,,,,,,,,,,,,,,,,,,,,,,,,,,,,,,,,,,,,,,,,,,,,,,,,,,,,,,,,,,,,,,
5c842b246a4b9b0014c84c30,2023-11-24_24h33.28.345,kallum_motion_pilot,2023.1.2,Win32,60.33546519,5c842b246a4b9b0014c84c30,656018846682f3df8008bb8f,6560196ab6541fd121ba539b,1,142,304,54,1,fourtwo,,,,,,,,,,,,,,,,,,,,,,,,,,,,,,,,,,,,,,,,,,,,,,,,,,,,,,,,,,,,,,,,,,,,,,,,,,,,,,,,,,,,,
5c842b246a4b9b0014c84c30,2023-11-24_24h33.28.345,kallum_motion_pilot,2023.1.2,Win32,60.33546519,5c842b246a4b9b0014c84c30,656018846682f3df8008bb8f,6560196ab6541fd121ba539b,1,143,305,97,1,fiveseven,,,,,,,,,,,,,,,,,,,,,,,,,,,,,,,,,,,,,,,,,,,,,,,,,,,,,,,,,,,,,,,,,,,,,,,,,,,,,,,,,,,,,
5c842b246a4b9b0014c84c30,2023-11-24_24h33.28.345,kallum_motion_pilot,2023.1.2,Win32,60.33546519,5c842b246a4b9b0014c84c30,656018846682f3df8008bb8f,6560196ab6541fd121ba539b,1,144,306,138,1,sixfive,,,,,,,,,,,,,,,,,,,,,,,,,,,,,,,,,,,,,,,,,,,,,,,,,,,,,,,,,,,,,,,,,,,,,,,,,,,,,,,,,,,,,
5c842b246a4b9b0014c84c30,2023-11-24_24h33.28.345,kallum_motion_pilot,2023.1.2,Win32,60.33546519,5c842b246a4b9b0014c84c30,656018846682f3df8008bb8f,6560196ab6541fd121ba539b,1,145,307,145,1,fiveseven,,,,,,,,,,,,,,,,,,,,,,,,,,,,,,,,,,,,,,,,,,,,,,,,,,,,,,,,,,,,,,,,,,,,,,,,,,,,,,,,,,,,,
5c842b246a4b9b0014c84c30,2023-11-24_24h33.28.345,kallum_motion_pilot,2023.1.2,Win32,60.33546519,5c842b246a4b9b0014c84c30,656018846682f3df8008bb8f,6560196ab6541fd121ba539b,1,146,308,60,1,threeone,,,,,,,,,,,,,,,,,,,,,,,,,,,,,,,,,,,,,,,,,,,,,,,,,,,,,,,,,,,,,,,,,,,,,,,,,,,,,,,,,,,,,
5c842b246a4b9b0014c84c30,2023-11-24_24h33.28.345,kallum_motion_pilot,2023.1.2,Win32,60.33546519,5c842b246a4b9b0014c84c30,656018846682f3df8008bb8f,6560196ab6541fd121ba539b,1,147,309,147,1,sixeight,,,,,,,,,,,,,,,,,,,,,,,,,,,,,,,,,,,,,,,,,,,,,,,,,,,,,,,,,,,,,,,,,,,,,,,,,,,,,,,,,,,,,
5c842b246a4b9b0014c84c30,2023-11-24_24h33.28.345,kallum_motion_pilot,2023.1.2,Win32,60.33546519,5c842b246a4b9b0014c84c30,656018846682f3df8008bb8f,6560196ab6541fd121ba539b,1,148,310,158,1,eightsix,,,,,,,,,,,,,,,,,,,,,,,,,,,,,,,,,,,,,,,,,,,,,,,,,,,,,,,,,,,,,,,,,,,,,,,,,,,,,,,,,,,,,
5c842b246a4b9b0014c84c30,2023-11-24_24h33.28.345,kallum_motion_pilot,2023.1.2,Win32,60.33546519,5c842b246a4b9b0014c84c30,656018846682f3df8008bb8f,6560196ab6541fd121ba539b,1,149,311,140,1,sevenfive,,,,,,,,,,,,,,,,,,,,,,,,,,,,,,,,,,,,,,,,,,,,,,,,,,,,,,,,,,,,,,,,,,,,,,,,,,,,,,,,,,,,,
5c842b246a4b9b0014c84c30,2023-11-24_24h33.28.345,kallum_motion_pilot,2023.1.2,Win32,60.33546519,5c842b246a4b9b0014c84c30,656018846682f3df8008bb8f,6560196ab6541fd121ba539b,1,150,312,10,1,twoone,,,,,,,,,,,,,,,,,,,,,,,,,,,,,,,,,,,,,,,,,,,,,,,,,,,,,,,,,,,,,,,,,,,,,,,,,,,,,,,,,,,,,
5c842b246a4b9b0014c84c30,2023-11-24_24h33.28.345,kallum_motion_pilot,2023.1.2,Win32,60.33546519,5c842b246a4b9b0014c84c30,656018846682f3df8008bb8f,6560196ab6541fd121ba539b,1,151,313,118,1,eightsix,,,,,,,,,,,,,,,,,,,,,,,,,,,,,,,,,,,,,,,,,,,,,,,,,,,,,,,,,,,,,,,,,,,,,,,,,,,,,,,,,,,,,
5c842b246a4b9b0014c84c30,2023-11-24_24h33.28.345,kallum_motion_pilot,2023.1.2,Win32,60.33546519,5c842b246a4b9b0014c84c30,656018846682f3df8008bb8f,6560196ab6541fd121ba539b,1,152,314,148,1,sevenfive,,,,,,,,,,,,,,,,,,,,,,,,,,,,,,,,,,,,,,,,,,,,,,,,,,,,,,,,,,,,,,,,,,,,,,,,,,,,,,,,,,,,,
5c842b246a4b9b0014c84c30,2023-11-24_24h33.28.345,kallum_motion_pilot,2023.1.2,Win32,60.33546519,5c842b246a4b9b0014c84c30,656018846682f3df8008bb8f,6560196ab6541fd121ba539b,1,153,315,36,1,threeone,,,,,,,,,,,,,,,,,,,,,,,,,,,,,,,,,,,,,,,,,,,,,,,,,,,,,,,,,,,,,,,,,,,,,,,,,,,,,,,,,,,,,
5c842b246a4b9b0014c84c30,2023-11-24_24h33.28.345,kallum_motion_pilot,2023.1.2,Win32,60.33546519,5c842b246a4b9b0014c84c30,656018846682f3df8008bb8f,6560196ab6541fd121ba539b,1,154,316,150,1,eightsix,,,,,,,,,,,,,,,,,,,,,,,,,,,,,,,,,,,,,,,,,,,,,,,,,,,,,,,,,,,,,,,,,,,,,,,,,,,,,,,,,,,,,
5c842b246a4b9b0014c84c30,2023-11-24_24h33.28.345,kallum_motion_pilot,2023.1.2,Win32,60.33546519,5c842b246a4b9b0014c84c30,656018846682f3df8008bb8f,6560196ab6541fd121ba539b,1,155,317,76,1,threeone,,,,,,,,,,,,,,,,,,,,,,,,,,,,,,,,,,,,,,,,,,,,,,,,,,,,,,,,,,,,,,,,,,,,,,,,,,,,,,,,,,,,,
5c842b246a4b9b0014c84c30,2023-11-24_24h33.28.345,kallum_motion_pilot,2023.1.2,Win32,60.33546519,5c842b246a4b9b0014c84c30,656018846682f3df8008bb8f,6560196ab6541fd121ba539b,1,156,318,136,1,fivesix,,,,,,,,,,,,,,,,,,,,,,,,,,,,,,,,,,,,,,,,,,,,,,,,,,,,,,,,,,,,,,,,,,,,,,,,,,,,,,,,,,,,,
5c842b246a4b9b0014c84c30,2023-11-24_24h33.28.345,kallum_motion_pilot,2023.1.2,Win32,60.33546519,5c842b246a4b9b0014c84c30,656018846682f3df8008bb8f,6560196ab6541fd121ba539b,1,157,319,112,1,fivesix,,,,,,,,,,,,,,,,,,,,,,,,,,,,,,,,,,,,,,,,,,,,,,,,,,,,,,,,,,,,,,,,,,,,,,,,,,,,,,,,,,,,,
5c842b246a4b9b0014c84c30,2023-11-24_24h33.28.345,kallum_motion_pilot,2023.1.2,Win32,60.33546519,5c842b246a4b9b0014c84c30,656018846682f3df8008bb8f,6560196ab6541fd121ba539b,1,158,320,130,1,sixfive,,,,,,,,,,,,,,,,,,,,,,,,,,,,,,,,,,,,,,,,,,,,,,,,,,,,,,,,,,,,,,,,,,,,,,,,,,,,,,,,,,,,,
5c842b246a4b9b0014c84c30,2023-11-24_24h33.28.345,kallum_motion_pilot,2023.1.2,Win32,60.33546519,5c842b246a4b9b0014c84c30,656018846682f3df8008bb8f,6560196ab6541fd121ba539b,1,159,321,27,1,twofour,,,,,,,,,,,,,,,,,,,,,,,,,,,,,,,,,,,,,,,,,,,,,,,,,,,,,,,,,,,,,,,,,,,,,,,,,,,,,,,,,,,,,
5c842b246a4b9b0014c84c30,2023-11-24_24h33.28.345,kallum_motion_pilot,2023.1.2,Win32,60.33546519,5c842b246a4b9b0014c84c30,656018846682f3df8008bb8f,6560196ab6541fd121ba539b,1,160,322,142,1,eightsix,,,,,,,,,,,,,,,,,,,,,,,,,,,,,,,,,,,,,,,,,,,,,,,,,,,,,,,,,,,,,,,,,,,,,,,,,,,,,,,,,,,,,
5c842b246a4b9b0014c84c30,2023-11-24_24h33.28.345,kallum_motion_pilot,2023.1.2,Win32,60.33546519,5c842b246a4b9b0014c84c30,656018846682f3df8008bb8f,6560196ab6541fd121ba539b,1,161,323,16,1,onetwo,,,,,,,,,,,,,,,,,,,,,,,,,,,,,,,,,,,,,,,,,,,,,,,,,,,,,,,,,,,,,,,,,,,,,,,,,,,,,,,,,,,,,
5c842b246a4b9b0014c84c30,2023-11-24_24h33.28.345,kallum_motion_pilot,2023.1.2,Win32,60.33546519,5c842b246a4b9b0014c84c30,656018846682f3df8008bb8f,6560196ab6541fd121ba539b,2,0,324,29,1,threefour,,,,,,,,,,,,,,,,,,,,,,,,,,,,,,,,,,,,,,,,,,,,,,,,,,,,,,,,,,,,,,,,,,,,,,,,,,,,,,,,,,,,,
5c842b246a4b9b0014c84c30,2023-11-24_24h33.28.345,kallum_motion_pilot,2023.1.2,Win32,60.33546519,5c842b246a4b9b0014c84c30,656018846682f3df8008bb8f,6560196ab6541fd121ba539b,2,1,325,114,1,sixfive,,,,,,,,,,,,,,,,,,,,,,,,,,,,,,,,,,,,,,,,,,,,,,,,,,,,,,,,,,,,,,,,,,,,,,,,,,,,,,,,,,,,,
5c842b246a4b9b0014c84c30,2023-11-24_24h33.28.345,kallum_motion_pilot,2023.1.2,Win32,60.33546519,5c842b246a4b9b0014c84c30,656018846682f3df8008bb8f,6560196ab6541fd121ba539b,2,2,326,157,1,seveneight,,,,,,,,,,,,,,,,,,,,,,,,,,,,,,,,,,,,,,,,,,,,,,,,,,,,,,,,,,,,,,,,,,,,,,,,,,,,,,,,,,,,,
5c842b246a4b9b0014c84c30,2023-11-24_24h33.28.345,kallum_motion_pilot,2023.1.2,Win32,60.33546519,5c842b246a4b9b0014c84c30,656018846682f3df8008bb8f,6560196ab6541fd121ba539b,2,3,327,134,1,eightsix,,,,,,,,,,,,,,,,,,,,,,,,,,,,,,,,,,,,,,,,,,,,,,,,,,,,,,,,,,,,,,,,,,,,,,,,,,,,,,,,,,,,,
5c842b246a4b9b0014c84c30,2023-11-24_24h33.28.345,kallum_motion_pilot,2023.1.2,Win32,60.33546519,5c842b246a4b9b0014c84c30,656018846682f3df8008bb8f,6560196ab6541fd121ba539b,2,4,328,127,1,eightseven,,,,,,,,,,,,,,,,,,,,,,,,,,,,,,,,,,,,,,,,,,,,,,,,,,,,,,,,,,,,,,,,,,,,,,,,,,,,,,,,,,,,,
5c842b246a4b9b0014c84c30,2023-11-24_24h33.28.345,kallum_motion_pilot,2023.1.2,Win32,60.33546519,5c842b246a4b9b0014c84c30,656018846682f3df8008bb8f,6560196ab6541fd121ba539b,2,5,329,154,1,sixfive,,,,,,,,,,,,,,,,,,,,,,,,,,,,,,,,,,,,,,,,,,,,,,,,,,,,,,,,,,,,,,,,,,,,,,,,,,,,,,,,,,,,,
5c842b246a4b9b0014c84c30,2023-11-24_24h33.28.345,kallum_motion_pilot,2023.1.2,Win32,60.33546519,5c842b246a4b9b0014c84c30,656018846682f3df8008bb8f,6560196ab6541fd121ba539b,2,6,330,64,1,onetwo,,,,,,,,,,,,,,,,,,,,,,,,,,,,,,,,,,,,,,,,,,,,,,,,,,,,,,,,,,,,,,,,,,,,,,,,,,,,,,,,,,,,,
5c842b246a4b9b0014c84c30,2023-11-24_24h33.28.345,kallum_motion_pilot,2023.1.2,Win32,60.33546519,5c842b246a4b9b0014c84c30,656018846682f3df8008bb8f,6560196ab6541fd121ba539b,2,7,331,146,1,sixfive,,,,,,,,,,,,,,,,,,,,,,,,,,,,,,,,,,,,,,,,,,,,,,,,,,,,,,,,,,,,,,,,,,,,,,,,,,,,,,,,,,,,,
5c842b246a4b9b0014c84c30,2023-11-24_24h33.28.345,kallum_motion_pilot,2023.1.2,Win32,60.33546519,5c842b246a4b9b0014c84c30,656018846682f3df8008bb8f,6560196ab6541fd121ba539b,2,8,332,90,1,sixfive,,,,,,,,,,,,,,,,,,,,,,,,,,,,,,,,,,,,,,,,,,,,,,,,,,,,,,,,,,,,,,,,,,,,,,,,,,,,,,,,,,,,,
5c842b246a4b9b0014c84c30,2023-11-24_24h33.28.345,kallum_motion_pilot,2023.1.2,Win32,60.33546519,5c842b246a4b9b0014c84c30,656018846682f3df8008bb8f,6560196ab6541fd121ba539b,2,9,333,107,1,sixeight,,,,,,,,,,,,,,,,,,,,,,,,,,,,,,,,,,,,,,,,,,,,,,,,,,,,,,,,,,,,,,,,,,,,,,,,,,,,,,,,,,,,,
5c842b246a4b9b0014c84c30,2023-11-24_24h33.28.345,kallum_motion_pilot,2023.1.2,Win32,60.33546519,5c842b246a4b9b0014c84c30,656018846682f3df8008bb8f,6560196ab6541fd121ba539b,2,10,334,111,1,eightseven,,,,,,,,,,,,,,,,,,,,,,,,,,,,,,,,,,,,,,,,,,,,,,,,,,,,,,,,,,,,,,,,,,,,,,,,,,,,,,,,,,,,,
5c842b246a4b9b0014c84c30,2023-11-24_24h33.28.345,kallum_motion_pilot,2023.1.2,Win32,60.33546519,5c842b246a4b9b0014c84c30,656018846682f3df8008bb8f,6560196ab6541fd121ba539b,2,11,335,60,1,threeone,,,,,,,,,,,,,,,,,,,,,,,,,,,,,,,,,,,,,,,,,,,,,,,,,,,,,,,,,,,,,,,,,,,,,,,,,,,,,,,,,,,,,
5c842b246a4b9b0014c84c30,2023-11-24_24h33.28.345,kallum_motion_pilot,2023.1.2,Win32,60.33546519,5c842b246a4b9b0014c84c30,656018846682f3df8008bb8f,6560196ab6541fd121ba539b,2,12,336,14,1,fourtwo,,,,,,,,,,,,,,,,,,,,,,,,,,,,,,,,,,,,,,,,,,,,,,,,,,,,,,,,,,,,,,,,,,,,,,,,,,,,,,,,,,,,,
5c842b246a4b9b0014c84c30,2023-11-24_24h33.28.345,kallum_motion_pilot,2023.1.2,Win32,60.33546519,5c842b246a4b9b0014c84c30,656018846682f3df8008bb8f,6560196ab6541fd121ba539b,2,13,337,53,1,threefour,,,,,,,,,,,,,,,,,,,,,,,,,,,,,,,,,,,,,,,,,,,,,,,,,,,,,,,,,,,,,,,,,,,,,,,,,,,,,,,,,,,,,
5c842b246a4b9b0014c84c30,2023-11-24_24h33.28.345,kallum_motion_pilot,2023.1.2,Win32,60.33546519,5c842b246a4b9b0014c84c30,656018846682f3df8008bb8f,6560196ab6541fd121ba539b,2,14,338,138,1,sixfive,,,,,,,,,,,,,,,,,,,,,,,,,,,,,,,,,,,,,,,,,,,,,,,,,,,,,,,,,,,,,,,,,,,,,,,,,,,,,,,,,,,,,
5c842b246a4b9b0014c84c30,2023-11-24_24h33.28.345,kallum_motion_pilot,2023.1.2,Win32,60.33546519,5c842b246a4b9b0014c84c30,656018846682f3df8008bb8f,6560196ab6541fd121ba539b,2,15,339,45,1,threefour,,,,,,,,,,,,,,,,,,,,,,,,,,,,,,,,,,,,,,,,,,,,,,,,,,,,,,,,,,,,,,,,,,,,,,,,,,,,,,,,,,,,,
5c842b246a4b9b0014c84c30,2023-11-24_24h33.28.345,kallum_motion_pilot,2023.1.2,Win32,60.33546519,5c842b246a4b9b0014c84c30,656018846682f3df8008bb8f,6560196ab6541fd121ba539b,2,16,340,160,1,fivesix,,,,,,,,,,,,,,,,,,,,,,,,,,,,,,,,,,,,,,,,,,,,,,,,,,,,,,,,,,,,,,,,,,,,,,,,,,,,,,,,,,,,,
5c842b246a4b9b0014c84c30,2023-11-24_24h33.28.345,kallum_motion_pilot,2023.1.2,Win32,60.33546519,5c842b246a4b9b0014c84c30,656018846682f3df8008bb8f,6560196ab6541fd121ba539b,2,17,341,4,1,threeone,,,,,,,,,,,,,,,,,,,,,,,,,,,,,,,,,,,,,,,,,,,,,,,,,,,,,,,,,,,,,,,,,,,,,,,,,,,,,,,,,,,,,
5c842b246a4b9b0014c84c30,2023-11-24_24h33.28.345,kallum_motion_pilot,2023.1.2,Win32,60.33546519,5c842b246a4b9b0014c84c30,656018846682f3df8008bb8f,6560196ab6541fd121ba539b,2,18,342,15,1,fourthree,,,,,,,,,,,,,,,,,,,,,,,,,,,,,,,,,,,,,,,,,,,,,,,,,,,,,,,,,,,,,,,,,,,,,,,,,,,,,,,,,,,,,
5c842b246a4b9b0014c84c30,2023-11-24_24h33.28.345,kallum_motion_pilot,2023.1.2,Win32,60.33546519,5c842b246a4b9b0014c84c30,656018846682f3df8008bb8f,6560196ab6541fd121ba539b,2,19,343,87,1,eightseven,,,,,,,,,,,,,,,,,,,,,,,,,,,,,,,,,,,,,,,,,,,,,,,,,,,,,,,,,,,,,,,,,,,,,,,,,,,,,,,,,,,,,
5c842b246a4b9b0014c84c30,2023-11-24_24h33.28.345,kallum_motion_pilot,2023.1.2,Win32,60.33546519,5c842b246a4b9b0014c84c30,656018846682f3df8008bb8f,6560196ab6541fd121ba539b,2,20,344,34,1,twoone,,,,,,,,,,,,,,,,,,,,,,,,,,,,,,,,,,,,,,,,,,,,,,,,,,,,,,,,,,,,,,,,,,,,,,,,,,,,,,,,,,,,,
5c842b246a4b9b0014c84c30,2023-11-24_24h33.28.345,kallum_motion_pilot,2023.1.2,Win32,60.33546519,5c842b246a4b9b0014c84c30,656018846682f3df8008bb8f,6560196ab6541fd121ba539b,2,21,345,156,1,sevenfive,,,,,,,,,,,,,,,,,,,,,,,,,,,,,,,,,,,,,,,,,,,,,,,,,,,,,,,,,,,,,,,,,,,,,,,,,,,,,,,,,,,,,
5c842b246a4b9b0014c84c30,2023-11-24_24h33.28.345,kallum_motion_pilot,2023.1.2,Win32,60.33546519,5c842b246a4b9b0014c84c30,656018846682f3df8008bb8f,6560196ab6541fd121ba539b,2,22,346,130,1,sixfive,,,,,,,,,,,,,,,,,,,,,,,,,,,,,,,,,,,,,,,,,,,,,,,,,,,,,,,,,,,,,,,,,,,,,,,,,,,,,,,,,,,,,
5c842b246a4b9b0014c84c30,2023-11-24_24h33.28.345,kallum_motion_pilot,2023.1.2,Win32,60.33546519,5c842b246a4b9b0014c84c30,656018846682f3df8008bb8f,6560196ab6541fd121ba539b,2,23,347,101,1,seveneight,,,,,,,,,,,,,,,,,,,,,,,,,,,,,,,,,,,,,,,,,,,,,,,,,,,,,,,,,,,,,,,,,,,,,,,,,,,,,,,,,,,,,
5c842b246a4b9b0014c84c30,2023-11-24_24h33.28.345,kallum_motion_pilot,2023.1.2,Win32,60.33546519,5c842b246a4b9b0014c84c30,656018846682f3df8008bb8f,6560196ab6541fd121ba539b,2,24,348,128,1,fivesix,,,,,,,,,,,,,,,,,,,,,,,,,,,,,,,,,,,,,,,,,,,,,,,,,,,,,,,,,,,,,,,,,,,,,,,,,,,,,,,,,,,,,
5c842b246a4b9b0014c84c30,2023-11-24_24h33.28.345,kallum_motion_pilot,2023.1.2,Win32,60.33546519,5c842b246a4b9b0014c84c30,656018846682f3df8008bb8f,6560196ab6541fd121ba539b,2,25,349,115,1,sixeight,,,,,,,,,,,,,,,,,,,,,,,,,,,,,,,,,,,,,,,,,,,,,,,,,,,,,,,,,,,,,,,,,,,,,,,,,,,,,,,,,,,,,
