Prolific_ID*,date,expName,psychopyVersion,OS,frameRate,PROLIFIC_PID,STUDY_ID,SESSION_ID,hardcoded_stimulus_positions.thisRepN,hardcoded_stimulus_positions.thisTrialN,hardcoded_stimulus_positions.thisN,hardcoded_stimulus_positions.thisIndex,hardcoded_stimulus_positions.ran,StimulusPos,prac_stimorientation_import_loop.thisRepN,prac_stimorientation_import_loop.thisTrialN,prac_stimorientation_import_loop.thisN,prac_stimorientation_import_loop.thisIndex,prac_stimorientation_import_loop.ran,Stimorientation,key_resp.keys,key_resp.rt,key_resp_20.keys,key_resp_20.rt,key_resp_19.keys,key_resp_19.rt,key_resp_15.keys,key_resp_15.rt,key_resp_9.keys,key_resp_9.rt,key_resp_10.keys,key_resp_10.rt,Ecc,Circle1_ori,Circle2_ori,similarity,response_time,mouse_5.x,mouse_5.y,mouse_5.leftButton,mouse_5.midButton,mouse_5.rightButton,mouse_5.clicked_name,mouse_6.x,mouse_6.y,mouse_6.leftButton,mouse_6.midButton,mouse_6.rightButton,mouse_6.clicked_name,duringprac.thisRepN,duringprac.thisTrialN,duringprac.thisN,duringprac.thisIndex,duringprac.ran,key_resp_22.keys,key_resp_22.rt,circle1_ori,circle2_ori,mouse.x,mouse.y,mouse.leftButton,mouse.midButton,mouse.rightButton,mouse.clicked_name,mouse_2.x,mouse_2.y,mouse_2.leftButton,mouse_2.midButton,mouse_2.rightButton,mouse_2.clicked_name,mouse_3.x,mouse_3.y,mouse_3.leftButton,mouse_3.midButton,mouse_3.rightButton,catchresponse,catchnumber,response_time_catch,Catch,mouse_11.x,mouse_11.y,mouse_11.leftButton,mouse_11.midButton,mouse_11.rightButton,main_trial.thisRepN,main_trial.thisTrialN,main_trial.thisN,main_trial.thisIndex,main_trial.ran,Orientationtrialno,xcircle1_ori,xcircle2_ori,double_pass.thisRepN,double_pass.thisTrialN,double_pass.thisN,double_pass.thisIndex,double_pass.ran,key_resp_3.keys,key_resp_3.rt
59a82dab800873000169ed58,2023-11-23_22h36.24.050,kallum_motion_pilot,2023.1.2,Win32,60.02040694,59a82dab800873000169ed58,656018846682f3df8008bb8f,656019aa056edf3065f755a4,,,,,,,,,,,,,,,,,,,,,,,,,,,,,,,,,,,,,,,,,,,,,,,,,,,,,,,,,,,,,,,,,,,,,,,,,,,,,,,,,,,,,,,,,,,
59a82dab800873000169ed58,2023-11-23_22h36.24.050,kallum_motion_pilot,2023.1.2,Win32,60.02040694,59a82dab800873000169ed58,656018846682f3df8008bb8f,656019aa056edf3065f755a4,0,0,0,33,1,onethree,,,,,,,,,,,,,,,,,,,,,,,,,,,,,,,,,,,,,,,,,,,,,,,,,,,,,,,,,,,,,,,,,,,,,,,,,,,,,,,,,,,,,
59a82dab800873000169ed58,2023-11-23_22h36.24.050,kallum_motion_pilot,2023.1.2,Win32,60.02040694,59a82dab800873000169ed58,656018846682f3df8008bb8f,656019aa056edf3065f755a4,0,1,1,114,1,sixfive,,,,,,,,,,,,,,,,,,,,,,,,,,,,,,,,,,,,,,,,,,,,,,,,,,,,,,,,,,,,,,,,,,,,,,,,,,,,,,,,,,,,,
59a82dab800873000169ed58,2023-11-23_22h36.24.050,kallum_motion_pilot,2023.1.2,Win32,60.02040694,59a82dab800873000169ed58,656018846682f3df8008bb8f,656019aa056edf3065f755a4,0,2,2,35,1,twofour,,,,,,,,,,,,,,,,,,,,,,,,,,,,,,,,,,,,,,,,,,,,,,,,,,,,,,,,,,,,,,,,,,,,,,,,,,,,,,,,,,,,,
59a82dab800873000169ed58,2023-11-23_22h36.24.050,kallum_motion_pilot,2023.1.2,Win32,60.02040694,59a82dab800873000169ed58,656018846682f3df8008bb8f,656019aa056edf3065f755a4,0,3,3,118,1,eightsix,,,,,,,,,,,,,,,,,,,,,,,,,,,,,,,,,,,,,,,,,,,,,,,,,,,,,,,,,,,,,,,,,,,,,,,,,,,,,,,,,,,,,
59a82dab800873000169ed58,2023-11-23_22h36.24.050,kallum_motion_pilot,2023.1.2,Win32,60.02040694,59a82dab800873000169ed58,656018846682f3df8008bb8f,656019aa056edf3065f755a4,0,4,4,19,1,twofour,,,,,,,,,,,,,,,,,,,,,,,,,,,,,,,,,,,,,,,,,,,,,,,,,,,,,,,,,,,,,,,,,,,,,,,,,,,,,,,,,,,,,
59a82dab800873000169ed58,2023-11-23_22h36.24.050,kallum_motion_pilot,2023.1.2,Win32,60.02040694,59a82dab800873000169ed58,656018846682f3df8008bb8f,656019aa056edf3065f755a4,0,5,5,137,1,fiveseven,,,,,,,,,,,,,,,,,,,,,,,,,,,,,,,,,,,,,,,,,,,,,,,,,,,,,,,,,,,,,,,,,,,,,,,,,,,,,,,,,,,,,
59a82dab800873000169ed58,2023-11-23_22h36.24.050,kallum_motion_pilot,2023.1.2,Win32,60.02040694,59a82dab800873000169ed58,656018846682f3df8008bb8f,656019aa056edf3065f755a4,0,6,6,100,1,sevenfive,,,,,,,,,,,,,,,,,,,,,,,,,,,,,,,,,,,,,,,,,,,,,,,,,,,,,,,,,,,,,,,,,,,,,,,,,,,,,,,,,,,,,
59a82dab800873000169ed58,2023-11-23_22h36.24.050,kallum_motion_pilot,2023.1.2,Win32,60.02040694,59a82dab800873000169ed58,656018846682f3df8008bb8f,656019aa056edf3065f755a4,0,7,7,133,1,seveneight,,,,,,,,,,,,,,,,,,,,,,,,,,,,,,,,,,,,,,,,,,,,,,,,,,,,,,,,,,,,,,,,,,,,,,,,,,,,,,,,,,,,,
59a82dab800873000169ed58,2023-11-23_22h36.24.050,kallum_motion_pilot,2023.1.2,Win32,60.02040694,59a82dab800873000169ed58,656018846682f3df8008bb8f,656019aa056edf3065f755a4,0,8,8,150,1,eightsix,,,,,,,,,,,,,,,,,,,,,,,,,,,,,,,,,,,,,,,,,,,,,,,,,,,,,,,,,,,,,,,,,,,,,,,,,,,,,,,,,,,,,
59a82dab800873000169ed58,2023-11-23_22h36.24.050,kallum_motion_pilot,2023.1.2,Win32,60.02040694,59a82dab800873000169ed58,656018846682f3df8008bb8f,656019aa056edf3065f755a4,0,9,9,86,1,eightsix,,,,,,,,,,,,,,,,,,,,,,,,,,,,,,,,,,,,,,,,,,,,,,,,,,,,,,,,,,,,,,,,,,,,,,,,,,,,,,,,,,,,,
59a82dab800873000169ed58,2023-11-23_22h36.24.050,kallum_motion_pilot,2023.1.2,Win32,60.02040694,59a82dab800873000169ed58,656018846682f3df8008bb8f,656019aa056edf3065f755a4,0,10,10,84,1,sevenfive,,,,,,,,,,,,,,,,,,,,,,,,,,,,,,,,,,,,,,,,,,,,,,,,,,,,,,,,,,,,,,,,,,,,,,,,,,,,,,,,,,,,,
59a82dab800873000169ed58,2023-11-23_22h36.24.050,kallum_motion_pilot,2023.1.2,Win32,60.02040694,59a82dab800873000169ed58,656018846682f3df8008bb8f,656019aa056edf3065f755a4,0,11,11,135,1,eightseven,,,,,,,,,,,,,,,,,,,,,,,,,,,,,,,,,,,,,,,,,,,,,,,,,,,,,,,,,,,,,,,,,,,,,,,,,,,,,,,,,,,,,
59a82dab800873000169ed58,2023-11-23_22h36.24.050,kallum_motion_pilot,2023.1.2,Win32,60.02040694,59a82dab800873000169ed58,656018846682f3df8008bb8f,656019aa056edf3065f755a4,0,12,12,96,1,fivesix,,,,,,,,,,,,,,,,,,,,,,,,,,,,,,,,,,,,,,,,,,,,,,,,,,,,,,,,,,,,,,,,,,,,,,,,,,,,,,,,,,,,,
59a82dab800873000169ed58,2023-11-23_22h36.24.050,kallum_motion_pilot,2023.1.2,Win32,60.02040694,59a82dab800873000169ed58,656018846682f3df8008bb8f,656019aa056edf3065f755a4,0,13,13,77,1,threefour,,,,,,,,,,,,,,,,,,,,,,,,,,,,,,,,,,,,,,,,,,,,,,,,,,,,,,,,,,,,,,,,,,,,,,,,,,,,,,,,,,,,,
59a82dab800873000169ed58,2023-11-23_22h36.24.050,kallum_motion_pilot,2023.1.2,Win32,60.02040694,59a82dab800873000169ed58,656018846682f3df8008bb8f,656019aa056edf3065f755a4,0,14,14,5,1,threefour,,,,,,,,,,,,,,,,,,,,,,,,,,,,,,,,,,,,,,,,,,,,,,,,,,,,,,,,,,,,,,,,,,,,,,,,,,,,,,,,,,,,,
59a82dab800873000169ed58,2023-11-23_22h36.24.050,kallum_motion_pilot,2023.1.2,Win32,60.02040694,59a82dab800873000169ed58,656018846682f3df8008bb8f,656019aa056edf3065f755a4,0,15,15,6,1,fourtwo,,,,,,,,,,,,,,,,,,,,,,,,,,,,,,,,,,,,,,,,,,,,,,,,,,,,,,,,,,,,,,,,,,,,,,,,,,,,,,,,,,,,,
59a82dab800873000169ed58,2023-11-23_22h36.24.050,kallum_motion_pilot,2023.1.2,Win32,60.02040694,59a82dab800873000169ed58,656018846682f3df8008bb8f,656019aa056edf3065f755a4,0,16,16,17,1,onethree,,,,,,,,,,,,,,,,,,,,,,,,,,,,,,,,,,,,,,,,,,,,,,,,,,,,,,,,,,,,,,,,,,,,,,,,,,,,,,,,,,,,,
59a82dab800873000169ed58,2023-11-23_22h36.24.050,kallum_motion_pilot,2023.1.2,Win32,60.02040694,59a82dab800873000169ed58,656018846682f3df8008bb8f,656019aa056edf3065f755a4,0,17,17,110,1,eightsix,,,,,,,,,,,,,,,,,,,,,,,,,,,,,,,,,,,,,,,,,,,,,,,,,,,,,,,,,,,,,,,,,,,,,,,,,,,,,,,,,,,,,
59a82dab800873000169ed58,2023-11-23_22h36.24.050,kallum_motion_pilot,2023.1.2,Win32,60.02040694,59a82dab800873000169ed58,656018846682f3df8008bb8f,656019aa056edf3065f755a4,0,18,18,149,1,seveneight,,,,,,,,,,,,,,,,,,,,,,,,,,,,,,,,,,,,,,,,,,,,,,,,,,,,,,,,,,,,,,,,,,,,,,,,,,,,,,,,,,,,,
59a82dab800873000169ed58,2023-11-23_22h36.24.050,kallum_motion_pilot,2023.1.2,Win32,60.02040694,59a82dab800873000169ed58,656018846682f3df8008bb8f,656019aa056edf3065f755a4,0,19,19,140,1,sevenfive,,,,,,,,,,,,,,,,,,,,,,,,,,,,,,,,,,,,,,,,,,,,,,,,,,,,,,,,,,,,,,,,,,,,,,,,,,,,,,,,,,,,,
59a82dab800873000169ed58,2023-11-23_22h36.24.050,kallum_motion_pilot,2023.1.2,Win32,60.02040694,59a82dab800873000169ed58,656018846682f3df8008bb8f,656019aa056edf3065f755a4,0,20,20,26,1,twoone,,,,,,,,,,,,,,,,,,,,,,,,,,,,,,,,,,,,,,,,,,,,,,,,,,,,,,,,,,,,,,,,,,,,,,,,,,,,,,,,,,,,,
59a82dab800873000169ed58,2023-11-23_22h36.24.050,kallum_motion_pilot,2023.1.2,Win32,60.02040694,59a82dab800873000169ed58,656018846682f3df8008bb8f,656019aa056edf3065f755a4,0,21,21,74,1,twoone,,,,,,,,,,,,,,,,,,,,,,,,,,,,,,,,,,,,,,,,,,,,,,,,,,,,,,,,,,,,,,,,,,,,,,,,,,,,,,,,,,,,,
59a82dab800873000169ed58,2023-11-23_22h36.24.050,kallum_motion_pilot,2023.1.2,Win32,60.02040694,59a82dab800873000169ed58,656018846682f3df8008bb8f,656019aa056edf3065f755a4,0,22,22,3,1,twofour,,,,,,,,,,,,,,,,,,,,,,,,,,,,,,,,,,,,,,,,,,,,,,,,,,,,,,,,,,,,,,,,,,,,,,,,,,,,,,,,,,,,,
59a82dab800873000169ed58,2023-11-23_22h36.24.050,kallum_motion_pilot,2023.1.2,Win32,60.02040694,59a82dab800873000169ed58,656018846682f3df8008bb8f,656019aa056edf3065f755a4,0,23,23,111,1,eightseven,,,,,,,,,,,,,,,,,,,,,,,,,,,,,,,,,,,,,,,,,,,,,,,,,,,,,,,,,,,,,,,,,,,,,,,,,,,,,,,,,,,,,
59a82dab800873000169ed58,2023-11-23_22h36.24.050,kallum_motion_pilot,2023.1.2,Win32,60.02040694,59a82dab800873000169ed58,656018846682f3df8008bb8f,656019aa056edf3065f755a4,0,24,24,116,1,sevenfive,,,,,,,,,,,,,,,,,,,,,,,,,,,,,,,,,,,,,,,,,,,,,,,,,,,,,,,,,,,,,,,,,,,,,,,,,,,,,,,,,,,,,
59a82dab800873000169ed58,2023-11-23_22h36.24.050,kallum_motion_pilot,2023.1.2,Win32,60.02040694,59a82dab800873000169ed58,656018846682f3df8008bb8f,656019aa056edf3065f755a4,0,25,25,98,1,sixfive,,,,,,,,,,,,,,,,,,,,,,,,,,,,,,,,,,,,,,,,,,,,,,,,,,,,,,,,,,,,,,,,,,,,,,,,,,,,,,,,,,,,,
59a82dab800873000169ed58,2023-11-23_22h36.24.050,kallum_motion_pilot,2023.1.2,Win32,60.02040694,59a82dab800873000169ed58,656018846682f3df8008bb8f,656019aa056edf3065f755a4,0,26,26,38,1,fourtwo,,,,,,,,,,,,,,,,,,,,,,,,,,,,,,,,,,,,,,,,,,,,,,,,,,,,,,,,,,,,,,,,,,,,,,,,,,,,,,,,,,,,,
59a82dab800873000169ed58,2023-11-23_22h36.24.050,kallum_motion_pilot,2023.1.2,Win32,60.02040694,59a82dab800873000169ed58,656018846682f3df8008bb8f,656019aa056edf3065f755a4,0,27,27,51,1,twofour,,,,,,,,,,,,,,,,,,,,,,,,,,,,,,,,,,,,,,,,,,,,,,,,,,,,,,,,,,,,,,,,,,,,,,,,,,,,,,,,,,,,,
59a82dab800873000169ed58,2023-11-23_22h36.24.050,kallum_motion_pilot,2023.1.2,Win32,60.02040694,59a82dab800873000169ed58,656018846682f3df8008bb8f,656019aa056edf3065f755a4,0,28,28,65,1,onethree,,,,,,,,,,,,,,,,,,,,,,,,,,,,,,,,,,,,,,,,,,,,,,,,,,,,,,,,,,,,,,,,,,,,,,,,,,,,,,,,,,,,,
59a82dab800873000169ed58,2023-11-23_22h36.24.050,kallum_motion_pilot,2023.1.2,Win32,60.02040694,59a82dab800873000169ed58,656018846682f3df8008bb8f,656019aa056edf3065f755a4,0,29,29,0,1,onetwo,,,,,,,,,,,,,,,,,,,,,,,,,,,,,,,,,,,,,,,,,,,,,,,,,,,,,,,,,,,,,,,,,,,,,,,,,,,,,,,,,,,,,
59a82dab800873000169ed58,2023-11-23_22h36.24.050,kallum_motion_pilot,2023.1.2,Win32,60.02040694,59a82dab800873000169ed58,656018846682f3df8008bb8f,656019aa056edf3065f755a4,0,30,30,60,1,threeone,,,,,,,,,,,,,,,,,,,,,,,,,,,,,,,,,,,,,,,,,,,,,,,,,,,,,,,,,,,,,,,,,,,,,,,,,,,,,,,,,,,,,
59a82dab800873000169ed58,2023-11-23_22h36.24.050,kallum_motion_pilot,2023.1.2,Win32,60.02040694,59a82dab800873000169ed58,656018846682f3df8008bb8f,656019aa056edf3065f755a4,0,31,31,79,1,eightseven,,,,,,,,,,,,,,,,,,,,,,,,,,,,,,,,,,,,,,,,,,,,,,,,,,,,,,,,,,,,,,,,,,,,,,,,,,,,,,,,,,,,,
59a82dab800873000169ed58,2023-11-23_22h36.24.050,kallum_motion_pilot,2023.1.2,Win32,60.02040694,59a82dab800873000169ed58,656018846682f3df8008bb8f,656019aa056edf3065f755a4,0,32,32,78,1,fourtwo,,,,,,,,,,,,,,,,,,,,,,,,,,,,,,,,,,,,,,,,,,,,,,,,,,,,,,,,,,,,,,,,,,,,,,,,,,,,,,,,,,,,,
59a82dab800873000169ed58,2023-11-23_22h36.24.050,kallum_motion_pilot,2023.1.2,Win32,60.02040694,59a82dab800873000169ed58,656018846682f3df8008bb8f,656019aa056edf3065f755a4,0,33,33,146,1,sixfive,,,,,,,,,,,,,,,,,,,,,,,,,,,,,,,,,,,,,,,,,,,,,,,,,,,,,,,,,,,,,,,,,,,,,,,,,,,,,,,,,,,,,
59a82dab800873000169ed58,2023-11-23_22h36.24.050,kallum_motion_pilot,2023.1.2,Win32,60.02040694,59a82dab800873000169ed58,656018846682f3df8008bb8f,656019aa056edf3065f755a4,0,34,34,154,1,sixfive,,,,,,,,,,,,,,,,,,,,,,,,,,,,,,,,,,,,,,,,,,,,,,,,,,,,,,,,,,,,,,,,,,,,,,,,,,,,,,,,,,,,,
59a82dab800873000169ed58,2023-11-23_22h36.24.050,kallum_motion_pilot,2023.1.2,Win32,60.02040694,59a82dab800873000169ed58,656018846682f3df8008bb8f,656019aa056edf3065f755a4,0,35,35,25,1,onethree,,,,,,,,,,,,,,,,,,,,,,,,,,,,,,,,,,,,,,,,,,,,,,,,,,,,,,,,,,,,,,,,,,,,,,,,,,,,,,,,,,,,,
59a82dab800873000169ed58,2023-11-23_22h36.24.050,kallum_motion_pilot,2023.1.2,Win32,60.02040694,59a82dab800873000169ed58,656018846682f3df8008bb8f,656019aa056edf3065f755a4,0,36,36,70,1,fourtwo,,,,,,,,,,,,,,,,,,,,,,,,,,,,,,,,,,,,,,,,,,,,,,,,,,,,,,,,,,,,,,,,,,,,,,,,,,,,,,,,,,,,,
59a82dab800873000169ed58,2023-11-23_22h36.24.050,kallum_motion_pilot,2023.1.2,Win32,60.02040694,59a82dab800873000169ed58,656018846682f3df8008bb8f,656019aa056edf3065f755a4,0,37,37,89,1,fiveseven,,,,,,,,,,,,,,,,,,,,,,,,,,,,,,,,,,,,,,,,,,,,,,,,,,,,,,,,,,,,,,,,,,,,,,,,,,,,,,,,,,,,,
59a82dab800873000169ed58,2023-11-23_22h36.24.050,kallum_motion_pilot,2023.1.2,Win32,60.02040694,59a82dab800873000169ed58,656018846682f3df8008bb8f,656019aa056edf3065f755a4,0,38,38,126,1,eightsix,,,,,,,,,,,,,,,,,,,,,,,,,,,,,,,,,,,,,,,,,,,,,,,,,,,,,,,,,,,,,,,,,,,,,,,,,,,,,,,,,,,,,
59a82dab800873000169ed58,2023-11-23_22h36.24.050,kallum_motion_pilot,2023.1.2,Win32,60.02040694,59a82dab800873000169ed58,656018846682f3df8008bb8f,656019aa056edf3065f755a4,0,39,39,134,1,eightsix,,,,,,,,,,,,,,,,,,,,,,,,,,,,,,,,,,,,,,,,,,,,,,,,,,,,,,,,,,,,,,,,,,,,,,,,,,,,,,,,,,,,,
59a82dab800873000169ed58,2023-11-23_22h36.24.050,kallum_motion_pilot,2023.1.2,Win32,60.02040694,59a82dab800873000169ed58,656018846682f3df8008bb8f,656019aa056edf3065f755a4,0,40,40,136,1,fivesix,,,,,,,,,,,,,,,,,,,,,,,,,,,,,,,,,,,,,,,,,,,,,,,,,,,,,,,,,,,,,,,,,,,,,,,,,,,,,,,,,,,,,
59a82dab800873000169ed58,2023-11-23_22h36.24.050,kallum_motion_pilot,2023.1.2,Win32,60.02040694,59a82dab800873000169ed58,656018846682f3df8008bb8f,656019aa056edf3065f755a4,0,41,41,139,1,sixeight,,,,,,,,,,,,,,,,,,,,,,,,,,,,,,,,,,,,,,,,,,,,,,,,,,,,,,,,,,,,,,,,,,,,,,,,,,,,,,,,,,,,,
59a82dab800873000169ed58,2023-11-23_22h36.24.050,kallum_motion_pilot,2023.1.2,Win32,60.02040694,59a82dab800873000169ed58,656018846682f3df8008bb8f,656019aa056edf3065f755a4,0,42,42,80,1,fivesix,,,,,,,,,,,,,,,,,,,,,,,,,,,,,,,,,,,,,,,,,,,,,,,,,,,,,,,,,,,,,,,,,,,,,,,,,,,,,,,,,,,,,
59a82dab800873000169ed58,2023-11-23_22h36.24.050,kallum_motion_pilot,2023.1.2,Win32,60.02040694,59a82dab800873000169ed58,656018846682f3df8008bb8f,656019aa056edf3065f755a4,0,43,43,123,1,sixeight,,,,,,,,,,,,,,,,,,,,,,,,,,,,,,,,,,,,,,,,,,,,,,,,,,,,,,,,,,,,,,,,,,,,,,,,,,,,,,,,,,,,,
59a82dab800873000169ed58,2023-11-23_22h36.24.050,kallum_motion_pilot,2023.1.2,Win32,60.02040694,59a82dab800873000169ed58,656018846682f3df8008bb8f,656019aa056edf3065f755a4,0,44,44,34,1,twoone,,,,,,,,,,,,,,,,,,,,,,,,,,,,,,,,,,,,,,,,,,,,,,,,,,,,,,,,,,,,,,,,,,,,,,,,,,,,,,,,,,,,,
59a82dab800873000169ed58,2023-11-23_22h36.24.050,kallum_motion_pilot,2023.1.2,Win32,60.02040694,59a82dab800873000169ed58,656018846682f3df8008bb8f,656019aa056edf3065f755a4,0,45,45,105,1,fiveseven,,,,,,,,,,,,,,,,,,,,,,,,,,,,,,,,,,,,,,,,,,,,,,,,,,,,,,,,,,,,,,,,,,,,,,,,,,,,,,,,,,,,,
59a82dab800873000169ed58,2023-11-23_22h36.24.050,kallum_motion_pilot,2023.1.2,Win32,60.02040694,59a82dab800873000169ed58,656018846682f3df8008bb8f,656019aa056edf3065f755a4,0,46,46,7,1,fourthree,,,,,,,,,,,,,,,,,,,,,,,,,,,,,,,,,,,,,,,,,,,,,,,,,,,,,,,,,,,,,,,,,,,,,,,,,,,,,,,,,,,,,
59a82dab800873000169ed58,2023-11-23_22h36.24.050,kallum_motion_pilot,2023.1.2,Win32,60.02040694,59a82dab800873000169ed58,656018846682f3df8008bb8f,656019aa056edf3065f755a4,0,47,47,59,1,twofour,,,,,,,,,,,,,,,,,,,,,,,,,,,,,,,,,,,,,,,,,,,,,,,,,,,,,,,,,,,,,,,,,,,,,,,,,,,,,,,,,,,,,
59a82dab800873000169ed58,2023-11-23_22h36.24.050,kallum_motion_pilot,2023.1.2,Win32,60.02040694,59a82dab800873000169ed58,656018846682f3df8008bb8f,656019aa056edf3065f755a4,0,48,48,94,1,eightsix,,,,,,,,,,,,,,,,,,,,,,,,,,,,,,,,,,,,,,,,,,,,,,,,,,,,,,,,,,,,,,,,,,,,,,,,,,,,,,,,,,,,,
59a82dab800873000169ed58,2023-11-23_22h36.24.050,kallum_motion_pilot,2023.1.2,Win32,60.02040694,59a82dab800873000169ed58,656018846682f3df8008bb8f,656019aa056edf3065f755a4,0,49,49,155,1,sixeight,,,,,,,,,,,,,,,,,,,,,,,,,,,,,,,,,,,,,,,,,,,,,,,,,,,,,,,,,,,,,,,,,,,,,,,,,,,,,,,,,,,,,
59a82dab800873000169ed58,2023-11-23_22h36.24.050,kallum_motion_pilot,2023.1.2,Win32,60.02040694,59a82dab800873000169ed58,656018846682f3df8008bb8f,656019aa056edf3065f755a4,0,50,50,127,1,eightseven,,,,,,,,,,,,,,,,,,,,,,,,,,,,,,,,,,,,,,,,,,,,,,,,,,,,,,,,,,,,,,,,,,,,,,,,,,,,,,,,,,,,,
59a82dab800873000169ed58,2023-11-23_22h36.24.050,kallum_motion_pilot,2023.1.2,Win32,60.02040694,59a82dab800873000169ed58,656018846682f3df8008bb8f,656019aa056edf3065f755a4,0,51,51,52,1,threeone,,,,,,,,,,,,,,,,,,,,,,,,,,,,,,,,,,,,,,,,,,,,,,,,,,,,,,,,,,,,,,,,,,,,,,,,,,,,,,,,,,,,,
59a82dab800873000169ed58,2023-11-23_22h36.24.050,kallum_motion_pilot,2023.1.2,Win32,60.02040694,59a82dab800873000169ed58,656018846682f3df8008bb8f,656019aa056edf3065f755a4,0,52,52,75,1,twofour,,,,,,,,,,,,,,,,,,,,,,,,,,,,,,,,,,,,,,,,,,,,,,,,,,,,,,,,,,,,,,,,,,,,,,,,,,,,,,,,,,,,,
59a82dab800873000169ed58,2023-11-23_22h36.24.050,kallum_motion_pilot,2023.1.2,Win32,60.02040694,59a82dab800873000169ed58,656018846682f3df8008bb8f,656019aa056edf3065f755a4,0,53,53,40,1,onetwo,,,,,,,,,,,,,,,,,,,,,,,,,,,,,,,,,,,,,,,,,,,,,,,,,,,,,,,,,,,,,,,,,,,,,,,,,,,,,,,,,,,,,
59a82dab800873000169ed58,2023-11-23_22h36.24.050,kallum_motion_pilot,2023.1.2,Win32,60.02040694,59a82dab800873000169ed58,656018846682f3df8008bb8f,656019aa056edf3065f755a4,0,54,54,108,1,sevenfive,,,,,,,,,,,,,,,,,,,,,,,,,,,,,,,,,,,,,,,,,,,,,,,,,,,,,,,,,,,,,,,,,,,,,,,,,,,,,,,,,,,,,
59a82dab800873000169ed58,2023-11-23_22h36.24.050,kallum_motion_pilot,2023.1.2,Win32,60.02040694,59a82dab800873000169ed58,656018846682f3df8008bb8f,656019aa056edf3065f755a4,0,55,55,46,1,fourtwo,,,,,,,,,,,,,,,,,,,,,,,,,,,,,,,,,,,,,,,,,,,,,,,,,,,,,,,,,,,,,,,,,,,,,,,,,,,,,,,,,,,,,
59a82dab800873000169ed58,2023-11-23_22h36.24.050,kallum_motion_pilot,2023.1.2,Win32,60.02040694,59a82dab800873000169ed58,656018846682f3df8008bb8f,656019aa056edf3065f755a4,0,56,56,72,1,onetwo,,,,,,,,,,,,,,,,,,,,,,,,,,,,,,,,,,,,,,,,,,,,,,,,,,,,,,,,,,,,,,,,,,,,,,,,,,,,,,,,,,,,,
59a82dab800873000169ed58,2023-11-23_22h36.24.050,kallum_motion_pilot,2023.1.2,Win32,60.02040694,59a82dab800873000169ed58,656018846682f3df8008bb8f,656019aa056edf3065f755a4,0,57,57,125,1,seveneight,,,,,,,,,,,,,,,,,,,,,,,,,,,,,,,,,,,,,,,,,,,,,,,,,,,,,,,,,,,,,,,,,,,,,,,,,,,,,,,,,,,,,
59a82dab800873000169ed58,2023-11-23_22h36.24.050,kallum_motion_pilot,2023.1.2,Win32,60.02040694,59a82dab800873000169ed58,656018846682f3df8008bb8f,656019aa056edf3065f755a4,0,58,58,13,1,threefour,,,,,,,,,,,,,,,,,,,,,,,,,,,,,,,,,,,,,,,,,,,,,,,,,,,,,,,,,,,,,,,,,,,,,,,,,,,,,,,,,,,,,
59a82dab800873000169ed58,2023-11-23_22h36.24.050,kallum_motion_pilot,2023.1.2,Win32,60.02040694,59a82dab800873000169ed58,656018846682f3df8008bb8f,656019aa056edf3065f755a4,0,59,59,153,1,fiveseven,,,,,,,,,,,,,,,,,,,,,,,,,,,,,,,,,,,,,,,,,,,,,,,,,,,,,,,,,,,,,,,,,,,,,,,,,,,,,,,,,,,,,
59a82dab800873000169ed58,2023-11-23_22h36.24.050,kallum_motion_pilot,2023.1.2,Win32,60.02040694,59a82dab800873000169ed58,656018846682f3df8008bb8f,656019aa056edf3065f755a4,0,60,60,103,1,eightseven,,,,,,,,,,,,,,,,,,,,,,,,,,,,,,,,,,,,,,,,,,,,,,,,,,,,,,,,,,,,,,,,,,,,,,,,,,,,,,,,,,,,,
59a82dab800873000169ed58,2023-11-23_22h36.24.050,kallum_motion_pilot,2023.1.2,Win32,60.02040694,59a82dab800873000169ed58,656018846682f3df8008bb8f,656019aa056edf3065f755a4,0,61,61,131,1,sixeight,,,,,,,,,,,,,,,,,,,,,,,,,,,,,,,,,,,,,,,,,,,,,,,,,,,,,,,,,,,,,,,,,,,,,,,,,,,,,,,,,,,,,
59a82dab800873000169ed58,2023-11-23_22h36.24.050,kallum_motion_pilot,2023.1.2,Win32,60.02040694,59a82dab800873000169ed58,656018846682f3df8008bb8f,656019aa056edf3065f755a4,0,62,62,145,1,fiveseven,,,,,,,,,,,,,,,,,,,,,,,,,,,,,,,,,,,,,,,,,,,,,,,,,,,,,,,,,,,,,,,,,,,,,,,,,,,,,,,,,,,,,
59a82dab800873000169ed58,2023-11-23_22h36.24.050,kallum_motion_pilot,2023.1.2,Win32,60.02040694,59a82dab800873000169ed58,656018846682f3df8008bb8f,656019aa056edf3065f755a4,0,63,63,32,1,onetwo,,,,,,,,,,,,,,,,,,,,,,,,,,,,,,,,,,,,,,,,,,,,,,,,,,,,,,,,,,,,,,,,,,,,,,,,,,,,,,,,,,,,,
59a82dab800873000169ed58,2023-11-23_22h36.24.050,kallum_motion_pilot,2023.1.2,Win32,60.02040694,59a82dab800873000169ed58,656018846682f3df8008bb8f,656019aa056edf3065f755a4,0,64,64,41,1,onethree,,,,,,,,,,,,,,,,,,,,,,,,,,,,,,,,,,,,,,,,,,,,,,,,,,,,,,,,,,,,,,,,,,,,,,,,,,,,,,,,,,,,,
59a82dab800873000169ed58,2023-11-23_22h36.24.050,kallum_motion_pilot,2023.1.2,Win32,60.02040694,59a82dab800873000169ed58,656018846682f3df8008bb8f,656019aa056edf3065f755a4,0,65,65,21,1,threefour,,,,,,,,,,,,,,,,,,,,,,,,,,,,,,,,,,,,,,,,,,,,,,,,,,,,,,,,,,,,,,,,,,,,,,,,,,,,,,,,,,,,,
59a82dab800873000169ed58,2023-11-23_22h36.24.050,kallum_motion_pilot,2023.1.2,Win32,60.02040694,59a82dab800873000169ed58,656018846682f3df8008bb8f,656019aa056edf3065f755a4,0,66,66,23,1,fourthree,,,,,,,,,,,,,,,,,,,,,,,,,,,,,,,,,,,,,,,,,,,,,,,,,,,,,,,,,,,,,,,,,,,,,,,,,,,,,,,,,,,,,
59a82dab800873000169ed58,2023-11-23_22h36.24.050,kallum_motion_pilot,2023.1.2,Win32,60.02040694,59a82dab800873000169ed58,656018846682f3df8008bb8f,656019aa056edf3065f755a4,0,67,67,81,1,fiveseven,,,,,,,,,,,,,,,,,,,,,,,,,,,,,,,,,,,,,,,,,,,,,,,,,,,,,,,,,,,,,,,,,,,,,,,,,,,,,,,,,,,,,
59a82dab800873000169ed58,2023-11-23_22h36.24.050,kallum_motion_pilot,2023.1.2,Win32,60.02040694,59a82dab800873000169ed58,656018846682f3df8008bb8f,656019aa056edf3065f755a4,0,68,68,148,1,sevenfive,,,,,,,,,,,,,,,,,,,,,,,,,,,,,,,,,,,,,,,,,,,,,,,,,,,,,,,,,,,,,,,,,,,,,,,,,,,,,,,,,,,,,
59a82dab800873000169ed58,2023-11-23_22h36.24.050,kallum_motion_pilot,2023.1.2,Win32,60.02040694,59a82dab800873000169ed58,656018846682f3df8008bb8f,656019aa056edf3065f755a4,0,69,69,8,1,onetwo,,,,,,,,,,,,,,,,,,,,,,,,,,,,,,,,,,,,,,,,,,,,,,,,,,,,,,,,,,,,,,,,,,,,,,,,,,,,,,,,,,,,,
59a82dab800873000169ed58,2023-11-23_22h36.24.050,kallum_motion_pilot,2023.1.2,Win32,60.02040694,59a82dab800873000169ed58,656018846682f3df8008bb8f,656019aa056edf3065f755a4,0,70,70,124,1,sevenfive,,,,,,,,,,,,,,,,,,,,,,,,,,,,,,,,,,,,,,,,,,,,,,,,,,,,,,,,,,,,,,,,,,,,,,,,,,,,,,,,,,,,,
59a82dab800873000169ed58,2023-11-23_22h36.24.050,kallum_motion_pilot,2023.1.2,Win32,60.02040694,59a82dab800873000169ed58,656018846682f3df8008bb8f,656019aa056edf3065f755a4,0,71,71,132,1,sevenfive,,,,,,,,,,,,,,,,,,,,,,,,,,,,,,,,,,,,,,,,,,,,,,,,,,,,,,,,,,,,,,,,,,,,,,,,,,,,,,,,,,,,,
59a82dab800873000169ed58,2023-11-23_22h36.24.050,kallum_motion_pilot,2023.1.2,Win32,60.02040694,59a82dab800873000169ed58,656018846682f3df8008bb8f,656019aa056edf3065f755a4,0,72,72,144,1,fivesix,,,,,,,,,,,,,,,,,,,,,,,,,,,,,,,,,,,,,,,,,,,,,,,,,,,,,,,,,,,,,,,,,,,,,,,,,,,,,,,,,,,,,
59a82dab800873000169ed58,2023-11-23_22h36.24.050,kallum_motion_pilot,2023.1.2,Win32,60.02040694,59a82dab800873000169ed58,656018846682f3df8008bb8f,656019aa056edf3065f755a4,0,73,73,9,1,onethree,,,,,,,,,,,,,,,,,,,,,,,,,,,,,,,,,,,,,,,,,,,,,,,,,,,,,,,,,,,,,,,,,,,,,,,,,,,,,,,,,,,,,
59a82dab800873000169ed58,2023-11-23_22h36.24.050,kallum_motion_pilot,2023.1.2,Win32,60.02040694,59a82dab800873000169ed58,656018846682f3df8008bb8f,656019aa056edf3065f755a4,0,74,74,1,1,onethree,,,,,,,,,,,,,,,,,,,,,,,,,,,,,,,,,,,,,,,,,,,,,,,,,,,,,,,,,,,,,,,,,,,,,,,,,,,,,,,,,,,,,
59a82dab800873000169ed58,2023-11-23_22h36.24.050,kallum_motion_pilot,2023.1.2,Win32,60.02040694,59a82dab800873000169ed58,656018846682f3df8008bb8f,656019aa056edf3065f755a4,0,75,75,88,1,fivesix,,,,,,,,,,,,,,,,,,,,,,,,,,,,,,,,,,,,,,,,,,,,,,,,,,,,,,,,,,,,,,,,,,,,,,,,,,,,,,,,,,,,,
59a82dab800873000169ed58,2023-11-23_22h36.24.050,kallum_motion_pilot,2023.1.2,Win32,60.02040694,59a82dab800873000169ed58,656018846682f3df8008bb8f,656019aa056edf3065f755a4,0,76,76,24,1,onetwo,,,,,,,,,,,,,,,,,,,,,,,,,,,,,,,,,,,,,,,,,,,,,,,,,,,,,,,,,,,,,,,,,,,,,,,,,,,,,,,,,,,,,
59a82dab800873000169ed58,2023-11-23_22h36.24.050,kallum_motion_pilot,2023.1.2,Win32,60.02040694,59a82dab800873000169ed58,656018846682f3df8008bb8f,656019aa056edf3065f755a4,0,77,77,161,1,fiveseven,,,,,,,,,,,,,,,,,,,,,,,,,,,,,,,,,,,,,,,,,,,,,,,,,,,,,,,,,,,,,,,,,,,,,,,,,,,,,,,,,,,,,
59a82dab800873000169ed58,2023-11-23_22h36.24.050,kallum_motion_pilot,2023.1.2,Win32,60.02040694,59a82dab800873000169ed58,656018846682f3df8008bb8f,656019aa056edf3065f755a4,0,78,78,43,1,twofour,,,,,,,,,,,,,,,,,,,,,,,,,,,,,,,,,,,,,,,,,,,,,,,,,,,,,,,,,,,,,,,,,,,,,,,,,,,,,,,,,,,,,
59a82dab800873000169ed58,2023-11-23_22h36.24.050,kallum_motion_pilot,2023.1.2,Win32,60.02040694,59a82dab800873000169ed58,656018846682f3df8008bb8f,656019aa056edf3065f755a4,0,79,79,22,1,fourtwo,,,,,,,,,,,,,,,,,,,,,,,,,,,,,,,,,,,,,,,,,,,,,,,,,,,,,,,,,,,,,,,,,,,,,,,,,,,,,,,,,,,,,
59a82dab800873000169ed58,2023-11-23_22h36.24.050,kallum_motion_pilot,2023.1.2,Win32,60.02040694,59a82dab800873000169ed58,656018846682f3df8008bb8f,656019aa056edf3065f755a4,0,80,80,87,1,eightseven,,,,,,,,,,,,,,,,,,,,,,,,,,,,,,,,,,,,,,,,,,,,,,,,,,,,,,,,,,,,,,,,,,,,,,,,,,,,,,,,,,,,,
59a82dab800873000169ed58,2023-11-23_22h36.24.050,kallum_motion_pilot,2023.1.2,Win32,60.02040694,59a82dab800873000169ed58,656018846682f3df8008bb8f,656019aa056edf3065f755a4,0,81,81,12,1,threeone,,,,,,,,,,,,,,,,,,,,,,,,,,,,,,,,,,,,,,,,,,,,,,,,,,,,,,,,,,,,,,,,,,,,,,,,,,,,,,,,,,,,,
59a82dab800873000169ed58,2023-11-23_22h36.24.050,kallum_motion_pilot,2023.1.2,Win32,60.02040694,59a82dab800873000169ed58,656018846682f3df8008bb8f,656019aa056edf3065f755a4,0,82,82,158,1,eightsix,,,,,,,,,,,,,,,,,,,,,,,,,,,,,,,,,,,,,,,,,,,,,,,,,,,,,,,,,,,,,,,,,,,,,,,,,,,,,,,,,,,,,
59a82dab800873000169ed58,2023-11-23_22h36.24.050,kallum_motion_pilot,2023.1.2,Win32,60.02040694,59a82dab800873000169ed58,656018846682f3df8008bb8f,656019aa056edf3065f755a4,0,83,83,45,1,threefour,,,,,,,,,,,,,,,,,,,,,,,,,,,,,,,,,,,,,,,,,,,,,,,,,,,,,,,,,,,,,,,,,,,,,,,,,,,,,,,,,,,,,
59a82dab800873000169ed58,2023-11-23_22h36.24.050,kallum_motion_pilot,2023.1.2,Win32,60.02040694,59a82dab800873000169ed58,656018846682f3df8008bb8f,656019aa056edf3065f755a4,0,84,84,115,1,sixeight,,,,,,,,,,,,,,,,,,,,,,,,,,,,,,,,,,,,,,,,,,,,,,,,,,,,,,,,,,,,,,,,,,,,,,,,,,,,,,,,,,,,,
59a82dab800873000169ed58,2023-11-23_22h36.24.050,kallum_motion_pilot,2023.1.2,Win32,60.02040694,59a82dab800873000169ed58,656018846682f3df8008bb8f,656019aa056edf3065f755a4,0,85,85,73,1,onethree,,,,,,,,,,,,,,,,,,,,,,,,,,,,,,,,,,,,,,,,,,,,,,,,,,,,,,,,,,,,,,,,,,,,,,,,,,,,,,,,,,,,,
59a82dab800873000169ed58,2023-11-23_22h36.24.050,kallum_motion_pilot,2023.1.2,Win32,60.02040694,59a82dab800873000169ed58,656018846682f3df8008bb8f,656019aa056edf3065f755a4,0,86,86,67,1,twofour,,,,,,,,,,,,,,,,,,,,,,,,,,,,,,,,,,,,,,,,,,,,,,,,,,,,,,,,,,,,,,,,,,,,,,,,,,,,,,,,,,,,,
59a82dab800873000169ed58,2023-11-23_22h36.24.050,kallum_motion_pilot,2023.1.2,Win32,60.02040694,59a82dab800873000169ed58,656018846682f3df8008bb8f,656019aa056edf3065f755a4,0,87,87,50,1,twoone,,,,,,,,,,,,,,,,,,,,,,,,,,,,,,,,,,,,,,,,,,,,,,,,,,,,,,,,,,,,,,,,,,,,,,,,,,,,,,,,,,,,,
59a82dab800873000169ed58,2023-11-23_22h36.24.050,kallum_motion_pilot,2023.1.2,Win32,60.02040694,59a82dab800873000169ed58,656018846682f3df8008bb8f,656019aa056edf3065f755a4,0,88,88,55,1,fourthree,,,,,,,,,,,,,,,,,,,,,,,,,,,,,,,,,,,,,,,,,,,,,,,,,,,,,,,,,,,,,,,,,,,,,,,,,,,,,,,,,,,,,
59a82dab800873000169ed58,2023-11-23_22h36.24.050,kallum_motion_pilot,2023.1.2,Win32,60.02040694,59a82dab800873000169ed58,656018846682f3df8008bb8f,656019aa056edf3065f755a4,0,89,89,128,1,fivesix,,,,,,,,,,,,,,,,,,,,,,,,,,,,,,,,,,,,,,,,,,,,,,,,,,,,,,,,,,,,,,,,,,,,,,,,,,,,,,,,,,,,,
59a82dab800873000169ed58,2023-11-23_22h36.24.050,kallum_motion_pilot,2023.1.2,Win32,60.02040694,59a82dab800873000169ed58,656018846682f3df8008bb8f,656019aa056edf3065f755a4,0,90,90,57,1,onethree,,,,,,,,,,,,,,,,,,,,,,,,,,,,,,,,,,,,,,,,,,,,,,,,,,,,,,,,,,,,,,,,,,,,,,,,,,,,,,,,,,,,,
59a82dab800873000169ed58,2023-11-23_22h36.24.050,kallum_motion_pilot,2023.1.2,Win32,60.02040694,59a82dab800873000169ed58,656018846682f3df8008bb8f,656019aa056edf3065f755a4,0,91,91,66,1,twoone,,,,,,,,,,,,,,,,,,,,,,,,,,,,,,,,,,,,,,,,,,,,,,,,,,,,,,,,,,,,,,,,,,,,,,,,,,,,,,,,,,,,,
59a82dab800873000169ed58,2023-11-23_22h36.24.050,kallum_motion_pilot,2023.1.2,Win32,60.02040694,59a82dab800873000169ed58,656018846682f3df8008bb8f,656019aa056edf3065f755a4,0,92,92,14,1,fourtwo,,,,,,,,,,,,,,,,,,,,,,,,,,,,,,,,,,,,,,,,,,,,,,,,,,,,,,,,,,,,,,,,,,,,,,,,,,,,,,,,,,,,,
59a82dab800873000169ed58,2023-11-23_22h36.24.050,kallum_motion_pilot,2023.1.2,Win32,60.02040694,59a82dab800873000169ed58,656018846682f3df8008bb8f,656019aa056edf3065f755a4,0,93,93,141,1,seveneight,,,,,,,,,,,,,,,,,,,,,,,,,,,,,,,,,,,,,,,,,,,,,,,,,,,,,,,,,,,,,,,,,,,,,,,,,,,,,,,,,,,,,
59a82dab800873000169ed58,2023-11-23_22h36.24.050,kallum_motion_pilot,2023.1.2,Win32,60.02040694,59a82dab800873000169ed58,656018846682f3df8008bb8f,656019aa056edf3065f755a4,0,94,94,142,1,eightsix,,,,,,,,,,,,,,,,,,,,,,,,,,,,,,,,,,,,,,,,,,,,,,,,,,,,,,,,,,,,,,,,,,,,,,,,,,,,,,,,,,,,,
59a82dab800873000169ed58,2023-11-23_22h36.24.050,kallum_motion_pilot,2023.1.2,Win32,60.02040694,59a82dab800873000169ed58,656018846682f3df8008bb8f,656019aa056edf3065f755a4,0,95,95,29,1,threefour,,,,,,,,,,,,,,,,,,,,,,,,,,,,,,,,,,,,,,,,,,,,,,,,,,,,,,,,,,,,,,,,,,,,,,,,,,,,,,,,,,,,,
59a82dab800873000169ed58,2023-11-23_22h36.24.050,kallum_motion_pilot,2023.1.2,Win32,60.02040694,59a82dab800873000169ed58,656018846682f3df8008bb8f,656019aa056edf3065f755a4,0,96,96,120,1,fivesix,,,,,,,,,,,,,,,,,,,,,,,,,,,,,,,,,,,,,,,,,,,,,,,,,,,,,,,,,,,,,,,,,,,,,,,,,,,,,,,,,,,,,
59a82dab800873000169ed58,2023-11-23_22h36.24.050,kallum_motion_pilot,2023.1.2,Win32,60.02040694,59a82dab800873000169ed58,656018846682f3df8008bb8f,656019aa056edf3065f755a4,0,97,97,106,1,sixfive,,,,,,,,,,,,,,,,,,,,,,,,,,,,,,,,,,,,,,,,,,,,,,,,,,,,,,,,,,,,,,,,,,,,,,,,,,,,,,,,,,,,,
59a82dab800873000169ed58,2023-11-23_22h36.24.050,kallum_motion_pilot,2023.1.2,Win32,60.02040694,59a82dab800873000169ed58,656018846682f3df8008bb8f,656019aa056edf3065f755a4,0,98,98,83,1,sixeight,,,,,,,,,,,,,,,,,,,,,,,,,,,,,,,,,,,,,,,,,,,,,,,,,,,,,,,,,,,,,,,,,,,,,,,,,,,,,,,,,,,,,
59a82dab800873000169ed58,2023-11-23_22h36.24.050,kallum_motion_pilot,2023.1.2,Win32,60.02040694,59a82dab800873000169ed58,656018846682f3df8008bb8f,656019aa056edf3065f755a4,0,99,99,101,1,seveneight,,,,,,,,,,,,,,,,,,,,,,,,,,,,,,,,,,,,,,,,,,,,,,,,,,,,,,,,,,,,,,,,,,,,,,,,,,,,,,,,,,,,,
59a82dab800873000169ed58,2023-11-23_22h36.24.050,kallum_motion_pilot,2023.1.2,Win32,60.02040694,59a82dab800873000169ed58,656018846682f3df8008bb8f,656019aa056edf3065f755a4,0,100,100,160,1,fivesix,,,,,,,,,,,,,,,,,,,,,,,,,,,,,,,,,,,,,,,,,,,,,,,,,,,,,,,,,,,,,,,,,,,,,,,,,,,,,,,,,,,,,
59a82dab800873000169ed58,2023-11-23_22h36.24.050,kallum_motion_pilot,2023.1.2,Win32,60.02040694,59a82dab800873000169ed58,656018846682f3df8008bb8f,656019aa056edf3065f755a4,0,101,101,10,1,twoone,,,,,,,,,,,,,,,,,,,,,,,,,,,,,,,,,,,,,,,,,,,,,,,,,,,,,,,,,,,,,,,,,,,,,,,,,,,,,,,,,,,,,
59a82dab800873000169ed58,2023-11-23_22h36.24.050,kallum_motion_pilot,2023.1.2,Win32,60.02040694,59a82dab800873000169ed58,656018846682f3df8008bb8f,656019aa056edf3065f755a4,0,102,102,56,1,onetwo,,,,,,,,,,,,,,,,,,,,,,,,,,,,,,,,,,,,,,,,,,,,,,,,,,,,,,,,,,,,,,,,,,,,,,,,,,,,,,,,,,,,,
59a82dab800873000169ed58,2023-11-23_22h36.24.050,kallum_motion_pilot,2023.1.2,Win32,60.02040694,59a82dab800873000169ed58,656018846682f3df8008bb8f,656019aa056edf3065f755a4,0,103,103,28,1,threeone,,,,,,,,,,,,,,,,,,,,,,,,,,,,,,,,,,,,,,,,,,,,,,,,,,,,,,,,,,,,,,,,,,,,,,,,,,,,,,,,,,,,,
59a82dab800873000169ed58,2023-11-23_22h36.24.050,kallum_motion_pilot,2023.1.2,Win32,60.02040694,59a82dab800873000169ed58,656018846682f3df8008bb8f,656019aa056edf3065f755a4,0,104,104,44,1,threeone,,,,,,,,,,,,,,,,,,,,,,,,,,,,,,,,,,,,,,,,,,,,,,,,,,,,,,,,,,,,,,,,,,,,,,,,,,,,,,,,,,,,,
59a82dab800873000169ed58,2023-11-23_22h36.24.050,kallum_motion_pilot,2023.1.2,Win32,60.02040694,59a82dab800873000169ed58,656018846682f3df8008bb8f,656019aa056edf3065f755a4,0,105,105,129,1,fiveseven,,,,,,,,,,,,,,,,,,,,,,,,,,,,,,,,,,,,,,,,,,,,,,,,,,,,,,,,,,,,,,,,,,,,,,,,,,,,,,,,,,,,,
59a82dab800873000169ed58,2023-11-23_22h36.24.050,kallum_motion_pilot,2023.1.2,Win32,60.02040694,59a82dab800873000169ed58,656018846682f3df8008bb8f,656019aa056edf3065f755a4,0,106,106,104,1,fivesix,,,,,,,,,,,,,,,,,,,,,,,,,,,,,,,,,,,,,,,,,,,,,,,,,,,,,,,,,,,,,,,,,,,,,,,,,,,,,,,,,,,,,
59a82dab800873000169ed58,2023-11-23_22h36.24.050,kallum_motion_pilot,2023.1.2,Win32,60.02040694,59a82dab800873000169ed58,656018846682f3df8008bb8f,656019aa056edf3065f755a4,0,107,107,54,1,fourtwo,,,,,,,,,,,,,,,,,,,,,,,,,,,,,,,,,,,,,,,,,,,,,,,,,,,,,,,,,,,,,,,,,,,,,,,,,,,,,,,,,,,,,
59a82dab800873000169ed58,2023-11-23_22h36.24.050,kallum_motion_pilot,2023.1.2,Win32,60.02040694,59a82dab800873000169ed58,656018846682f3df8008bb8f,656019aa056edf3065f755a4,0,108,108,159,1,eightseven,,,,,,,,,,,,,,,,,,,,,,,,,,,,,,,,,,,,,,,,,,,,,,,,,,,,,,,,,,,,,,,,,,,,,,,,,,,,,,,,,,,,,
59a82dab800873000169ed58,2023-11-23_22h36.24.050,kallum_motion_pilot,2023.1.2,Win32,60.02040694,59a82dab800873000169ed58,656018846682f3df8008bb8f,656019aa056edf3065f755a4,0,109,109,90,1,sixfive,,,,,,,,,,,,,,,,,,,,,,,,,,,,,,,,,,,,,,,,,,,,,,,,,,,,,,,,,,,,,,,,,,,,,,,,,,,,,,,,,,,,,
59a82dab800873000169ed58,2023-11-23_22h36.24.050,kallum_motion_pilot,2023.1.2,Win32,60.02040694,59a82dab800873000169ed58,656018846682f3df8008bb8f,656019aa056edf3065f755a4,0,110,110,64,1,onetwo,,,,,,,,,,,,,,,,,,,,,,,,,,,,,,,,,,,,,,,,,,,,,,,,,,,,,,,,,,,,,,,,,,,,,,,,,,,,,,,,,,,,,
59a82dab800873000169ed58,2023-11-23_22h36.24.050,kallum_motion_pilot,2023.1.2,Win32,60.02040694,59a82dab800873000169ed58,656018846682f3df8008bb8f,656019aa056edf3065f755a4,0,111,111,62,1,fourtwo,,,,,,,,,,,,,,,,,,,,,,,,,,,,,,,,,,,,,,,,,,,,,,,,,,,,,,,,,,,,,,,,,,,,,,,,,,,,,,,,,,,,,
59a82dab800873000169ed58,2023-11-23_22h36.24.050,kallum_motion_pilot,2023.1.2,Win32,60.02040694,59a82dab800873000169ed58,656018846682f3df8008bb8f,656019aa056edf3065f755a4,0,112,112,117,1,seveneight,,,,,,,,,,,,,,,,,,,,,,,,,,,,,,,,,,,,,,,,,,,,,,,,,,,,,,,,,,,,,,,,,,,,,,,,,,,,,,,,,,,,,
59a82dab800873000169ed58,2023-11-23_22h36.24.050,kallum_motion_pilot,2023.1.2,Win32,60.02040694,59a82dab800873000169ed58,656018846682f3df8008bb8f,656019aa056edf3065f755a4,0,113,113,18,1,twoone,,,,,,,,,,,,,,,,,,,,,,,,,,,,,,,,,,,,,,,,,,,,,,,,,,,,,,,,,,,,,,,,,,,,,,,,,,,,,,,,,,,,,
59a82dab800873000169ed58,2023-11-23_22h36.24.050,kallum_motion_pilot,2023.1.2,Win32,60.02040694,59a82dab800873000169ed58,656018846682f3df8008bb8f,656019aa056edf3065f755a4,0,114,114,97,1,fiveseven,,,,,,,,,,,,,,,,,,,,,,,,,,,,,,,,,,,,,,,,,,,,,,,,,,,,,,,,,,,,,,,,,,,,,,,,,,,,,,,,,,,,,
59a82dab800873000169ed58,2023-11-23_22h36.24.050,kallum_motion_pilot,2023.1.2,Win32,60.02040694,59a82dab800873000169ed58,656018846682f3df8008bb8f,656019aa056edf3065f755a4,0,115,115,143,1,eightseven,,,,,,,,,,,,,,,,,,,,,,,,,,,,,,,,,,,,,,,,,,,,,,,,,,,,,,,,,,,,,,,,,,,,,,,,,,,,,,,,,,,,,
59a82dab800873000169ed58,2023-11-23_22h36.24.050,kallum_motion_pilot,2023.1.2,Win32,60.02040694,59a82dab800873000169ed58,656018846682f3df8008bb8f,656019aa056edf3065f755a4,0,116,116,76,1,threeone,,,,,,,,,,,,,,,,,,,,,,,,,,,,,,,,,,,,,,,,,,,,,,,,,,,,,,,,,,,,,,,,,,,,,,,,,,,,,,,,,,,,,
59a82dab800873000169ed58,2023-11-23_22h36.24.050,kallum_motion_pilot,2023.1.2,Win32,60.02040694,59a82dab800873000169ed58,656018846682f3df8008bb8f,656019aa056edf3065f755a4,0,117,117,27,1,twofour,,,,,,,,,,,,,,,,,,,,,,,,,,,,,,,,,,,,,,,,,,,,,,,,,,,,,,,,,,,,,,,,,,,,,,,,,,,,,,,,,,,,,
59a82dab800873000169ed58,2023-11-23_22h36.24.050,kallum_motion_pilot,2023.1.2,Win32,60.02040694,59a82dab800873000169ed58,656018846682f3df8008bb8f,656019aa056edf3065f755a4,0,118,118,69,1,threefour,,,,,,,,,,,,,,,,,,,,,,,,,,,,,,,,,,,,,,,,,,,,,,,,,,,,,,,,,,,,,,,,,,,,,,,,,,,,,,,,,,,,,
59a82dab800873000169ed58,2023-11-23_22h36.24.050,kallum_motion_pilot,2023.1.2,Win32,60.02040694,59a82dab800873000169ed58,656018846682f3df8008bb8f,656019aa056edf3065f755a4,0,119,119,31,1,fourthree,,,,,,,,,,,,,,,,,,,,,,,,,,,,,,,,,,,,,,,,,,,,,,,,,,,,,,,,,,,,,,,,,,,,,,,,,,,,,,,,,,,,,
59a82dab800873000169ed58,2023-11-23_22h36.24.050,kallum_motion_pilot,2023.1.2,Win32,60.02040694,59a82dab800873000169ed58,656018846682f3df8008bb8f,656019aa056edf3065f755a4,0,120,120,49,1,onethree,,,,,,,,,,,,,,,,,,,,,,,,,,,,,,,,,,,,,,,,,,,,,,,,,,,,,,,,,,,,,,,,,,,,,,,,,,,,,,,,,,,,,
59a82dab800873000169ed58,2023-11-23_22h36.24.050,kallum_motion_pilot,2023.1.2,Win32,60.02040694,59a82dab800873000169ed58,656018846682f3df8008bb8f,656019aa056edf3065f755a4,0,121,121,16,1,onetwo,,,,,,,,,,,,,,,,,,,,,,,,,,,,,,,,,,,,,,,,,,,,,,,,,,,,,,,,,,,,,,,,,,,,,,,,,,,,,,,,,,,,,
59a82dab800873000169ed58,2023-11-23_22h36.24.050,kallum_motion_pilot,2023.1.2,Win32,60.02040694,59a82dab800873000169ed58,656018846682f3df8008bb8f,656019aa056edf3065f755a4,0,122,122,63,1,fourthree,,,,,,,,,,,,,,,,,,,,,,,,,,,,,,,,,,,,,,,,,,,,,,,,,,,,,,,,,,,,,,,,,,,,,,,,,,,,,,,,,,,,,
59a82dab800873000169ed58,2023-11-23_22h36.24.050,kallum_motion_pilot,2023.1.2,Win32,60.02040694,59a82dab800873000169ed58,656018846682f3df8008bb8f,656019aa056edf3065f755a4,0,123,123,112,1,fivesix,,,,,,,,,,,,,,,,,,,,,,,,,,,,,,,,,,,,,,,,,,,,,,,,,,,,,,,,,,,,,,,,,,,,,,,,,,,,,,,,,,,,,
59a82dab800873000169ed58,2023-11-23_22h36.24.050,kallum_motion_pilot,2023.1.2,Win32,60.02040694,59a82dab800873000169ed58,656018846682f3df8008bb8f,656019aa056edf3065f755a4,0,124,124,53,1,threefour,,,,,,,,,,,,,,,,,,,,,,,,,,,,,,,,,,,,,,,,,,,,,,,,,,,,,,,,,,,,,,,,,,,,,,,,,,,,,,,,,,,,,
59a82dab800873000169ed58,2023-11-23_22h36.24.050,kallum_motion_pilot,2023.1.2,Win32,60.02040694,59a82dab800873000169ed58,656018846682f3df8008bb8f,656019aa056edf3065f755a4,0,125,125,156,1,sevenfive,,,,,,,,,,,,,,,,,,,,,,,,,,,,,,,,,,,,,,,,,,,,,,,,,,,,,,,,,,,,,,,,,,,,,,,,,,,,,,,,,,,,,
59a82dab800873000169ed58,2023-11-23_22h36.24.050,kallum_motion_pilot,2023.1.2,Win32,60.02040694,59a82dab800873000169ed58,656018846682f3df8008bb8f,656019aa056edf3065f755a4,0,126,126,152,1,fivesix,,,,,,,,,,,,,,,,,,,,,,,,,,,,,,,,,,,,,,,,,,,,,,,,,,,,,,,,,,,,,,,,,,,,,,,,,,,,,,,,,,,,,
59a82dab800873000169ed58,2023-11-23_22h36.24.050,kallum_motion_pilot,2023.1.2,Win32,60.02040694,59a82dab800873000169ed58,656018846682f3df8008bb8f,656019aa056edf3065f755a4,0,127,127,122,1,sixfive,,,,,,,,,,,,,,,,,,,,,,,,,,,,,,,,,,,,,,,,,,,,,,,,,,,,,,,,,,,,,,,,,,,,,,,,,,,,,,,,,,,,,
59a82dab800873000169ed58,2023-11-23_22h36.24.050,kallum_motion_pilot,2023.1.2,Win32,60.02040694,59a82dab800873000169ed58,656018846682f3df8008bb8f,656019aa056edf3065f755a4,0,128,128,130,1,sixfive,,,,,,,,,,,,,,,,,,,,,,,,,,,,,,,,,,,,,,,,,,,,,,,,,,,,,,,,,,,,,,,,,,,,,,,,,,,,,,,,,,,,,
59a82dab800873000169ed58,2023-11-23_22h36.24.050,kallum_motion_pilot,2023.1.2,Win32,60.02040694,59a82dab800873000169ed58,656018846682f3df8008bb8f,656019aa056edf3065f755a4,0,129,129,58,1,twoone,,,,,,,,,,,,,,,,,,,,,,,,,,,,,,,,,,,,,,,,,,,,,,,,,,,,,,,,,,,,,,,,,,,,,,,,,,,,,,,,,,,,,
59a82dab800873000169ed58,2023-11-23_22h36.24.050,kallum_motion_pilot,2023.1.2,Win32,60.02040694,59a82dab800873000169ed58,656018846682f3df8008bb8f,656019aa056edf3065f755a4,0,130,130,47,1,fourthree,,,,,,,,,,,,,,,,,,,,,,,,,,,,,,,,,,,,,,,,,,,,,,,,,,,,,,,,,,,,,,,,,,,,,,,,,,,,,,,,,,,,,
59a82dab800873000169ed58,2023-11-23_22h36.24.050,kallum_motion_pilot,2023.1.2,Win32,60.02040694,59a82dab800873000169ed58,656018846682f3df8008bb8f,656019aa056edf3065f755a4,0,131,131,4,1,threeone,,,,,,,,,,,,,,,,,,,,,,,,,,,,,,,,,,,,,,,,,,,,,,,,,,,,,,,,,,,,,,,,,,,,,,,,,,,,,,,,,,,,,
59a82dab800873000169ed58,2023-11-23_22h36.24.050,kallum_motion_pilot,2023.1.2,Win32,60.02040694,59a82dab800873000169ed58,656018846682f3df8008bb8f,656019aa056edf3065f755a4,0,132,132,151,1,eightseven,,,,,,,,,,,,,,,,,,,,,,,,,,,,,,,,,,,,,,,,,,,,,,,,,,,,,,,,,,,,,,,,,,,,,,,,,,,,,,,,,,,,,
59a82dab800873000169ed58,2023-11-23_22h36.24.050,kallum_motion_pilot,2023.1.2,Win32,60.02040694,59a82dab800873000169ed58,656018846682f3df8008bb8f,656019aa056edf3065f755a4,0,133,133,85,1,seveneight,,,,,,,,,,,,,,,,,,,,,,,,,,,,,,,,,,,,,,,,,,,,,,,,,,,,,,,,,,,,,,,,,,,,,,,,,,,,,,,,,,,,,
59a82dab800873000169ed58,2023-11-23_22h36.24.050,kallum_motion_pilot,2023.1.2,Win32,60.02040694,59a82dab800873000169ed58,656018846682f3df8008bb8f,656019aa056edf3065f755a4,0,134,134,113,1,fiveseven,,,,,,,,,,,,,,,,,,,,,,,,,,,,,,,,,,,,,,,,,,,,,,,,,,,,,,,,,,,,,,,,,,,,,,,,,,,,,,,,,,,,,
59a82dab800873000169ed58,2023-11-23_22h36.24.050,kallum_motion_pilot,2023.1.2,Win32,60.02040694,59a82dab800873000169ed58,656018846682f3df8008bb8f,656019aa056edf3065f755a4,0,135,135,71,1,fourthree,,,,,,,,,,,,,,,,,,,,,,,,,,,,,,,,,,,,,,,,,,,,,,,,,,,,,,,,,,,,,,,,,,,,,,,,,,,,,,,,,,,,,
59a82dab800873000169ed58,2023-11-23_22h36.24.050,kallum_motion_pilot,2023.1.2,Win32,60.02040694,59a82dab800873000169ed58,656018846682f3df8008bb8f,656019aa056edf3065f755a4,0,136,136,91,1,sixeight,,,,,,,,,,,,,,,,,,,,,,,,,,,,,,,,,,,,,,,,,,,,,,,,,,,,,,,,,,,,,,,,,,,,,,,,,,,,,,,,,,,,,
59a82dab800873000169ed58,2023-11-23_22h36.24.050,kallum_motion_pilot,2023.1.2,Win32,60.02040694,59a82dab800873000169ed58,656018846682f3df8008bb8f,656019aa056edf3065f755a4,0,137,137,39,1,fourthree,,,,,,,,,,,,,,,,,,,,,,,,,,,,,,,,,,,,,,,,,,,,,,,,,,,,,,,,,,,,,,,,,,,,,,,,,,,,,,,,,,,,,
59a82dab800873000169ed58,2023-11-23_22h36.24.050,kallum_motion_pilot,2023.1.2,Win32,60.02040694,59a82dab800873000169ed58,656018846682f3df8008bb8f,656019aa056edf3065f755a4,0,138,138,30,1,fourtwo,,,,,,,,,,,,,,,,,,,,,,,,,,,,,,,,,,,,,,,,,,,,,,,,,,,,,,,,,,,,,,,,,,,,,,,,,,,,,,,,,,,,,
59a82dab800873000169ed58,2023-11-23_22h36.24.050,kallum_motion_pilot,2023.1.2,Win32,60.02040694,59a82dab800873000169ed58,656018846682f3df8008bb8f,656019aa056edf3065f755a4,0,139,139,121,1,fiveseven,,,,,,,,,,,,,,,,,,,,,,,,,,,,,,,,,,,,,,,,,,,,,,,,,,,,,,,,,,,,,,,,,,,,,,,,,,,,,,,,,,,,,
59a82dab800873000169ed58,2023-11-23_22h36.24.050,kallum_motion_pilot,2023.1.2,Win32,60.02040694,59a82dab800873000169ed58,656018846682f3df8008bb8f,656019aa056edf3065f755a4,0,140,140,119,1,eightseven,,,,,,,,,,,,,,,,,,,,,,,,,,,,,,,,,,,,,,,,,,,,,,,,,,,,,,,,,,,,,,,,,,,,,,,,,,,,,,,,,,,,,
59a82dab800873000169ed58,2023-11-23_22h36.24.050,kallum_motion_pilot,2023.1.2,Win32,60.02040694,59a82dab800873000169ed58,656018846682f3df8008bb8f,656019aa056edf3065f755a4,0,141,141,36,1,threeone,,,,,,,,,,,,,,,,,,,,,,,,,,,,,,,,,,,,,,,,,,,,,,,,,,,,,,,,,,,,,,,,,,,,,,,,,,,,,,,,,,,,,
59a82dab800873000169ed58,2023-11-23_22h36.24.050,kallum_motion_pilot,2023.1.2,Win32,60.02040694,59a82dab800873000169ed58,656018846682f3df8008bb8f,656019aa056edf3065f755a4,0,142,142,102,1,eightsix,,,,,,,,,,,,,,,,,,,,,,,,,,,,,,,,,,,,,,,,,,,,,,,,,,,,,,,,,,,,,,,,,,,,,,,,,,,,,,,,,,,,,
59a82dab800873000169ed58,2023-11-23_22h36.24.050,kallum_motion_pilot,2023.1.2,Win32,60.02040694,59a82dab800873000169ed58,656018846682f3df8008bb8f,656019aa056edf3065f755a4,0,143,143,92,1,sevenfive,,,,,,,,,,,,,,,,,,,,,,,,,,,,,,,,,,,,,,,,,,,,,,,,,,,,,,,,,,,,,,,,,,,,,,,,,,,,,,,,,,,,,
59a82dab800873000169ed58,2023-11-23_22h36.24.050,kallum_motion_pilot,2023.1.2,Win32,60.02040694,59a82dab800873000169ed58,656018846682f3df8008bb8f,656019aa056edf3065f755a4,0,144,144,20,1,threeone,,,,,,,,,,,,,,,,,,,,,,,,,,,,,,,,,,,,,,,,,,,,,,,,,,,,,,,,,,,,,,,,,,,,,,,,,,,,,,,,,,,,,
59a82dab800873000169ed58,2023-11-23_22h36.24.050,kallum_motion_pilot,2023.1.2,Win32,60.02040694,59a82dab800873000169ed58,656018846682f3df8008bb8f,656019aa056edf3065f755a4,0,145,145,82,1,sixfive,,,,,,,,,,,,,,,,,,,,,,,,,,,,,,,,,,,,,,,,,,,,,,,,,,,,,,,,,,,,,,,,,,,,,,,,,,,,,,,,,,,,,
59a82dab800873000169ed58,2023-11-23_22h36.24.050,kallum_motion_pilot,2023.1.2,Win32,60.02040694,59a82dab800873000169ed58,656018846682f3df8008bb8f,656019aa056edf3065f755a4,0,146,146,157,1,seveneight,,,,,,,,,,,,,,,,,,,,,,,,,,,,,,,,,,,,,,,,,,,,,,,,,,,,,,,,,,,,,,,,,,,,,,,,,,,,,,,,,,,,,
59a82dab800873000169ed58,2023-11-23_22h36.24.050,kallum_motion_pilot,2023.1.2,Win32,60.02040694,59a82dab800873000169ed58,656018846682f3df8008bb8f,656019aa056edf3065f755a4,0,147,147,42,1,twoone,,,,,,,,,,,,,,,,,,,,,,,,,,,,,,,,,,,,,,,,,,,,,,,,,,,,,,,,,,,,,,,,,,,,,,,,,,,,,,,,,,,,,
59a82dab800873000169ed58,2023-11-23_22h36.24.050,kallum_motion_pilot,2023.1.2,Win32,60.02040694,59a82dab800873000169ed58,656018846682f3df8008bb8f,656019aa056edf3065f755a4,0,148,148,37,1,threefour,,,,,,,,,,,,,,,,,,,,,,,,,,,,,,,,,,,,,,,,,,,,,,,,,,,,,,,,,,,,,,,,,,,,,,,,,,,,,,,,,,,,,
59a82dab800873000169ed58,2023-11-23_22h36.24.050,kallum_motion_pilot,2023.1.2,Win32,60.02040694,59a82dab800873000169ed58,656018846682f3df8008bb8f,656019aa056edf3065f755a4,0,149,149,99,1,sixeight,,,,,,,,,,,,,,,,,,,,,,,,,,,,,,,,,,,,,,,,,,,,,,,,,,,,,,,,,,,,,,,,,,,,,,,,,,,,,,,,,,,,,
59a82dab800873000169ed58,2023-11-23_22h36.24.050,kallum_motion_pilot,2023.1.2,Win32,60.02040694,59a82dab800873000169ed58,656018846682f3df8008bb8f,656019aa056edf3065f755a4,0,150,150,48,1,onetwo,,,,,,,,,,,,,,,,,,,,,,,,,,,,,,,,,,,,,,,,,,,,,,,,,,,,,,,,,,,,,,,,,,,,,,,,,,,,,,,,,,,,,
59a82dab800873000169ed58,2023-11-23_22h36.24.050,kallum_motion_pilot,2023.1.2,Win32,60.02040694,59a82dab800873000169ed58,656018846682f3df8008bb8f,656019aa056edf3065f755a4,0,151,151,95,1,eightseven,,,,,,,,,,,,,,,,,,,,,,,,,,,,,,,,,,,,,,,,,,,,,,,,,,,,,,,,,,,,,,,,,,,,,,,,,,,,,,,,,,,,,
59a82dab800873000169ed58,2023-11-23_22h36.24.050,kallum_motion_pilot,2023.1.2,Win32,60.02040694,59a82dab800873000169ed58,656018846682f3df8008bb8f,656019aa056edf3065f755a4,0,152,152,2,1,twoone,,,,,,,,,,,,,,,,,,,,,,,,,,,,,,,,,,,,,,,,,,,,,,,,,,,,,,,,,,,,,,,,,,,,,,,,,,,,,,,,,,,,,
59a82dab800873000169ed58,2023-11-23_22h36.24.050,kallum_motion_pilot,2023.1.2,Win32,60.02040694,59a82dab800873000169ed58,656018846682f3df8008bb8f,656019aa056edf3065f755a4,0,153,153,15,1,fourthree,,,,,,,,,,,,,,,,,,,,,,,,,,,,,,,,,,,,,,,,,,,,,,,,,,,,,,,,,,,,,,,,,,,,,,,,,,,,,,,,,,,,,
59a82dab800873000169ed58,2023-11-23_22h36.24.050,kallum_motion_pilot,2023.1.2,Win32,60.02040694,59a82dab800873000169ed58,656018846682f3df8008bb8f,656019aa056edf3065f755a4,0,154,154,68,1,threeone,,,,,,,,,,,,,,,,,,,,,,,,,,,,,,,,,,,,,,,,,,,,,,,,,,,,,,,,,,,,,,,,,,,,,,,,,,,,,,,,,,,,,
59a82dab800873000169ed58,2023-11-23_22h36.24.050,kallum_motion_pilot,2023.1.2,Win32,60.02040694,59a82dab800873000169ed58,656018846682f3df8008bb8f,656019aa056edf3065f755a4,0,155,155,109,1,seveneight,,,,,,,,,,,,,,,,,,,,,,,,,,,,,,,,,,,,,,,,,,,,,,,,,,,,,,,,,,,,,,,,,,,,,,,,,,,,,,,,,,,,,
59a82dab800873000169ed58,2023-11-23_22h36.24.050,kallum_motion_pilot,2023.1.2,Win32,60.02040694,59a82dab800873000169ed58,656018846682f3df8008bb8f,656019aa056edf3065f755a4,0,156,156,147,1,sixeight,,,,,,,,,,,,,,,,,,,,,,,,,,,,,,,,,,,,,,,,,,,,,,,,,,,,,,,,,,,,,,,,,,,,,,,,,,,,,,,,,,,,,
59a82dab800873000169ed58,2023-11-23_22h36.24.050,kallum_motion_pilot,2023.1.2,Win32,60.02040694,59a82dab800873000169ed58,656018846682f3df8008bb8f,656019aa056edf3065f755a4,0,157,157,61,1,threefour,,,,,,,,,,,,,,,,,,,,,,,,,,,,,,,,,,,,,,,,,,,,,,,,,,,,,,,,,,,,,,,,,,,,,,,,,,,,,,,,,,,,,
59a82dab800873000169ed58,2023-11-23_22h36.24.050,kallum_motion_pilot,2023.1.2,Win32,60.02040694,59a82dab800873000169ed58,656018846682f3df8008bb8f,656019aa056edf3065f755a4,0,158,158,11,1,twofour,,,,,,,,,,,,,,,,,,,,,,,,,,,,,,,,,,,,,,,,,,,,,,,,,,,,,,,,,,,,,,,,,,,,,,,,,,,,,,,,,,,,,
59a82dab800873000169ed58,2023-11-23_22h36.24.050,kallum_motion_pilot,2023.1.2,Win32,60.02040694,59a82dab800873000169ed58,656018846682f3df8008bb8f,656019aa056edf3065f755a4,0,159,159,107,1,sixeight,,,,,,,,,,,,,,,,,,,,,,,,,,,,,,,,,,,,,,,,,,,,,,,,,,,,,,,,,,,,,,,,,,,,,,,,,,,,,,,,,,,,,
59a82dab800873000169ed58,2023-11-23_22h36.24.050,kallum_motion_pilot,2023.1.2,Win32,60.02040694,59a82dab800873000169ed58,656018846682f3df8008bb8f,656019aa056edf3065f755a4,0,160,160,138,1,sixfive,,,,,,,,,,,,,,,,,,,,,,,,,,,,,,,,,,,,,,,,,,,,,,,,,,,,,,,,,,,,,,,,,,,,,,,,,,,,,,,,,,,,,
59a82dab800873000169ed58,2023-11-23_22h36.24.050,kallum_motion_pilot,2023.1.2,Win32,60.02040694,59a82dab800873000169ed58,656018846682f3df8008bb8f,656019aa056edf3065f755a4,0,161,161,93,1,seveneight,,,,,,,,,,,,,,,,,,,,,,,,,,,,,,,,,,,,,,,,,,,,,,,,,,,,,,,,,,,,,,,,,,,,,,,,,,,,,,,,,,,,,
59a82dab800873000169ed58,2023-11-23_22h36.24.050,kallum_motion_pilot,2023.1.2,Win32,60.02040694,59a82dab800873000169ed58,656018846682f3df8008bb8f,656019aa056edf3065f755a4,1,0,162,2,1,twoone,,,,,,,,,,,,,,,,,,,,,,,,,,,,,,,,,,,,,,,,,,,,,,,,,,,,,,,,,,,,,,,,,,,,,,,,,,,,,,,,,,,,,
59a82dab800873000169ed58,2023-11-23_22h36.24.050,kallum_motion_pilot,2023.1.2,Win32,60.02040694,59a82dab800873000169ed58,656018846682f3df8008bb8f,656019aa056edf3065f755a4,1,1,163,77,1,threefour,,,,,,,,,,,,,,,,,,,,,,,,,,,,,,,,,,,,,,,,,,,,,,,,,,,,,,,,,,,,,,,,,,,,,,,,,,,,,,,,,,,,,
59a82dab800873000169ed58,2023-11-23_22h36.24.050,kallum_motion_pilot,2023.1.2,Win32,60.02040694,59a82dab800873000169ed58,656018846682f3df8008bb8f,656019aa056edf3065f755a4,1,2,164,143,1,eightseven,,,,,,,,,,,,,,,,,,,,,,,,,,,,,,,,,,,,,,,,,,,,,,,,,,,,,,,,,,,,,,,,,,,,,,,,,,,,,,,,,,,,,
59a82dab800873000169ed58,2023-11-23_22h36.24.050,kallum_motion_pilot,2023.1.2,Win32,60.02040694,59a82dab800873000169ed58,656018846682f3df8008bb8f,656019aa056edf3065f755a4,1,3,165,100,1,sevenfive,,,,,,,,,,,,,,,,,,,,,,,,,,,,,,,,,,,,,,,,,,,,,,,,,,,,,,,,,,,,,,,,,,,,,,,,,,,,,,,,,,,,,
59a82dab800873000169ed58,2023-11-23_22h36.24.050,kallum_motion_pilot,2023.1.2,Win32,60.02040694,59a82dab800873000169ed58,656018846682f3df8008bb8f,656019aa056edf3065f755a4,1,4,166,52,1,threeone,,,,,,,,,,,,,,,,,,,,,,,,,,,,,,,,,,,,,,,,,,,,,,,,,,,,,,,,,,,,,,,,,,,,,,,,,,,,,,,,,,,,,
59a82dab800873000169ed58,2023-11-23_22h36.24.050,kallum_motion_pilot,2023.1.2,Win32,60.02040694,59a82dab800873000169ed58,656018846682f3df8008bb8f,656019aa056edf3065f755a4,1,5,167,107,1,sixeight,,,,,,,,,,,,,,,,,,,,,,,,,,,,,,,,,,,,,,,,,,,,,,,,,,,,,,,,,,,,,,,,,,,,,,,,,,,,,,,,,,,,,
59a82dab800873000169ed58,2023-11-23_22h36.24.050,kallum_motion_pilot,2023.1.2,Win32,60.02040694,59a82dab800873000169ed58,656018846682f3df8008bb8f,656019aa056edf3065f755a4,1,6,168,35,1,twofour,,,,,,,,,,,,,,,,,,,,,,,,,,,,,,,,,,,,,,,,,,,,,,,,,,,,,,,,,,,,,,,,,,,,,,,,,,,,,,,,,,,,,
59a82dab800873000169ed58,2023-11-23_22h36.24.050,kallum_motion_pilot,2023.1.2,Win32,60.02040694,59a82dab800873000169ed58,656018846682f3df8008bb8f,656019aa056edf3065f755a4,1,7,169,82,1,sixfive,,,,,,,,,,,,,,,,,,,,,,,,,,,,,,,,,,,,,,,,,,,,,,,,,,,,,,,,,,,,,,,,,,,,,,,,,,,,,,,,,,,,,
59a82dab800873000169ed58,2023-11-23_22h36.24.050,kallum_motion_pilot,2023.1.2,Win32,60.02040694,59a82dab800873000169ed58,656018846682f3df8008bb8f,656019aa056edf3065f755a4,1,8,170,58,1,twoone,,,,,,,,,,,,,,,,,,,,,,,,,,,,,,,,,,,,,,,,,,,,,,,,,,,,,,,,,,,,,,,,,,,,,,,,,,,,,,,,,,,,,
59a82dab800873000169ed58,2023-11-23_22h36.24.050,kallum_motion_pilot,2023.1.2,Win32,60.02040694,59a82dab800873000169ed58,656018846682f3df8008bb8f,656019aa056edf3065f755a4,1,9,171,49,1,onethree,,,,,,,,,,,,,,,,,,,,,,,,,,,,,,,,,,,,,,,,,,,,,,,,,,,,,,,,,,,,,,,,,,,,,,,,,,,,,,,,,,,,,
59a82dab800873000169ed58,2023-11-23_22h36.24.050,kallum_motion_pilot,2023.1.2,Win32,60.02040694,59a82dab800873000169ed58,656018846682f3df8008bb8f,656019aa056edf3065f755a4,1,10,172,112,1,fivesix,,,,,,,,,,,,,,,,,,,,,,,,,,,,,,,,,,,,,,,,,,,,,,,,,,,,,,,,,,,,,,,,,,,,,,,,,,,,,,,,,,,,,
59a82dab800873000169ed58,2023-11-23_22h36.24.050,kallum_motion_pilot,2023.1.2,Win32,60.02040694,59a82dab800873000169ed58,656018846682f3df8008bb8f,656019aa056edf3065f755a4,1,11,173,125,1,seveneight,,,,,,,,,,,,,,,,,,,,,,,,,,,,,,,,,,,,,,,,,,,,,,,,,,,,,,,,,,,,,,,,,,,,,,,,,,,,,,,,,,,,,
59a82dab800873000169ed58,2023-11-23_22h36.24.050,kallum_motion_pilot,2023.1.2,Win32,60.02040694,59a82dab800873000169ed58,656018846682f3df8008bb8f,656019aa056edf3065f755a4,1,12,174,105,1,fiveseven,,,,,,,,,,,,,,,,,,,,,,,,,,,,,,,,,,,,,,,,,,,,,,,,,,,,,,,,,,,,,,,,,,,,,,,,,,,,,,,,,,,,,
59a82dab800873000169ed58,2023-11-23_22h36.24.050,kallum_motion_pilot,2023.1.2,Win32,60.02040694,59a82dab800873000169ed58,656018846682f3df8008bb8f,656019aa056edf3065f755a4,1,13,175,50,1,twoone,,,,,,,,,,,,,,,,,,,,,,,,,,,,,,,,,,,,,,,,,,,,,,,,,,,,,,,,,,,,,,,,,,,,,,,,,,,,,,,,,,,,,
59a82dab800873000169ed58,2023-11-23_22h36.24.050,kallum_motion_pilot,2023.1.2,Win32,60.02040694,59a82dab800873000169ed58,656018846682f3df8008bb8f,656019aa056edf3065f755a4,1,14,176,158,1,eightsix,,,,,,,,,,,,,,,,,,,,,,,,,,,,,,,,,,,,,,,,,,,,,,,,,,,,,,,,,,,,,,,,,,,,,,,,,,,,,,,,,,,,,
59a82dab800873000169ed58,2023-11-23_22h36.24.050,kallum_motion_pilot,2023.1.2,Win32,60.02040694,59a82dab800873000169ed58,656018846682f3df8008bb8f,656019aa056edf3065f755a4,1,15,177,119,1,eightseven,,,,,,,,,,,,,,,,,,,,,,,,,,,,,,,,,,,,,,,,,,,,,,,,,,,,,,,,,,,,,,,,,,,,,,,,,,,,,,,,,,,,,
59a82dab800873000169ed58,2023-11-23_22h36.24.050,kallum_motion_pilot,2023.1.2,Win32,60.02040694,59a82dab800873000169ed58,656018846682f3df8008bb8f,656019aa056edf3065f755a4,1,16,178,159,1,eightseven,,,,,,,,,,,,,,,,,,,,,,,,,,,,,,,,,,,,,,,,,,,,,,,,,,,,,,,,,,,,,,,,,,,,,,,,,,,,,,,,,,,,,
59a82dab800873000169ed58,2023-11-23_22h36.24.050,kallum_motion_pilot,2023.1.2,Win32,60.02040694,59a82dab800873000169ed58,656018846682f3df8008bb8f,656019aa056edf3065f755a4,1,17,179,44,1,threeone,,,,,,,,,,,,,,,,,,,,,,,,,,,,,,,,,,,,,,,,,,,,,,,,,,,,,,,,,,,,,,,,,,,,,,,,,,,,,,,,,,,,,
59a82dab800873000169ed58,2023-11-23_22h36.24.050,kallum_motion_pilot,2023.1.2,Win32,60.02040694,59a82dab800873000169ed58,656018846682f3df8008bb8f,656019aa056edf3065f755a4,1,18,180,88,1,fivesix,,,,,,,,,,,,,,,,,,,,,,,,,,,,,,,,,,,,,,,,,,,,,,,,,,,,,,,,,,,,,,,,,,,,,,,,,,,,,,,,,,,,,
59a82dab800873000169ed58,2023-11-23_22h36.24.050,kallum_motion_pilot,2023.1.2,Win32,60.02040694,59a82dab800873000169ed58,656018846682f3df8008bb8f,656019aa056edf3065f755a4,1,19,181,24,1,onetwo,,,,,,,,,,,,,,,,,,,,,,,,,,,,,,,,,,,,,,,,,,,,,,,,,,,,,,,,,,,,,,,,,,,,,,,,,,,,,,,,,,,,,
59a82dab800873000169ed58,2023-11-23_22h36.24.050,kallum_motion_pilot,2023.1.2,Win32,60.02040694,59a82dab800873000169ed58,656018846682f3df8008bb8f,656019aa056edf3065f755a4,1,20,182,161,1,fiveseven,,,,,,,,,,,,,,,,,,,,,,,,,,,,,,,,,,,,,,,,,,,,,,,,,,,,,,,,,,,,,,,,,,,,,,,,,,,,,,,,,,,,,
59a82dab800873000169ed58,2023-11-23_22h36.24.050,kallum_motion_pilot,2023.1.2,Win32,60.02040694,59a82dab800873000169ed58,656018846682f3df8008bb8f,656019aa056edf3065f755a4,1,21,183,130,1,sixfive,,,,,,,,,,,,,,,,,,,,,,,,,,,,,,,,,,,,,,,,,,,,,,,,,,,,,,,,,,,,,,,,,,,,,,,,,,,,,,,,,,,,,
59a82dab800873000169ed58,2023-11-23_22h36.24.050,kallum_motion_pilot,2023.1.2,Win32,60.02040694,59a82dab800873000169ed58,656018846682f3df8008bb8f,656019aa056edf3065f755a4,1,22,184,113,1,fiveseven,,,,,,,,,,,,,,,,,,,,,,,,,,,,,,,,,,,,,,,,,,,,,,,,,,,,,,,,,,,,,,,,,,,,,,,,,,,,,,,,,,,,,
59a82dab800873000169ed58,2023-11-23_22h36.24.050,kallum_motion_pilot,2023.1.2,Win32,60.02040694,59a82dab800873000169ed58,656018846682f3df8008bb8f,656019aa056edf3065f755a4,1,23,185,97,1,fiveseven,,,,,,,,,,,,,,,,,,,,,,,,,,,,,,,,,,,,,,,,,,,,,,,,,,,,,,,,,,,,,,,,,,,,,,,,,,,,,,,,,,,,,
59a82dab800873000169ed58,2023-11-23_22h36.24.050,kallum_motion_pilot,2023.1.2,Win32,60.02040694,59a82dab800873000169ed58,656018846682f3df8008bb8f,656019aa056edf3065f755a4,1,24,186,80,1,fivesix,,,,,,,,,,,,,,,,,,,,,,,,,,,,,,,,,,,,,,,,,,,,,,,,,,,,,,,,,,,,,,,,,,,,,,,,,,,,,,,,,,,,,
59a82dab800873000169ed58,2023-11-23_22h36.24.050,kallum_motion_pilot,2023.1.2,Win32,60.02040694,59a82dab800873000169ed58,656018846682f3df8008bb8f,656019aa056edf3065f755a4,1,25,187,0,1,onetwo,,,,,,,,,,,,,,,,,,,,,,,,,,,,,,,,,,,,,,,,,,,,,,,,,,,,,,,,,,,,,,,,,,,,,,,,,,,,,,,,,,,,,
59a82dab800873000169ed58,2023-11-23_22h36.24.050,kallum_motion_pilot,2023.1.2,Win32,60.02040694,59a82dab800873000169ed58,656018846682f3df8008bb8f,656019aa056edf3065f755a4,1,26,188,151,1,eightseven,,,,,,,,,,,,,,,,,,,,,,,,,,,,,,,,,,,,,,,,,,,,,,,,,,,,,,,,,,,,,,,,,,,,,,,,,,,,,,,,,,,,,
59a82dab800873000169ed58,2023-11-23_22h36.24.050,kallum_motion_pilot,2023.1.2,Win32,60.02040694,59a82dab800873000169ed58,656018846682f3df8008bb8f,656019aa056edf3065f755a4,1,27,189,134,1,eightsix,,,,,,,,,,,,,,,,,,,,,,,,,,,,,,,,,,,,,,,,,,,,,,,,,,,,,,,,,,,,,,,,,,,,,,,,,,,,,,,,,,,,,
59a82dab800873000169ed58,2023-11-23_22h36.24.050,kallum_motion_pilot,2023.1.2,Win32,60.02040694,59a82dab800873000169ed58,656018846682f3df8008bb8f,656019aa056edf3065f755a4,1,28,190,40,1,onetwo,,,,,,,,,,,,,,,,,,,,,,,,,,,,,,,,,,,,,,,,,,,,,,,,,,,,,,,,,,,,,,,,,,,,,,,,,,,,,,,,,,,,,
59a82dab800873000169ed58,2023-11-23_22h36.24.050,kallum_motion_pilot,2023.1.2,Win32,60.02040694,59a82dab800873000169ed58,656018846682f3df8008bb8f,656019aa056edf3065f755a4,1,29,191,9,1,onethree,,,,,,,,,,,,,,,,,,,,,,,,,,,,,,,,,,,,,,,,,,,,,,,,,,,,,,,,,,,,,,,,,,,,,,,,,,,,,,,,,,,,,
59a82dab800873000169ed58,2023-11-23_22h36.24.050,kallum_motion_pilot,2023.1.2,Win32,60.02040694,59a82dab800873000169ed58,656018846682f3df8008bb8f,656019aa056edf3065f755a4,1,30,192,18,1,twoone,,,,,,,,,,,,,,,,,,,,,,,,,,,,,,,,,,,,,,,,,,,,,,,,,,,,,,,,,,,,,,,,,,,,,,,,,,,,,,,,,,,,,
59a82dab800873000169ed58,2023-11-23_22h36.24.050,kallum_motion_pilot,2023.1.2,Win32,60.02040694,59a82dab800873000169ed58,656018846682f3df8008bb8f,656019aa056edf3065f755a4,1,31,193,55,1,fourthree,,,,,,,,,,,,,,,,,,,,,,,,,,,,,,,,,,,,,,,,,,,,,,,,,,,,,,,,,,,,,,,,,,,,,,,,,,,,,,,,,,,,,
59a82dab800873000169ed58,2023-11-23_22h36.24.050,kallum_motion_pilot,2023.1.2,Win32,60.02040694,59a82dab800873000169ed58,656018846682f3df8008bb8f,656019aa056edf3065f755a4,1,32,194,120,1,fivesix,,,,,,,,,,,,,,,,,,,,,,,,,,,,,,,,,,,,,,,,,,,,,,,,,,,,,,,,,,,,,,,,,,,,,,,,,,,,,,,,,,,,,
59a82dab800873000169ed58,2023-11-23_22h36.24.050,kallum_motion_pilot,2023.1.2,Win32,60.02040694,59a82dab800873000169ed58,656018846682f3df8008bb8f,656019aa056edf3065f755a4,1,33,195,51,1,twofour,,,,,,,,,,,,,,,,,,,,,,,,,,,,,,,,,,,,,,,,,,,,,,,,,,,,,,,,,,,,,,,,,,,,,,,,,,,,,,,,,,,,,
59a82dab800873000169ed58,2023-11-23_22h36.24.050,kallum_motion_pilot,2023.1.2,Win32,60.02040694,59a82dab800873000169ed58,656018846682f3df8008bb8f,656019aa056edf3065f755a4,1,34,196,146,1,sixfive,,,,,,,,,,,,,,,,,,,,,,,,,,,,,,,,,,,,,,,,,,,,,,,,,,,,,,,,,,,,,,,,,,,,,,,,,,,,,,,,,,,,,
59a82dab800873000169ed58,2023-11-23_22h36.24.050,kallum_motion_pilot,2023.1.2,Win32,60.02040694,59a82dab800873000169ed58,656018846682f3df8008bb8f,656019aa056edf3065f755a4,1,35,197,98,1,sixfive,,,,,,,,,,,,,,,,,,,,,,,,,,,,,,,,,,,,,,,,,,,,,,,,,,,,,,,,,,,,,,,,,,,,,,,,,,,,,,,,,,,,,
59a82dab800873000169ed58,2023-11-23_22h36.24.050,kallum_motion_pilot,2023.1.2,Win32,60.02040694,59a82dab800873000169ed58,656018846682f3df8008bb8f,656019aa056edf3065f755a4,1,36,198,150,1,eightsix,,,,,,,,,,,,,,,,,,,,,,,,,,,,,,,,,,,,,,,,,,,,,,,,,,,,,,,,,,,,,,,,,,,,,,,,,,,,,,,,,,,,,
59a82dab800873000169ed58,2023-11-23_22h36.24.050,kallum_motion_pilot,2023.1.2,Win32,60.02040694,59a82dab800873000169ed58,656018846682f3df8008bb8f,656019aa056edf3065f755a4,1,37,199,56,1,onetwo,,,,,,,,,,,,,,,,,,,,,,,,,,,,,,,,,,,,,,,,,,,,,,,,,,,,,,,,,,,,,,,,,,,,,,,,,,,,,,,,,,,,,
59a82dab800873000169ed58,2023-11-23_22h36.24.050,kallum_motion_pilot,2023.1.2,Win32,60.02040694,59a82dab800873000169ed58,656018846682f3df8008bb8f,656019aa056edf3065f755a4,1,38,200,14,1,fourtwo,,,,,,,,,,,,,,,,,,,,,,,,,,,,,,,,,,,,,,,,,,,,,,,,,,,,,,,,,,,,,,,,,,,,,,,,,,,,,,,,,,,,,
59a82dab800873000169ed58,2023-11-23_22h36.24.050,kallum_motion_pilot,2023.1.2,Win32,60.02040694,59a82dab800873000169ed58,656018846682f3df8008bb8f,656019aa056edf3065f755a4,1,39,201,64,1,onetwo,,,,,,,,,,,,,,,,,,,,,,,,,,,,,,,,,,,,,,,,,,,,,,,,,,,,,,,,,,,,,,,,,,,,,,,,,,,,,,,,,,,,,
59a82dab800873000169ed58,2023-11-23_22h36.24.050,kallum_motion_pilot,2023.1.2,Win32,60.02040694,59a82dab800873000169ed58,656018846682f3df8008bb8f,656019aa056edf3065f755a4,1,40,202,65,1,onethree,,,,,,,,,,,,,,,,,,,,,,,,,,,,,,,,,,,,,,,,,,,,,,,,,,,,,,,,,,,,,,,,,,,,,,,,,,,,,,,,,,,,,
59a82dab800873000169ed58,2023-11-23_22h36.24.050,kallum_motion_pilot,2023.1.2,Win32,60.02040694,59a82dab800873000169ed58,656018846682f3df8008bb8f,656019aa056edf3065f755a4,1,41,203,114,1,sixfive,,,,,,,,,,,,,,,,,,,,,,,,,,,,,,,,,,,,,,,,,,,,,,,,,,,,,,,,,,,,,,,,,,,,,,,,,,,,,,,,,,,,,
59a82dab800873000169ed58,2023-11-23_22h36.24.050,kallum_motion_pilot,2023.1.2,Win32,60.02040694,59a82dab800873000169ed58,656018846682f3df8008bb8f,656019aa056edf3065f755a4,1,42,204,140,1,sevenfive,,,,,,,,,,,,,,,,,,,,,,,,,,,,,,,,,,,,,,,,,,,,,,,,,,,,,,,,,,,,,,,,,,,,,,,,,,,,,,,,,,,,,
59a82dab800873000169ed58,2023-11-23_22h36.24.050,kallum_motion_pilot,2023.1.2,Win32,60.02040694,59a82dab800873000169ed58,656018846682f3df8008bb8f,656019aa056edf3065f755a4,1,43,205,94,1,eightsix,,,,,,,,,,,,,,,,,,,,,,,,,,,,,,,,,,,,,,,,,,,,,,,,,,,,,,,,,,,,,,,,,,,,,,,,,,,,,,,,,,,,,
59a82dab800873000169ed58,2023-11-23_22h36.24.050,kallum_motion_pilot,2023.1.2,Win32,60.02040694,59a82dab800873000169ed58,656018846682f3df8008bb8f,656019aa056edf3065f755a4,1,44,206,39,1,fourthree,,,,,,,,,,,,,,,,,,,,,,,,,,,,,,,,,,,,,,,,,,,,,,,,,,,,,,,,,,,,,,,,,,,,,,,,,,,,,,,,,,,,,
59a82dab800873000169ed58,2023-11-23_22h36.24.050,kallum_motion_pilot,2023.1.2,Win32,60.02040694,59a82dab800873000169ed58,656018846682f3df8008bb8f,656019aa056edf3065f755a4,1,45,207,43,1,twofour,,,,,,,,,,,,,,,,,,,,,,,,,,,,,,,,,,,,,,,,,,,,,,,,,,,,,,,,,,,,,,,,,,,,,,,,,,,,,,,,,,,,,
59a82dab800873000169ed58,2023-11-23_22h36.24.050,kallum_motion_pilot,2023.1.2,Win32,60.02040694,59a82dab800873000169ed58,656018846682f3df8008bb8f,656019aa056edf3065f755a4,1,46,208,149,1,seveneight,,,,,,,,,,,,,,,,,,,,,,,,,,,,,,,,,,,,,,,,,,,,,,,,,,,,,,,,,,,,,,,,,,,,,,,,,,,,,,,,,,,,,
59a82dab800873000169ed58,2023-11-23_22h36.24.050,kallum_motion_pilot,2023.1.2,Win32,60.02040694,59a82dab800873000169ed58,656018846682f3df8008bb8f,656019aa056edf3065f755a4,1,47,209,47,1,fourthree,,,,,,,,,,,,,,,,,,,,,,,,,,,,,,,,,,,,,,,,,,,,,,,,,,,,,,,,,,,,,,,,,,,,,,,,,,,,,,,,,,,,,
59a82dab800873000169ed58,2023-11-23_22h36.24.050,kallum_motion_pilot,2023.1.2,Win32,60.02040694,59a82dab800873000169ed58,656018846682f3df8008bb8f,656019aa056edf3065f755a4,1,48,210,131,1,sixeight,,,,,,,,,,,,,,,,,,,,,,,,,,,,,,,,,,,,,,,,,,,,,,,,,,,,,,,,,,,,,,,,,,,,,,,,,,,,,,,,,,,,,
59a82dab800873000169ed58,2023-11-23_22h36.24.050,kallum_motion_pilot,2023.1.2,Win32,60.02040694,59a82dab800873000169ed58,656018846682f3df8008bb8f,656019aa056edf3065f755a4,1,49,211,36,1,threeone,,,,,,,,,,,,,,,,,,,,,,,,,,,,,,,,,,,,,,,,,,,,,,,,,,,,,,,,,,,,,,,,,,,,,,,,,,,,,,,,,,,,,
59a82dab800873000169ed58,2023-11-23_22h36.24.050,kallum_motion_pilot,2023.1.2,Win32,60.02040694,59a82dab800873000169ed58,656018846682f3df8008bb8f,656019aa056edf3065f755a4,1,50,212,136,1,fivesix,,,,,,,,,,,,,,,,,,,,,,,,,,,,,,,,,,,,,,,,,,,,,,,,,,,,,,,,,,,,,,,,,,,,,,,,,,,,,,,,,,,,,
59a82dab800873000169ed58,2023-11-23_22h36.24.050,kallum_motion_pilot,2023.1.2,Win32,60.02040694,59a82dab800873000169ed58,656018846682f3df8008bb8f,656019aa056edf3065f755a4,1,51,213,103,1,eightseven,,,,,,,,,,,,,,,,,,,,,,,,,,,,,,,,,,,,,,,,,,,,,,,,,,,,,,,,,,,,,,,,,,,,,,,,,,,,,,,,,,,,,
59a82dab800873000169ed58,2023-11-23_22h36.24.050,kallum_motion_pilot,2023.1.2,Win32,60.02040694,59a82dab800873000169ed58,656018846682f3df8008bb8f,656019aa056edf3065f755a4,1,52,214,133,1,seveneight,,,,,,,,,,,,,,,,,,,,,,,,,,,,,,,,,,,,,,,,,,,,,,,,,,,,,,,,,,,,,,,,,,,,,,,,,,,,,,,,,,,,,
59a82dab800873000169ed58,2023-11-23_22h36.24.050,kallum_motion_pilot,2023.1.2,Win32,60.02040694,59a82dab800873000169ed58,656018846682f3df8008bb8f,656019aa056edf3065f755a4,1,53,215,96,1,fivesix,,,,,,,,,,,,,,,,,,,,,,,,,,,,,,,,,,,,,,,,,,,,,,,,,,,,,,,,,,,,,,,,,,,,,,,,,,,,,,,,,,,,,
59a82dab800873000169ed58,2023-11-23_22h36.24.050,kallum_motion_pilot,2023.1.2,Win32,60.02040694,59a82dab800873000169ed58,656018846682f3df8008bb8f,656019aa056edf3065f755a4,1,54,216,148,1,sevenfive,,,,,,,,,,,,,,,,,,,,,,,,,,,,,,,,,,,,,,,,,,,,,,,,,,,,,,,,,,,,,,,,,,,,,,,,,,,,,,,,,,,,,
59a82dab800873000169ed58,2023-11-23_22h36.24.050,kallum_motion_pilot,2023.1.2,Win32,60.02040694,59a82dab800873000169ed58,656018846682f3df8008bb8f,656019aa056edf3065f755a4,1,55,217,123,1,sixeight,,,,,,,,,,,,,,,,,,,,,,,,,,,,,,,,,,,,,,,,,,,,,,,,,,,,,,,,,,,,,,,,,,,,,,,,,,,,,,,,,,,,,
59a82dab800873000169ed58,2023-11-23_22h36.24.050,kallum_motion_pilot,2023.1.2,Win32,60.02040694,59a82dab800873000169ed58,656018846682f3df8008bb8f,656019aa056edf3065f755a4,1,56,218,15,1,fourthree,,,,,,,,,,,,,,,,,,,,,,,,,,,,,,,,,,,,,,,,,,,,,,,,,,,,,,,,,,,,,,,,,,,,,,,,,,,,,,,,,,,,,
59a82dab800873000169ed58,2023-11-23_22h36.24.050,kallum_motion_pilot,2023.1.2,Win32,60.02040694,59a82dab800873000169ed58,656018846682f3df8008bb8f,656019aa056edf3065f755a4,1,57,219,89,1,fiveseven,,,,,,,,,,,,,,,,,,,,,,,,,,,,,,,,,,,,,,,,,,,,,,,,,,,,,,,,,,,,,,,,,,,,,,,,,,,,,,,,,,,,,
59a82dab800873000169ed58,2023-11-23_22h36.24.050,kallum_motion_pilot,2023.1.2,Win32,60.02040694,59a82dab800873000169ed58,656018846682f3df8008bb8f,656019aa056edf3065f755a4,1,58,220,138,1,sixfive,,,,,,,,,,,,,,,,,,,,,,,,,,,,,,,,,,,,,,,,,,,,,,,,,,,,,,,,,,,,,,,,,,,,,,,,,,,,,,,,,,,,,
59a82dab800873000169ed58,2023-11-23_22h36.24.050,kallum_motion_pilot,2023.1.2,Win32,60.02040694,59a82dab800873000169ed58,656018846682f3df8008bb8f,656019aa056edf3065f755a4,1,59,221,90,1,sixfive,,,,,,,,,,,,,,,,,,,,,,,,,,,,,,,,,,,,,,,,,,,,,,,,,,,,,,,,,,,,,,,,,,,,,,,,,,,,,,,,,,,,,
59a82dab800873000169ed58,2023-11-23_22h36.24.050,kallum_motion_pilot,2023.1.2,Win32,60.02040694,59a82dab800873000169ed58,656018846682f3df8008bb8f,656019aa056edf3065f755a4,1,60,222,27,1,twofour,,,,,,,,,,,,,,,,,,,,,,,,,,,,,,,,,,,,,,,,,,,,,,,,,,,,,,,,,,,,,,,,,,,,,,,,,,,,,,,,,,,,,
59a82dab800873000169ed58,2023-11-23_22h36.24.050,kallum_motion_pilot,2023.1.2,Win32,60.02040694,59a82dab800873000169ed58,656018846682f3df8008bb8f,656019aa056edf3065f755a4,1,61,223,116,1,sevenfive,,,,,,,,,,,,,,,,,,,,,,,,,,,,,,,,,,,,,,,,,,,,,,,,,,,,,,,,,,,,,,,,,,,,,,,,,,,,,,,,,,,,,
59a82dab800873000169ed58,2023-11-23_22h36.24.050,kallum_motion_pilot,2023.1.2,Win32,60.02040694,59a82dab800873000169ed58,656018846682f3df8008bb8f,656019aa056edf3065f755a4,1,62,224,67,1,twofour,,,,,,,,,,,,,,,,,,,,,,,,,,,,,,,,,,,,,,,,,,,,,,,,,,,,,,,,,,,,,,,,,,,,,,,,,,,,,,,,,,,,,
59a82dab800873000169ed58,2023-11-23_22h36.24.050,kallum_motion_pilot,2023.1.2,Win32,60.02040694,59a82dab800873000169ed58,656018846682f3df8008bb8f,656019aa056edf3065f755a4,1,63,225,30,1,fourtwo,,,,,,,,,,,,,,,,,,,,,,,,,,,,,,,,,,,,,,,,,,,,,,,,,,,,,,,,,,,,,,,,,,,,,,,,,,,,,,,,,,,,,
59a82dab800873000169ed58,2023-11-23_22h36.24.050,kallum_motion_pilot,2023.1.2,Win32,60.02040694,59a82dab800873000169ed58,656018846682f3df8008bb8f,656019aa056edf3065f755a4,1,64,226,145,1,fiveseven,,,,,,,,,,,,,,,,,,,,,,,,,,,,,,,,,,,,,,,,,,,,,,,,,,,,,,,,,,,,,,,,,,,,,,,,,,,,,,,,,,,,,
59a82dab800873000169ed58,2023-11-23_22h36.24.050,kallum_motion_pilot,2023.1.2,Win32,60.02040694,59a82dab800873000169ed58,656018846682f3df8008bb8f,656019aa056edf3065f755a4,1,65,227,7,1,fourthree,,,,,,,,,,,,,,,,,,,,,,,,,,,,,,,,,,,,,,,,,,,,,,,,,,,,,,,,,,,,,,,,,,,,,,,,,,,,,,,,,,,,,
59a82dab800873000169ed58,2023-11-23_22h36.24.050,kallum_motion_pilot,2023.1.2,Win32,60.02040694,59a82dab800873000169ed58,656018846682f3df8008bb8f,656019aa056edf3065f755a4,1,66,228,99,1,sixeight,,,,,,,,,,,,,,,,,,,,,,,,,,,,,,,,,,,,,,,,,,,,,,,,,,,,,,,,,,,,,,,,,,,,,,,,,,,,,,,,,,,,,
59a82dab800873000169ed58,2023-11-23_22h36.24.050,kallum_motion_pilot,2023.1.2,Win32,60.02040694,59a82dab800873000169ed58,656018846682f3df8008bb8f,656019aa056edf3065f755a4,1,67,229,156,1,sevenfive,,,,,,,,,,,,,,,,,,,,,,,,,,,,,,,,,,,,,,,,,,,,,,,,,,,,,,,,,,,,,,,,,,,,,,,,,,,,,,,,,,,,,
59a82dab800873000169ed58,2023-11-23_22h36.24.050,kallum_motion_pilot,2023.1.2,Win32,60.02040694,59a82dab800873000169ed58,656018846682f3df8008bb8f,656019aa056edf3065f755a4,1,68,230,127,1,eightseven,,,,,,,,,,,,,,,,,,,,,,,,,,,,,,,,,,,,,,,,,,,,,,,,,,,,,,,,,,,,,,,,,,,,,,,,,,,,,,,,,,,,,
59a82dab800873000169ed58,2023-11-23_22h36.24.050,kallum_motion_pilot,2023.1.2,Win32,60.02040694,59a82dab800873000169ed58,656018846682f3df8008bb8f,656019aa056edf3065f755a4,1,69,231,72,1,onetwo,,,,,,,,,,,,,,,,,,,,,,,,,,,,,,,,,,,,,,,,,,,,,,,,,,,,,,,,,,,,,,,,,,,,,,,,,,,,,,,,,,,,,
59a82dab800873000169ed58,2023-11-23_22h36.24.050,kallum_motion_pilot,2023.1.2,Win32,60.02040694,59a82dab800873000169ed58,656018846682f3df8008bb8f,656019aa056edf3065f755a4,1,70,232,29,1,threefour,,,,,,,,,,,,,,,,,,,,,,,,,,,,,,,,,,,,,,,,,,,,,,,,,,,,,,,,,,,,,,,,,,,,,,,,,,,,,,,,,,,,,
59a82dab800873000169ed58,2023-11-23_22h36.24.050,kallum_motion_pilot,2023.1.2,Win32,60.02040694,59a82dab800873000169ed58,656018846682f3df8008bb8f,656019aa056edf3065f755a4,1,71,233,93,1,seveneight,,,,,,,,,,,,,,,,,,,,,,,,,,,,,,,,,,,,,,,,,,,,,,,,,,,,,,,,,,,,,,,,,,,,,,,,,,,,,,,,,,,,,
59a82dab800873000169ed58,2023-11-23_22h36.24.050,kallum_motion_pilot,2023.1.2,Win32,60.02040694,59a82dab800873000169ed58,656018846682f3df8008bb8f,656019aa056edf3065f755a4,1,72,234,31,1,fourthree,,,,,,,,,,,,,,,,,,,,,,,,,,,,,,,,,,,,,,,,,,,,,,,,,,,,,,,,,,,,,,,,,,,,,,,,,,,,,,,,,,,,,
59a82dab800873000169ed58,2023-11-23_22h36.24.050,kallum_motion_pilot,2023.1.2,Win32,60.02040694,59a82dab800873000169ed58,656018846682f3df8008bb8f,656019aa056edf3065f755a4,1,73,235,135,1,eightseven,,,,,,,,,,,,,,,,,,,,,,,,,,,,,,,,,,,,,,,,,,,,,,,,,,,,,,,,,,,,,,,,,,,,,,,,,,,,,,,,,,,,,
59a82dab800873000169ed58,2023-11-23_22h36.24.050,kallum_motion_pilot,2023.1.2,Win32,60.02040694,59a82dab800873000169ed58,656018846682f3df8008bb8f,656019aa056edf3065f755a4,1,74,236,76,1,threeone,,,,,,,,,,,,,,,,,,,,,,,,,,,,,,,,,,,,,,,,,,,,,,,,,,,,,,,,,,,,,,,,,,,,,,,,,,,,,,,,,,,,,
59a82dab800873000169ed58,2023-11-23_22h36.24.050,kallum_motion_pilot,2023.1.2,Win32,60.02040694,59a82dab800873000169ed58,656018846682f3df8008bb8f,656019aa056edf3065f755a4,1,75,237,121,1,fiveseven,,,,,,,,,,,,,,,,,,,,,,,,,,,,,,,,,,,,,,,,,,,,,,,,,,,,,,,,,,,,,,,,,,,,,,,,,,,,,,,,,,,,,
59a82dab800873000169ed58,2023-11-23_22h36.24.050,kallum_motion_pilot,2023.1.2,Win32,60.02040694,59a82dab800873000169ed58,656018846682f3df8008bb8f,656019aa056edf3065f755a4,1,76,238,87,1,eightseven,,,,,,,,,,,,,,,,,,,,,,,,,,,,,,,,,,,,,,,,,,,,,,,,,,,,,,,,,,,,,,,,,,,,,,,,,,,,,,,,,,,,,
59a82dab800873000169ed58,2023-11-23_22h36.24.050,kallum_motion_pilot,2023.1.2,Win32,60.02040694,59a82dab800873000169ed58,656018846682f3df8008bb8f,656019aa056edf3065f755a4,1,77,239,26,1,twoone,,,,,,,,,,,,,,,,,,,,,,,,,,,,,,,,,,,,,,,,,,,,,,,,,,,,,,,,,,,,,,,,,,,,,,,,,,,,,,,,,,,,,
59a82dab800873000169ed58,2023-11-23_22h36.24.050,kallum_motion_pilot,2023.1.2,Win32,60.02040694,59a82dab800873000169ed58,656018846682f3df8008bb8f,656019aa056edf3065f755a4,1,78,240,91,1,sixeight,,,,,,,,,,,,,,,,,,,,,,,,,,,,,,,,,,,,,,,,,,,,,,,,,,,,,,,,,,,,,,,,,,,,,,,,,,,,,,,,,,,,,
59a82dab800873000169ed58,2023-11-23_22h36.24.050,kallum_motion_pilot,2023.1.2,Win32,60.02040694,59a82dab800873000169ed58,656018846682f3df8008bb8f,656019aa056edf3065f755a4,1,79,241,81,1,fiveseven,,,,,,,,,,,,,,,,,,,,,,,,,,,,,,,,,,,,,,,,,,,,,,,,,,,,,,,,,,,,,,,,,,,,,,,,,,,,,,,,,,,,,
59a82dab800873000169ed58,2023-11-23_22h36.24.050,kallum_motion_pilot,2023.1.2,Win32,60.02040694,59a82dab800873000169ed58,656018846682f3df8008bb8f,656019aa056edf3065f755a4,1,80,242,104,1,fivesix,,,,,,,,,,,,,,,,,,,,,,,,,,,,,,,,,,,,,,,,,,,,,,,,,,,,,,,,,,,,,,,,,,,,,,,,,,,,,,,,,,,,,
59a82dab800873000169ed58,2023-11-23_22h36.24.050,kallum_motion_pilot,2023.1.2,Win32,60.02040694,59a82dab800873000169ed58,656018846682f3df8008bb8f,656019aa056edf3065f755a4,1,81,243,115,1,sixeight,,,,,,,,,,,,,,,,,,,,,,,,,,,,,,,,,,,,,,,,,,,,,,,,,,,,,,,,,,,,,,,,,,,,,,,,,,,,,,,,,,,,,
59a82dab800873000169ed58,2023-11-23_22h36.24.050,kallum_motion_pilot,2023.1.2,Win32,60.02040694,59a82dab800873000169ed58,656018846682f3df8008bb8f,656019aa056edf3065f755a4,1,82,244,74,1,twoone,,,,,,,,,,,,,,,,,,,,,,,,,,,,,,,,,,,,,,,,,,,,,,,,,,,,,,,,,,,,,,,,,,,,,,,,,,,,,,,,,,,,,
59a82dab800873000169ed58,2023-11-23_22h36.24.050,kallum_motion_pilot,2023.1.2,Win32,60.02040694,59a82dab800873000169ed58,656018846682f3df8008bb8f,656019aa056edf3065f755a4,1,83,245,63,1,fourthree,,,,,,,,,,,,,,,,,,,,,,,,,,,,,,,,,,,,,,,,,,,,,,,,,,,,,,,,,,,,,,,,,,,,,,,,,,,,,,,,,,,,,
59a82dab800873000169ed58,2023-11-23_22h36.24.050,kallum_motion_pilot,2023.1.2,Win32,60.02040694,59a82dab800873000169ed58,656018846682f3df8008bb8f,656019aa056edf3065f755a4,1,84,246,85,1,seveneight,,,,,,,,,,,,,,,,,,,,,,,,,,,,,,,,,,,,,,,,,,,,,,,,,,,,,,,,,,,,,,,,,,,,,,,,,,,,,,,,,,,,,
59a82dab800873000169ed58,2023-11-23_22h36.24.050,kallum_motion_pilot,2023.1.2,Win32,60.02040694,59a82dab800873000169ed58,656018846682f3df8008bb8f,656019aa056edf3065f755a4,1,85,247,19,1,twofour,,,,,,,,,,,,,,,,,,,,,,,,,,,,,,,,,,,,,,,,,,,,,,,,,,,,,,,,,,,,,,,,,,,,,,,,,,,,,,,,,,,,,
59a82dab800873000169ed58,2023-11-23_22h36.24.050,kallum_motion_pilot,2023.1.2,Win32,60.02040694,59a82dab800873000169ed58,656018846682f3df8008bb8f,656019aa056edf3065f755a4,1,86,248,42,1,twoone,,,,,,,,,,,,,,,,,,,,,,,,,,,,,,,,,,,,,,,,,,,,,,,,,,,,,,,,,,,,,,,,,,,,,,,,,,,,,,,,,,,,,
59a82dab800873000169ed58,2023-11-23_22h36.24.050,kallum_motion_pilot,2023.1.2,Win32,60.02040694,59a82dab800873000169ed58,656018846682f3df8008bb8f,656019aa056edf3065f755a4,1,87,249,6,1,fourtwo,,,,,,,,,,,,,,,,,,,,,,,,,,,,,,,,,,,,,,,,,,,,,,,,,,,,,,,,,,,,,,,,,,,,,,,,,,,,,,,,,,,,,
59a82dab800873000169ed58,2023-11-23_22h36.24.050,kallum_motion_pilot,2023.1.2,Win32,60.02040694,59a82dab800873000169ed58,656018846682f3df8008bb8f,656019aa056edf3065f755a4,1,88,250,153,1,fiveseven,,,,,,,,,,,,,,,,,,,,,,,,,,,,,,,,,,,,,,,,,,,,,,,,,,,,,,,,,,,,,,,,,,,,,,,,,,,,,,,,,,,,,
59a82dab800873000169ed58,2023-11-23_22h36.24.050,kallum_motion_pilot,2023.1.2,Win32,60.02040694,59a82dab800873000169ed58,656018846682f3df8008bb8f,656019aa056edf3065f755a4,1,89,251,34,1,twoone,,,,,,,,,,,,,,,,,,,,,,,,,,,,,,,,,,,,,,,,,,,,,,,,,,,,,,,,,,,,,,,,,,,,,,,,,,,,,,,,,,,,,
59a82dab800873000169ed58,2023-11-23_22h36.24.050,kallum_motion_pilot,2023.1.2,Win32,60.02040694,59a82dab800873000169ed58,656018846682f3df8008bb8f,656019aa056edf3065f755a4,1,90,252,69,1,threefour,,,,,,,,,,,,,,,,,,,,,,,,,,,,,,,,,,,,,,,,,,,,,,,,,,,,,,,,,,,,,,,,,,,,,,,,,,,,,,,,,,,,,
59a82dab800873000169ed58,2023-11-23_22h36.24.050,kallum_motion_pilot,2023.1.2,Win32,60.02040694,59a82dab800873000169ed58,656018846682f3df8008bb8f,656019aa056edf3065f755a4,1,91,253,32,1,onetwo,,,,,,,,,,,,,,,,,,,,,,,,,,,,,,,,,,,,,,,,,,,,,,,,,,,,,,,,,,,,,,,,,,,,,,,,,,,,,,,,,,,,,
59a82dab800873000169ed58,2023-11-23_22h36.24.050,kallum_motion_pilot,2023.1.2,Win32,60.02040694,59a82dab800873000169ed58,656018846682f3df8008bb8f,656019aa056edf3065f755a4,1,92,254,3,1,twofour,,,,,,,,,,,,,,,,,,,,,,,,,,,,,,,,,,,,,,,,,,,,,,,,,,,,,,,,,,,,,,,,,,,,,,,,,,,,,,,,,,,,,
59a82dab800873000169ed58,2023-11-23_22h36.24.050,kallum_motion_pilot,2023.1.2,Win32,60.02040694,59a82dab800873000169ed58,656018846682f3df8008bb8f,656019aa056edf3065f755a4,1,93,255,117,1,seveneight,,,,,,,,,,,,,,,,,,,,,,,,,,,,,,,,,,,,,,,,,,,,,,,,,,,,,,,,,,,,,,,,,,,,,,,,,,,,,,,,,,,,,
59a82dab800873000169ed58,2023-11-23_22h36.24.050,kallum_motion_pilot,2023.1.2,Win32,60.02040694,59a82dab800873000169ed58,656018846682f3df8008bb8f,656019aa056edf3065f755a4,1,94,256,111,1,eightseven,,,,,,,,,,,,,,,,,,,,,,,,,,,,,,,,,,,,,,,,,,,,,,,,,,,,,,,,,,,,,,,,,,,,,,,,,,,,,,,,,,,,,
59a82dab800873000169ed58,2023-11-23_22h36.24.050,kallum_motion_pilot,2023.1.2,Win32,60.02040694,59a82dab800873000169ed58,656018846682f3df8008bb8f,656019aa056edf3065f755a4,1,95,257,83,1,sixeight,,,,,,,,,,,,,,,,,,,,,,,,,,,,,,,,,,,,,,,,,,,,,,,,,,,,,,,,,,,,,,,,,,,,,,,,,,,,,,,,,,,,,
59a82dab800873000169ed58,2023-11-23_22h36.24.050,kallum_motion_pilot,2023.1.2,Win32,60.02040694,59a82dab800873000169ed58,656018846682f3df8008bb8f,656019aa056edf3065f755a4,1,96,258,92,1,sevenfive,,,,,,,,,,,,,,,,,,,,,,,,,,,,,,,,,,,,,,,,,,,,,,,,,,,,,,,,,,,,,,,,,,,,,,,,,,,,,,,,,,,,,
59a82dab800873000169ed58,2023-11-23_22h36.24.050,kallum_motion_pilot,2023.1.2,Win32,60.02040694,59a82dab800873000169ed58,656018846682f3df8008bb8f,656019aa056edf3065f755a4,1,97,259,126,1,eightsix,,,,,,,,,,,,,,,,,,,,,,,,,,,,,,,,,,,,,,,,,,,,,,,,,,,,,,,,,,,,,,,,,,,,,,,,,,,,,,,,,,,,,
59a82dab800873000169ed58,2023-11-23_22h36.24.050,kallum_motion_pilot,2023.1.2,Win32,60.02040694,59a82dab800873000169ed58,656018846682f3df8008bb8f,656019aa056edf3065f755a4,1,98,260,4,1,threeone,,,,,,,,,,,,,,,,,,,,,,,,,,,,,,,,,,,,,,,,,,,,,,,,,,,,,,,,,,,,,,,,,,,,,,,,,,,,,,,,,,,,,
59a82dab800873000169ed58,2023-11-23_22h36.24.050,kallum_motion_pilot,2023.1.2,Win32,60.02040694,59a82dab800873000169ed58,656018846682f3df8008bb8f,656019aa056edf3065f755a4,1,99,261,57,1,onethree,,,,,,,,,,,,,,,,,,,,,,,,,,,,,,,,,,,,,,,,,,,,,,,,,,,,,,,,,,,,,,,,,,,,,,,,,,,,,,,,,,,,,
59a82dab800873000169ed58,2023-11-23_22h36.24.050,kallum_motion_pilot,2023.1.2,Win32,60.02040694,59a82dab800873000169ed58,656018846682f3df8008bb8f,656019aa056edf3065f755a4,1,100,262,109,1,seveneight,,,,,,,,,,,,,,,,,,,,,,,,,,,,,,,,,,,,,,,,,,,,,,,,,,,,,,,,,,,,,,,,,,,,,,,,,,,,,,,,,,,,,
59a82dab800873000169ed58,2023-11-23_22h36.24.050,kallum_motion_pilot,2023.1.2,Win32,60.02040694,59a82dab800873000169ed58,656018846682f3df8008bb8f,656019aa056edf3065f755a4,1,101,263,5,1,threefour,,,,,,,,,,,,,,,,,,,,,,,,,,,,,,,,,,,,,,,,,,,,,,,,,,,,,,,,,,,,,,,,,,,,,,,,,,,,,,,,,,,,,
59a82dab800873000169ed58,2023-11-23_22h36.24.050,kallum_motion_pilot,2023.1.2,Win32,60.02040694,59a82dab800873000169ed58,656018846682f3df8008bb8f,656019aa056edf3065f755a4,1,102,264,144,1,fivesix,,,,,,,,,,,,,,,,,,,,,,,,,,,,,,,,,,,,,,,,,,,,,,,,,,,,,,,,,,,,,,,,,,,,,,,,,,,,,,,,,,,,,
59a82dab800873000169ed58,2023-11-23_22h36.24.050,kallum_motion_pilot,2023.1.2,Win32,60.02040694,59a82dab800873000169ed58,656018846682f3df8008bb8f,656019aa056edf3065f755a4,1,103,265,61,1,threefour,,,,,,,,,,,,,,,,,,,,,,,,,,,,,,,,,,,,,,,,,,,,,,,,,,,,,,,,,,,,,,,,,,,,,,,,,,,,,,,,,,,,,
59a82dab800873000169ed58,2023-11-23_22h36.24.050,kallum_motion_pilot,2023.1.2,Win32,60.02040694,59a82dab800873000169ed58,656018846682f3df8008bb8f,656019aa056edf3065f755a4,1,104,266,95,1,eightseven,,,,,,,,,,,,,,,,,,,,,,,,,,,,,,,,,,,,,,,,,,,,,,,,,,,,,,,,,,,,,,,,,,,,,,,,,,,,,,,,,,,,,
59a82dab800873000169ed58,2023-11-23_22h36.24.050,kallum_motion_pilot,2023.1.2,Win32,60.02040694,59a82dab800873000169ed58,656018846682f3df8008bb8f,656019aa056edf3065f755a4,1,105,267,68,1,threeone,,,,,,,,,,,,,,,,,,,,,,,,,,,,,,,,,,,,,,,,,,,,,,,,,,,,,,,,,,,,,,,,,,,,,,,,,,,,,,,,,,,,,
59a82dab800873000169ed58,2023-11-23_22h36.24.050,kallum_motion_pilot,2023.1.2,Win32,60.02040694,59a82dab800873000169ed58,656018846682f3df8008bb8f,656019aa056edf3065f755a4,1,106,268,142,1,eightsix,,,,,,,,,,,,,,,,,,,,,,,,,,,,,,,,,,,,,,,,,,,,,,,,,,,,,,,,,,,,,,,,,,,,,,,,,,,,,,,,,,,,,
59a82dab800873000169ed58,2023-11-23_22h36.24.050,kallum_motion_pilot,2023.1.2,Win32,60.02040694,59a82dab800873000169ed58,656018846682f3df8008bb8f,656019aa056edf3065f755a4,1,107,269,37,1,threefour,,,,,,,,,,,,,,,,,,,,,,,,,,,,,,,,,,,,,,,,,,,,,,,,,,,,,,,,,,,,,,,,,,,,,,,,,,,,,,,,,,,,,
59a82dab800873000169ed58,2023-11-23_22h36.24.050,kallum_motion_pilot,2023.1.2,Win32,60.02040694,59a82dab800873000169ed58,656018846682f3df8008bb8f,656019aa056edf3065f755a4,1,108,270,118,1,eightsix,,,,,,,,,,,,,,,,,,,,,,,,,,,,,,,,,,,,,,,,,,,,,,,,,,,,,,,,,,,,,,,,,,,,,,,,,,,,,,,,,,,,,
59a82dab800873000169ed58,2023-11-23_22h36.24.050,kallum_motion_pilot,2023.1.2,Win32,60.02040694,59a82dab800873000169ed58,656018846682f3df8008bb8f,656019aa056edf3065f755a4,1,109,271,46,1,fourtwo,,,,,,,,,,,,,,,,,,,,,,,,,,,,,,,,,,,,,,,,,,,,,,,,,,,,,,,,,,,,,,,,,,,,,,,,,,,,,,,,,,,,,
59a82dab800873000169ed58,2023-11-23_22h36.24.050,kallum_motion_pilot,2023.1.2,Win32,60.02040694,59a82dab800873000169ed58,656018846682f3df8008bb8f,656019aa056edf3065f755a4,1,110,272,10,1,twoone,,,,,,,,,,,,,,,,,,,,,,,,,,,,,,,,,,,,,,,,,,,,,,,,,,,,,,,,,,,,,,,,,,,,,,,,,,,,,,,,,,,,,
59a82dab800873000169ed58,2023-11-23_22h36.24.050,kallum_motion_pilot,2023.1.2,Win32,60.02040694,59a82dab800873000169ed58,656018846682f3df8008bb8f,656019aa056edf3065f755a4,1,111,273,102,1,eightsix,,,,,,,,,,,,,,,,,,,,,,,,,,,,,,,,,,,,,,,,,,,,,,,,,,,,,,,,,,,,,,,,,,,,,,,,,,,,,,,,,,,,,
59a82dab800873000169ed58,2023-11-23_22h36.24.050,kallum_motion_pilot,2023.1.2,Win32,60.02040694,59a82dab800873000169ed58,656018846682f3df8008bb8f,656019aa056edf3065f755a4,1,112,274,106,1,sixfive,,,,,,,,,,,,,,,,,,,,,,,,,,,,,,,,,,,,,,,,,,,,,,,,,,,,,,,,,,,,,,,,,,,,,,,,,,,,,,,,,,,,,
59a82dab800873000169ed58,2023-11-23_22h36.24.050,kallum_motion_pilot,2023.1.2,Win32,60.02040694,59a82dab800873000169ed58,656018846682f3df8008bb8f,656019aa056edf3065f755a4,1,113,275,17,1,onethree,,,,,,,,,,,,,,,,,,,,,,,,,,,,,,,,,,,,,,,,,,,,,,,,,,,,,,,,,,,,,,,,,,,,,,,,,,,,,,,,,,,,,
59a82dab800873000169ed58,2023-11-23_22h36.24.050,kallum_motion_pilot,2023.1.2,Win32,60.02040694,59a82dab800873000169ed58,656018846682f3df8008bb8f,656019aa056edf3065f755a4,1,114,276,45,1,threefour,,,,,,,,,,,,,,,,,,,,,,,,,,,,,,,,,,,,,,,,,,,,,,,,,,,,,,,,,,,,,,,,,,,,,,,,,,,,,,,,,,,,,
59a82dab800873000169ed58,2023-11-23_22h36.24.050,kallum_motion_pilot,2023.1.2,Win32,60.02040694,59a82dab800873000169ed58,656018846682f3df8008bb8f,656019aa056edf3065f755a4,1,115,277,73,1,onethree,,,,,,,,,,,,,,,,,,,,,,,,,,,,,,,,,,,,,,,,,,,,,,,,,,,,,,,,,,,,,,,,,,,,,,,,,,,,,,,,,,,,,
59a82dab800873000169ed58,2023-11-23_22h36.24.050,kallum_motion_pilot,2023.1.2,Win32,60.02040694,59a82dab800873000169ed58,656018846682f3df8008bb8f,656019aa056edf3065f755a4,1,116,278,137,1,fiveseven,,,,,,,,,,,,,,,,,,,,,,,,,,,,,,,,,,,,,,,,,,,,,,,,,,,,,,,,,,,,,,,,,,,,,,,,,,,,,,,,,,,,,
59a82dab800873000169ed58,2023-11-23_22h36.24.050,kallum_motion_pilot,2023.1.2,Win32,60.02040694,59a82dab800873000169ed58,656018846682f3df8008bb8f,656019aa056edf3065f755a4,1,117,279,101,1,seveneight,,,,,,,,,,,,,,,,,,,,,,,,,,,,,,,,,,,,,,,,,,,,,,,,,,,,,,,,,,,,,,,,,,,,,,,,,,,,,,,,,,,,,
59a82dab800873000169ed58,2023-11-23_22h36.24.050,kallum_motion_pilot,2023.1.2,Win32,60.02040694,59a82dab800873000169ed58,656018846682f3df8008bb8f,656019aa056edf3065f755a4,1,118,280,157,1,seveneight,,,,,,,,,,,,,,,,,,,,,,,,,,,,,,,,,,,,,,,,,,,,,,,,,,,,,,,,,,,,,,,,,,,,,,,,,,,,,,,,,,,,,
59a82dab800873000169ed58,2023-11-23_22h36.24.050,kallum_motion_pilot,2023.1.2,Win32,60.02040694,59a82dab800873000169ed58,656018846682f3df8008bb8f,656019aa056edf3065f755a4,1,119,281,124,1,sevenfive,,,,,,,,,,,,,,,,,,,,,,,,,,,,,,,,,,,,,,,,,,,,,,,,,,,,,,,,,,,,,,,,,,,,,,,,,,,,,,,,,,,,,
59a82dab800873000169ed58,2023-11-23_22h36.24.050,kallum_motion_pilot,2023.1.2,Win32,60.02040694,59a82dab800873000169ed58,656018846682f3df8008bb8f,656019aa056edf3065f755a4,1,120,282,70,1,fourtwo,,,,,,,,,,,,,,,,,,,,,,,,,,,,,,,,,,,,,,,,,,,,,,,,,,,,,,,,,,,,,,,,,,,,,,,,,,,,,,,,,,,,,
59a82dab800873000169ed58,2023-11-23_22h36.24.050,kallum_motion_pilot,2023.1.2,Win32,60.02040694,59a82dab800873000169ed58,656018846682f3df8008bb8f,656019aa056edf3065f755a4,1,121,283,122,1,sixfive,,,,,,,,,,,,,,,,,,,,,,,,,,,,,,,,,,,,,,,,,,,,,,,,,,,,,,,,,,,,,,,,,,,,,,,,,,,,,,,,,,,,,
59a82dab800873000169ed58,2023-11-23_22h36.24.050,kallum_motion_pilot,2023.1.2,Win32,60.02040694,59a82dab800873000169ed58,656018846682f3df8008bb8f,656019aa056edf3065f755a4,1,122,284,22,1,fourtwo,,,,,,,,,,,,,,,,,,,,,,,,,,,,,,,,,,,,,,,,,,,,,,,,,,,,,,,,,,,,,,,,,,,,,,,,,,,,,,,,,,,,,
59a82dab800873000169ed58,2023-11-23_22h36.24.050,kallum_motion_pilot,2023.1.2,Win32,60.02040694,59a82dab800873000169ed58,656018846682f3df8008bb8f,656019aa056edf3065f755a4,1,123,285,155,1,sixeight,,,,,,,,,,,,,,,,,,,,,,,,,,,,,,,,,,,,,,,,,,,,,,,,,,,,,,,,,,,,,,,,,,,,,,,,,,,,,,,,,,,,,
59a82dab800873000169ed58,2023-11-23_22h36.24.050,kallum_motion_pilot,2023.1.2,Win32,60.02040694,59a82dab800873000169ed58,656018846682f3df8008bb8f,656019aa056edf3065f755a4,1,124,286,154,1,sixfive,,,,,,,,,,,,,,,,,,,,,,,,,,,,,,,,,,,,,,,,,,,,,,,,,,,,,,,,,,,,,,,,,,,,,,,,,,,,,,,,,,,,,
59a82dab800873000169ed58,2023-11-23_22h36.24.050,kallum_motion_pilot,2023.1.2,Win32,60.02040694,59a82dab800873000169ed58,656018846682f3df8008bb8f,656019aa056edf3065f755a4,1,125,287,129,1,fiveseven,,,,,,,,,,,,,,,,,,,,,,,,,,,,,,,,,,,,,,,,,,,,,,,,,,,,,,,,,,,,,,,,,,,,,,,,,,,,,,,,,,,,,
59a82dab800873000169ed58,2023-11-23_22h36.24.050,kallum_motion_pilot,2023.1.2,Win32,60.02040694,59a82dab800873000169ed58,656018846682f3df8008bb8f,656019aa056edf3065f755a4,1,126,288,62,1,fourtwo,,,,,,,,,,,,,,,,,,,,,,,,,,,,,,,,,,,,,,,,,,,,,,,,,,,,,,,,,,,,,,,,,,,,,,,,,,,,,,,,,,,,,
59a82dab800873000169ed58,2023-11-23_22h36.24.050,kallum_motion_pilot,2023.1.2,Win32,60.02040694,59a82dab800873000169ed58,656018846682f3df8008bb8f,656019aa056edf3065f755a4,1,127,289,1,1,onethree,,,,,,,,,,,,,,,,,,,,,,,,,,,,,,,,,,,,,,,,,,,,,,,,,,,,,,,,,,,,,,,,,,,,,,,,,,,,,,,,,,,,,
59a82dab800873000169ed58,2023-11-23_22h36.24.050,kallum_motion_pilot,2023.1.2,Win32,60.02040694,59a82dab800873000169ed58,656018846682f3df8008bb8f,656019aa056edf3065f755a4,1,128,290,54,1,fourtwo,,,,,,,,,,,,,,,,,,,,,,,,,,,,,,,,,,,,,,,,,,,,,,,,,,,,,,,,,,,,,,,,,,,,,,,,,,,,,,,,,,,,,
59a82dab800873000169ed58,2023-11-23_22h36.24.050,kallum_motion_pilot,2023.1.2,Win32,60.02040694,59a82dab800873000169ed58,656018846682f3df8008bb8f,656019aa056edf3065f755a4,1,129,291,53,1,threefour,,,,,,,,,,,,,,,,,,,,,,,,,,,,,,,,,,,,,,,,,,,,,,,,,,,,,,,,,,,,,,,,,,,,,,,,,,,,,,,,,,,,,
59a82dab800873000169ed58,2023-11-23_22h36.24.050,kallum_motion_pilot,2023.1.2,Win32,60.02040694,59a82dab800873000169ed58,656018846682f3df8008bb8f,656019aa056edf3065f755a4,1,130,292,78,1,fourtwo,,,,,,,,,,,,,,,,,,,,,,,,,,,,,,,,,,,,,,,,,,,,,,,,,,,,,,,,,,,,,,,,,,,,,,,,,,,,,,,,,,,,,
59a82dab800873000169ed58,2023-11-23_22h36.24.050,kallum_motion_pilot,2023.1.2,Win32,60.02040694,59a82dab800873000169ed58,656018846682f3df8008bb8f,656019aa056edf3065f755a4,1,131,293,71,1,fourthree,,,,,,,,,,,,,,,,,,,,,,,,,,,,,,,,,,,,,,,,,,,,,,,,,,,,,,,,,,,,,,,,,,,,,,,,,,,,,,,,,,,,,
59a82dab800873000169ed58,2023-11-23_22h36.24.050,kallum_motion_pilot,2023.1.2,Win32,60.02040694,59a82dab800873000169ed58,656018846682f3df8008bb8f,656019aa056edf3065f755a4,1,132,294,13,1,threefour,,,,,,,,,,,,,,,,,,,,,,,,,,,,,,,,,,,,,,,,,,,,,,,,,,,,,,,,,,,,,,,,,,,,,,,,,,,,,,,,,,,,,
59a82dab800873000169ed58,2023-11-23_22h36.24.050,kallum_motion_pilot,2023.1.2,Win32,60.02040694,59a82dab800873000169ed58,656018846682f3df8008bb8f,656019aa056edf3065f755a4,1,133,295,147,1,sixeight,,,,,,,,,,,,,,,,,,,,,,,,,,,,,,,,,,,,,,,,,,,,,,,,,,,,,,,,,,,,,,,,,,,,,,,,,,,,,,,,,,,,,
59a82dab800873000169ed58,2023-11-23_22h36.24.050,kallum_motion_pilot,2023.1.2,Win32,60.02040694,59a82dab800873000169ed58,656018846682f3df8008bb8f,656019aa056edf3065f755a4,1,134,296,11,1,twofour,,,,,,,,,,,,,,,,,,,,,,,,,,,,,,,,,,,,,,,,,,,,,,,,,,,,,,,,,,,,,,,,,,,,,,,,,,,,,,,,,,,,,
59a82dab800873000169ed58,2023-11-23_22h36.24.050,kallum_motion_pilot,2023.1.2,Win32,60.02040694,59a82dab800873000169ed58,656018846682f3df8008bb8f,656019aa056edf3065f755a4,1,135,297,132,1,sevenfive,,,,,,,,,,,,,,,,,,,,,,,,,,,,,,,,,,,,,,,,,,,,,,,,,,,,,,,,,,,,,,,,,,,,,,,,,,,,,,,,,,,,,
59a82dab800873000169ed58,2023-11-23_22h36.24.050,kallum_motion_pilot,2023.1.2,Win32,60.02040694,59a82dab800873000169ed58,656018846682f3df8008bb8f,656019aa056edf3065f755a4,1,136,298,160,1,fivesix,,,,,,,,,,,,,,,,,,,,,,,,,,,,,,,,,,,,,,,,,,,,,,,,,,,,,,,,,,,,,,,,,,,,,,,,,,,,,,,,,,,,,
59a82dab800873000169ed58,2023-11-23_22h36.24.050,kallum_motion_pilot,2023.1.2,Win32,60.02040694,59a82dab800873000169ed58,656018846682f3df8008bb8f,656019aa056edf3065f755a4,1,137,299,139,1,sixeight,,,,,,,,,,,,,,,,,,,,,,,,,,,,,,,,,,,,,,,,,,,,,,,,,,,,,,,,,,,,,,,,,,,,,,,,,,,,,,,,,,,,,
59a82dab800873000169ed58,2023-11-23_22h36.24.050,kallum_motion_pilot,2023.1.2,Win32,60.02040694,59a82dab800873000169ed58,656018846682f3df8008bb8f,656019aa056edf3065f755a4,1,138,300,110,1,eightsix,,,,,,,,,,,,,,,,,,,,,,,,,,,,,,,,,,,,,,,,,,,,,,,,,,,,,,,,,,,,,,,,,,,,,,,,,,,,,,,,,,,,,
59a82dab800873000169ed58,2023-11-23_22h36.24.050,kallum_motion_pilot,2023.1.2,Win32,60.02040694,59a82dab800873000169ed58,656018846682f3df8008bb8f,656019aa056edf3065f755a4,1,139,301,23,1,fourthree,,,,,,,,,,,,,,,,,,,,,,,,,,,,,,,,,,,,,,,,,,,,,,,,,,,,,,,,,,,,,,,,,,,,,,,,,,,,,,,,,,,,,
59a82dab800873000169ed58,2023-11-23_22h36.24.050,kallum_motion_pilot,2023.1.2,Win32,60.02040694,59a82dab800873000169ed58,656018846682f3df8008bb8f,656019aa056edf3065f755a4,1,140,302,48,1,onetwo,,,,,,,,,,,,,,,,,,,,,,,,,,,,,,,,,,,,,,,,,,,,,,,,,,,,,,,,,,,,,,,,,,,,,,,,,,,,,,,,,,,,,
59a82dab800873000169ed58,2023-11-23_22h36.24.050,kallum_motion_pilot,2023.1.2,Win32,60.02040694,59a82dab800873000169ed58,656018846682f3df8008bb8f,656019aa056edf3065f755a4,1,141,303,20,1,threeone,,,,,,,,,,,,,,,,,,,,,,,,,,,,,,,,,,,,,,,,,,,,,,,,,,,,,,,,,,,,,,,,,,,,,,,,,,,,,,,,,,,,,
59a82dab800873000169ed58,2023-11-23_22h36.24.050,kallum_motion_pilot,2023.1.2,Win32,60.02040694,59a82dab800873000169ed58,656018846682f3df8008bb8f,656019aa056edf3065f755a4,1,142,304,16,1,onetwo,,,,,,,,,,,,,,,,,,,,,,,,,,,,,,,,,,,,,,,,,,,,,,,,,,,,,,,,,,,,,,,,,,,,,,,,,,,,,,,,,,,,,
59a82dab800873000169ed58,2023-11-23_22h36.24.050,kallum_motion_pilot,2023.1.2,Win32,60.02040694,59a82dab800873000169ed58,656018846682f3df8008bb8f,656019aa056edf3065f755a4,1,143,305,59,1,twofour,,,,,,,,,,,,,,,,,,,,,,,,,,,,,,,,,,,,,,,,,,,,,,,,,,,,,,,,,,,,,,,,,,,,,,,,,,,,,,,,,,,,,
59a82dab800873000169ed58,2023-11-23_22h36.24.050,kallum_motion_pilot,2023.1.2,Win32,60.02040694,59a82dab800873000169ed58,656018846682f3df8008bb8f,656019aa056edf3065f755a4,1,144,306,79,1,eightseven,,,,,,,,,,,,,,,,,,,,,,,,,,,,,,,,,,,,,,,,,,,,,,,,,,,,,,,,,,,,,,,,,,,,,,,,,,,,,,,,,,,,,
59a82dab800873000169ed58,2023-11-23_22h36.24.050,kallum_motion_pilot,2023.1.2,Win32,60.02040694,59a82dab800873000169ed58,656018846682f3df8008bb8f,656019aa056edf3065f755a4,1,145,307,75,1,twofour,,,,,,,,,,,,,,,,,,,,,,,,,,,,,,,,,,,,,,,,,,,,,,,,,,,,,,,,,,,,,,,,,,,,,,,,,,,,,,,,,,,,,
59a82dab800873000169ed58,2023-11-23_22h36.24.050,kallum_motion_pilot,2023.1.2,Win32,60.02040694,59a82dab800873000169ed58,656018846682f3df8008bb8f,656019aa056edf3065f755a4,1,146,308,41,1,onethree,,,,,,,,,,,,,,,,,,,,,,,,,,,,,,,,,,,,,,,,,,,,,,,,,,,,,,,,,,,,,,,,,,,,,,,,,,,,,,,,,,,,,
59a82dab800873000169ed58,2023-11-23_22h36.24.050,kallum_motion_pilot,2023.1.2,Win32,60.02040694,59a82dab800873000169ed58,656018846682f3df8008bb8f,656019aa056edf3065f755a4,1,147,309,84,1,sevenfive,,,,,,,,,,,,,,,,,,,,,,,,,,,,,,,,,,,,,,,,,,,,,,,,,,,,,,,,,,,,,,,,,,,,,,,,,,,,,,,,,,,,,
59a82dab800873000169ed58,2023-11-23_22h36.24.050,kallum_motion_pilot,2023.1.2,Win32,60.02040694,59a82dab800873000169ed58,656018846682f3df8008bb8f,656019aa056edf3065f755a4,1,148,310,33,1,onethree,,,,,,,,,,,,,,,,,,,,,,,,,,,,,,,,,,,,,,,,,,,,,,,,,,,,,,,,,,,,,,,,,,,,,,,,,,,,,,,,,,,,,
59a82dab800873000169ed58,2023-11-23_22h36.24.050,kallum_motion_pilot,2023.1.2,Win32,60.02040694,59a82dab800873000169ed58,656018846682f3df8008bb8f,656019aa056edf3065f755a4,1,149,311,128,1,fivesix,,,,,,,,,,,,,,,,,,,,,,,,,,,,,,,,,,,,,,,,,,,,,,,,,,,,,,,,,,,,,,,,,,,,,,,,,,,,,,,,,,,,,
59a82dab800873000169ed58,2023-11-23_22h36.24.050,kallum_motion_pilot,2023.1.2,Win32,60.02040694,59a82dab800873000169ed58,656018846682f3df8008bb8f,656019aa056edf3065f755a4,1,150,312,108,1,sevenfive,,,,,,,,,,,,,,,,,,,,,,,,,,,,,,,,,,,,,,,,,,,,,,,,,,,,,,,,,,,,,,,,,,,,,,,,,,,,,,,,,,,,,
59a82dab800873000169ed58,2023-11-23_22h36.24.050,kallum_motion_pilot,2023.1.2,Win32,60.02040694,59a82dab800873000169ed58,656018846682f3df8008bb8f,656019aa056edf3065f755a4,1,151,313,141,1,seveneight,,,,,,,,,,,,,,,,,,,,,,,,,,,,,,,,,,,,,,,,,,,,,,,,,,,,,,,,,,,,,,,,,,,,,,,,,,,,,,,,,,,,,
59a82dab800873000169ed58,2023-11-23_22h36.24.050,kallum_motion_pilot,2023.1.2,Win32,60.02040694,59a82dab800873000169ed58,656018846682f3df8008bb8f,656019aa056edf3065f755a4,1,152,314,60,1,threeone,,,,,,,,,,,,,,,,,,,,,,,,,,,,,,,,,,,,,,,,,,,,,,,,,,,,,,,,,,,,,,,,,,,,,,,,,,,,,,,,,,,,,
59a82dab800873000169ed58,2023-11-23_22h36.24.050,kallum_motion_pilot,2023.1.2,Win32,60.02040694,59a82dab800873000169ed58,656018846682f3df8008bb8f,656019aa056edf3065f755a4,1,153,315,152,1,fivesix,,,,,,,,,,,,,,,,,,,,,,,,,,,,,,,,,,,,,,,,,,,,,,,,,,,,,,,,,,,,,,,,,,,,,,,,,,,,,,,,,,,,,
59a82dab800873000169ed58,2023-11-23_22h36.24.050,kallum_motion_pilot,2023.1.2,Win32,60.02040694,59a82dab800873000169ed58,656018846682f3df8008bb8f,656019aa056edf3065f755a4,1,154,316,21,1,threefour,,,,,,,,,,,,,,,,,,,,,,,,,,,,,,,,,,,,,,,,,,,,,,,,,,,,,,,,,,,,,,,,,,,,,,,,,,,,,,,,,,,,,
59a82dab800873000169ed58,2023-11-23_22h36.24.050,kallum_motion_pilot,2023.1.2,Win32,60.02040694,59a82dab800873000169ed58,656018846682f3df8008bb8f,656019aa056edf3065f755a4,1,155,317,28,1,threeone,,,,,,,,,,,,,,,,,,,,,,,,,,,,,,,,,,,,,,,,,,,,,,,,,,,,,,,,,,,,,,,,,,,,,,,,,,,,,,,,,,,,,
59a82dab800873000169ed58,2023-11-23_22h36.24.050,kallum_motion_pilot,2023.1.2,Win32,60.02040694,59a82dab800873000169ed58,656018846682f3df8008bb8f,656019aa056edf3065f755a4,1,156,318,8,1,onetwo,,,,,,,,,,,,,,,,,,,,,,,,,,,,,,,,,,,,,,,,,,,,,,,,,,,,,,,,,,,,,,,,,,,,,,,,,,,,,,,,,,,,,
59a82dab800873000169ed58,2023-11-23_22h36.24.050,kallum_motion_pilot,2023.1.2,Win32,60.02040694,59a82dab800873000169ed58,656018846682f3df8008bb8f,656019aa056edf3065f755a4,1,157,319,38,1,fourtwo,,,,,,,,,,,,,,,,,,,,,,,,,,,,,,,,,,,,,,,,,,,,,,,,,,,,,,,,,,,,,,,,,,,,,,,,,,,,,,,,,,,,,
59a82dab800873000169ed58,2023-11-23_22h36.24.050,kallum_motion_pilot,2023.1.2,Win32,60.02040694,59a82dab800873000169ed58,656018846682f3df8008bb8f,656019aa056edf3065f755a4,1,158,320,25,1,onethree,,,,,,,,,,,,,,,,,,,,,,,,,,,,,,,,,,,,,,,,,,,,,,,,,,,,,,,,,,,,,,,,,,,,,,,,,,,,,,,,,,,,,
59a82dab800873000169ed58,2023-11-23_22h36.24.050,kallum_motion_pilot,2023.1.2,Win32,60.02040694,59a82dab800873000169ed58,656018846682f3df8008bb8f,656019aa056edf3065f755a4,1,159,321,66,1,twoone,,,,,,,,,,,,,,,,,,,,,,,,,,,,,,,,,,,,,,,,,,,,,,,,,,,,,,,,,,,,,,,,,,,,,,,,,,,,,,,,,,,,,
59a82dab800873000169ed58,2023-11-23_22h36.24.050,kallum_motion_pilot,2023.1.2,Win32,60.02040694,59a82dab800873000169ed58,656018846682f3df8008bb8f,656019aa056edf3065f755a4,1,160,322,86,1,eightsix,,,,,,,,,,,,,,,,,,,,,,,,,,,,,,,,,,,,,,,,,,,,,,,,,,,,,,,,,,,,,,,,,,,,,,,,,,,,,,,,,,,,,
59a82dab800873000169ed58,2023-11-23_22h36.24.050,kallum_motion_pilot,2023.1.2,Win32,60.02040694,59a82dab800873000169ed58,656018846682f3df8008bb8f,656019aa056edf3065f755a4,1,161,323,12,1,threeone,,,,,,,,,,,,,,,,,,,,,,,,,,,,,,,,,,,,,,,,,,,,,,,,,,,,,,,,,,,,,,,,,,,,,,,,,,,,,,,,,,,,,
59a82dab800873000169ed58,2023-11-23_22h36.24.050,kallum_motion_pilot,2023.1.2,Win32,60.02040694,59a82dab800873000169ed58,656018846682f3df8008bb8f,656019aa056edf3065f755a4,2,0,324,31,1,fourthree,,,,,,,,,,,,,,,,,,,,,,,,,,,,,,,,,,,,,,,,,,,,,,,,,,,,,,,,,,,,,,,,,,,,,,,,,,,,,,,,,,,,,
59a82dab800873000169ed58,2023-11-23_22h36.24.050,kallum_motion_pilot,2023.1.2,Win32,60.02040694,59a82dab800873000169ed58,656018846682f3df8008bb8f,656019aa056edf3065f755a4,2,1,325,111,1,eightseven,,,,,,,,,,,,,,,,,,,,,,,,,,,,,,,,,,,,,,,,,,,,,,,,,,,,,,,,,,,,,,,,,,,,,,,,,,,,,,,,,,,,,
59a82dab800873000169ed58,2023-11-23_22h36.24.050,kallum_motion_pilot,2023.1.2,Win32,60.02040694,59a82dab800873000169ed58,656018846682f3df8008bb8f,656019aa056edf3065f755a4,2,2,326,68,1,threeone,,,,,,,,,,,,,,,,,,,,,,,,,,,,,,,,,,,,,,,,,,,,,,,,,,,,,,,,,,,,,,,,,,,,,,,,,,,,,,,,,,,,,
59a82dab800873000169ed58,2023-11-23_22h36.24.050,kallum_motion_pilot,2023.1.2,Win32,60.02040694,59a82dab800873000169ed58,656018846682f3df8008bb8f,656019aa056edf3065f755a4,2,3,327,159,1,eightseven,,,,,,,,,,,,,,,,,,,,,,,,,,,,,,,,,,,,,,,,,,,,,,,,,,,,,,,,,,,,,,,,,,,,,,,,,,,,,,,,,,,,,
59a82dab800873000169ed58,2023-11-23_22h36.24.050,kallum_motion_pilot,2023.1.2,Win32,60.02040694,59a82dab800873000169ed58,656018846682f3df8008bb8f,656019aa056edf3065f755a4,2,4,328,38,1,fourtwo,,,,,,,,,,,,,,,,,,,,,,,,,,,,,,,,,,,,,,,,,,,,,,,,,,,,,,,,,,,,,,,,,,,,,,,,,,,,,,,,,,,,,
59a82dab800873000169ed58,2023-11-23_22h36.24.050,kallum_motion_pilot,2023.1.2,Win32,60.02040694,59a82dab800873000169ed58,656018846682f3df8008bb8f,656019aa056edf3065f755a4,2,5,329,152,1,fivesix,,,,,,,,,,,,,,,,,,,,,,,,,,,,,,,,,,,,,,,,,,,,,,,,,,,,,,,,,,,,,,,,,,,,,,,,,,,,,,,,,,,,,
59a82dab800873000169ed58,2023-11-23_22h36.24.050,kallum_motion_pilot,2023.1.2,Win32,60.02040694,59a82dab800873000169ed58,656018846682f3df8008bb8f,656019aa056edf3065f755a4,2,6,330,1,1,onethree,,,,,,,,,,,,,,,,,,,,,,,,,,,,,,,,,,,,,,,,,,,,,,,,,,,,,,,,,,,,,,,,,,,,,,,,,,,,,,,,,,,,,
59a82dab800873000169ed58,2023-11-23_22h36.24.050,kallum_motion_pilot,2023.1.2,Win32,60.02040694,59a82dab800873000169ed58,656018846682f3df8008bb8f,656019aa056edf3065f755a4,2,7,331,156,1,sevenfive,,,,,,,,,,,,,,,,,,,,,,,,,,,,,,,,,,,,,,,,,,,,,,,,,,,,,,,,,,,,,,,,,,,,,,,,,,,,,,,,,,,,,
59a82dab800873000169ed58,2023-11-23_22h36.24.050,kallum_motion_pilot,2023.1.2,Win32,60.02040694,59a82dab800873000169ed58,656018846682f3df8008bb8f,656019aa056edf3065f755a4,2,8,332,4,1,threeone,,,,,,,,,,,,,,,,,,,,,,,,,,,,,,,,,,,,,,,,,,,,,,,,,,,,,,,,,,,,,,,,,,,,,,,,,,,,,,,,,,,,,
59a82dab800873000169ed58,2023-11-23_22h36.24.050,kallum_motion_pilot,2023.1.2,Win32,60.02040694,59a82dab800873000169ed58,656018846682f3df8008bb8f,656019aa056edf3065f755a4,2,9,333,91,1,sixeight,,,,,,,,,,,,,,,,,,,,,,,,,,,,,,,,,,,,,,,,,,,,,,,,,,,,,,,,,,,,,,,,,,,,,,,,,,,,,,,,,,,,,
59a82dab800873000169ed58,2023-11-23_22h36.24.050,kallum_motion_pilot,2023.1.2,Win32,60.02040694,59a82dab800873000169ed58,656018846682f3df8008bb8f,656019aa056edf3065f755a4,2,10,334,50,1,twoone,,,,,,,,,,,,,,,,,,,,,,,,,,,,,,,,,,,,,,,,,,,,,,,,,,,,,,,,,,,,,,,,,,,,,,,,,,,,,,,,,,,,,
59a82dab800873000169ed58,2023-11-23_22h36.24.050,kallum_motion_pilot,2023.1.2,Win32,60.02040694,59a82dab800873000169ed58,656018846682f3df8008bb8f,656019aa056edf3065f755a4,2,11,335,144,1,fivesix,,,,,,,,,,,,,,,,,,,,,,,,,,,,,,,,,,,,,,,,,,,,,,,,,,,,,,,,,,,,,,,,,,,,,,,,,,,,,,,,,,,,,
59a82dab800873000169ed58,2023-11-23_22h36.24.050,kallum_motion_pilot,2023.1.2,Win32,60.02040694,59a82dab800873000169ed58,656018846682f3df8008bb8f,656019aa056edf3065f755a4,2,12,336,127,1,eightseven,,,,,,,,,,,,,,,,,,,,,,,,,,,,,,,,,,,,,,,,,,,,,,,,,,,,,,,,,,,,,,,,,,,,,,,,,,,,,,,,,,,,,
59a82dab800873000169ed58,2023-11-23_22h36.24.050,kallum_motion_pilot,2023.1.2,Win32,60.02040694,59a82dab800873000169ed58,656018846682f3df8008bb8f,656019aa056edf3065f755a4,2,13,337,64,1,onetwo,,,,,,,,,,,,,,,,,,,,,,,,,,,,,,,,,,,,,,,,,,,,,,,,,,,,,,,,,,,,,,,,,,,,,,,,,,,,,,,,,,,,,
59a82dab800873000169ed58,2023-11-23_22h36.24.050,kallum_motion_pilot,2023.1.2,Win32,60.02040694,59a82dab800873000169ed58,656018846682f3df8008bb8f,656019aa056edf3065f755a4,2,14,338,75,1,twofour,,,,,,,,,,,,,,,,,,,,,,,,,,,,,,,,,,,,,,,,,,,,,,,,,,,,,,,,,,,,,,,,,,,,,,,,,,,,,,,,,,,,,
59a82dab800873000169ed58,2023-11-23_22h36.24.050,kallum_motion_pilot,2023.1.2,Win32,60.02040694,59a82dab800873000169ed58,656018846682f3df8008bb8f,656019aa056edf3065f755a4,2,15,339,160,1,fivesix,,,,,,,,,,,,,,,,,,,,,,,,,,,,,,,,,,,,,,,,,,,,,,,,,,,,,,,,,,,,,,,,,,,,,,,,,,,,,,,,,,,,,
59a82dab800873000169ed58,2023-11-23_22h36.24.050,kallum_motion_pilot,2023.1.2,Win32,60.02040694,59a82dab800873000169ed58,656018846682f3df8008bb8f,656019aa056edf3065f755a4,2,16,340,126,1,eightsix,,,,,,,,,,,,,,,,,,,,,,,,,,,,,,,,,,,,,,,,,,,,,,,,,,,,,,,,,,,,,,,,,,,,,,,,,,,,,,,,,,,,,
59a82dab800873000169ed58,2023-11-23_22h36.24.050,kallum_motion_pilot,2023.1.2,Win32,60.02040694,59a82dab800873000169ed58,656018846682f3df8008bb8f,656019aa056edf3065f755a4,2,17,341,137,1,fiveseven,,,,,,,,,,,,,,,,,,,,,,,,,,,,,,,,,,,,,,,,,,,,,,,,,,,,,,,,,,,,,,,,,,,,,,,,,,,,,,,,,,,,,
59a82dab800873000169ed58,2023-11-23_22h36.24.050,kallum_motion_pilot,2023.1.2,Win32,60.02040694,59a82dab800873000169ed58,656018846682f3df8008bb8f,656019aa056edf3065f755a4,2,18,342,155,1,sixeight,,,,,,,,,,,,,,,,,,,,,,,,,,,,,,,,,,,,,,,,,,,,,,,,,,,,,,,,,,,,,,,,,,,,,,,,,,,,,,,,,,,,,
59a82dab800873000169ed58,2023-11-23_22h36.24.050,kallum_motion_pilot,2023.1.2,Win32,60.02040694,59a82dab800873000169ed58,656018846682f3df8008bb8f,656019aa056edf3065f755a4,2,19,343,52,1,threeone,,,,,,,,,,,,,,,,,,,,,,,,,,,,,,,,,,,,,,,,,,,,,,,,,,,,,,,,,,,,,,,,,,,,,,,,,,,,,,,,,,,,,
59a82dab800873000169ed58,2023-11-23_22h36.24.050,kallum_motion_pilot,2023.1.2,Win32,60.02040694,59a82dab800873000169ed58,656018846682f3df8008bb8f,656019aa056edf3065f755a4,2,20,344,139,1,sixeight,,,,,,,,,,,,,,,,,,,,,,,,,,,,,,,,,,,,,,,,,,,,,,,,,,,,,,,,,,,,,,,,,,,,,,,,,,,,,,,,,,,,,
59a82dab800873000169ed58,2023-11-23_22h36.24.050,kallum_motion_pilot,2023.1.2,Win32,60.02040694,59a82dab800873000169ed58,656018846682f3df8008bb8f,656019aa056edf3065f755a4,2,21,345,83,1,sixeight,,,,,,,,,,,,,,,,,,,,,,,,,,,,,,,,,,,,,,,,,,,,,,,,,,,,,,,,,,,,,,,,,,,,,,,,,,,,,,,,,,,,,
59a82dab800873000169ed58,2023-11-23_22h36.24.050,kallum_motion_pilot,2023.1.2,Win32,60.02040694,59a82dab800873000169ed58,656018846682f3df8008bb8f,656019aa056edf3065f755a4,2,22,346,7,1,fourthree,,,,,,,,,,,,,,,,,,,,,,,,,,,,,,,,,,,,,,,,,,,,,,,,,,,,,,,,,,,,,,,,,,,,,,,,,,,,,,,,,,,,,
59a82dab800873000169ed58,2023-11-23_22h36.24.050,kallum_motion_pilot,2023.1.2,Win32,60.02040694,59a82dab800873000169ed58,656018846682f3df8008bb8f,656019aa056edf3065f755a4,2,23,347,66,1,twoone,,,,,,,,,,,,,,,,,,,,,,,,,,,,,,,,,,,,,,,,,,,,,,,,,,,,,,,,,,,,,,,,,,,,,,,,,,,,,,,,,,,,,
59a82dab800873000169ed58,2023-11-23_22h36.24.050,kallum_motion_pilot,2023.1.2,Win32,60.02040694,59a82dab800873000169ed58,656018846682f3df8008bb8f,656019aa056edf3065f755a4,2,24,348,101,1,seveneight,,,,,,,,,,,,,,,,,,,,,,,,,,,,,,,,,,,,,,,,,,,,,,,,,,,,,,,,,,,,,,,,,,,,,,,,,,,,,,,,,,,,,
59a82dab800873000169ed58,2023-11-23_22h36.24.050,kallum_motion_pilot,2023.1.2,Win32,60.02040694,59a82dab800873000169ed58,656018846682f3df8008bb8f,656019aa056edf3065f755a4,2,25,349,143,1,eightseven,,,,,,,,,,,,,,,,,,,,,,,,,,,,,,,,,,,,,,,,,,,,,,,,,,,,,,,,,,,,,,,,,,,,,,,,,,,,,,,,,,,,,
