Prolific_ID*,date,expName,psychopyVersion,OS,frameRate,PROLIFIC_PID,STUDY_ID,SESSION_ID,hardcoded_stimulus_positions.thisRepN,hardcoded_stimulus_positions.thisTrialN,hardcoded_stimulus_positions.thisN,hardcoded_stimulus_positions.thisIndex,hardcoded_stimulus_positions.ran,StimulusPos,prac_stimorientation_import_loop.thisRepN,prac_stimorientation_import_loop.thisTrialN,prac_stimorientation_import_loop.thisN,prac_stimorientation_import_loop.thisIndex,prac_stimorientation_import_loop.ran,Stimorientation,key_resp.keys,key_resp.rt,key_resp_20.keys,key_resp_20.rt,key_resp_19.keys,key_resp_19.rt,key_resp_15.keys,key_resp_15.rt,key_resp_9.keys,key_resp_9.rt,key_resp_10.keys,key_resp_10.rt,Ecc,Circle1_ori,Circle2_ori,similarity,response_time,mouse_5.x,mouse_5.y,mouse_5.leftButton,mouse_5.midButton,mouse_5.rightButton,mouse_5.clicked_name,mouse_6.x,mouse_6.y,mouse_6.leftButton,mouse_6.midButton,mouse_6.rightButton,mouse_6.clicked_name,duringprac.thisRepN,duringprac.thisTrialN,duringprac.thisN,duringprac.thisIndex,duringprac.ran,key_resp_22.keys,key_resp_22.rt,circle1_ori,circle2_ori,mouse.x,mouse.y,mouse.leftButton,mouse.midButton,mouse.rightButton,mouse.clicked_name,mouse_2.x,mouse_2.y,mouse_2.leftButton,mouse_2.midButton,mouse_2.rightButton,mouse_2.clicked_name,mouse_3.x,mouse_3.y,mouse_3.leftButton,mouse_3.midButton,mouse_3.rightButton,catchresponse,catchnumber,response_time_catch,Catch,mouse_11.x,mouse_11.y,mouse_11.leftButton,mouse_11.midButton,mouse_11.rightButton,main_trial.thisRepN,main_trial.thisTrialN,main_trial.thisN,main_trial.thisIndex,main_trial.ran,Orientationtrialno,xcircle1_ori,xcircle2_ori,double_pass.thisRepN,double_pass.thisTrialN,double_pass.thisN,double_pass.thisIndex,double_pass.ran,key_resp_3.keys,key_resp_3.rt
656013477ede6fae3cc2728b,2023-11-23_20h31.26.615,kallum_motion_pilot,2023.1.2,MacIntel,30.00120005,656013477ede6fae3cc2728b,656018846682f3df8008bb8f,656018da8afbc727314d9682,,,,,,,,,,,,,,,,,,,,,,,,,,,,,,,,,,,,,,,,,,,,,,,,,,,,,,,,,,,,,,,,,,,,,,,,,,,,,,,,,,,,,,,,,,,
656013477ede6fae3cc2728b,2023-11-23_20h31.26.615,kallum_motion_pilot,2023.1.2,MacIntel,30.00120005,656013477ede6fae3cc2728b,656018846682f3df8008bb8f,656018da8afbc727314d9682,0,0,0,91,1,sixeight,,,,,,,,,,,,,,,,,,,,,,,,,,,,,,,,,,,,,,,,,,,,,,,,,,,,,,,,,,,,,,,,,,,,,,,,,,,,,,,,,,,,,
656013477ede6fae3cc2728b,2023-11-23_20h31.26.615,kallum_motion_pilot,2023.1.2,MacIntel,30.00120005,656013477ede6fae3cc2728b,656018846682f3df8008bb8f,656018da8afbc727314d9682,0,1,1,16,1,onetwo,,,,,,,,,,,,,,,,,,,,,,,,,,,,,,,,,,,,,,,,,,,,,,,,,,,,,,,,,,,,,,,,,,,,,,,,,,,,,,,,,,,,,
656013477ede6fae3cc2728b,2023-11-23_20h31.26.615,kallum_motion_pilot,2023.1.2,MacIntel,30.00120005,656013477ede6fae3cc2728b,656018846682f3df8008bb8f,656018da8afbc727314d9682,0,2,2,32,1,onetwo,,,,,,,,,,,,,,,,,,,,,,,,,,,,,,,,,,,,,,,,,,,,,,,,,,,,,,,,,,,,,,,,,,,,,,,,,,,,,,,,,,,,,
656013477ede6fae3cc2728b,2023-11-23_20h31.26.615,kallum_motion_pilot,2023.1.2,MacIntel,30.00120005,656013477ede6fae3cc2728b,656018846682f3df8008bb8f,656018da8afbc727314d9682,0,3,3,15,1,fourthree,,,,,,,,,,,,,,,,,,,,,,,,,,,,,,,,,,,,,,,,,,,,,,,,,,,,,,,,,,,,,,,,,,,,,,,,,,,,,,,,,,,,,
656013477ede6fae3cc2728b,2023-11-23_20h31.26.615,kallum_motion_pilot,2023.1.2,MacIntel,30.00120005,656013477ede6fae3cc2728b,656018846682f3df8008bb8f,656018da8afbc727314d9682,0,4,4,19,1,twofour,,,,,,,,,,,,,,,,,,,,,,,,,,,,,,,,,,,,,,,,,,,,,,,,,,,,,,,,,,,,,,,,,,,,,,,,,,,,,,,,,,,,,
656013477ede6fae3cc2728b,2023-11-23_20h31.26.615,kallum_motion_pilot,2023.1.2,MacIntel,30.00120005,656013477ede6fae3cc2728b,656018846682f3df8008bb8f,656018da8afbc727314d9682,0,5,5,53,1,threefour,,,,,,,,,,,,,,,,,,,,,,,,,,,,,,,,,,,,,,,,,,,,,,,,,,,,,,,,,,,,,,,,,,,,,,,,,,,,,,,,,,,,,
656013477ede6fae3cc2728b,2023-11-23_20h31.26.615,kallum_motion_pilot,2023.1.2,MacIntel,30.00120005,656013477ede6fae3cc2728b,656018846682f3df8008bb8f,656018da8afbc727314d9682,0,6,6,147,1,sixeight,,,,,,,,,,,,,,,,,,,,,,,,,,,,,,,,,,,,,,,,,,,,,,,,,,,,,,,,,,,,,,,,,,,,,,,,,,,,,,,,,,,,,
656013477ede6fae3cc2728b,2023-11-23_20h31.26.615,kallum_motion_pilot,2023.1.2,MacIntel,30.00120005,656013477ede6fae3cc2728b,656018846682f3df8008bb8f,656018da8afbc727314d9682,0,7,7,152,1,fivesix,,,,,,,,,,,,,,,,,,,,,,,,,,,,,,,,,,,,,,,,,,,,,,,,,,,,,,,,,,,,,,,,,,,,,,,,,,,,,,,,,,,,,
656013477ede6fae3cc2728b,2023-11-23_20h31.26.615,kallum_motion_pilot,2023.1.2,MacIntel,30.00120005,656013477ede6fae3cc2728b,656018846682f3df8008bb8f,656018da8afbc727314d9682,0,8,8,154,1,sixfive,,,,,,,,,,,,,,,,,,,,,,,,,,,,,,,,,,,,,,,,,,,,,,,,,,,,,,,,,,,,,,,,,,,,,,,,,,,,,,,,,,,,,
656013477ede6fae3cc2728b,2023-11-23_20h31.26.615,kallum_motion_pilot,2023.1.2,MacIntel,30.00120005,656013477ede6fae3cc2728b,656018846682f3df8008bb8f,656018da8afbc727314d9682,0,9,9,119,1,eightseven,,,,,,,,,,,,,,,,,,,,,,,,,,,,,,,,,,,,,,,,,,,,,,,,,,,,,,,,,,,,,,,,,,,,,,,,,,,,,,,,,,,,,
656013477ede6fae3cc2728b,2023-11-23_20h31.26.615,kallum_motion_pilot,2023.1.2,MacIntel,30.00120005,656013477ede6fae3cc2728b,656018846682f3df8008bb8f,656018da8afbc727314d9682,0,10,10,96,1,fivesix,,,,,,,,,,,,,,,,,,,,,,,,,,,,,,,,,,,,,,,,,,,,,,,,,,,,,,,,,,,,,,,,,,,,,,,,,,,,,,,,,,,,,
656013477ede6fae3cc2728b,2023-11-23_20h31.26.615,kallum_motion_pilot,2023.1.2,MacIntel,30.00120005,656013477ede6fae3cc2728b,656018846682f3df8008bb8f,656018da8afbc727314d9682,0,11,11,160,1,fivesix,,,,,,,,,,,,,,,,,,,,,,,,,,,,,,,,,,,,,,,,,,,,,,,,,,,,,,,,,,,,,,,,,,,,,,,,,,,,,,,,,,,,,
656013477ede6fae3cc2728b,2023-11-23_20h31.26.615,kallum_motion_pilot,2023.1.2,MacIntel,30.00120005,656013477ede6fae3cc2728b,656018846682f3df8008bb8f,656018da8afbc727314d9682,0,12,12,120,1,fivesix,,,,,,,,,,,,,,,,,,,,,,,,,,,,,,,,,,,,,,,,,,,,,,,,,,,,,,,,,,,,,,,,,,,,,,,,,,,,,,,,,,,,,
656013477ede6fae3cc2728b,2023-11-23_20h31.26.615,kallum_motion_pilot,2023.1.2,MacIntel,30.00120005,656013477ede6fae3cc2728b,656018846682f3df8008bb8f,656018da8afbc727314d9682,0,13,13,81,1,fiveseven,,,,,,,,,,,,,,,,,,,,,,,,,,,,,,,,,,,,,,,,,,,,,,,,,,,,,,,,,,,,,,,,,,,,,,,,,,,,,,,,,,,,,
656013477ede6fae3cc2728b,2023-11-23_20h31.26.615,kallum_motion_pilot,2023.1.2,MacIntel,30.00120005,656013477ede6fae3cc2728b,656018846682f3df8008bb8f,656018da8afbc727314d9682,0,14,14,86,1,eightsix,,,,,,,,,,,,,,,,,,,,,,,,,,,,,,,,,,,,,,,,,,,,,,,,,,,,,,,,,,,,,,,,,,,,,,,,,,,,,,,,,,,,,
656013477ede6fae3cc2728b,2023-11-23_20h31.26.615,kallum_motion_pilot,2023.1.2,MacIntel,30.00120005,656013477ede6fae3cc2728b,656018846682f3df8008bb8f,656018da8afbc727314d9682,0,15,15,48,1,onetwo,,,,,,,,,,,,,,,,,,,,,,,,,,,,,,,,,,,,,,,,,,,,,,,,,,,,,,,,,,,,,,,,,,,,,,,,,,,,,,,,,,,,,
656013477ede6fae3cc2728b,2023-11-23_20h31.26.615,kallum_motion_pilot,2023.1.2,MacIntel,30.00120005,656013477ede6fae3cc2728b,656018846682f3df8008bb8f,656018da8afbc727314d9682,0,16,16,151,1,eightseven,,,,,,,,,,,,,,,,,,,,,,,,,,,,,,,,,,,,,,,,,,,,,,,,,,,,,,,,,,,,,,,,,,,,,,,,,,,,,,,,,,,,,
656013477ede6fae3cc2728b,2023-11-23_20h31.26.615,kallum_motion_pilot,2023.1.2,MacIntel,30.00120005,656013477ede6fae3cc2728b,656018846682f3df8008bb8f,656018da8afbc727314d9682,0,17,17,64,1,onetwo,,,,,,,,,,,,,,,,,,,,,,,,,,,,,,,,,,,,,,,,,,,,,,,,,,,,,,,,,,,,,,,,,,,,,,,,,,,,,,,,,,,,,
656013477ede6fae3cc2728b,2023-11-23_20h31.26.615,kallum_motion_pilot,2023.1.2,MacIntel,30.00120005,656013477ede6fae3cc2728b,656018846682f3df8008bb8f,656018da8afbc727314d9682,0,18,18,58,1,twoone,,,,,,,,,,,,,,,,,,,,,,,,,,,,,,,,,,,,,,,,,,,,,,,,,,,,,,,,,,,,,,,,,,,,,,,,,,,,,,,,,,,,,
656013477ede6fae3cc2728b,2023-11-23_20h31.26.615,kallum_motion_pilot,2023.1.2,MacIntel,30.00120005,656013477ede6fae3cc2728b,656018846682f3df8008bb8f,656018da8afbc727314d9682,0,19,19,99,1,sixeight,,,,,,,,,,,,,,,,,,,,,,,,,,,,,,,,,,,,,,,,,,,,,,,,,,,,,,,,,,,,,,,,,,,,,,,,,,,,,,,,,,,,,
656013477ede6fae3cc2728b,2023-11-23_20h31.26.615,kallum_motion_pilot,2023.1.2,MacIntel,30.00120005,656013477ede6fae3cc2728b,656018846682f3df8008bb8f,656018da8afbc727314d9682,0,20,20,107,1,sixeight,,,,,,,,,,,,,,,,,,,,,,,,,,,,,,,,,,,,,,,,,,,,,,,,,,,,,,,,,,,,,,,,,,,,,,,,,,,,,,,,,,,,,
656013477ede6fae3cc2728b,2023-11-23_20h31.26.615,kallum_motion_pilot,2023.1.2,MacIntel,30.00120005,656013477ede6fae3cc2728b,656018846682f3df8008bb8f,656018da8afbc727314d9682,0,21,21,133,1,seveneight,,,,,,,,,,,,,,,,,,,,,,,,,,,,,,,,,,,,,,,,,,,,,,,,,,,,,,,,,,,,,,,,,,,,,,,,,,,,,,,,,,,,,
656013477ede6fae3cc2728b,2023-11-23_20h31.26.615,kallum_motion_pilot,2023.1.2,MacIntel,30.00120005,656013477ede6fae3cc2728b,656018846682f3df8008bb8f,656018da8afbc727314d9682,0,22,22,34,1,twoone,,,,,,,,,,,,,,,,,,,,,,,,,,,,,,,,,,,,,,,,,,,,,,,,,,,,,,,,,,,,,,,,,,,,,,,,,,,,,,,,,,,,,
656013477ede6fae3cc2728b,2023-11-23_20h31.26.615,kallum_motion_pilot,2023.1.2,MacIntel,30.00120005,656013477ede6fae3cc2728b,656018846682f3df8008bb8f,656018da8afbc727314d9682,0,23,23,125,1,seveneight,,,,,,,,,,,,,,,,,,,,,,,,,,,,,,,,,,,,,,,,,,,,,,,,,,,,,,,,,,,,,,,,,,,,,,,,,,,,,,,,,,,,,
656013477ede6fae3cc2728b,2023-11-23_20h31.26.615,kallum_motion_pilot,2023.1.2,MacIntel,30.00120005,656013477ede6fae3cc2728b,656018846682f3df8008bb8f,656018da8afbc727314d9682,0,24,24,73,1,onethree,,,,,,,,,,,,,,,,,,,,,,,,,,,,,,,,,,,,,,,,,,,,,,,,,,,,,,,,,,,,,,,,,,,,,,,,,,,,,,,,,,,,,
656013477ede6fae3cc2728b,2023-11-23_20h31.26.615,kallum_motion_pilot,2023.1.2,MacIntel,30.00120005,656013477ede6fae3cc2728b,656018846682f3df8008bb8f,656018da8afbc727314d9682,0,25,25,118,1,eightsix,,,,,,,,,,,,,,,,,,,,,,,,,,,,,,,,,,,,,,,,,,,,,,,,,,,,,,,,,,,,,,,,,,,,,,,,,,,,,,,,,,,,,
656013477ede6fae3cc2728b,2023-11-23_20h31.26.615,kallum_motion_pilot,2023.1.2,MacIntel,30.00120005,656013477ede6fae3cc2728b,656018846682f3df8008bb8f,656018da8afbc727314d9682,0,26,26,150,1,eightsix,,,,,,,,,,,,,,,,,,,,,,,,,,,,,,,,,,,,,,,,,,,,,,,,,,,,,,,,,,,,,,,,,,,,,,,,,,,,,,,,,,,,,
656013477ede6fae3cc2728b,2023-11-23_20h31.26.615,kallum_motion_pilot,2023.1.2,MacIntel,30.00120005,656013477ede6fae3cc2728b,656018846682f3df8008bb8f,656018da8afbc727314d9682,0,27,27,30,1,fourtwo,,,,,,,,,,,,,,,,,,,,,,,,,,,,,,,,,,,,,,,,,,,,,,,,,,,,,,,,,,,,,,,,,,,,,,,,,,,,,,,,,,,,,
656013477ede6fae3cc2728b,2023-11-23_20h31.26.615,kallum_motion_pilot,2023.1.2,MacIntel,30.00120005,656013477ede6fae3cc2728b,656018846682f3df8008bb8f,656018da8afbc727314d9682,0,28,28,149,1,seveneight,,,,,,,,,,,,,,,,,,,,,,,,,,,,,,,,,,,,,,,,,,,,,,,,,,,,,,,,,,,,,,,,,,,,,,,,,,,,,,,,,,,,,
656013477ede6fae3cc2728b,2023-11-23_20h31.26.615,kallum_motion_pilot,2023.1.2,MacIntel,30.00120005,656013477ede6fae3cc2728b,656018846682f3df8008bb8f,656018da8afbc727314d9682,0,29,29,106,1,sixfive,,,,,,,,,,,,,,,,,,,,,,,,,,,,,,,,,,,,,,,,,,,,,,,,,,,,,,,,,,,,,,,,,,,,,,,,,,,,,,,,,,,,,
656013477ede6fae3cc2728b,2023-11-23_20h31.26.615,kallum_motion_pilot,2023.1.2,MacIntel,30.00120005,656013477ede6fae3cc2728b,656018846682f3df8008bb8f,656018da8afbc727314d9682,0,30,30,115,1,sixeight,,,,,,,,,,,,,,,,,,,,,,,,,,,,,,,,,,,,,,,,,,,,,,,,,,,,,,,,,,,,,,,,,,,,,,,,,,,,,,,,,,,,,
656013477ede6fae3cc2728b,2023-11-23_20h31.26.615,kallum_motion_pilot,2023.1.2,MacIntel,30.00120005,656013477ede6fae3cc2728b,656018846682f3df8008bb8f,656018da8afbc727314d9682,0,31,31,74,1,twoone,,,,,,,,,,,,,,,,,,,,,,,,,,,,,,,,,,,,,,,,,,,,,,,,,,,,,,,,,,,,,,,,,,,,,,,,,,,,,,,,,,,,,
656013477ede6fae3cc2728b,2023-11-23_20h31.26.615,kallum_motion_pilot,2023.1.2,MacIntel,30.00120005,656013477ede6fae3cc2728b,656018846682f3df8008bb8f,656018da8afbc727314d9682,0,32,32,105,1,fiveseven,,,,,,,,,,,,,,,,,,,,,,,,,,,,,,,,,,,,,,,,,,,,,,,,,,,,,,,,,,,,,,,,,,,,,,,,,,,,,,,,,,,,,
656013477ede6fae3cc2728b,2023-11-23_20h31.26.615,kallum_motion_pilot,2023.1.2,MacIntel,30.00120005,656013477ede6fae3cc2728b,656018846682f3df8008bb8f,656018da8afbc727314d9682,0,33,33,0,1,onetwo,,,,,,,,,,,,,,,,,,,,,,,,,,,,,,,,,,,,,,,,,,,,,,,,,,,,,,,,,,,,,,,,,,,,,,,,,,,,,,,,,,,,,
656013477ede6fae3cc2728b,2023-11-23_20h31.26.615,kallum_motion_pilot,2023.1.2,MacIntel,30.00120005,656013477ede6fae3cc2728b,656018846682f3df8008bb8f,656018da8afbc727314d9682,0,34,34,42,1,twoone,,,,,,,,,,,,,,,,,,,,,,,,,,,,,,,,,,,,,,,,,,,,,,,,,,,,,,,,,,,,,,,,,,,,,,,,,,,,,,,,,,,,,
656013477ede6fae3cc2728b,2023-11-23_20h31.26.615,kallum_motion_pilot,2023.1.2,MacIntel,30.00120005,656013477ede6fae3cc2728b,656018846682f3df8008bb8f,656018da8afbc727314d9682,0,35,35,71,1,fourthree,,,,,,,,,,,,,,,,,,,,,,,,,,,,,,,,,,,,,,,,,,,,,,,,,,,,,,,,,,,,,,,,,,,,,,,,,,,,,,,,,,,,,
656013477ede6fae3cc2728b,2023-11-23_20h31.26.615,kallum_motion_pilot,2023.1.2,MacIntel,30.00120005,656013477ede6fae3cc2728b,656018846682f3df8008bb8f,656018da8afbc727314d9682,0,36,36,139,1,sixeight,,,,,,,,,,,,,,,,,,,,,,,,,,,,,,,,,,,,,,,,,,,,,,,,,,,,,,,,,,,,,,,,,,,,,,,,,,,,,,,,,,,,,
656013477ede6fae3cc2728b,2023-11-23_20h31.26.615,kallum_motion_pilot,2023.1.2,MacIntel,30.00120005,656013477ede6fae3cc2728b,656018846682f3df8008bb8f,656018da8afbc727314d9682,0,37,37,31,1,fourthree,,,,,,,,,,,,,,,,,,,,,,,,,,,,,,,,,,,,,,,,,,,,,,,,,,,,,,,,,,,,,,,,,,,,,,,,,,,,,,,,,,,,,
656013477ede6fae3cc2728b,2023-11-23_20h31.26.615,kallum_motion_pilot,2023.1.2,MacIntel,30.00120005,656013477ede6fae3cc2728b,656018846682f3df8008bb8f,656018da8afbc727314d9682,0,38,38,70,1,fourtwo,,,,,,,,,,,,,,,,,,,,,,,,,,,,,,,,,,,,,,,,,,,,,,,,,,,,,,,,,,,,,,,,,,,,,,,,,,,,,,,,,,,,,
656013477ede6fae3cc2728b,2023-11-23_20h31.26.615,kallum_motion_pilot,2023.1.2,MacIntel,30.00120005,656013477ede6fae3cc2728b,656018846682f3df8008bb8f,656018da8afbc727314d9682,0,39,39,37,1,threefour,,,,,,,,,,,,,,,,,,,,,,,,,,,,,,,,,,,,,,,,,,,,,,,,,,,,,,,,,,,,,,,,,,,,,,,,,,,,,,,,,,,,,
656013477ede6fae3cc2728b,2023-11-23_20h31.26.615,kallum_motion_pilot,2023.1.2,MacIntel,30.00120005,656013477ede6fae3cc2728b,656018846682f3df8008bb8f,656018da8afbc727314d9682,0,40,40,50,1,twoone,,,,,,,,,,,,,,,,,,,,,,,,,,,,,,,,,,,,,,,,,,,,,,,,,,,,,,,,,,,,,,,,,,,,,,,,,,,,,,,,,,,,,
656013477ede6fae3cc2728b,2023-11-23_20h31.26.615,kallum_motion_pilot,2023.1.2,MacIntel,30.00120005,656013477ede6fae3cc2728b,656018846682f3df8008bb8f,656018da8afbc727314d9682,0,41,41,122,1,sixfive,,,,,,,,,,,,,,,,,,,,,,,,,,,,,,,,,,,,,,,,,,,,,,,,,,,,,,,,,,,,,,,,,,,,,,,,,,,,,,,,,,,,,
656013477ede6fae3cc2728b,2023-11-23_20h31.26.615,kallum_motion_pilot,2023.1.2,MacIntel,30.00120005,656013477ede6fae3cc2728b,656018846682f3df8008bb8f,656018da8afbc727314d9682,0,42,42,83,1,sixeight,,,,,,,,,,,,,,,,,,,,,,,,,,,,,,,,,,,,,,,,,,,,,,,,,,,,,,,,,,,,,,,,,,,,,,,,,,,,,,,,,,,,,
656013477ede6fae3cc2728b,2023-11-23_20h31.26.615,kallum_motion_pilot,2023.1.2,MacIntel,30.00120005,656013477ede6fae3cc2728b,656018846682f3df8008bb8f,656018da8afbc727314d9682,0,43,43,88,1,fivesix,,,,,,,,,,,,,,,,,,,,,,,,,,,,,,,,,,,,,,,,,,,,,,,,,,,,,,,,,,,,,,,,,,,,,,,,,,,,,,,,,,,,,
656013477ede6fae3cc2728b,2023-11-23_20h31.26.615,kallum_motion_pilot,2023.1.2,MacIntel,30.00120005,656013477ede6fae3cc2728b,656018846682f3df8008bb8f,656018da8afbc727314d9682,0,44,44,127,1,eightseven,,,,,,,,,,,,,,,,,,,,,,,,,,,,,,,,,,,,,,,,,,,,,,,,,,,,,,,,,,,,,,,,,,,,,,,,,,,,,,,,,,,,,
656013477ede6fae3cc2728b,2023-11-23_20h31.26.615,kallum_motion_pilot,2023.1.2,MacIntel,30.00120005,656013477ede6fae3cc2728b,656018846682f3df8008bb8f,656018da8afbc727314d9682,0,45,45,104,1,fivesix,,,,,,,,,,,,,,,,,,,,,,,,,,,,,,,,,,,,,,,,,,,,,,,,,,,,,,,,,,,,,,,,,,,,,,,,,,,,,,,,,,,,,
656013477ede6fae3cc2728b,2023-11-23_20h31.26.615,kallum_motion_pilot,2023.1.2,MacIntel,30.00120005,656013477ede6fae3cc2728b,656018846682f3df8008bb8f,656018da8afbc727314d9682,0,46,46,36,1,threeone,,,,,,,,,,,,,,,,,,,,,,,,,,,,,,,,,,,,,,,,,,,,,,,,,,,,,,,,,,,,,,,,,,,,,,,,,,,,,,,,,,,,,
656013477ede6fae3cc2728b,2023-11-23_20h31.26.615,kallum_motion_pilot,2023.1.2,MacIntel,30.00120005,656013477ede6fae3cc2728b,656018846682f3df8008bb8f,656018da8afbc727314d9682,0,47,47,140,1,sevenfive,,,,,,,,,,,,,,,,,,,,,,,,,,,,,,,,,,,,,,,,,,,,,,,,,,,,,,,,,,,,,,,,,,,,,,,,,,,,,,,,,,,,,
656013477ede6fae3cc2728b,2023-11-23_20h31.26.615,kallum_motion_pilot,2023.1.2,MacIntel,30.00120005,656013477ede6fae3cc2728b,656018846682f3df8008bb8f,656018da8afbc727314d9682,0,48,48,79,1,eightseven,,,,,,,,,,,,,,,,,,,,,,,,,,,,,,,,,,,,,,,,,,,,,,,,,,,,,,,,,,,,,,,,,,,,,,,,,,,,,,,,,,,,,
656013477ede6fae3cc2728b,2023-11-23_20h31.26.615,kallum_motion_pilot,2023.1.2,MacIntel,30.00120005,656013477ede6fae3cc2728b,656018846682f3df8008bb8f,656018da8afbc727314d9682,0,49,49,46,1,fourtwo,,,,,,,,,,,,,,,,,,,,,,,,,,,,,,,,,,,,,,,,,,,,,,,,,,,,,,,,,,,,,,,,,,,,,,,,,,,,,,,,,,,,,
656013477ede6fae3cc2728b,2023-11-23_20h31.26.615,kallum_motion_pilot,2023.1.2,MacIntel,30.00120005,656013477ede6fae3cc2728b,656018846682f3df8008bb8f,656018da8afbc727314d9682,0,50,50,10,1,twoone,,,,,,,,,,,,,,,,,,,,,,,,,,,,,,,,,,,,,,,,,,,,,,,,,,,,,,,,,,,,,,,,,,,,,,,,,,,,,,,,,,,,,
656013477ede6fae3cc2728b,2023-11-23_20h31.26.615,kallum_motion_pilot,2023.1.2,MacIntel,30.00120005,656013477ede6fae3cc2728b,656018846682f3df8008bb8f,656018da8afbc727314d9682,0,51,51,112,1,fivesix,,,,,,,,,,,,,,,,,,,,,,,,,,,,,,,,,,,,,,,,,,,,,,,,,,,,,,,,,,,,,,,,,,,,,,,,,,,,,,,,,,,,,
656013477ede6fae3cc2728b,2023-11-23_20h31.26.615,kallum_motion_pilot,2023.1.2,MacIntel,30.00120005,656013477ede6fae3cc2728b,656018846682f3df8008bb8f,656018da8afbc727314d9682,0,52,52,65,1,onethree,,,,,,,,,,,,,,,,,,,,,,,,,,,,,,,,,,,,,,,,,,,,,,,,,,,,,,,,,,,,,,,,,,,,,,,,,,,,,,,,,,,,,
656013477ede6fae3cc2728b,2023-11-23_20h31.26.615,kallum_motion_pilot,2023.1.2,MacIntel,30.00120005,656013477ede6fae3cc2728b,656018846682f3df8008bb8f,656018da8afbc727314d9682,0,53,53,82,1,sixfive,,,,,,,,,,,,,,,,,,,,,,,,,,,,,,,,,,,,,,,,,,,,,,,,,,,,,,,,,,,,,,,,,,,,,,,,,,,,,,,,,,,,,
656013477ede6fae3cc2728b,2023-11-23_20h31.26.615,kallum_motion_pilot,2023.1.2,MacIntel,30.00120005,656013477ede6fae3cc2728b,656018846682f3df8008bb8f,656018da8afbc727314d9682,0,54,54,92,1,sevenfive,,,,,,,,,,,,,,,,,,,,,,,,,,,,,,,,,,,,,,,,,,,,,,,,,,,,,,,,,,,,,,,,,,,,,,,,,,,,,,,,,,,,,
656013477ede6fae3cc2728b,2023-11-23_20h31.26.615,kallum_motion_pilot,2023.1.2,MacIntel,30.00120005,656013477ede6fae3cc2728b,656018846682f3df8008bb8f,656018da8afbc727314d9682,0,55,55,136,1,fivesix,,,,,,,,,,,,,,,,,,,,,,,,,,,,,,,,,,,,,,,,,,,,,,,,,,,,,,,,,,,,,,,,,,,,,,,,,,,,,,,,,,,,,
656013477ede6fae3cc2728b,2023-11-23_20h31.26.615,kallum_motion_pilot,2023.1.2,MacIntel,30.00120005,656013477ede6fae3cc2728b,656018846682f3df8008bb8f,656018da8afbc727314d9682,0,56,56,93,1,seveneight,,,,,,,,,,,,,,,,,,,,,,,,,,,,,,,,,,,,,,,,,,,,,,,,,,,,,,,,,,,,,,,,,,,,,,,,,,,,,,,,,,,,,
656013477ede6fae3cc2728b,2023-11-23_20h31.26.615,kallum_motion_pilot,2023.1.2,MacIntel,30.00120005,656013477ede6fae3cc2728b,656018846682f3df8008bb8f,656018da8afbc727314d9682,0,57,57,35,1,twofour,,,,,,,,,,,,,,,,,,,,,,,,,,,,,,,,,,,,,,,,,,,,,,,,,,,,,,,,,,,,,,,,,,,,,,,,,,,,,,,,,,,,,
656013477ede6fae3cc2728b,2023-11-23_20h31.26.615,kallum_motion_pilot,2023.1.2,MacIntel,30.00120005,656013477ede6fae3cc2728b,656018846682f3df8008bb8f,656018da8afbc727314d9682,0,58,58,8,1,onetwo,,,,,,,,,,,,,,,,,,,,,,,,,,,,,,,,,,,,,,,,,,,,,,,,,,,,,,,,,,,,,,,,,,,,,,,,,,,,,,,,,,,,,
656013477ede6fae3cc2728b,2023-11-23_20h31.26.615,kallum_motion_pilot,2023.1.2,MacIntel,30.00120005,656013477ede6fae3cc2728b,656018846682f3df8008bb8f,656018da8afbc727314d9682,0,59,59,158,1,eightsix,,,,,,,,,,,,,,,,,,,,,,,,,,,,,,,,,,,,,,,,,,,,,,,,,,,,,,,,,,,,,,,,,,,,,,,,,,,,,,,,,,,,,
656013477ede6fae3cc2728b,2023-11-23_20h31.26.615,kallum_motion_pilot,2023.1.2,MacIntel,30.00120005,656013477ede6fae3cc2728b,656018846682f3df8008bb8f,656018da8afbc727314d9682,0,60,60,161,1,fiveseven,,,,,,,,,,,,,,,,,,,,,,,,,,,,,,,,,,,,,,,,,,,,,,,,,,,,,,,,,,,,,,,,,,,,,,,,,,,,,,,,,,,,,
656013477ede6fae3cc2728b,2023-11-23_20h31.26.615,kallum_motion_pilot,2023.1.2,MacIntel,30.00120005,656013477ede6fae3cc2728b,656018846682f3df8008bb8f,656018da8afbc727314d9682,0,61,61,33,1,onethree,,,,,,,,,,,,,,,,,,,,,,,,,,,,,,,,,,,,,,,,,,,,,,,,,,,,,,,,,,,,,,,,,,,,,,,,,,,,,,,,,,,,,
656013477ede6fae3cc2728b,2023-11-23_20h31.26.615,kallum_motion_pilot,2023.1.2,MacIntel,30.00120005,656013477ede6fae3cc2728b,656018846682f3df8008bb8f,656018da8afbc727314d9682,0,62,62,28,1,threeone,,,,,,,,,,,,,,,,,,,,,,,,,,,,,,,,,,,,,,,,,,,,,,,,,,,,,,,,,,,,,,,,,,,,,,,,,,,,,,,,,,,,,
656013477ede6fae3cc2728b,2023-11-23_20h31.26.615,kallum_motion_pilot,2023.1.2,MacIntel,30.00120005,656013477ede6fae3cc2728b,656018846682f3df8008bb8f,656018da8afbc727314d9682,0,63,63,23,1,fourthree,,,,,,,,,,,,,,,,,,,,,,,,,,,,,,,,,,,,,,,,,,,,,,,,,,,,,,,,,,,,,,,,,,,,,,,,,,,,,,,,,,,,,
656013477ede6fae3cc2728b,2023-11-23_20h31.26.615,kallum_motion_pilot,2023.1.2,MacIntel,30.00120005,656013477ede6fae3cc2728b,656018846682f3df8008bb8f,656018da8afbc727314d9682,0,64,64,155,1,sixeight,,,,,,,,,,,,,,,,,,,,,,,,,,,,,,,,,,,,,,,,,,,,,,,,,,,,,,,,,,,,,,,,,,,,,,,,,,,,,,,,,,,,,
656013477ede6fae3cc2728b,2023-11-23_20h31.26.615,kallum_motion_pilot,2023.1.2,MacIntel,30.00120005,656013477ede6fae3cc2728b,656018846682f3df8008bb8f,656018da8afbc727314d9682,0,65,65,117,1,seveneight,,,,,,,,,,,,,,,,,,,,,,,,,,,,,,,,,,,,,,,,,,,,,,,,,,,,,,,,,,,,,,,,,,,,,,,,,,,,,,,,,,,,,
656013477ede6fae3cc2728b,2023-11-23_20h31.26.615,kallum_motion_pilot,2023.1.2,MacIntel,30.00120005,656013477ede6fae3cc2728b,656018846682f3df8008bb8f,656018da8afbc727314d9682,0,66,66,1,1,onethree,,,,,,,,,,,,,,,,,,,,,,,,,,,,,,,,,,,,,,,,,,,,,,,,,,,,,,,,,,,,,,,,,,,,,,,,,,,,,,,,,,,,,
656013477ede6fae3cc2728b,2023-11-23_20h31.26.615,kallum_motion_pilot,2023.1.2,MacIntel,30.00120005,656013477ede6fae3cc2728b,656018846682f3df8008bb8f,656018da8afbc727314d9682,0,67,67,129,1,fiveseven,,,,,,,,,,,,,,,,,,,,,,,,,,,,,,,,,,,,,,,,,,,,,,,,,,,,,,,,,,,,,,,,,,,,,,,,,,,,,,,,,,,,,
656013477ede6fae3cc2728b,2023-11-23_20h31.26.615,kallum_motion_pilot,2023.1.2,MacIntel,30.00120005,656013477ede6fae3cc2728b,656018846682f3df8008bb8f,656018da8afbc727314d9682,0,68,68,45,1,threefour,,,,,,,,,,,,,,,,,,,,,,,,,,,,,,,,,,,,,,,,,,,,,,,,,,,,,,,,,,,,,,,,,,,,,,,,,,,,,,,,,,,,,
656013477ede6fae3cc2728b,2023-11-23_20h31.26.615,kallum_motion_pilot,2023.1.2,MacIntel,30.00120005,656013477ede6fae3cc2728b,656018846682f3df8008bb8f,656018da8afbc727314d9682,0,69,69,116,1,sevenfive,,,,,,,,,,,,,,,,,,,,,,,,,,,,,,,,,,,,,,,,,,,,,,,,,,,,,,,,,,,,,,,,,,,,,,,,,,,,,,,,,,,,,
656013477ede6fae3cc2728b,2023-11-23_20h31.26.615,kallum_motion_pilot,2023.1.2,MacIntel,30.00120005,656013477ede6fae3cc2728b,656018846682f3df8008bb8f,656018da8afbc727314d9682,0,70,70,18,1,twoone,,,,,,,,,,,,,,,,,,,,,,,,,,,,,,,,,,,,,,,,,,,,,,,,,,,,,,,,,,,,,,,,,,,,,,,,,,,,,,,,,,,,,
656013477ede6fae3cc2728b,2023-11-23_20h31.26.615,kallum_motion_pilot,2023.1.2,MacIntel,30.00120005,656013477ede6fae3cc2728b,656018846682f3df8008bb8f,656018da8afbc727314d9682,0,71,71,13,1,threefour,,,,,,,,,,,,,,,,,,,,,,,,,,,,,,,,,,,,,,,,,,,,,,,,,,,,,,,,,,,,,,,,,,,,,,,,,,,,,,,,,,,,,
656013477ede6fae3cc2728b,2023-11-23_20h31.26.615,kallum_motion_pilot,2023.1.2,MacIntel,30.00120005,656013477ede6fae3cc2728b,656018846682f3df8008bb8f,656018da8afbc727314d9682,0,72,72,85,1,seveneight,,,,,,,,,,,,,,,,,,,,,,,,,,,,,,,,,,,,,,,,,,,,,,,,,,,,,,,,,,,,,,,,,,,,,,,,,,,,,,,,,,,,,
656013477ede6fae3cc2728b,2023-11-23_20h31.26.615,kallum_motion_pilot,2023.1.2,MacIntel,30.00120005,656013477ede6fae3cc2728b,656018846682f3df8008bb8f,656018da8afbc727314d9682,0,73,73,146,1,sixfive,,,,,,,,,,,,,,,,,,,,,,,,,,,,,,,,,,,,,,,,,,,,,,,,,,,,,,,,,,,,,,,,,,,,,,,,,,,,,,,,,,,,,
656013477ede6fae3cc2728b,2023-11-23_20h31.26.615,kallum_motion_pilot,2023.1.2,MacIntel,30.00120005,656013477ede6fae3cc2728b,656018846682f3df8008bb8f,656018da8afbc727314d9682,0,74,74,52,1,threeone,,,,,,,,,,,,,,,,,,,,,,,,,,,,,,,,,,,,,,,,,,,,,,,,,,,,,,,,,,,,,,,,,,,,,,,,,,,,,,,,,,,,,
656013477ede6fae3cc2728b,2023-11-23_20h31.26.615,kallum_motion_pilot,2023.1.2,MacIntel,30.00120005,656013477ede6fae3cc2728b,656018846682f3df8008bb8f,656018da8afbc727314d9682,0,75,75,98,1,sixfive,,,,,,,,,,,,,,,,,,,,,,,,,,,,,,,,,,,,,,,,,,,,,,,,,,,,,,,,,,,,,,,,,,,,,,,,,,,,,,,,,,,,,
656013477ede6fae3cc2728b,2023-11-23_20h31.26.615,kallum_motion_pilot,2023.1.2,MacIntel,30.00120005,656013477ede6fae3cc2728b,656018846682f3df8008bb8f,656018da8afbc727314d9682,0,76,76,62,1,fourtwo,,,,,,,,,,,,,,,,,,,,,,,,,,,,,,,,,,,,,,,,,,,,,,,,,,,,,,,,,,,,,,,,,,,,,,,,,,,,,,,,,,,,,
656013477ede6fae3cc2728b,2023-11-23_20h31.26.615,kallum_motion_pilot,2023.1.2,MacIntel,30.00120005,656013477ede6fae3cc2728b,656018846682f3df8008bb8f,656018da8afbc727314d9682,0,77,77,159,1,eightseven,,,,,,,,,,,,,,,,,,,,,,,,,,,,,,,,,,,,,,,,,,,,,,,,,,,,,,,,,,,,,,,,,,,,,,,,,,,,,,,,,,,,,
656013477ede6fae3cc2728b,2023-11-23_20h31.26.615,kallum_motion_pilot,2023.1.2,MacIntel,30.00120005,656013477ede6fae3cc2728b,656018846682f3df8008bb8f,656018da8afbc727314d9682,0,78,78,51,1,twofour,,,,,,,,,,,,,,,,,,,,,,,,,,,,,,,,,,,,,,,,,,,,,,,,,,,,,,,,,,,,,,,,,,,,,,,,,,,,,,,,,,,,,
656013477ede6fae3cc2728b,2023-11-23_20h31.26.615,kallum_motion_pilot,2023.1.2,MacIntel,30.00120005,656013477ede6fae3cc2728b,656018846682f3df8008bb8f,656018da8afbc727314d9682,0,79,79,144,1,fivesix,,,,,,,,,,,,,,,,,,,,,,,,,,,,,,,,,,,,,,,,,,,,,,,,,,,,,,,,,,,,,,,,,,,,,,,,,,,,,,,,,,,,,
656013477ede6fae3cc2728b,2023-11-23_20h31.26.615,kallum_motion_pilot,2023.1.2,MacIntel,30.00120005,656013477ede6fae3cc2728b,656018846682f3df8008bb8f,656018da8afbc727314d9682,0,80,80,26,1,twoone,,,,,,,,,,,,,,,,,,,,,,,,,,,,,,,,,,,,,,,,,,,,,,,,,,,,,,,,,,,,,,,,,,,,,,,,,,,,,,,,,,,,,
656013477ede6fae3cc2728b,2023-11-23_20h31.26.615,kallum_motion_pilot,2023.1.2,MacIntel,30.00120005,656013477ede6fae3cc2728b,656018846682f3df8008bb8f,656018da8afbc727314d9682,0,81,81,114,1,sixfive,,,,,,,,,,,,,,,,,,,,,,,,,,,,,,,,,,,,,,,,,,,,,,,,,,,,,,,,,,,,,,,,,,,,,,,,,,,,,,,,,,,,,
656013477ede6fae3cc2728b,2023-11-23_20h31.26.615,kallum_motion_pilot,2023.1.2,MacIntel,30.00120005,656013477ede6fae3cc2728b,656018846682f3df8008bb8f,656018da8afbc727314d9682,0,82,82,142,1,eightsix,,,,,,,,,,,,,,,,,,,,,,,,,,,,,,,,,,,,,,,,,,,,,,,,,,,,,,,,,,,,,,,,,,,,,,,,,,,,,,,,,,,,,
656013477ede6fae3cc2728b,2023-11-23_20h31.26.615,kallum_motion_pilot,2023.1.2,MacIntel,30.00120005,656013477ede6fae3cc2728b,656018846682f3df8008bb8f,656018da8afbc727314d9682,0,83,83,69,1,threefour,,,,,,,,,,,,,,,,,,,,,,,,,,,,,,,,,,,,,,,,,,,,,,,,,,,,,,,,,,,,,,,,,,,,,,,,,,,,,,,,,,,,,
656013477ede6fae3cc2728b,2023-11-23_20h31.26.615,kallum_motion_pilot,2023.1.2,MacIntel,30.00120005,656013477ede6fae3cc2728b,656018846682f3df8008bb8f,656018da8afbc727314d9682,0,84,84,14,1,fourtwo,,,,,,,,,,,,,,,,,,,,,,,,,,,,,,,,,,,,,,,,,,,,,,,,,,,,,,,,,,,,,,,,,,,,,,,,,,,,,,,,,,,,,
656013477ede6fae3cc2728b,2023-11-23_20h31.26.615,kallum_motion_pilot,2023.1.2,MacIntel,30.00120005,656013477ede6fae3cc2728b,656018846682f3df8008bb8f,656018da8afbc727314d9682,0,85,85,102,1,eightsix,,,,,,,,,,,,,,,,,,,,,,,,,,,,,,,,,,,,,,,,,,,,,,,,,,,,,,,,,,,,,,,,,,,,,,,,,,,,,,,,,,,,,
656013477ede6fae3cc2728b,2023-11-23_20h31.26.615,kallum_motion_pilot,2023.1.2,MacIntel,30.00120005,656013477ede6fae3cc2728b,656018846682f3df8008bb8f,656018da8afbc727314d9682,0,86,86,108,1,sevenfive,,,,,,,,,,,,,,,,,,,,,,,,,,,,,,,,,,,,,,,,,,,,,,,,,,,,,,,,,,,,,,,,,,,,,,,,,,,,,,,,,,,,,
656013477ede6fae3cc2728b,2023-11-23_20h31.26.615,kallum_motion_pilot,2023.1.2,MacIntel,30.00120005,656013477ede6fae3cc2728b,656018846682f3df8008bb8f,656018da8afbc727314d9682,0,87,87,110,1,eightsix,,,,,,,,,,,,,,,,,,,,,,,,,,,,,,,,,,,,,,,,,,,,,,,,,,,,,,,,,,,,,,,,,,,,,,,,,,,,,,,,,,,,,
656013477ede6fae3cc2728b,2023-11-23_20h31.26.615,kallum_motion_pilot,2023.1.2,MacIntel,30.00120005,656013477ede6fae3cc2728b,656018846682f3df8008bb8f,656018da8afbc727314d9682,0,88,88,137,1,fiveseven,,,,,,,,,,,,,,,,,,,,,,,,,,,,,,,,,,,,,,,,,,,,,,,,,,,,,,,,,,,,,,,,,,,,,,,,,,,,,,,,,,,,,
656013477ede6fae3cc2728b,2023-11-23_20h31.26.615,kallum_motion_pilot,2023.1.2,MacIntel,30.00120005,656013477ede6fae3cc2728b,656018846682f3df8008bb8f,656018da8afbc727314d9682,0,89,89,72,1,onetwo,,,,,,,,,,,,,,,,,,,,,,,,,,,,,,,,,,,,,,,,,,,,,,,,,,,,,,,,,,,,,,,,,,,,,,,,,,,,,,,,,,,,,
656013477ede6fae3cc2728b,2023-11-23_20h31.26.615,kallum_motion_pilot,2023.1.2,MacIntel,30.00120005,656013477ede6fae3cc2728b,656018846682f3df8008bb8f,656018da8afbc727314d9682,0,90,90,75,1,twofour,,,,,,,,,,,,,,,,,,,,,,,,,,,,,,,,,,,,,,,,,,,,,,,,,,,,,,,,,,,,,,,,,,,,,,,,,,,,,,,,,,,,,
656013477ede6fae3cc2728b,2023-11-23_20h31.26.615,kallum_motion_pilot,2023.1.2,MacIntel,30.00120005,656013477ede6fae3cc2728b,656018846682f3df8008bb8f,656018da8afbc727314d9682,0,91,91,76,1,threeone,,,,,,,,,,,,,,,,,,,,,,,,,,,,,,,,,,,,,,,,,,,,,,,,,,,,,,,,,,,,,,,,,,,,,,,,,,,,,,,,,,,,,
656013477ede6fae3cc2728b,2023-11-23_20h31.26.615,kallum_motion_pilot,2023.1.2,MacIntel,30.00120005,656013477ede6fae3cc2728b,656018846682f3df8008bb8f,656018da8afbc727314d9682,0,92,92,90,1,sixfive,,,,,,,,,,,,,,,,,,,,,,,,,,,,,,,,,,,,,,,,,,,,,,,,,,,,,,,,,,,,,,,,,,,,,,,,,,,,,,,,,,,,,
656013477ede6fae3cc2728b,2023-11-23_20h31.26.615,kallum_motion_pilot,2023.1.2,MacIntel,30.00120005,656013477ede6fae3cc2728b,656018846682f3df8008bb8f,656018da8afbc727314d9682,0,93,93,143,1,eightseven,,,,,,,,,,,,,,,,,,,,,,,,,,,,,,,,,,,,,,,,,,,,,,,,,,,,,,,,,,,,,,,,,,,,,,,,,,,,,,,,,,,,,
656013477ede6fae3cc2728b,2023-11-23_20h31.26.615,kallum_motion_pilot,2023.1.2,MacIntel,30.00120005,656013477ede6fae3cc2728b,656018846682f3df8008bb8f,656018da8afbc727314d9682,0,94,94,126,1,eightsix,,,,,,,,,,,,,,,,,,,,,,,,,,,,,,,,,,,,,,,,,,,,,,,,,,,,,,,,,,,,,,,,,,,,,,,,,,,,,,,,,,,,,
656013477ede6fae3cc2728b,2023-11-23_20h31.26.615,kallum_motion_pilot,2023.1.2,MacIntel,30.00120005,656013477ede6fae3cc2728b,656018846682f3df8008bb8f,656018da8afbc727314d9682,0,95,95,20,1,threeone,,,,,,,,,,,,,,,,,,,,,,,,,,,,,,,,,,,,,,,,,,,,,,,,,,,,,,,,,,,,,,,,,,,,,,,,,,,,,,,,,,,,,
656013477ede6fae3cc2728b,2023-11-23_20h31.26.615,kallum_motion_pilot,2023.1.2,MacIntel,30.00120005,656013477ede6fae3cc2728b,656018846682f3df8008bb8f,656018da8afbc727314d9682,0,96,96,153,1,fiveseven,,,,,,,,,,,,,,,,,,,,,,,,,,,,,,,,,,,,,,,,,,,,,,,,,,,,,,,,,,,,,,,,,,,,,,,,,,,,,,,,,,,,,
656013477ede6fae3cc2728b,2023-11-23_20h31.26.615,kallum_motion_pilot,2023.1.2,MacIntel,30.00120005,656013477ede6fae3cc2728b,656018846682f3df8008bb8f,656018da8afbc727314d9682,0,97,97,40,1,onetwo,,,,,,,,,,,,,,,,,,,,,,,,,,,,,,,,,,,,,,,,,,,,,,,,,,,,,,,,,,,,,,,,,,,,,,,,,,,,,,,,,,,,,
656013477ede6fae3cc2728b,2023-11-23_20h31.26.615,kallum_motion_pilot,2023.1.2,MacIntel,30.00120005,656013477ede6fae3cc2728b,656018846682f3df8008bb8f,656018da8afbc727314d9682,0,98,98,27,1,twofour,,,,,,,,,,,,,,,,,,,,,,,,,,,,,,,,,,,,,,,,,,,,,,,,,,,,,,,,,,,,,,,,,,,,,,,,,,,,,,,,,,,,,
656013477ede6fae3cc2728b,2023-11-23_20h31.26.615,kallum_motion_pilot,2023.1.2,MacIntel,30.00120005,656013477ede6fae3cc2728b,656018846682f3df8008bb8f,656018da8afbc727314d9682,0,99,99,11,1,twofour,,,,,,,,,,,,,,,,,,,,,,,,,,,,,,,,,,,,,,,,,,,,,,,,,,,,,,,,,,,,,,,,,,,,,,,,,,,,,,,,,,,,,
656013477ede6fae3cc2728b,2023-11-23_20h31.26.615,kallum_motion_pilot,2023.1.2,MacIntel,30.00120005,656013477ede6fae3cc2728b,656018846682f3df8008bb8f,656018da8afbc727314d9682,0,100,100,3,1,twofour,,,,,,,,,,,,,,,,,,,,,,,,,,,,,,,,,,,,,,,,,,,,,,,,,,,,,,,,,,,,,,,,,,,,,,,,,,,,,,,,,,,,,
656013477ede6fae3cc2728b,2023-11-23_20h31.26.615,kallum_motion_pilot,2023.1.2,MacIntel,30.00120005,656013477ede6fae3cc2728b,656018846682f3df8008bb8f,656018da8afbc727314d9682,0,101,101,103,1,eightseven,,,,,,,,,,,,,,,,,,,,,,,,,,,,,,,,,,,,,,,,,,,,,,,,,,,,,,,,,,,,,,,,,,,,,,,,,,,,,,,,,,,,,
656013477ede6fae3cc2728b,2023-11-23_20h31.26.615,kallum_motion_pilot,2023.1.2,MacIntel,30.00120005,656013477ede6fae3cc2728b,656018846682f3df8008bb8f,656018da8afbc727314d9682,0,102,102,67,1,twofour,,,,,,,,,,,,,,,,,,,,,,,,,,,,,,,,,,,,,,,,,,,,,,,,,,,,,,,,,,,,,,,,,,,,,,,,,,,,,,,,,,,,,
656013477ede6fae3cc2728b,2023-11-23_20h31.26.615,kallum_motion_pilot,2023.1.2,MacIntel,30.00120005,656013477ede6fae3cc2728b,656018846682f3df8008bb8f,656018da8afbc727314d9682,0,103,103,123,1,sixeight,,,,,,,,,,,,,,,,,,,,,,,,,,,,,,,,,,,,,,,,,,,,,,,,,,,,,,,,,,,,,,,,,,,,,,,,,,,,,,,,,,,,,
656013477ede6fae3cc2728b,2023-11-23_20h31.26.615,kallum_motion_pilot,2023.1.2,MacIntel,30.00120005,656013477ede6fae3cc2728b,656018846682f3df8008bb8f,656018da8afbc727314d9682,0,104,104,7,1,fourthree,,,,,,,,,,,,,,,,,,,,,,,,,,,,,,,,,,,,,,,,,,,,,,,,,,,,,,,,,,,,,,,,,,,,,,,,,,,,,,,,,,,,,
656013477ede6fae3cc2728b,2023-11-23_20h31.26.615,kallum_motion_pilot,2023.1.2,MacIntel,30.00120005,656013477ede6fae3cc2728b,656018846682f3df8008bb8f,656018da8afbc727314d9682,0,105,105,131,1,sixeight,,,,,,,,,,,,,,,,,,,,,,,,,,,,,,,,,,,,,,,,,,,,,,,,,,,,,,,,,,,,,,,,,,,,,,,,,,,,,,,,,,,,,
656013477ede6fae3cc2728b,2023-11-23_20h31.26.615,kallum_motion_pilot,2023.1.2,MacIntel,30.00120005,656013477ede6fae3cc2728b,656018846682f3df8008bb8f,656018da8afbc727314d9682,0,106,106,38,1,fourtwo,,,,,,,,,,,,,,,,,,,,,,,,,,,,,,,,,,,,,,,,,,,,,,,,,,,,,,,,,,,,,,,,,,,,,,,,,,,,,,,,,,,,,
656013477ede6fae3cc2728b,2023-11-23_20h31.26.615,kallum_motion_pilot,2023.1.2,MacIntel,30.00120005,656013477ede6fae3cc2728b,656018846682f3df8008bb8f,656018da8afbc727314d9682,0,107,107,39,1,fourthree,,,,,,,,,,,,,,,,,,,,,,,,,,,,,,,,,,,,,,,,,,,,,,,,,,,,,,,,,,,,,,,,,,,,,,,,,,,,,,,,,,,,,
656013477ede6fae3cc2728b,2023-11-23_20h31.26.615,kallum_motion_pilot,2023.1.2,MacIntel,30.00120005,656013477ede6fae3cc2728b,656018846682f3df8008bb8f,656018da8afbc727314d9682,0,108,108,59,1,twofour,,,,,,,,,,,,,,,,,,,,,,,,,,,,,,,,,,,,,,,,,,,,,,,,,,,,,,,,,,,,,,,,,,,,,,,,,,,,,,,,,,,,,
656013477ede6fae3cc2728b,2023-11-23_20h31.26.615,kallum_motion_pilot,2023.1.2,MacIntel,30.00120005,656013477ede6fae3cc2728b,656018846682f3df8008bb8f,656018da8afbc727314d9682,0,109,109,141,1,seveneight,,,,,,,,,,,,,,,,,,,,,,,,,,,,,,,,,,,,,,,,,,,,,,,,,,,,,,,,,,,,,,,,,,,,,,,,,,,,,,,,,,,,,
656013477ede6fae3cc2728b,2023-11-23_20h31.26.615,kallum_motion_pilot,2023.1.2,MacIntel,30.00120005,656013477ede6fae3cc2728b,656018846682f3df8008bb8f,656018da8afbc727314d9682,0,110,110,6,1,fourtwo,,,,,,,,,,,,,,,,,,,,,,,,,,,,,,,,,,,,,,,,,,,,,,,,,,,,,,,,,,,,,,,,,,,,,,,,,,,,,,,,,,,,,
656013477ede6fae3cc2728b,2023-11-23_20h31.26.615,kallum_motion_pilot,2023.1.2,MacIntel,30.00120005,656013477ede6fae3cc2728b,656018846682f3df8008bb8f,656018da8afbc727314d9682,0,111,111,25,1,onethree,,,,,,,,,,,,,,,,,,,,,,,,,,,,,,,,,,,,,,,,,,,,,,,,,,,,,,,,,,,,,,,,,,,,,,,,,,,,,,,,,,,,,
656013477ede6fae3cc2728b,2023-11-23_20h31.26.615,kallum_motion_pilot,2023.1.2,MacIntel,30.00120005,656013477ede6fae3cc2728b,656018846682f3df8008bb8f,656018da8afbc727314d9682,0,112,112,24,1,onetwo,,,,,,,,,,,,,,,,,,,,,,,,,,,,,,,,,,,,,,,,,,,,,,,,,,,,,,,,,,,,,,,,,,,,,,,,,,,,,,,,,,,,,
656013477ede6fae3cc2728b,2023-11-23_20h31.26.615,kallum_motion_pilot,2023.1.2,MacIntel,30.00120005,656013477ede6fae3cc2728b,656018846682f3df8008bb8f,656018da8afbc727314d9682,0,113,113,56,1,onetwo,,,,,,,,,,,,,,,,,,,,,,,,,,,,,,,,,,,,,,,,,,,,,,,,,,,,,,,,,,,,,,,,,,,,,,,,,,,,,,,,,,,,,
656013477ede6fae3cc2728b,2023-11-23_20h31.26.615,kallum_motion_pilot,2023.1.2,MacIntel,30.00120005,656013477ede6fae3cc2728b,656018846682f3df8008bb8f,656018da8afbc727314d9682,0,114,114,111,1,eightseven,,,,,,,,,,,,,,,,,,,,,,,,,,,,,,,,,,,,,,,,,,,,,,,,,,,,,,,,,,,,,,,,,,,,,,,,,,,,,,,,,,,,,
656013477ede6fae3cc2728b,2023-11-23_20h31.26.615,kallum_motion_pilot,2023.1.2,MacIntel,30.00120005,656013477ede6fae3cc2728b,656018846682f3df8008bb8f,656018da8afbc727314d9682,0,115,115,97,1,fiveseven,,,,,,,,,,,,,,,,,,,,,,,,,,,,,,,,,,,,,,,,,,,,,,,,,,,,,,,,,,,,,,,,,,,,,,,,,,,,,,,,,,,,,
656013477ede6fae3cc2728b,2023-11-23_20h31.26.615,kallum_motion_pilot,2023.1.2,MacIntel,30.00120005,656013477ede6fae3cc2728b,656018846682f3df8008bb8f,656018da8afbc727314d9682,0,116,116,21,1,threefour,,,,,,,,,,,,,,,,,,,,,,,,,,,,,,,,,,,,,,,,,,,,,,,,,,,,,,,,,,,,,,,,,,,,,,,,,,,,,,,,,,,,,
656013477ede6fae3cc2728b,2023-11-23_20h31.26.615,kallum_motion_pilot,2023.1.2,MacIntel,30.00120005,656013477ede6fae3cc2728b,656018846682f3df8008bb8f,656018da8afbc727314d9682,0,117,117,94,1,eightsix,,,,,,,,,,,,,,,,,,,,,,,,,,,,,,,,,,,,,,,,,,,,,,,,,,,,,,,,,,,,,,,,,,,,,,,,,,,,,,,,,,,,,
656013477ede6fae3cc2728b,2023-11-23_20h31.26.615,kallum_motion_pilot,2023.1.2,MacIntel,30.00120005,656013477ede6fae3cc2728b,656018846682f3df8008bb8f,656018da8afbc727314d9682,0,118,118,2,1,twoone,,,,,,,,,,,,,,,,,,,,,,,,,,,,,,,,,,,,,,,,,,,,,,,,,,,,,,,,,,,,,,,,,,,,,,,,,,,,,,,,,,,,,
656013477ede6fae3cc2728b,2023-11-23_20h31.26.615,kallum_motion_pilot,2023.1.2,MacIntel,30.00120005,656013477ede6fae3cc2728b,656018846682f3df8008bb8f,656018da8afbc727314d9682,0,119,119,132,1,sevenfive,,,,,,,,,,,,,,,,,,,,,,,,,,,,,,,,,,,,,,,,,,,,,,,,,,,,,,,,,,,,,,,,,,,,,,,,,,,,,,,,,,,,,
656013477ede6fae3cc2728b,2023-11-23_20h31.26.615,kallum_motion_pilot,2023.1.2,MacIntel,30.00120005,656013477ede6fae3cc2728b,656018846682f3df8008bb8f,656018da8afbc727314d9682,0,120,120,157,1,seveneight,,,,,,,,,,,,,,,,,,,,,,,,,,,,,,,,,,,,,,,,,,,,,,,,,,,,,,,,,,,,,,,,,,,,,,,,,,,,,,,,,,,,,
656013477ede6fae3cc2728b,2023-11-23_20h31.26.615,kallum_motion_pilot,2023.1.2,MacIntel,30.00120005,656013477ede6fae3cc2728b,656018846682f3df8008bb8f,656018da8afbc727314d9682,0,121,121,12,1,threeone,,,,,,,,,,,,,,,,,,,,,,,,,,,,,,,,,,,,,,,,,,,,,,,,,,,,,,,,,,,,,,,,,,,,,,,,,,,,,,,,,,,,,
656013477ede6fae3cc2728b,2023-11-23_20h31.26.615,kallum_motion_pilot,2023.1.2,MacIntel,30.00120005,656013477ede6fae3cc2728b,656018846682f3df8008bb8f,656018da8afbc727314d9682,0,122,122,84,1,sevenfive,,,,,,,,,,,,,,,,,,,,,,,,,,,,,,,,,,,,,,,,,,,,,,,,,,,,,,,,,,,,,,,,,,,,,,,,,,,,,,,,,,,,,
656013477ede6fae3cc2728b,2023-11-23_20h31.26.615,kallum_motion_pilot,2023.1.2,MacIntel,30.00120005,656013477ede6fae3cc2728b,656018846682f3df8008bb8f,656018da8afbc727314d9682,0,123,123,61,1,threefour,,,,,,,,,,,,,,,,,,,,,,,,,,,,,,,,,,,,,,,,,,,,,,,,,,,,,,,,,,,,,,,,,,,,,,,,,,,,,,,,,,,,,
656013477ede6fae3cc2728b,2023-11-23_20h31.26.615,kallum_motion_pilot,2023.1.2,MacIntel,30.00120005,656013477ede6fae3cc2728b,656018846682f3df8008bb8f,656018da8afbc727314d9682,0,124,124,128,1,fivesix,,,,,,,,,,,,,,,,,,,,,,,,,,,,,,,,,,,,,,,,,,,,,,,,,,,,,,,,,,,,,,,,,,,,,,,,,,,,,,,,,,,,,
656013477ede6fae3cc2728b,2023-11-23_20h31.26.615,kallum_motion_pilot,2023.1.2,MacIntel,30.00120005,656013477ede6fae3cc2728b,656018846682f3df8008bb8f,656018da8afbc727314d9682,0,125,125,43,1,twofour,,,,,,,,,,,,,,,,,,,,,,,,,,,,,,,,,,,,,,,,,,,,,,,,,,,,,,,,,,,,,,,,,,,,,,,,,,,,,,,,,,,,,
656013477ede6fae3cc2728b,2023-11-23_20h31.26.615,kallum_motion_pilot,2023.1.2,MacIntel,30.00120005,656013477ede6fae3cc2728b,656018846682f3df8008bb8f,656018da8afbc727314d9682,0,126,126,4,1,threeone,,,,,,,,,,,,,,,,,,,,,,,,,,,,,,,,,,,,,,,,,,,,,,,,,,,,,,,,,,,,,,,,,,,,,,,,,,,,,,,,,,,,,
656013477ede6fae3cc2728b,2023-11-23_20h31.26.615,kallum_motion_pilot,2023.1.2,MacIntel,30.00120005,656013477ede6fae3cc2728b,656018846682f3df8008bb8f,656018da8afbc727314d9682,0,127,127,109,1,seveneight,,,,,,,,,,,,,,,,,,,,,,,,,,,,,,,,,,,,,,,,,,,,,,,,,,,,,,,,,,,,,,,,,,,,,,,,,,,,,,,,,,,,,
656013477ede6fae3cc2728b,2023-11-23_20h31.26.615,kallum_motion_pilot,2023.1.2,MacIntel,30.00120005,656013477ede6fae3cc2728b,656018846682f3df8008bb8f,656018da8afbc727314d9682,0,128,128,156,1,sevenfive,,,,,,,,,,,,,,,,,,,,,,,,,,,,,,,,,,,,,,,,,,,,,,,,,,,,,,,,,,,,,,,,,,,,,,,,,,,,,,,,,,,,,
656013477ede6fae3cc2728b,2023-11-23_20h31.26.615,kallum_motion_pilot,2023.1.2,MacIntel,30.00120005,656013477ede6fae3cc2728b,656018846682f3df8008bb8f,656018da8afbc727314d9682,0,129,129,9,1,onethree,,,,,,,,,,,,,,,,,,,,,,,,,,,,,,,,,,,,,,,,,,,,,,,,,,,,,,,,,,,,,,,,,,,,,,,,,,,,,,,,,,,,,
656013477ede6fae3cc2728b,2023-11-23_20h31.26.615,kallum_motion_pilot,2023.1.2,MacIntel,30.00120005,656013477ede6fae3cc2728b,656018846682f3df8008bb8f,656018da8afbc727314d9682,0,130,130,80,1,fivesix,,,,,,,,,,,,,,,,,,,,,,,,,,,,,,,,,,,,,,,,,,,,,,,,,,,,,,,,,,,,,,,,,,,,,,,,,,,,,,,,,,,,,
656013477ede6fae3cc2728b,2023-11-23_20h31.26.615,kallum_motion_pilot,2023.1.2,MacIntel,30.00120005,656013477ede6fae3cc2728b,656018846682f3df8008bb8f,656018da8afbc727314d9682,0,131,131,44,1,threeone,,,,,,,,,,,,,,,,,,,,,,,,,,,,,,,,,,,,,,,,,,,,,,,,,,,,,,,,,,,,,,,,,,,,,,,,,,,,,,,,,,,,,
656013477ede6fae3cc2728b,2023-11-23_20h31.26.615,kallum_motion_pilot,2023.1.2,MacIntel,30.00120005,656013477ede6fae3cc2728b,656018846682f3df8008bb8f,656018da8afbc727314d9682,0,132,132,49,1,onethree,,,,,,,,,,,,,,,,,,,,,,,,,,,,,,,,,,,,,,,,,,,,,,,,,,,,,,,,,,,,,,,,,,,,,,,,,,,,,,,,,,,,,
656013477ede6fae3cc2728b,2023-11-23_20h31.26.615,kallum_motion_pilot,2023.1.2,MacIntel,30.00120005,656013477ede6fae3cc2728b,656018846682f3df8008bb8f,656018da8afbc727314d9682,0,133,133,41,1,onethree,,,,,,,,,,,,,,,,,,,,,,,,,,,,,,,,,,,,,,,,,,,,,,,,,,,,,,,,,,,,,,,,,,,,,,,,,,,,,,,,,,,,,
656013477ede6fae3cc2728b,2023-11-23_20h31.26.615,kallum_motion_pilot,2023.1.2,MacIntel,30.00120005,656013477ede6fae3cc2728b,656018846682f3df8008bb8f,656018da8afbc727314d9682,0,134,134,78,1,fourtwo,,,,,,,,,,,,,,,,,,,,,,,,,,,,,,,,,,,,,,,,,,,,,,,,,,,,,,,,,,,,,,,,,,,,,,,,,,,,,,,,,,,,,
656013477ede6fae3cc2728b,2023-11-23_20h31.26.615,kallum_motion_pilot,2023.1.2,MacIntel,30.00120005,656013477ede6fae3cc2728b,656018846682f3df8008bb8f,656018da8afbc727314d9682,0,135,135,17,1,onethree,,,,,,,,,,,,,,,,,,,,,,,,,,,,,,,,,,,,,,,,,,,,,,,,,,,,,,,,,,,,,,,,,,,,,,,,,,,,,,,,,,,,,
656013477ede6fae3cc2728b,2023-11-23_20h31.26.615,kallum_motion_pilot,2023.1.2,MacIntel,30.00120005,656013477ede6fae3cc2728b,656018846682f3df8008bb8f,656018da8afbc727314d9682,0,136,136,77,1,threefour,,,,,,,,,,,,,,,,,,,,,,,,,,,,,,,,,,,,,,,,,,,,,,,,,,,,,,,,,,,,,,,,,,,,,,,,,,,,,,,,,,,,,
656013477ede6fae3cc2728b,2023-11-23_20h31.26.615,kallum_motion_pilot,2023.1.2,MacIntel,30.00120005,656013477ede6fae3cc2728b,656018846682f3df8008bb8f,656018da8afbc727314d9682,0,137,137,100,1,sevenfive,,,,,,,,,,,,,,,,,,,,,,,,,,,,,,,,,,,,,,,,,,,,,,,,,,,,,,,,,,,,,,,,,,,,,,,,,,,,,,,,,,,,,
656013477ede6fae3cc2728b,2023-11-23_20h31.26.615,kallum_motion_pilot,2023.1.2,MacIntel,30.00120005,656013477ede6fae3cc2728b,656018846682f3df8008bb8f,656018da8afbc727314d9682,0,138,138,57,1,onethree,,,,,,,,,,,,,,,,,,,,,,,,,,,,,,,,,,,,,,,,,,,,,,,,,,,,,,,,,,,,,,,,,,,,,,,,,,,,,,,,,,,,,
656013477ede6fae3cc2728b,2023-11-23_20h31.26.615,kallum_motion_pilot,2023.1.2,MacIntel,30.00120005,656013477ede6fae3cc2728b,656018846682f3df8008bb8f,656018da8afbc727314d9682,0,139,139,63,1,fourthree,,,,,,,,,,,,,,,,,,,,,,,,,,,,,,,,,,,,,,,,,,,,,,,,,,,,,,,,,,,,,,,,,,,,,,,,,,,,,,,,,,,,,
656013477ede6fae3cc2728b,2023-11-23_20h31.26.615,kallum_motion_pilot,2023.1.2,MacIntel,30.00120005,656013477ede6fae3cc2728b,656018846682f3df8008bb8f,656018da8afbc727314d9682,0,140,140,87,1,eightseven,,,,,,,,,,,,,,,,,,,,,,,,,,,,,,,,,,,,,,,,,,,,,,,,,,,,,,,,,,,,,,,,,,,,,,,,,,,,,,,,,,,,,
656013477ede6fae3cc2728b,2023-11-23_20h31.26.615,kallum_motion_pilot,2023.1.2,MacIntel,30.00120005,656013477ede6fae3cc2728b,656018846682f3df8008bb8f,656018da8afbc727314d9682,0,141,141,22,1,fourtwo,,,,,,,,,,,,,,,,,,,,,,,,,,,,,,,,,,,,,,,,,,,,,,,,,,,,,,,,,,,,,,,,,,,,,,,,,,,,,,,,,,,,,
656013477ede6fae3cc2728b,2023-11-23_20h31.26.615,kallum_motion_pilot,2023.1.2,MacIntel,30.00120005,656013477ede6fae3cc2728b,656018846682f3df8008bb8f,656018da8afbc727314d9682,0,142,142,89,1,fiveseven,,,,,,,,,,,,,,,,,,,,,,,,,,,,,,,,,,,,,,,,,,,,,,,,,,,,,,,,,,,,,,,,,,,,,,,,,,,,,,,,,,,,,
656013477ede6fae3cc2728b,2023-11-23_20h31.26.615,kallum_motion_pilot,2023.1.2,MacIntel,30.00120005,656013477ede6fae3cc2728b,656018846682f3df8008bb8f,656018da8afbc727314d9682,0,143,143,148,1,sevenfive,,,,,,,,,,,,,,,,,,,,,,,,,,,,,,,,,,,,,,,,,,,,,,,,,,,,,,,,,,,,,,,,,,,,,,,,,,,,,,,,,,,,,
656013477ede6fae3cc2728b,2023-11-23_20h31.26.615,kallum_motion_pilot,2023.1.2,MacIntel,30.00120005,656013477ede6fae3cc2728b,656018846682f3df8008bb8f,656018da8afbc727314d9682,0,144,144,121,1,fiveseven,,,,,,,,,,,,,,,,,,,,,,,,,,,,,,,,,,,,,,,,,,,,,,,,,,,,,,,,,,,,,,,,,,,,,,,,,,,,,,,,,,,,,
656013477ede6fae3cc2728b,2023-11-23_20h31.26.615,kallum_motion_pilot,2023.1.2,MacIntel,30.00120005,656013477ede6fae3cc2728b,656018846682f3df8008bb8f,656018da8afbc727314d9682,0,145,145,113,1,fiveseven,,,,,,,,,,,,,,,,,,,,,,,,,,,,,,,,,,,,,,,,,,,,,,,,,,,,,,,,,,,,,,,,,,,,,,,,,,,,,,,,,,,,,
656013477ede6fae3cc2728b,2023-11-23_20h31.26.615,kallum_motion_pilot,2023.1.2,MacIntel,30.00120005,656013477ede6fae3cc2728b,656018846682f3df8008bb8f,656018da8afbc727314d9682,0,146,146,66,1,twoone,,,,,,,,,,,,,,,,,,,,,,,,,,,,,,,,,,,,,,,,,,,,,,,,,,,,,,,,,,,,,,,,,,,,,,,,,,,,,,,,,,,,,
656013477ede6fae3cc2728b,2023-11-23_20h31.26.615,kallum_motion_pilot,2023.1.2,MacIntel,30.00120005,656013477ede6fae3cc2728b,656018846682f3df8008bb8f,656018da8afbc727314d9682,0,147,147,47,1,fourthree,,,,,,,,,,,,,,,,,,,,,,,,,,,,,,,,,,,,,,,,,,,,,,,,,,,,,,,,,,,,,,,,,,,,,,,,,,,,,,,,,,,,,
656013477ede6fae3cc2728b,2023-11-23_20h31.26.615,kallum_motion_pilot,2023.1.2,MacIntel,30.00120005,656013477ede6fae3cc2728b,656018846682f3df8008bb8f,656018da8afbc727314d9682,0,148,148,29,1,threefour,,,,,,,,,,,,,,,,,,,,,,,,,,,,,,,,,,,,,,,,,,,,,,,,,,,,,,,,,,,,,,,,,,,,,,,,,,,,,,,,,,,,,
656013477ede6fae3cc2728b,2023-11-23_20h31.26.615,kallum_motion_pilot,2023.1.2,MacIntel,30.00120005,656013477ede6fae3cc2728b,656018846682f3df8008bb8f,656018da8afbc727314d9682,0,149,149,124,1,sevenfive,,,,,,,,,,,,,,,,,,,,,,,,,,,,,,,,,,,,,,,,,,,,,,,,,,,,,,,,,,,,,,,,,,,,,,,,,,,,,,,,,,,,,
656013477ede6fae3cc2728b,2023-11-23_20h31.26.615,kallum_motion_pilot,2023.1.2,MacIntel,30.00120005,656013477ede6fae3cc2728b,656018846682f3df8008bb8f,656018da8afbc727314d9682,0,150,150,101,1,seveneight,,,,,,,,,,,,,,,,,,,,,,,,,,,,,,,,,,,,,,,,,,,,,,,,,,,,,,,,,,,,,,,,,,,,,,,,,,,,,,,,,,,,,
656013477ede6fae3cc2728b,2023-11-23_20h31.26.615,kallum_motion_pilot,2023.1.2,MacIntel,30.00120005,656013477ede6fae3cc2728b,656018846682f3df8008bb8f,656018da8afbc727314d9682,0,151,151,5,1,threefour,,,,,,,,,,,,,,,,,,,,,,,,,,,,,,,,,,,,,,,,,,,,,,,,,,,,,,,,,,,,,,,,,,,,,,,,,,,,,,,,,,,,,
656013477ede6fae3cc2728b,2023-11-23_20h31.26.615,kallum_motion_pilot,2023.1.2,MacIntel,30.00120005,656013477ede6fae3cc2728b,656018846682f3df8008bb8f,656018da8afbc727314d9682,0,152,152,60,1,threeone,,,,,,,,,,,,,,,,,,,,,,,,,,,,,,,,,,,,,,,,,,,,,,,,,,,,,,,,,,,,,,,,,,,,,,,,,,,,,,,,,,,,,
656013477ede6fae3cc2728b,2023-11-23_20h31.26.615,kallum_motion_pilot,2023.1.2,MacIntel,30.00120005,656013477ede6fae3cc2728b,656018846682f3df8008bb8f,656018da8afbc727314d9682,0,153,153,55,1,fourthree,,,,,,,,,,,,,,,,,,,,,,,,,,,,,,,,,,,,,,,,,,,,,,,,,,,,,,,,,,,,,,,,,,,,,,,,,,,,,,,,,,,,,
656013477ede6fae3cc2728b,2023-11-23_20h31.26.615,kallum_motion_pilot,2023.1.2,MacIntel,30.00120005,656013477ede6fae3cc2728b,656018846682f3df8008bb8f,656018da8afbc727314d9682,0,154,154,134,1,eightsix,,,,,,,,,,,,,,,,,,,,,,,,,,,,,,,,,,,,,,,,,,,,,,,,,,,,,,,,,,,,,,,,,,,,,,,,,,,,,,,,,,,,,
656013477ede6fae3cc2728b,2023-11-23_20h31.26.615,kallum_motion_pilot,2023.1.2,MacIntel,30.00120005,656013477ede6fae3cc2728b,656018846682f3df8008bb8f,656018da8afbc727314d9682,0,155,155,68,1,threeone,,,,,,,,,,,,,,,,,,,,,,,,,,,,,,,,,,,,,,,,,,,,,,,,,,,,,,,,,,,,,,,,,,,,,,,,,,,,,,,,,,,,,
656013477ede6fae3cc2728b,2023-11-23_20h31.26.615,kallum_motion_pilot,2023.1.2,MacIntel,30.00120005,656013477ede6fae3cc2728b,656018846682f3df8008bb8f,656018da8afbc727314d9682,0,156,156,145,1,fiveseven,,,,,,,,,,,,,,,,,,,,,,,,,,,,,,,,,,,,,,,,,,,,,,,,,,,,,,,,,,,,,,,,,,,,,,,,,,,,,,,,,,,,,
656013477ede6fae3cc2728b,2023-11-23_20h31.26.615,kallum_motion_pilot,2023.1.2,MacIntel,30.00120005,656013477ede6fae3cc2728b,656018846682f3df8008bb8f,656018da8afbc727314d9682,0,157,157,95,1,eightseven,,,,,,,,,,,,,,,,,,,,,,,,,,,,,,,,,,,,,,,,,,,,,,,,,,,,,,,,,,,,,,,,,,,,,,,,,,,,,,,,,,,,,
656013477ede6fae3cc2728b,2023-11-23_20h31.26.615,kallum_motion_pilot,2023.1.2,MacIntel,30.00120005,656013477ede6fae3cc2728b,656018846682f3df8008bb8f,656018da8afbc727314d9682,0,158,158,130,1,sixfive,,,,,,,,,,,,,,,,,,,,,,,,,,,,,,,,,,,,,,,,,,,,,,,,,,,,,,,,,,,,,,,,,,,,,,,,,,,,,,,,,,,,,
656013477ede6fae3cc2728b,2023-11-23_20h31.26.615,kallum_motion_pilot,2023.1.2,MacIntel,30.00120005,656013477ede6fae3cc2728b,656018846682f3df8008bb8f,656018da8afbc727314d9682,0,159,159,138,1,sixfive,,,,,,,,,,,,,,,,,,,,,,,,,,,,,,,,,,,,,,,,,,,,,,,,,,,,,,,,,,,,,,,,,,,,,,,,,,,,,,,,,,,,,
656013477ede6fae3cc2728b,2023-11-23_20h31.26.615,kallum_motion_pilot,2023.1.2,MacIntel,30.00120005,656013477ede6fae3cc2728b,656018846682f3df8008bb8f,656018da8afbc727314d9682,0,160,160,135,1,eightseven,,,,,,,,,,,,,,,,,,,,,,,,,,,,,,,,,,,,,,,,,,,,,,,,,,,,,,,,,,,,,,,,,,,,,,,,,,,,,,,,,,,,,
656013477ede6fae3cc2728b,2023-11-23_20h31.26.615,kallum_motion_pilot,2023.1.2,MacIntel,30.00120005,656013477ede6fae3cc2728b,656018846682f3df8008bb8f,656018da8afbc727314d9682,0,161,161,54,1,fourtwo,,,,,,,,,,,,,,,,,,,,,,,,,,,,,,,,,,,,,,,,,,,,,,,,,,,,,,,,,,,,,,,,,,,,,,,,,,,,,,,,,,,,,
656013477ede6fae3cc2728b,2023-11-23_20h31.26.615,kallum_motion_pilot,2023.1.2,MacIntel,30.00120005,656013477ede6fae3cc2728b,656018846682f3df8008bb8f,656018da8afbc727314d9682,1,0,162,11,1,twofour,,,,,,,,,,,,,,,,,,,,,,,,,,,,,,,,,,,,,,,,,,,,,,,,,,,,,,,,,,,,,,,,,,,,,,,,,,,,,,,,,,,,,
656013477ede6fae3cc2728b,2023-11-23_20h31.26.615,kallum_motion_pilot,2023.1.2,MacIntel,30.00120005,656013477ede6fae3cc2728b,656018846682f3df8008bb8f,656018da8afbc727314d9682,1,1,163,54,1,fourtwo,,,,,,,,,,,,,,,,,,,,,,,,,,,,,,,,,,,,,,,,,,,,,,,,,,,,,,,,,,,,,,,,,,,,,,,,,,,,,,,,,,,,,
656013477ede6fae3cc2728b,2023-11-23_20h31.26.615,kallum_motion_pilot,2023.1.2,MacIntel,30.00120005,656013477ede6fae3cc2728b,656018846682f3df8008bb8f,656018da8afbc727314d9682,1,2,164,21,1,threefour,,,,,,,,,,,,,,,,,,,,,,,,,,,,,,,,,,,,,,,,,,,,,,,,,,,,,,,,,,,,,,,,,,,,,,,,,,,,,,,,,,,,,
656013477ede6fae3cc2728b,2023-11-23_20h31.26.615,kallum_motion_pilot,2023.1.2,MacIntel,30.00120005,656013477ede6fae3cc2728b,656018846682f3df8008bb8f,656018da8afbc727314d9682,1,3,165,131,1,sixeight,,,,,,,,,,,,,,,,,,,,,,,,,,,,,,,,,,,,,,,,,,,,,,,,,,,,,,,,,,,,,,,,,,,,,,,,,,,,,,,,,,,,,
656013477ede6fae3cc2728b,2023-11-23_20h31.26.615,kallum_motion_pilot,2023.1.2,MacIntel,30.00120005,656013477ede6fae3cc2728b,656018846682f3df8008bb8f,656018da8afbc727314d9682,1,4,166,139,1,sixeight,,,,,,,,,,,,,,,,,,,,,,,,,,,,,,,,,,,,,,,,,,,,,,,,,,,,,,,,,,,,,,,,,,,,,,,,,,,,,,,,,,,,,
656013477ede6fae3cc2728b,2023-11-23_20h31.26.615,kallum_motion_pilot,2023.1.2,MacIntel,30.00120005,656013477ede6fae3cc2728b,656018846682f3df8008bb8f,656018da8afbc727314d9682,1,5,167,154,1,sixfive,,,,,,,,,,,,,,,,,,,,,,,,,,,,,,,,,,,,,,,,,,,,,,,,,,,,,,,,,,,,,,,,,,,,,,,,,,,,,,,,,,,,,
656013477ede6fae3cc2728b,2023-11-23_20h31.26.615,kallum_motion_pilot,2023.1.2,MacIntel,30.00120005,656013477ede6fae3cc2728b,656018846682f3df8008bb8f,656018da8afbc727314d9682,1,6,168,105,1,fiveseven,,,,,,,,,,,,,,,,,,,,,,,,,,,,,,,,,,,,,,,,,,,,,,,,,,,,,,,,,,,,,,,,,,,,,,,,,,,,,,,,,,,,,
656013477ede6fae3cc2728b,2023-11-23_20h31.26.615,kallum_motion_pilot,2023.1.2,MacIntel,30.00120005,656013477ede6fae3cc2728b,656018846682f3df8008bb8f,656018da8afbc727314d9682,1,7,169,39,1,fourthree,,,,,,,,,,,,,,,,,,,,,,,,,,,,,,,,,,,,,,,,,,,,,,,,,,,,,,,,,,,,,,,,,,,,,,,,,,,,,,,,,,,,,
656013477ede6fae3cc2728b,2023-11-23_20h31.26.615,kallum_motion_pilot,2023.1.2,MacIntel,30.00120005,656013477ede6fae3cc2728b,656018846682f3df8008bb8f,656018da8afbc727314d9682,1,8,170,89,1,fiveseven,,,,,,,,,,,,,,,,,,,,,,,,,,,,,,,,,,,,,,,,,,,,,,,,,,,,,,,,,,,,,,,,,,,,,,,,,,,,,,,,,,,,,
656013477ede6fae3cc2728b,2023-11-23_20h31.26.615,kallum_motion_pilot,2023.1.2,MacIntel,30.00120005,656013477ede6fae3cc2728b,656018846682f3df8008bb8f,656018da8afbc727314d9682,1,9,171,37,1,threefour,,,,,,,,,,,,,,,,,,,,,,,,,,,,,,,,,,,,,,,,,,,,,,,,,,,,,,,,,,,,,,,,,,,,,,,,,,,,,,,,,,,,,
656013477ede6fae3cc2728b,2023-11-23_20h31.26.615,kallum_motion_pilot,2023.1.2,MacIntel,30.00120005,656013477ede6fae3cc2728b,656018846682f3df8008bb8f,656018da8afbc727314d9682,1,10,172,96,1,fivesix,,,,,,,,,,,,,,,,,,,,,,,,,,,,,,,,,,,,,,,,,,,,,,,,,,,,,,,,,,,,,,,,,,,,,,,,,,,,,,,,,,,,,
656013477ede6fae3cc2728b,2023-11-23_20h31.26.615,kallum_motion_pilot,2023.1.2,MacIntel,30.00120005,656013477ede6fae3cc2728b,656018846682f3df8008bb8f,656018da8afbc727314d9682,1,11,173,142,1,eightsix,,,,,,,,,,,,,,,,,,,,,,,,,,,,,,,,,,,,,,,,,,,,,,,,,,,,,,,,,,,,,,,,,,,,,,,,,,,,,,,,,,,,,
656013477ede6fae3cc2728b,2023-11-23_20h31.26.615,kallum_motion_pilot,2023.1.2,MacIntel,30.00120005,656013477ede6fae3cc2728b,656018846682f3df8008bb8f,656018da8afbc727314d9682,1,12,174,79,1,eightseven,,,,,,,,,,,,,,,,,,,,,,,,,,,,,,,,,,,,,,,,,,,,,,,,,,,,,,,,,,,,,,,,,,,,,,,,,,,,,,,,,,,,,
656013477ede6fae3cc2728b,2023-11-23_20h31.26.615,kallum_motion_pilot,2023.1.2,MacIntel,30.00120005,656013477ede6fae3cc2728b,656018846682f3df8008bb8f,656018da8afbc727314d9682,1,13,175,80,1,fivesix,,,,,,,,,,,,,,,,,,,,,,,,,,,,,,,,,,,,,,,,,,,,,,,,,,,,,,,,,,,,,,,,,,,,,,,,,,,,,,,,,,,,,
656013477ede6fae3cc2728b,2023-11-23_20h31.26.615,kallum_motion_pilot,2023.1.2,MacIntel,30.00120005,656013477ede6fae3cc2728b,656018846682f3df8008bb8f,656018da8afbc727314d9682,1,14,176,159,1,eightseven,,,,,,,,,,,,,,,,,,,,,,,,,,,,,,,,,,,,,,,,,,,,,,,,,,,,,,,,,,,,,,,,,,,,,,,,,,,,,,,,,,,,,
656013477ede6fae3cc2728b,2023-11-23_20h31.26.615,kallum_motion_pilot,2023.1.2,MacIntel,30.00120005,656013477ede6fae3cc2728b,656018846682f3df8008bb8f,656018da8afbc727314d9682,1,15,177,28,1,threeone,,,,,,,,,,,,,,,,,,,,,,,,,,,,,,,,,,,,,,,,,,,,,,,,,,,,,,,,,,,,,,,,,,,,,,,,,,,,,,,,,,,,,
656013477ede6fae3cc2728b,2023-11-23_20h31.26.615,kallum_motion_pilot,2023.1.2,MacIntel,30.00120005,656013477ede6fae3cc2728b,656018846682f3df8008bb8f,656018da8afbc727314d9682,1,16,178,111,1,eightseven,,,,,,,,,,,,,,,,,,,,,,,,,,,,,,,,,,,,,,,,,,,,,,,,,,,,,,,,,,,,,,,,,,,,,,,,,,,,,,,,,,,,,
656013477ede6fae3cc2728b,2023-11-23_20h31.26.615,kallum_motion_pilot,2023.1.2,MacIntel,30.00120005,656013477ede6fae3cc2728b,656018846682f3df8008bb8f,656018da8afbc727314d9682,1,17,179,94,1,eightsix,,,,,,,,,,,,,,,,,,,,,,,,,,,,,,,,,,,,,,,,,,,,,,,,,,,,,,,,,,,,,,,,,,,,,,,,,,,,,,,,,,,,,
656013477ede6fae3cc2728b,2023-11-23_20h31.26.615,kallum_motion_pilot,2023.1.2,MacIntel,30.00120005,656013477ede6fae3cc2728b,656018846682f3df8008bb8f,656018da8afbc727314d9682,1,18,180,152,1,fivesix,,,,,,,,,,,,,,,,,,,,,,,,,,,,,,,,,,,,,,,,,,,,,,,,,,,,,,,,,,,,,,,,,,,,,,,,,,,,,,,,,,,,,
656013477ede6fae3cc2728b,2023-11-23_20h31.26.615,kallum_motion_pilot,2023.1.2,MacIntel,30.00120005,656013477ede6fae3cc2728b,656018846682f3df8008bb8f,656018da8afbc727314d9682,1,19,181,77,1,threefour,,,,,,,,,,,,,,,,,,,,,,,,,,,,,,,,,,,,,,,,,,,,,,,,,,,,,,,,,,,,,,,,,,,,,,,,,,,,,,,,,,,,,
656013477ede6fae3cc2728b,2023-11-23_20h31.26.615,kallum_motion_pilot,2023.1.2,MacIntel,30.00120005,656013477ede6fae3cc2728b,656018846682f3df8008bb8f,656018da8afbc727314d9682,1,20,182,17,1,onethree,,,,,,,,,,,,,,,,,,,,,,,,,,,,,,,,,,,,,,,,,,,,,,,,,,,,,,,,,,,,,,,,,,,,,,,,,,,,,,,,,,,,,
656013477ede6fae3cc2728b,2023-11-23_20h31.26.615,kallum_motion_pilot,2023.1.2,MacIntel,30.00120005,656013477ede6fae3cc2728b,656018846682f3df8008bb8f,656018da8afbc727314d9682,1,21,183,38,1,fourtwo,,,,,,,,,,,,,,,,,,,,,,,,,,,,,,,,,,,,,,,,,,,,,,,,,,,,,,,,,,,,,,,,,,,,,,,,,,,,,,,,,,,,,
656013477ede6fae3cc2728b,2023-11-23_20h31.26.615,kallum_motion_pilot,2023.1.2,MacIntel,30.00120005,656013477ede6fae3cc2728b,656018846682f3df8008bb8f,656018da8afbc727314d9682,1,22,184,85,1,seveneight,,,,,,,,,,,,,,,,,,,,,,,,,,,,,,,,,,,,,,,,,,,,,,,,,,,,,,,,,,,,,,,,,,,,,,,,,,,,,,,,,,,,,
656013477ede6fae3cc2728b,2023-11-23_20h31.26.615,kallum_motion_pilot,2023.1.2,MacIntel,30.00120005,656013477ede6fae3cc2728b,656018846682f3df8008bb8f,656018da8afbc727314d9682,1,23,185,153,1,fiveseven,,,,,,,,,,,,,,,,,,,,,,,,,,,,,,,,,,,,,,,,,,,,,,,,,,,,,,,,,,,,,,,,,,,,,,,,,,,,,,,,,,,,,
656013477ede6fae3cc2728b,2023-11-23_20h31.26.615,kallum_motion_pilot,2023.1.2,MacIntel,30.00120005,656013477ede6fae3cc2728b,656018846682f3df8008bb8f,656018da8afbc727314d9682,1,24,186,30,1,fourtwo,,,,,,,,,,,,,,,,,,,,,,,,,,,,,,,,,,,,,,,,,,,,,,,,,,,,,,,,,,,,,,,,,,,,,,,,,,,,,,,,,,,,,
656013477ede6fae3cc2728b,2023-11-23_20h31.26.615,kallum_motion_pilot,2023.1.2,MacIntel,30.00120005,656013477ede6fae3cc2728b,656018846682f3df8008bb8f,656018da8afbc727314d9682,1,25,187,138,1,sixfive,,,,,,,,,,,,,,,,,,,,,,,,,,,,,,,,,,,,,,,,,,,,,,,,,,,,,,,,,,,,,,,,,,,,,,,,,,,,,,,,,,,,,
656013477ede6fae3cc2728b,2023-11-23_20h31.26.615,kallum_motion_pilot,2023.1.2,MacIntel,30.00120005,656013477ede6fae3cc2728b,656018846682f3df8008bb8f,656018da8afbc727314d9682,1,26,188,60,1,threeone,,,,,,,,,,,,,,,,,,,,,,,,,,,,,,,,,,,,,,,,,,,,,,,,,,,,,,,,,,,,,,,,,,,,,,,,,,,,,,,,,,,,,
656013477ede6fae3cc2728b,2023-11-23_20h31.26.615,kallum_motion_pilot,2023.1.2,MacIntel,30.00120005,656013477ede6fae3cc2728b,656018846682f3df8008bb8f,656018da8afbc727314d9682,1,27,189,101,1,seveneight,,,,,,,,,,,,,,,,,,,,,,,,,,,,,,,,,,,,,,,,,,,,,,,,,,,,,,,,,,,,,,,,,,,,,,,,,,,,,,,,,,,,,
656013477ede6fae3cc2728b,2023-11-23_20h31.26.615,kallum_motion_pilot,2023.1.2,MacIntel,30.00120005,656013477ede6fae3cc2728b,656018846682f3df8008bb8f,656018da8afbc727314d9682,1,28,190,76,1,threeone,,,,,,,,,,,,,,,,,,,,,,,,,,,,,,,,,,,,,,,,,,,,,,,,,,,,,,,,,,,,,,,,,,,,,,,,,,,,,,,,,,,,,
656013477ede6fae3cc2728b,2023-11-23_20h31.26.615,kallum_motion_pilot,2023.1.2,MacIntel,30.00120005,656013477ede6fae3cc2728b,656018846682f3df8008bb8f,656018da8afbc727314d9682,1,29,191,67,1,twofour,,,,,,,,,,,,,,,,,,,,,,,,,,,,,,,,,,,,,,,,,,,,,,,,,,,,,,,,,,,,,,,,,,,,,,,,,,,,,,,,,,,,,
656013477ede6fae3cc2728b,2023-11-23_20h31.26.615,kallum_motion_pilot,2023.1.2,MacIntel,30.00120005,656013477ede6fae3cc2728b,656018846682f3df8008bb8f,656018da8afbc727314d9682,1,30,192,23,1,fourthree,,,,,,,,,,,,,,,,,,,,,,,,,,,,,,,,,,,,,,,,,,,,,,,,,,,,,,,,,,,,,,,,,,,,,,,,,,,,,,,,,,,,,
656013477ede6fae3cc2728b,2023-11-23_20h31.26.615,kallum_motion_pilot,2023.1.2,MacIntel,30.00120005,656013477ede6fae3cc2728b,656018846682f3df8008bb8f,656018da8afbc727314d9682,1,31,193,86,1,eightsix,,,,,,,,,,,,,,,,,,,,,,,,,,,,,,,,,,,,,,,,,,,,,,,,,,,,,,,,,,,,,,,,,,,,,,,,,,,,,,,,,,,,,
656013477ede6fae3cc2728b,2023-11-23_20h31.26.615,kallum_motion_pilot,2023.1.2,MacIntel,30.00120005,656013477ede6fae3cc2728b,656018846682f3df8008bb8f,656018da8afbc727314d9682,1,32,194,59,1,twofour,,,,,,,,,,,,,,,,,,,,,,,,,,,,,,,,,,,,,,,,,,,,,,,,,,,,,,,,,,,,,,,,,,,,,,,,,,,,,,,,,,,,,
656013477ede6fae3cc2728b,2023-11-23_20h31.26.615,kallum_motion_pilot,2023.1.2,MacIntel,30.00120005,656013477ede6fae3cc2728b,656018846682f3df8008bb8f,656018da8afbc727314d9682,1,33,195,47,1,fourthree,,,,,,,,,,,,,,,,,,,,,,,,,,,,,,,,,,,,,,,,,,,,,,,,,,,,,,,,,,,,,,,,,,,,,,,,,,,,,,,,,,,,,
656013477ede6fae3cc2728b,2023-11-23_20h31.26.615,kallum_motion_pilot,2023.1.2,MacIntel,30.00120005,656013477ede6fae3cc2728b,656018846682f3df8008bb8f,656018da8afbc727314d9682,1,34,196,125,1,seveneight,,,,,,,,,,,,,,,,,,,,,,,,,,,,,,,,,,,,,,,,,,,,,,,,,,,,,,,,,,,,,,,,,,,,,,,,,,,,,,,,,,,,,
656013477ede6fae3cc2728b,2023-11-23_20h31.26.615,kallum_motion_pilot,2023.1.2,MacIntel,30.00120005,656013477ede6fae3cc2728b,656018846682f3df8008bb8f,656018da8afbc727314d9682,1,35,197,22,1,fourtwo,,,,,,,,,,,,,,,,,,,,,,,,,,,,,,,,,,,,,,,,,,,,,,,,,,,,,,,,,,,,,,,,,,,,,,,,,,,,,,,,,,,,,
656013477ede6fae3cc2728b,2023-11-23_20h31.26.615,kallum_motion_pilot,2023.1.2,MacIntel,30.00120005,656013477ede6fae3cc2728b,656018846682f3df8008bb8f,656018da8afbc727314d9682,1,36,198,19,1,twofour,,,,,,,,,,,,,,,,,,,,,,,,,,,,,,,,,,,,,,,,,,,,,,,,,,,,,,,,,,,,,,,,,,,,,,,,,,,,,,,,,,,,,
656013477ede6fae3cc2728b,2023-11-23_20h31.26.615,kallum_motion_pilot,2023.1.2,MacIntel,30.00120005,656013477ede6fae3cc2728b,656018846682f3df8008bb8f,656018da8afbc727314d9682,1,37,199,130,1,sixfive,,,,,,,,,,,,,,,,,,,,,,,,,,,,,,,,,,,,,,,,,,,,,,,,,,,,,,,,,,,,,,,,,,,,,,,,,,,,,,,,,,,,,
656013477ede6fae3cc2728b,2023-11-23_20h31.26.615,kallum_motion_pilot,2023.1.2,MacIntel,30.00120005,656013477ede6fae3cc2728b,656018846682f3df8008bb8f,656018da8afbc727314d9682,1,38,200,45,1,threefour,,,,,,,,,,,,,,,,,,,,,,,,,,,,,,,,,,,,,,,,,,,,,,,,,,,,,,,,,,,,,,,,,,,,,,,,,,,,,,,,,,,,,
656013477ede6fae3cc2728b,2023-11-23_20h31.26.615,kallum_motion_pilot,2023.1.2,MacIntel,30.00120005,656013477ede6fae3cc2728b,656018846682f3df8008bb8f,656018da8afbc727314d9682,1,39,201,140,1,sevenfive,,,,,,,,,,,,,,,,,,,,,,,,,,,,,,,,,,,,,,,,,,,,,,,,,,,,,,,,,,,,,,,,,,,,,,,,,,,,,,,,,,,,,
656013477ede6fae3cc2728b,2023-11-23_20h31.26.615,kallum_motion_pilot,2023.1.2,MacIntel,30.00120005,656013477ede6fae3cc2728b,656018846682f3df8008bb8f,656018da8afbc727314d9682,1,40,202,65,1,onethree,,,,,,,,,,,,,,,,,,,,,,,,,,,,,,,,,,,,,,,,,,,,,,,,,,,,,,,,,,,,,,,,,,,,,,,,,,,,,,,,,,,,,
656013477ede6fae3cc2728b,2023-11-23_20h31.26.615,kallum_motion_pilot,2023.1.2,MacIntel,30.00120005,656013477ede6fae3cc2728b,656018846682f3df8008bb8f,656018da8afbc727314d9682,1,41,203,100,1,sevenfive,,,,,,,,,,,,,,,,,,,,,,,,,,,,,,,,,,,,,,,,,,,,,,,,,,,,,,,,,,,,,,,,,,,,,,,,,,,,,,,,,,,,,
656013477ede6fae3cc2728b,2023-11-23_20h31.26.615,kallum_motion_pilot,2023.1.2,MacIntel,30.00120005,656013477ede6fae3cc2728b,656018846682f3df8008bb8f,656018da8afbc727314d9682,1,42,204,9,1,onethree,,,,,,,,,,,,,,,,,,,,,,,,,,,,,,,,,,,,,,,,,,,,,,,,,,,,,,,,,,,,,,,,,,,,,,,,,,,,,,,,,,,,,
656013477ede6fae3cc2728b,2023-11-23_20h31.26.615,kallum_motion_pilot,2023.1.2,MacIntel,30.00120005,656013477ede6fae3cc2728b,656018846682f3df8008bb8f,656018da8afbc727314d9682,1,43,205,90,1,sixfive,,,,,,,,,,,,,,,,,,,,,,,,,,,,,,,,,,,,,,,,,,,,,,,,,,,,,,,,,,,,,,,,,,,,,,,,,,,,,,,,,,,,,
656013477ede6fae3cc2728b,2023-11-23_20h31.26.615,kallum_motion_pilot,2023.1.2,MacIntel,30.00120005,656013477ede6fae3cc2728b,656018846682f3df8008bb8f,656018da8afbc727314d9682,1,44,206,129,1,fiveseven,,,,,,,,,,,,,,,,,,,,,,,,,,,,,,,,,,,,,,,,,,,,,,,,,,,,,,,,,,,,,,,,,,,,,,,,,,,,,,,,,,,,,
656013477ede6fae3cc2728b,2023-11-23_20h31.26.615,kallum_motion_pilot,2023.1.2,MacIntel,30.00120005,656013477ede6fae3cc2728b,656018846682f3df8008bb8f,656018da8afbc727314d9682,1,45,207,114,1,sixfive,,,,,,,,,,,,,,,,,,,,,,,,,,,,,,,,,,,,,,,,,,,,,,,,,,,,,,,,,,,,,,,,,,,,,,,,,,,,,,,,,,,,,
656013477ede6fae3cc2728b,2023-11-23_20h31.26.615,kallum_motion_pilot,2023.1.2,MacIntel,30.00120005,656013477ede6fae3cc2728b,656018846682f3df8008bb8f,656018da8afbc727314d9682,1,46,208,148,1,sevenfive,,,,,,,,,,,,,,,,,,,,,,,,,,,,,,,,,,,,,,,,,,,,,,,,,,,,,,,,,,,,,,,,,,,,,,,,,,,,,,,,,,,,,
656013477ede6fae3cc2728b,2023-11-23_20h31.26.615,kallum_motion_pilot,2023.1.2,MacIntel,30.00120005,656013477ede6fae3cc2728b,656018846682f3df8008bb8f,656018da8afbc727314d9682,1,47,209,29,1,threefour,,,,,,,,,,,,,,,,,,,,,,,,,,,,,,,,,,,,,,,,,,,,,,,,,,,,,,,,,,,,,,,,,,,,,,,,,,,,,,,,,,,,,
656013477ede6fae3cc2728b,2023-11-23_20h31.26.615,kallum_motion_pilot,2023.1.2,MacIntel,30.00120005,656013477ede6fae3cc2728b,656018846682f3df8008bb8f,656018da8afbc727314d9682,1,48,210,134,1,eightsix,,,,,,,,,,,,,,,,,,,,,,,,,,,,,,,,,,,,,,,,,,,,,,,,,,,,,,,,,,,,,,,,,,,,,,,,,,,,,,,,,,,,,
656013477ede6fae3cc2728b,2023-11-23_20h31.26.615,kallum_motion_pilot,2023.1.2,MacIntel,30.00120005,656013477ede6fae3cc2728b,656018846682f3df8008bb8f,656018da8afbc727314d9682,1,49,211,56,1,onetwo,,,,,,,,,,,,,,,,,,,,,,,,,,,,,,,,,,,,,,,,,,,,,,,,,,,,,,,,,,,,,,,,,,,,,,,,,,,,,,,,,,,,,
656013477ede6fae3cc2728b,2023-11-23_20h31.26.615,kallum_motion_pilot,2023.1.2,MacIntel,30.00120005,656013477ede6fae3cc2728b,656018846682f3df8008bb8f,656018da8afbc727314d9682,1,50,212,106,1,sixfive,,,,,,,,,,,,,,,,,,,,,,,,,,,,,,,,,,,,,,,,,,,,,,,,,,,,,,,,,,,,,,,,,,,,,,,,,,,,,,,,,,,,,
656013477ede6fae3cc2728b,2023-11-23_20h31.26.615,kallum_motion_pilot,2023.1.2,MacIntel,30.00120005,656013477ede6fae3cc2728b,656018846682f3df8008bb8f,656018da8afbc727314d9682,1,51,213,48,1,onetwo,,,,,,,,,,,,,,,,,,,,,,,,,,,,,,,,,,,,,,,,,,,,,,,,,,,,,,,,,,,,,,,,,,,,,,,,,,,,,,,,,,,,,
656013477ede6fae3cc2728b,2023-11-23_20h31.26.615,kallum_motion_pilot,2023.1.2,MacIntel,30.00120005,656013477ede6fae3cc2728b,656018846682f3df8008bb8f,656018da8afbc727314d9682,1,52,214,112,1,fivesix,,,,,,,,,,,,,,,,,,,,,,,,,,,,,,,,,,,,,,,,,,,,,,,,,,,,,,,,,,,,,,,,,,,,,,,,,,,,,,,,,,,,,
656013477ede6fae3cc2728b,2023-11-23_20h31.26.615,kallum_motion_pilot,2023.1.2,MacIntel,30.00120005,656013477ede6fae3cc2728b,656018846682f3df8008bb8f,656018da8afbc727314d9682,1,53,215,132,1,sevenfive,,,,,,,,,,,,,,,,,,,,,,,,,,,,,,,,,,,,,,,,,,,,,,,,,,,,,,,,,,,,,,,,,,,,,,,,,,,,,,,,,,,,,
656013477ede6fae3cc2728b,2023-11-23_20h31.26.615,kallum_motion_pilot,2023.1.2,MacIntel,30.00120005,656013477ede6fae3cc2728b,656018846682f3df8008bb8f,656018da8afbc727314d9682,1,54,216,137,1,fiveseven,,,,,,,,,,,,,,,,,,,,,,,,,,,,,,,,,,,,,,,,,,,,,,,,,,,,,,,,,,,,,,,,,,,,,,,,,,,,,,,,,,,,,
656013477ede6fae3cc2728b,2023-11-23_20h31.26.615,kallum_motion_pilot,2023.1.2,MacIntel,30.00120005,656013477ede6fae3cc2728b,656018846682f3df8008bb8f,656018da8afbc727314d9682,1,55,217,57,1,onethree,,,,,,,,,,,,,,,,,,,,,,,,,,,,,,,,,,,,,,,,,,,,,,,,,,,,,,,,,,,,,,,,,,,,,,,,,,,,,,,,,,,,,
656013477ede6fae3cc2728b,2023-11-23_20h31.26.615,kallum_motion_pilot,2023.1.2,MacIntel,30.00120005,656013477ede6fae3cc2728b,656018846682f3df8008bb8f,656018da8afbc727314d9682,1,56,218,20,1,threeone,,,,,,,,,,,,,,,,,,,,,,,,,,,,,,,,,,,,,,,,,,,,,,,,,,,,,,,,,,,,,,,,,,,,,,,,,,,,,,,,,,,,,
656013477ede6fae3cc2728b,2023-11-23_20h31.26.615,kallum_motion_pilot,2023.1.2,MacIntel,30.00120005,656013477ede6fae3cc2728b,656018846682f3df8008bb8f,656018da8afbc727314d9682,1,57,219,62,1,fourtwo,,,,,,,,,,,,,,,,,,,,,,,,,,,,,,,,,,,,,,,,,,,,,,,,,,,,,,,,,,,,,,,,,,,,,,,,,,,,,,,,,,,,,
656013477ede6fae3cc2728b,2023-11-23_20h31.26.615,kallum_motion_pilot,2023.1.2,MacIntel,30.00120005,656013477ede6fae3cc2728b,656018846682f3df8008bb8f,656018da8afbc727314d9682,1,58,220,97,1,fiveseven,,,,,,,,,,,,,,,,,,,,,,,,,,,,,,,,,,,,,,,,,,,,,,,,,,,,,,,,,,,,,,,,,,,,,,,,,,,,,,,,,,,,,
656013477ede6fae3cc2728b,2023-11-23_20h31.26.615,kallum_motion_pilot,2023.1.2,MacIntel,30.00120005,656013477ede6fae3cc2728b,656018846682f3df8008bb8f,656018da8afbc727314d9682,1,59,221,13,1,threefour,,,,,,,,,,,,,,,,,,,,,,,,,,,,,,,,,,,,,,,,,,,,,,,,,,,,,,,,,,,,,,,,,,,,,,,,,,,,,,,,,,,,,
656013477ede6fae3cc2728b,2023-11-23_20h31.26.615,kallum_motion_pilot,2023.1.2,MacIntel,30.00120005,656013477ede6fae3cc2728b,656018846682f3df8008bb8f,656018da8afbc727314d9682,1,60,222,70,1,fourtwo,,,,,,,,,,,,,,,,,,,,,,,,,,,,,,,,,,,,,,,,,,,,,,,,,,,,,,,,,,,,,,,,,,,,,,,,,,,,,,,,,,,,,
656013477ede6fae3cc2728b,2023-11-23_20h31.26.615,kallum_motion_pilot,2023.1.2,MacIntel,30.00120005,656013477ede6fae3cc2728b,656018846682f3df8008bb8f,656018da8afbc727314d9682,1,61,223,124,1,sevenfive,,,,,,,,,,,,,,,,,,,,,,,,,,,,,,,,,,,,,,,,,,,,,,,,,,,,,,,,,,,,,,,,,,,,,,,,,,,,,,,,,,,,,
656013477ede6fae3cc2728b,2023-11-23_20h31.26.615,kallum_motion_pilot,2023.1.2,MacIntel,30.00120005,656013477ede6fae3cc2728b,656018846682f3df8008bb8f,656018da8afbc727314d9682,1,62,224,141,1,seveneight,,,,,,,,,,,,,,,,,,,,,,,,,,,,,,,,,,,,,,,,,,,,,,,,,,,,,,,,,,,,,,,,,,,,,,,,,,,,,,,,,,,,,
656013477ede6fae3cc2728b,2023-11-23_20h31.26.615,kallum_motion_pilot,2023.1.2,MacIntel,30.00120005,656013477ede6fae3cc2728b,656018846682f3df8008bb8f,656018da8afbc727314d9682,1,63,225,95,1,eightseven,,,,,,,,,,,,,,,,,,,,,,,,,,,,,,,,,,,,,,,,,,,,,,,,,,,,,,,,,,,,,,,,,,,,,,,,,,,,,,,,,,,,,
656013477ede6fae3cc2728b,2023-11-23_20h31.26.615,kallum_motion_pilot,2023.1.2,MacIntel,30.00120005,656013477ede6fae3cc2728b,656018846682f3df8008bb8f,656018da8afbc727314d9682,1,64,226,117,1,seveneight,,,,,,,,,,,,,,,,,,,,,,,,,,,,,,,,,,,,,,,,,,,,,,,,,,,,,,,,,,,,,,,,,,,,,,,,,,,,,,,,,,,,,
656013477ede6fae3cc2728b,2023-11-23_20h31.26.615,kallum_motion_pilot,2023.1.2,MacIntel,30.00120005,656013477ede6fae3cc2728b,656018846682f3df8008bb8f,656018da8afbc727314d9682,1,65,227,4,1,threeone,,,,,,,,,,,,,,,,,,,,,,,,,,,,,,,,,,,,,,,,,,,,,,,,,,,,,,,,,,,,,,,,,,,,,,,,,,,,,,,,,,,,,
656013477ede6fae3cc2728b,2023-11-23_20h31.26.615,kallum_motion_pilot,2023.1.2,MacIntel,30.00120005,656013477ede6fae3cc2728b,656018846682f3df8008bb8f,656018da8afbc727314d9682,1,66,228,146,1,sixfive,,,,,,,,,,,,,,,,,,,,,,,,,,,,,,,,,,,,,,,,,,,,,,,,,,,,,,,,,,,,,,,,,,,,,,,,,,,,,,,,,,,,,
656013477ede6fae3cc2728b,2023-11-23_20h31.26.615,kallum_motion_pilot,2023.1.2,MacIntel,30.00120005,656013477ede6fae3cc2728b,656018846682f3df8008bb8f,656018da8afbc727314d9682,1,67,229,126,1,eightsix,,,,,,,,,,,,,,,,,,,,,,,,,,,,,,,,,,,,,,,,,,,,,,,,,,,,,,,,,,,,,,,,,,,,,,,,,,,,,,,,,,,,,
656013477ede6fae3cc2728b,2023-11-23_20h31.26.615,kallum_motion_pilot,2023.1.2,MacIntel,30.00120005,656013477ede6fae3cc2728b,656018846682f3df8008bb8f,656018da8afbc727314d9682,1,68,230,99,1,sixeight,,,,,,,,,,,,,,,,,,,,,,,,,,,,,,,,,,,,,,,,,,,,,,,,,,,,,,,,,,,,,,,,,,,,,,,,,,,,,,,,,,,,,
656013477ede6fae3cc2728b,2023-11-23_20h31.26.615,kallum_motion_pilot,2023.1.2,MacIntel,30.00120005,656013477ede6fae3cc2728b,656018846682f3df8008bb8f,656018da8afbc727314d9682,1,69,231,110,1,eightsix,,,,,,,,,,,,,,,,,,,,,,,,,,,,,,,,,,,,,,,,,,,,,,,,,,,,,,,,,,,,,,,,,,,,,,,,,,,,,,,,,,,,,
656013477ede6fae3cc2728b,2023-11-23_20h31.26.615,kallum_motion_pilot,2023.1.2,MacIntel,30.00120005,656013477ede6fae3cc2728b,656018846682f3df8008bb8f,656018da8afbc727314d9682,1,70,232,34,1,twoone,,,,,,,,,,,,,,,,,,,,,,,,,,,,,,,,,,,,,,,,,,,,,,,,,,,,,,,,,,,,,,,,,,,,,,,,,,,,,,,,,,,,,
656013477ede6fae3cc2728b,2023-11-23_20h31.26.615,kallum_motion_pilot,2023.1.2,MacIntel,30.00120005,656013477ede6fae3cc2728b,656018846682f3df8008bb8f,656018da8afbc727314d9682,1,71,233,102,1,eightsix,,,,,,,,,,,,,,,,,,,,,,,,,,,,,,,,,,,,,,,,,,,,,,,,,,,,,,,,,,,,,,,,,,,,,,,,,,,,,,,,,,,,,
656013477ede6fae3cc2728b,2023-11-23_20h31.26.615,kallum_motion_pilot,2023.1.2,MacIntel,30.00120005,656013477ede6fae3cc2728b,656018846682f3df8008bb8f,656018da8afbc727314d9682,1,72,234,68,1,threeone,,,,,,,,,,,,,,,,,,,,,,,,,,,,,,,,,,,,,,,,,,,,,,,,,,,,,,,,,,,,,,,,,,,,,,,,,,,,,,,,,,,,,
656013477ede6fae3cc2728b,2023-11-23_20h31.26.615,kallum_motion_pilot,2023.1.2,MacIntel,30.00120005,656013477ede6fae3cc2728b,656018846682f3df8008bb8f,656018da8afbc727314d9682,1,73,235,82,1,sixfive,,,,,,,,,,,,,,,,,,,,,,,,,,,,,,,,,,,,,,,,,,,,,,,,,,,,,,,,,,,,,,,,,,,,,,,,,,,,,,,,,,,,,
656013477ede6fae3cc2728b,2023-11-23_20h31.26.615,kallum_motion_pilot,2023.1.2,MacIntel,30.00120005,656013477ede6fae3cc2728b,656018846682f3df8008bb8f,656018da8afbc727314d9682,1,74,236,25,1,onethree,,,,,,,,,,,,,,,,,,,,,,,,,,,,,,,,,,,,,,,,,,,,,,,,,,,,,,,,,,,,,,,,,,,,,,,,,,,,,,,,,,,,,
656013477ede6fae3cc2728b,2023-11-23_20h31.26.615,kallum_motion_pilot,2023.1.2,MacIntel,30.00120005,656013477ede6fae3cc2728b,656018846682f3df8008bb8f,656018da8afbc727314d9682,1,75,237,155,1,sixeight,,,,,,,,,,,,,,,,,,,,,,,,,,,,,,,,,,,,,,,,,,,,,,,,,,,,,,,,,,,,,,,,,,,,,,,,,,,,,,,,,,,,,
656013477ede6fae3cc2728b,2023-11-23_20h31.26.615,kallum_motion_pilot,2023.1.2,MacIntel,30.00120005,656013477ede6fae3cc2728b,656018846682f3df8008bb8f,656018da8afbc727314d9682,1,76,238,12,1,threeone,,,,,,,,,,,,,,,,,,,,,,,,,,,,,,,,,,,,,,,,,,,,,,,,,,,,,,,,,,,,,,,,,,,,,,,,,,,,,,,,,,,,,
656013477ede6fae3cc2728b,2023-11-23_20h31.26.615,kallum_motion_pilot,2023.1.2,MacIntel,30.00120005,656013477ede6fae3cc2728b,656018846682f3df8008bb8f,656018da8afbc727314d9682,1,77,239,35,1,twofour,,,,,,,,,,,,,,,,,,,,,,,,,,,,,,,,,,,,,,,,,,,,,,,,,,,,,,,,,,,,,,,,,,,,,,,,,,,,,,,,,,,,,
656013477ede6fae3cc2728b,2023-11-23_20h31.26.615,kallum_motion_pilot,2023.1.2,MacIntel,30.00120005,656013477ede6fae3cc2728b,656018846682f3df8008bb8f,656018da8afbc727314d9682,1,78,240,118,1,eightsix,,,,,,,,,,,,,,,,,,,,,,,,,,,,,,,,,,,,,,,,,,,,,,,,,,,,,,,,,,,,,,,,,,,,,,,,,,,,,,,,,,,,,
656013477ede6fae3cc2728b,2023-11-23_20h31.26.615,kallum_motion_pilot,2023.1.2,MacIntel,30.00120005,656013477ede6fae3cc2728b,656018846682f3df8008bb8f,656018da8afbc727314d9682,1,79,241,78,1,fourtwo,,,,,,,,,,,,,,,,,,,,,,,,,,,,,,,,,,,,,,,,,,,,,,,,,,,,,,,,,,,,,,,,,,,,,,,,,,,,,,,,,,,,,
656013477ede6fae3cc2728b,2023-11-23_20h31.26.615,kallum_motion_pilot,2023.1.2,MacIntel,30.00120005,656013477ede6fae3cc2728b,656018846682f3df8008bb8f,656018da8afbc727314d9682,1,80,242,116,1,sevenfive,,,,,,,,,,,,,,,,,,,,,,,,,,,,,,,,,,,,,,,,,,,,,,,,,,,,,,,,,,,,,,,,,,,,,,,,,,,,,,,,,,,,,
656013477ede6fae3cc2728b,2023-11-23_20h31.26.615,kallum_motion_pilot,2023.1.2,MacIntel,30.00120005,656013477ede6fae3cc2728b,656018846682f3df8008bb8f,656018da8afbc727314d9682,1,81,243,16,1,onetwo,,,,,,,,,,,,,,,,,,,,,,,,,,,,,,,,,,,,,,,,,,,,,,,,,,,,,,,,,,,,,,,,,,,,,,,,,,,,,,,,,,,,,
656013477ede6fae3cc2728b,2023-11-23_20h31.26.615,kallum_motion_pilot,2023.1.2,MacIntel,30.00120005,656013477ede6fae3cc2728b,656018846682f3df8008bb8f,656018da8afbc727314d9682,1,82,244,64,1,onetwo,,,,,,,,,,,,,,,,,,,,,,,,,,,,,,,,,,,,,,,,,,,,,,,,,,,,,,,,,,,,,,,,,,,,,,,,,,,,,,,,,,,,,
656013477ede6fae3cc2728b,2023-11-23_20h31.26.615,kallum_motion_pilot,2023.1.2,MacIntel,30.00120005,656013477ede6fae3cc2728b,656018846682f3df8008bb8f,656018da8afbc727314d9682,1,83,245,149,1,seveneight,,,,,,,,,,,,,,,,,,,,,,,,,,,,,,,,,,,,,,,,,,,,,,,,,,,,,,,,,,,,,,,,,,,,,,,,,,,,,,,,,,,,,
656013477ede6fae3cc2728b,2023-11-23_20h31.26.615,kallum_motion_pilot,2023.1.2,MacIntel,30.00120005,656013477ede6fae3cc2728b,656018846682f3df8008bb8f,656018da8afbc727314d9682,1,84,246,33,1,onethree,,,,,,,,,,,,,,,,,,,,,,,,,,,,,,,,,,,,,,,,,,,,,,,,,,,,,,,,,,,,,,,,,,,,,,,,,,,,,,,,,,,,,
656013477ede6fae3cc2728b,2023-11-23_20h31.26.615,kallum_motion_pilot,2023.1.2,MacIntel,30.00120005,656013477ede6fae3cc2728b,656018846682f3df8008bb8f,656018da8afbc727314d9682,1,85,247,8,1,onetwo,,,,,,,,,,,,,,,,,,,,,,,,,,,,,,,,,,,,,,,,,,,,,,,,,,,,,,,,,,,,,,,,,,,,,,,,,,,,,,,,,,,,,
656013477ede6fae3cc2728b,2023-11-23_20h31.26.615,kallum_motion_pilot,2023.1.2,MacIntel,30.00120005,656013477ede6fae3cc2728b,656018846682f3df8008bb8f,656018da8afbc727314d9682,1,86,248,133,1,seveneight,,,,,,,,,,,,,,,,,,,,,,,,,,,,,,,,,,,,,,,,,,,,,,,,,,,,,,,,,,,,,,,,,,,,,,,,,,,,,,,,,,,,,
656013477ede6fae3cc2728b,2023-11-23_20h31.26.615,kallum_motion_pilot,2023.1.2,MacIntel,30.00120005,656013477ede6fae3cc2728b,656018846682f3df8008bb8f,656018da8afbc727314d9682,1,87,249,109,1,seveneight,,,,,,,,,,,,,,,,,,,,,,,,,,,,,,,,,,,,,,,,,,,,,,,,,,,,,,,,,,,,,,,,,,,,,,,,,,,,,,,,,,,,,
656013477ede6fae3cc2728b,2023-11-23_20h31.26.615,kallum_motion_pilot,2023.1.2,MacIntel,30.00120005,656013477ede6fae3cc2728b,656018846682f3df8008bb8f,656018da8afbc727314d9682,1,88,250,71,1,fourthree,,,,,,,,,,,,,,,,,,,,,,,,,,,,,,,,,,,,,,,,,,,,,,,,,,,,,,,,,,,,,,,,,,,,,,,,,,,,,,,,,,,,,
656013477ede6fae3cc2728b,2023-11-23_20h31.26.615,kallum_motion_pilot,2023.1.2,MacIntel,30.00120005,656013477ede6fae3cc2728b,656018846682f3df8008bb8f,656018da8afbc727314d9682,1,89,251,24,1,onetwo,,,,,,,,,,,,,,,,,,,,,,,,,,,,,,,,,,,,,,,,,,,,,,,,,,,,,,,,,,,,,,,,,,,,,,,,,,,,,,,,,,,,,
656013477ede6fae3cc2728b,2023-11-23_20h31.26.615,kallum_motion_pilot,2023.1.2,MacIntel,30.00120005,656013477ede6fae3cc2728b,656018846682f3df8008bb8f,656018da8afbc727314d9682,1,90,252,26,1,twoone,,,,,,,,,,,,,,,,,,,,,,,,,,,,,,,,,,,,,,,,,,,,,,,,,,,,,,,,,,,,,,,,,,,,,,,,,,,,,,,,,,,,,
656013477ede6fae3cc2728b,2023-11-23_20h31.26.615,kallum_motion_pilot,2023.1.2,MacIntel,30.00120005,656013477ede6fae3cc2728b,656018846682f3df8008bb8f,656018da8afbc727314d9682,1,91,253,121,1,fiveseven,,,,,,,,,,,,,,,,,,,,,,,,,,,,,,,,,,,,,,,,,,,,,,,,,,,,,,,,,,,,,,,,,,,,,,,,,,,,,,,,,,,,,
656013477ede6fae3cc2728b,2023-11-23_20h31.26.615,kallum_motion_pilot,2023.1.2,MacIntel,30.00120005,656013477ede6fae3cc2728b,656018846682f3df8008bb8f,656018da8afbc727314d9682,1,92,254,63,1,fourthree,,,,,,,,,,,,,,,,,,,,,,,,,,,,,,,,,,,,,,,,,,,,,,,,,,,,,,,,,,,,,,,,,,,,,,,,,,,,,,,,,,,,,
656013477ede6fae3cc2728b,2023-11-23_20h31.26.615,kallum_motion_pilot,2023.1.2,MacIntel,30.00120005,656013477ede6fae3cc2728b,656018846682f3df8008bb8f,656018da8afbc727314d9682,1,93,255,156,1,sevenfive,,,,,,,,,,,,,,,,,,,,,,,,,,,,,,,,,,,,,,,,,,,,,,,,,,,,,,,,,,,,,,,,,,,,,,,,,,,,,,,,,,,,,
656013477ede6fae3cc2728b,2023-11-23_20h31.26.615,kallum_motion_pilot,2023.1.2,MacIntel,30.00120005,656013477ede6fae3cc2728b,656018846682f3df8008bb8f,656018da8afbc727314d9682,1,94,256,151,1,eightseven,,,,,,,,,,,,,,,,,,,,,,,,,,,,,,,,,,,,,,,,,,,,,,,,,,,,,,,,,,,,,,,,,,,,,,,,,,,,,,,,,,,,,
656013477ede6fae3cc2728b,2023-11-23_20h31.26.615,kallum_motion_pilot,2023.1.2,MacIntel,30.00120005,656013477ede6fae3cc2728b,656018846682f3df8008bb8f,656018da8afbc727314d9682,1,95,257,15,1,fourthree,,,,,,,,,,,,,,,,,,,,,,,,,,,,,,,,,,,,,,,,,,,,,,,,,,,,,,,,,,,,,,,,,,,,,,,,,,,,,,,,,,,,,
656013477ede6fae3cc2728b,2023-11-23_20h31.26.615,kallum_motion_pilot,2023.1.2,MacIntel,30.00120005,656013477ede6fae3cc2728b,656018846682f3df8008bb8f,656018da8afbc727314d9682,1,96,258,98,1,sixfive,,,,,,,,,,,,,,,,,,,,,,,,,,,,,,,,,,,,,,,,,,,,,,,,,,,,,,,,,,,,,,,,,,,,,,,,,,,,,,,,,,,,,
656013477ede6fae3cc2728b,2023-11-23_20h31.26.615,kallum_motion_pilot,2023.1.2,MacIntel,30.00120005,656013477ede6fae3cc2728b,656018846682f3df8008bb8f,656018da8afbc727314d9682,1,97,259,10,1,twoone,,,,,,,,,,,,,,,,,,,,,,,,,,,,,,,,,,,,,,,,,,,,,,,,,,,,,,,,,,,,,,,,,,,,,,,,,,,,,,,,,,,,,
656013477ede6fae3cc2728b,2023-11-23_20h31.26.615,kallum_motion_pilot,2023.1.2,MacIntel,30.00120005,656013477ede6fae3cc2728b,656018846682f3df8008bb8f,656018da8afbc727314d9682,1,98,260,127,1,eightseven,,,,,,,,,,,,,,,,,,,,,,,,,,,,,,,,,,,,,,,,,,,,,,,,,,,,,,,,,,,,,,,,,,,,,,,,,,,,,,,,,,,,,
656013477ede6fae3cc2728b,2023-11-23_20h31.26.615,kallum_motion_pilot,2023.1.2,MacIntel,30.00120005,656013477ede6fae3cc2728b,656018846682f3df8008bb8f,656018da8afbc727314d9682,1,99,261,108,1,sevenfive,,,,,,,,,,,,,,,,,,,,,,,,,,,,,,,,,,,,,,,,,,,,,,,,,,,,,,,,,,,,,,,,,,,,,,,,,,,,,,,,,,,,,
656013477ede6fae3cc2728b,2023-11-23_20h31.26.615,kallum_motion_pilot,2023.1.2,MacIntel,30.00120005,656013477ede6fae3cc2728b,656018846682f3df8008bb8f,656018da8afbc727314d9682,1,100,262,107,1,sixeight,,,,,,,,,,,,,,,,,,,,,,,,,,,,,,,,,,,,,,,,,,,,,,,,,,,,,,,,,,,,,,,,,,,,,,,,,,,,,,,,,,,,,
656013477ede6fae3cc2728b,2023-11-23_20h31.26.615,kallum_motion_pilot,2023.1.2,MacIntel,30.00120005,656013477ede6fae3cc2728b,656018846682f3df8008bb8f,656018da8afbc727314d9682,1,101,263,40,1,onetwo,,,,,,,,,,,,,,,,,,,,,,,,,,,,,,,,,,,,,,,,,,,,,,,,,,,,,,,,,,,,,,,,,,,,,,,,,,,,,,,,,,,,,
656013477ede6fae3cc2728b,2023-11-23_20h31.26.615,kallum_motion_pilot,2023.1.2,MacIntel,30.00120005,656013477ede6fae3cc2728b,656018846682f3df8008bb8f,656018da8afbc727314d9682,1,102,264,92,1,sevenfive,,,,,,,,,,,,,,,,,,,,,,,,,,,,,,,,,,,,,,,,,,,,,,,,,,,,,,,,,,,,,,,,,,,,,,,,,,,,,,,,,,,,,
656013477ede6fae3cc2728b,2023-11-23_20h31.26.615,kallum_motion_pilot,2023.1.2,MacIntel,30.00120005,656013477ede6fae3cc2728b,656018846682f3df8008bb8f,656018da8afbc727314d9682,1,103,265,6,1,fourtwo,,,,,,,,,,,,,,,,,,,,,,,,,,,,,,,,,,,,,,,,,,,,,,,,,,,,,,,,,,,,,,,,,,,,,,,,,,,,,,,,,,,,,
656013477ede6fae3cc2728b,2023-11-23_20h31.26.615,kallum_motion_pilot,2023.1.2,MacIntel,30.00120005,656013477ede6fae3cc2728b,656018846682f3df8008bb8f,656018da8afbc727314d9682,1,104,266,120,1,fivesix,,,,,,,,,,,,,,,,,,,,,,,,,,,,,,,,,,,,,,,,,,,,,,,,,,,,,,,,,,,,,,,,,,,,,,,,,,,,,,,,,,,,,
656013477ede6fae3cc2728b,2023-11-23_20h31.26.615,kallum_motion_pilot,2023.1.2,MacIntel,30.00120005,656013477ede6fae3cc2728b,656018846682f3df8008bb8f,656018da8afbc727314d9682,1,105,267,128,1,fivesix,,,,,,,,,,,,,,,,,,,,,,,,,,,,,,,,,,,,,,,,,,,,,,,,,,,,,,,,,,,,,,,,,,,,,,,,,,,,,,,,,,,,,
656013477ede6fae3cc2728b,2023-11-23_20h31.26.615,kallum_motion_pilot,2023.1.2,MacIntel,30.00120005,656013477ede6fae3cc2728b,656018846682f3df8008bb8f,656018da8afbc727314d9682,1,106,268,135,1,eightseven,,,,,,,,,,,,,,,,,,,,,,,,,,,,,,,,,,,,,,,,,,,,,,,,,,,,,,,,,,,,,,,,,,,,,,,,,,,,,,,,,,,,,
656013477ede6fae3cc2728b,2023-11-23_20h31.26.615,kallum_motion_pilot,2023.1.2,MacIntel,30.00120005,656013477ede6fae3cc2728b,656018846682f3df8008bb8f,656018da8afbc727314d9682,1,107,269,32,1,onetwo,,,,,,,,,,,,,,,,,,,,,,,,,,,,,,,,,,,,,,,,,,,,,,,,,,,,,,,,,,,,,,,,,,,,,,,,,,,,,,,,,,,,,
656013477ede6fae3cc2728b,2023-11-23_20h31.26.615,kallum_motion_pilot,2023.1.2,MacIntel,30.00120005,656013477ede6fae3cc2728b,656018846682f3df8008bb8f,656018da8afbc727314d9682,1,108,270,52,1,threeone,,,,,,,,,,,,,,,,,,,,,,,,,,,,,,,,,,,,,,,,,,,,,,,,,,,,,,,,,,,,,,,,,,,,,,,,,,,,,,,,,,,,,
656013477ede6fae3cc2728b,2023-11-23_20h31.26.615,kallum_motion_pilot,2023.1.2,MacIntel,30.00120005,656013477ede6fae3cc2728b,656018846682f3df8008bb8f,656018da8afbc727314d9682,1,109,271,74,1,twoone,,,,,,,,,,,,,,,,,,,,,,,,,,,,,,,,,,,,,,,,,,,,,,,,,,,,,,,,,,,,,,,,,,,,,,,,,,,,,,,,,,,,,
656013477ede6fae3cc2728b,2023-11-23_20h31.26.615,kallum_motion_pilot,2023.1.2,MacIntel,30.00120005,656013477ede6fae3cc2728b,656018846682f3df8008bb8f,656018da8afbc727314d9682,1,110,272,75,1,twofour,,,,,,,,,,,,,,,,,,,,,,,,,,,,,,,,,,,,,,,,,,,,,,,,,,,,,,,,,,,,,,,,,,,,,,,,,,,,,,,,,,,,,
656013477ede6fae3cc2728b,2023-11-23_20h31.26.615,kallum_motion_pilot,2023.1.2,MacIntel,30.00120005,656013477ede6fae3cc2728b,656018846682f3df8008bb8f,656018da8afbc727314d9682,1,111,273,0,1,onetwo,,,,,,,,,,,,,,,,,,,,,,,,,,,,,,,,,,,,,,,,,,,,,,,,,,,,,,,,,,,,,,,,,,,,,,,,,,,,,,,,,,,,,
656013477ede6fae3cc2728b,2023-11-23_20h31.26.615,kallum_motion_pilot,2023.1.2,MacIntel,30.00120005,656013477ede6fae3cc2728b,656018846682f3df8008bb8f,656018da8afbc727314d9682,1,112,274,1,1,onethree,,,,,,,,,,,,,,,,,,,,,,,,,,,,,,,,,,,,,,,,,,,,,,,,,,,,,,,,,,,,,,,,,,,,,,,,,,,,,,,,,,,,,
656013477ede6fae3cc2728b,2023-11-23_20h31.26.615,kallum_motion_pilot,2023.1.2,MacIntel,30.00120005,656013477ede6fae3cc2728b,656018846682f3df8008bb8f,656018da8afbc727314d9682,1,113,275,104,1,fivesix,,,,,,,,,,,,,,,,,,,,,,,,,,,,,,,,,,,,,,,,,,,,,,,,,,,,,,,,,,,,,,,,,,,,,,,,,,,,,,,,,,,,,
656013477ede6fae3cc2728b,2023-11-23_20h31.26.615,kallum_motion_pilot,2023.1.2,MacIntel,30.00120005,656013477ede6fae3cc2728b,656018846682f3df8008bb8f,656018da8afbc727314d9682,1,114,276,119,1,eightseven,,,,,,,,,,,,,,,,,,,,,,,,,,,,,,,,,,,,,,,,,,,,,,,,,,,,,,,,,,,,,,,,,,,,,,,,,,,,,,,,,,,,,
656013477ede6fae3cc2728b,2023-11-23_20h31.26.615,kallum_motion_pilot,2023.1.2,MacIntel,30.00120005,656013477ede6fae3cc2728b,656018846682f3df8008bb8f,656018da8afbc727314d9682,1,115,277,5,1,threefour,,,,,,,,,,,,,,,,,,,,,,,,,,,,,,,,,,,,,,,,,,,,,,,,,,,,,,,,,,,,,,,,,,,,,,,,,,,,,,,,,,,,,
656013477ede6fae3cc2728b,2023-11-23_20h31.26.615,kallum_motion_pilot,2023.1.2,MacIntel,30.00120005,656013477ede6fae3cc2728b,656018846682f3df8008bb8f,656018da8afbc727314d9682,1,116,278,53,1,threefour,,,,,,,,,,,,,,,,,,,,,,,,,,,,,,,,,,,,,,,,,,,,,,,,,,,,,,,,,,,,,,,,,,,,,,,,,,,,,,,,,,,,,
656013477ede6fae3cc2728b,2023-11-23_20h31.26.615,kallum_motion_pilot,2023.1.2,MacIntel,30.00120005,656013477ede6fae3cc2728b,656018846682f3df8008bb8f,656018da8afbc727314d9682,1,117,279,145,1,fiveseven,,,,,,,,,,,,,,,,,,,,,,,,,,,,,,,,,,,,,,,,,,,,,,,,,,,,,,,,,,,,,,,,,,,,,,,,,,,,,,,,,,,,,
656013477ede6fae3cc2728b,2023-11-23_20h31.26.615,kallum_motion_pilot,2023.1.2,MacIntel,30.00120005,656013477ede6fae3cc2728b,656018846682f3df8008bb8f,656018da8afbc727314d9682,1,118,280,84,1,sevenfive,,,,,,,,,,,,,,,,,,,,,,,,,,,,,,,,,,,,,,,,,,,,,,,,,,,,,,,,,,,,,,,,,,,,,,,,,,,,,,,,,,,,,
656013477ede6fae3cc2728b,2023-11-23_20h31.26.615,kallum_motion_pilot,2023.1.2,MacIntel,30.00120005,656013477ede6fae3cc2728b,656018846682f3df8008bb8f,656018da8afbc727314d9682,1,119,281,49,1,onethree,,,,,,,,,,,,,,,,,,,,,,,,,,,,,,,,,,,,,,,,,,,,,,,,,,,,,,,,,,,,,,,,,,,,,,,,,,,,,,,,,,,,,
656013477ede6fae3cc2728b,2023-11-23_20h31.26.615,kallum_motion_pilot,2023.1.2,MacIntel,30.00120005,656013477ede6fae3cc2728b,656018846682f3df8008bb8f,656018da8afbc727314d9682,1,120,282,50,1,twoone,,,,,,,,,,,,,,,,,,,,,,,,,,,,,,,,,,,,,,,,,,,,,,,,,,,,,,,,,,,,,,,,,,,,,,,,,,,,,,,,,,,,,
656013477ede6fae3cc2728b,2023-11-23_20h31.26.615,kallum_motion_pilot,2023.1.2,MacIntel,30.00120005,656013477ede6fae3cc2728b,656018846682f3df8008bb8f,656018da8afbc727314d9682,1,121,283,14,1,fourtwo,,,,,,,,,,,,,,,,,,,,,,,,,,,,,,,,,,,,,,,,,,,,,,,,,,,,,,,,,,,,,,,,,,,,,,,,,,,,,,,,,,,,,
656013477ede6fae3cc2728b,2023-11-23_20h31.26.615,kallum_motion_pilot,2023.1.2,MacIntel,30.00120005,656013477ede6fae3cc2728b,656018846682f3df8008bb8f,656018da8afbc727314d9682,1,122,284,115,1,sixeight,,,,,,,,,,,,,,,,,,,,,,,,,,,,,,,,,,,,,,,,,,,,,,,,,,,,,,,,,,,,,,,,,,,,,,,,,,,,,,,,,,,,,
656013477ede6fae3cc2728b,2023-11-23_20h31.26.615,kallum_motion_pilot,2023.1.2,MacIntel,30.00120005,656013477ede6fae3cc2728b,656018846682f3df8008bb8f,656018da8afbc727314d9682,1,123,285,88,1,fivesix,,,,,,,,,,,,,,,,,,,,,,,,,,,,,,,,,,,,,,,,,,,,,,,,,,,,,,,,,,,,,,,,,,,,,,,,,,,,,,,,,,,,,
656013477ede6fae3cc2728b,2023-11-23_20h31.26.615,kallum_motion_pilot,2023.1.2,MacIntel,30.00120005,656013477ede6fae3cc2728b,656018846682f3df8008bb8f,656018da8afbc727314d9682,1,124,286,2,1,twoone,,,,,,,,,,,,,,,,,,,,,,,,,,,,,,,,,,,,,,,,,,,,,,,,,,,,,,,,,,,,,,,,,,,,,,,,,,,,,,,,,,,,,
656013477ede6fae3cc2728b,2023-11-23_20h31.26.615,kallum_motion_pilot,2023.1.2,MacIntel,30.00120005,656013477ede6fae3cc2728b,656018846682f3df8008bb8f,656018da8afbc727314d9682,1,125,287,69,1,threefour,,,,,,,,,,,,,,,,,,,,,,,,,,,,,,,,,,,,,,,,,,,,,,,,,,,,,,,,,,,,,,,,,,,,,,,,,,,,,,,,,,,,,
656013477ede6fae3cc2728b,2023-11-23_20h31.26.615,kallum_motion_pilot,2023.1.2,MacIntel,30.00120005,656013477ede6fae3cc2728b,656018846682f3df8008bb8f,656018da8afbc727314d9682,1,126,288,36,1,threeone,,,,,,,,,,,,,,,,,,,,,,,,,,,,,,,,,,,,,,,,,,,,,,,,,,,,,,,,,,,,,,,,,,,,,,,,,,,,,,,,,,,,,
656013477ede6fae3cc2728b,2023-11-23_20h31.26.615,kallum_motion_pilot,2023.1.2,MacIntel,30.00120005,656013477ede6fae3cc2728b,656018846682f3df8008bb8f,656018da8afbc727314d9682,1,127,289,93,1,seveneight,,,,,,,,,,,,,,,,,,,,,,,,,,,,,,,,,,,,,,,,,,,,,,,,,,,,,,,,,,,,,,,,,,,,,,,,,,,,,,,,,,,,,
656013477ede6fae3cc2728b,2023-11-23_20h31.26.615,kallum_motion_pilot,2023.1.2,MacIntel,30.00120005,656013477ede6fae3cc2728b,656018846682f3df8008bb8f,656018da8afbc727314d9682,1,128,290,73,1,onethree,,,,,,,,,,,,,,,,,,,,,,,,,,,,,,,,,,,,,,,,,,,,,,,,,,,,,,,,,,,,,,,,,,,,,,,,,,,,,,,,,,,,,
656013477ede6fae3cc2728b,2023-11-23_20h31.26.615,kallum_motion_pilot,2023.1.2,MacIntel,30.00120005,656013477ede6fae3cc2728b,656018846682f3df8008bb8f,656018da8afbc727314d9682,1,129,291,66,1,twoone,,,,,,,,,,,,,,,,,,,,,,,,,,,,,,,,,,,,,,,,,,,,,,,,,,,,,,,,,,,,,,,,,,,,,,,,,,,,,,,,,,,,,
656013477ede6fae3cc2728b,2023-11-23_20h31.26.615,kallum_motion_pilot,2023.1.2,MacIntel,30.00120005,656013477ede6fae3cc2728b,656018846682f3df8008bb8f,656018da8afbc727314d9682,1,130,292,46,1,fourtwo,,,,,,,,,,,,,,,,,,,,,,,,,,,,,,,,,,,,,,,,,,,,,,,,,,,,,,,,,,,,,,,,,,,,,,,,,,,,,,,,,,,,,
656013477ede6fae3cc2728b,2023-11-23_20h31.26.615,kallum_motion_pilot,2023.1.2,MacIntel,30.00120005,656013477ede6fae3cc2728b,656018846682f3df8008bb8f,656018da8afbc727314d9682,1,131,293,136,1,fivesix,,,,,,,,,,,,,,,,,,,,,,,,,,,,,,,,,,,,,,,,,,,,,,,,,,,,,,,,,,,,,,,,,,,,,,,,,,,,,,,,,,,,,
656013477ede6fae3cc2728b,2023-11-23_20h31.26.615,kallum_motion_pilot,2023.1.2,MacIntel,30.00120005,656013477ede6fae3cc2728b,656018846682f3df8008bb8f,656018da8afbc727314d9682,1,132,294,55,1,fourthree,,,,,,,,,,,,,,,,,,,,,,,,,,,,,,,,,,,,,,,,,,,,,,,,,,,,,,,,,,,,,,,,,,,,,,,,,,,,,,,,,,,,,
656013477ede6fae3cc2728b,2023-11-23_20h31.26.615,kallum_motion_pilot,2023.1.2,MacIntel,30.00120005,656013477ede6fae3cc2728b,656018846682f3df8008bb8f,656018da8afbc727314d9682,1,133,295,87,1,eightseven,,,,,,,,,,,,,,,,,,,,,,,,,,,,,,,,,,,,,,,,,,,,,,,,,,,,,,,,,,,,,,,,,,,,,,,,,,,,,,,,,,,,,
656013477ede6fae3cc2728b,2023-11-23_20h31.26.615,kallum_motion_pilot,2023.1.2,MacIntel,30.00120005,656013477ede6fae3cc2728b,656018846682f3df8008bb8f,656018da8afbc727314d9682,1,134,296,41,1,onethree,,,,,,,,,,,,,,,,,,,,,,,,,,,,,,,,,,,,,,,,,,,,,,,,,,,,,,,,,,,,,,,,,,,,,,,,,,,,,,,,,,,,,
656013477ede6fae3cc2728b,2023-11-23_20h31.26.615,kallum_motion_pilot,2023.1.2,MacIntel,30.00120005,656013477ede6fae3cc2728b,656018846682f3df8008bb8f,656018da8afbc727314d9682,1,135,297,83,1,sixeight,,,,,,,,,,,,,,,,,,,,,,,,,,,,,,,,,,,,,,,,,,,,,,,,,,,,,,,,,,,,,,,,,,,,,,,,,,,,,,,,,,,,,
656013477ede6fae3cc2728b,2023-11-23_20h31.26.615,kallum_motion_pilot,2023.1.2,MacIntel,30.00120005,656013477ede6fae3cc2728b,656018846682f3df8008bb8f,656018da8afbc727314d9682,1,136,298,27,1,twofour,,,,,,,,,,,,,,,,,,,,,,,,,,,,,,,,,,,,,,,,,,,,,,,,,,,,,,,,,,,,,,,,,,,,,,,,,,,,,,,,,,,,,
656013477ede6fae3cc2728b,2023-11-23_20h31.26.615,kallum_motion_pilot,2023.1.2,MacIntel,30.00120005,656013477ede6fae3cc2728b,656018846682f3df8008bb8f,656018da8afbc727314d9682,1,137,299,18,1,twoone,,,,,,,,,,,,,,,,,,,,,,,,,,,,,,,,,,,,,,,,,,,,,,,,,,,,,,,,,,,,,,,,,,,,,,,,,,,,,,,,,,,,,
656013477ede6fae3cc2728b,2023-11-23_20h31.26.615,kallum_motion_pilot,2023.1.2,MacIntel,30.00120005,656013477ede6fae3cc2728b,656018846682f3df8008bb8f,656018da8afbc727314d9682,1,138,300,43,1,twofour,,,,,,,,,,,,,,,,,,,,,,,,,,,,,,,,,,,,,,,,,,,,,,,,,,,,,,,,,,,,,,,,,,,,,,,,,,,,,,,,,,,,,
656013477ede6fae3cc2728b,2023-11-23_20h31.26.615,kallum_motion_pilot,2023.1.2,MacIntel,30.00120005,656013477ede6fae3cc2728b,656018846682f3df8008bb8f,656018da8afbc727314d9682,1,139,301,61,1,threefour,,,,,,,,,,,,,,,,,,,,,,,,,,,,,,,,,,,,,,,,,,,,,,,,,,,,,,,,,,,,,,,,,,,,,,,,,,,,,,,,,,,,,
656013477ede6fae3cc2728b,2023-11-23_20h31.26.615,kallum_motion_pilot,2023.1.2,MacIntel,30.00120005,656013477ede6fae3cc2728b,656018846682f3df8008bb8f,656018da8afbc727314d9682,1,140,302,122,1,sixfive,,,,,,,,,,,,,,,,,,,,,,,,,,,,,,,,,,,,,,,,,,,,,,,,,,,,,,,,,,,,,,,,,,,,,,,,,,,,,,,,,,,,,
656013477ede6fae3cc2728b,2023-11-23_20h31.26.615,kallum_motion_pilot,2023.1.2,MacIntel,30.00120005,656013477ede6fae3cc2728b,656018846682f3df8008bb8f,656018da8afbc727314d9682,1,141,303,72,1,onetwo,,,,,,,,,,,,,,,,,,,,,,,,,,,,,,,,,,,,,,,,,,,,,,,,,,,,,,,,,,,,,,,,,,,,,,,,,,,,,,,,,,,,,
656013477ede6fae3cc2728b,2023-11-23_20h31.26.615,kallum_motion_pilot,2023.1.2,MacIntel,30.00120005,656013477ede6fae3cc2728b,656018846682f3df8008bb8f,656018da8afbc727314d9682,1,142,304,42,1,twoone,,,,,,,,,,,,,,,,,,,,,,,,,,,,,,,,,,,,,,,,,,,,,,,,,,,,,,,,,,,,,,,,,,,,,,,,,,,,,,,,,,,,,
656013477ede6fae3cc2728b,2023-11-23_20h31.26.615,kallum_motion_pilot,2023.1.2,MacIntel,30.00120005,656013477ede6fae3cc2728b,656018846682f3df8008bb8f,656018da8afbc727314d9682,1,143,305,113,1,fiveseven,,,,,,,,,,,,,,,,,,,,,,,,,,,,,,,,,,,,,,,,,,,,,,,,,,,,,,,,,,,,,,,,,,,,,,,,,,,,,,,,,,,,,
656013477ede6fae3cc2728b,2023-11-23_20h31.26.615,kallum_motion_pilot,2023.1.2,MacIntel,30.00120005,656013477ede6fae3cc2728b,656018846682f3df8008bb8f,656018da8afbc727314d9682,1,144,306,143,1,eightseven,,,,,,,,,,,,,,,,,,,,,,,,,,,,,,,,,,,,,,,,,,,,,,,,,,,,,,,,,,,,,,,,,,,,,,,,,,,,,,,,,,,,,
656013477ede6fae3cc2728b,2023-11-23_20h31.26.615,kallum_motion_pilot,2023.1.2,MacIntel,30.00120005,656013477ede6fae3cc2728b,656018846682f3df8008bb8f,656018da8afbc727314d9682,1,145,307,161,1,fiveseven,,,,,,,,,,,,,,,,,,,,,,,,,,,,,,,,,,,,,,,,,,,,,,,,,,,,,,,,,,,,,,,,,,,,,,,,,,,,,,,,,,,,,
656013477ede6fae3cc2728b,2023-11-23_20h31.26.615,kallum_motion_pilot,2023.1.2,MacIntel,30.00120005,656013477ede6fae3cc2728b,656018846682f3df8008bb8f,656018da8afbc727314d9682,1,146,308,150,1,eightsix,,,,,,,,,,,,,,,,,,,,,,,,,,,,,,,,,,,,,,,,,,,,,,,,,,,,,,,,,,,,,,,,,,,,,,,,,,,,,,,,,,,,,
656013477ede6fae3cc2728b,2023-11-23_20h31.26.615,kallum_motion_pilot,2023.1.2,MacIntel,30.00120005,656013477ede6fae3cc2728b,656018846682f3df8008bb8f,656018da8afbc727314d9682,1,147,309,7,1,fourthree,,,,,,,,,,,,,,,,,,,,,,,,,,,,,,,,,,,,,,,,,,,,,,,,,,,,,,,,,,,,,,,,,,,,,,,,,,,,,,,,,,,,,
656013477ede6fae3cc2728b,2023-11-23_20h31.26.615,kallum_motion_pilot,2023.1.2,MacIntel,30.00120005,656013477ede6fae3cc2728b,656018846682f3df8008bb8f,656018da8afbc727314d9682,1,148,310,3,1,twofour,,,,,,,,,,,,,,,,,,,,,,,,,,,,,,,,,,,,,,,,,,,,,,,,,,,,,,,,,,,,,,,,,,,,,,,,,,,,,,,,,,,,,
656013477ede6fae3cc2728b,2023-11-23_20h31.26.615,kallum_motion_pilot,2023.1.2,MacIntel,30.00120005,656013477ede6fae3cc2728b,656018846682f3df8008bb8f,656018da8afbc727314d9682,1,149,311,157,1,seveneight,,,,,,,,,,,,,,,,,,,,,,,,,,,,,,,,,,,,,,,,,,,,,,,,,,,,,,,,,,,,,,,,,,,,,,,,,,,,,,,,,,,,,
656013477ede6fae3cc2728b,2023-11-23_20h31.26.615,kallum_motion_pilot,2023.1.2,MacIntel,30.00120005,656013477ede6fae3cc2728b,656018846682f3df8008bb8f,656018da8afbc727314d9682,1,150,312,91,1,sixeight,,,,,,,,,,,,,,,,,,,,,,,,,,,,,,,,,,,,,,,,,,,,,,,,,,,,,,,,,,,,,,,,,,,,,,,,,,,,,,,,,,,,,
656013477ede6fae3cc2728b,2023-11-23_20h31.26.615,kallum_motion_pilot,2023.1.2,MacIntel,30.00120005,656013477ede6fae3cc2728b,656018846682f3df8008bb8f,656018da8afbc727314d9682,1,151,313,44,1,threeone,,,,,,,,,,,,,,,,,,,,,,,,,,,,,,,,,,,,,,,,,,,,,,,,,,,,,,,,,,,,,,,,,,,,,,,,,,,,,,,,,,,,,
656013477ede6fae3cc2728b,2023-11-23_20h31.26.615,kallum_motion_pilot,2023.1.2,MacIntel,30.00120005,656013477ede6fae3cc2728b,656018846682f3df8008bb8f,656018da8afbc727314d9682,1,152,314,158,1,eightsix,,,,,,,,,,,,,,,,,,,,,,,,,,,,,,,,,,,,,,,,,,,,,,,,,,,,,,,,,,,,,,,,,,,,,,,,,,,,,,,,,,,,,
656013477ede6fae3cc2728b,2023-11-23_20h31.26.615,kallum_motion_pilot,2023.1.2,MacIntel,30.00120005,656013477ede6fae3cc2728b,656018846682f3df8008bb8f,656018da8afbc727314d9682,1,153,315,58,1,twoone,,,,,,,,,,,,,,,,,,,,,,,,,,,,,,,,,,,,,,,,,,,,,,,,,,,,,,,,,,,,,,,,,,,,,,,,,,,,,,,,,,,,,
656013477ede6fae3cc2728b,2023-11-23_20h31.26.615,kallum_motion_pilot,2023.1.2,MacIntel,30.00120005,656013477ede6fae3cc2728b,656018846682f3df8008bb8f,656018da8afbc727314d9682,1,154,316,81,1,fiveseven,,,,,,,,,,,,,,,,,,,,,,,,,,,,,,,,,,,,,,,,,,,,,,,,,,,,,,,,,,,,,,,,,,,,,,,,,,,,,,,,,,,,,
656013477ede6fae3cc2728b,2023-11-23_20h31.26.615,kallum_motion_pilot,2023.1.2,MacIntel,30.00120005,656013477ede6fae3cc2728b,656018846682f3df8008bb8f,656018da8afbc727314d9682,1,155,317,103,1,eightseven,,,,,,,,,,,,,,,,,,,,,,,,,,,,,,,,,,,,,,,,,,,,,,,,,,,,,,,,,,,,,,,,,,,,,,,,,,,,,,,,,,,,,
656013477ede6fae3cc2728b,2023-11-23_20h31.26.615,kallum_motion_pilot,2023.1.2,MacIntel,30.00120005,656013477ede6fae3cc2728b,656018846682f3df8008bb8f,656018da8afbc727314d9682,1,156,318,123,1,sixeight,,,,,,,,,,,,,,,,,,,,,,,,,,,,,,,,,,,,,,,,,,,,,,,,,,,,,,,,,,,,,,,,,,,,,,,,,,,,,,,,,,,,,
656013477ede6fae3cc2728b,2023-11-23_20h31.26.615,kallum_motion_pilot,2023.1.2,MacIntel,30.00120005,656013477ede6fae3cc2728b,656018846682f3df8008bb8f,656018da8afbc727314d9682,1,157,319,51,1,twofour,,,,,,,,,,,,,,,,,,,,,,,,,,,,,,,,,,,,,,,,,,,,,,,,,,,,,,,,,,,,,,,,,,,,,,,,,,,,,,,,,,,,,
656013477ede6fae3cc2728b,2023-11-23_20h31.26.615,kallum_motion_pilot,2023.1.2,MacIntel,30.00120005,656013477ede6fae3cc2728b,656018846682f3df8008bb8f,656018da8afbc727314d9682,1,158,320,147,1,sixeight,,,,,,,,,,,,,,,,,,,,,,,,,,,,,,,,,,,,,,,,,,,,,,,,,,,,,,,,,,,,,,,,,,,,,,,,,,,,,,,,,,,,,
656013477ede6fae3cc2728b,2023-11-23_20h31.26.615,kallum_motion_pilot,2023.1.2,MacIntel,30.00120005,656013477ede6fae3cc2728b,656018846682f3df8008bb8f,656018da8afbc727314d9682,1,159,321,160,1,fivesix,,,,,,,,,,,,,,,,,,,,,,,,,,,,,,,,,,,,,,,,,,,,,,,,,,,,,,,,,,,,,,,,,,,,,,,,,,,,,,,,,,,,,
656013477ede6fae3cc2728b,2023-11-23_20h31.26.615,kallum_motion_pilot,2023.1.2,MacIntel,30.00120005,656013477ede6fae3cc2728b,656018846682f3df8008bb8f,656018da8afbc727314d9682,1,160,322,31,1,fourthree,,,,,,,,,,,,,,,,,,,,,,,,,,,,,,,,,,,,,,,,,,,,,,,,,,,,,,,,,,,,,,,,,,,,,,,,,,,,,,,,,,,,,
656013477ede6fae3cc2728b,2023-11-23_20h31.26.615,kallum_motion_pilot,2023.1.2,MacIntel,30.00120005,656013477ede6fae3cc2728b,656018846682f3df8008bb8f,656018da8afbc727314d9682,1,161,323,144,1,fivesix,,,,,,,,,,,,,,,,,,,,,,,,,,,,,,,,,,,,,,,,,,,,,,,,,,,,,,,,,,,,,,,,,,,,,,,,,,,,,,,,,,,,,
656013477ede6fae3cc2728b,2023-11-23_20h31.26.615,kallum_motion_pilot,2023.1.2,MacIntel,30.00120005,656013477ede6fae3cc2728b,656018846682f3df8008bb8f,656018da8afbc727314d9682,2,0,324,92,1,sevenfive,,,,,,,,,,,,,,,,,,,,,,,,,,,,,,,,,,,,,,,,,,,,,,,,,,,,,,,,,,,,,,,,,,,,,,,,,,,,,,,,,,,,,
656013477ede6fae3cc2728b,2023-11-23_20h31.26.615,kallum_motion_pilot,2023.1.2,MacIntel,30.00120005,656013477ede6fae3cc2728b,656018846682f3df8008bb8f,656018da8afbc727314d9682,2,1,325,137,1,fiveseven,,,,,,,,,,,,,,,,,,,,,,,,,,,,,,,,,,,,,,,,,,,,,,,,,,,,,,,,,,,,,,,,,,,,,,,,,,,,,,,,,,,,,
656013477ede6fae3cc2728b,2023-11-23_20h31.26.615,kallum_motion_pilot,2023.1.2,MacIntel,30.00120005,656013477ede6fae3cc2728b,656018846682f3df8008bb8f,656018da8afbc727314d9682,2,2,326,78,1,fourtwo,,,,,,,,,,,,,,,,,,,,,,,,,,,,,,,,,,,,,,,,,,,,,,,,,,,,,,,,,,,,,,,,,,,,,,,,,,,,,,,,,,,,,
656013477ede6fae3cc2728b,2023-11-23_20h31.26.615,kallum_motion_pilot,2023.1.2,MacIntel,30.00120005,656013477ede6fae3cc2728b,656018846682f3df8008bb8f,656018da8afbc727314d9682,2,3,327,147,1,sixeight,,,,,,,,,,,,,,,,,,,,,,,,,,,,,,,,,,,,,,,,,,,,,,,,,,,,,,,,,,,,,,,,,,,,,,,,,,,,,,,,,,,,,
656013477ede6fae3cc2728b,2023-11-23_20h31.26.615,kallum_motion_pilot,2023.1.2,MacIntel,30.00120005,656013477ede6fae3cc2728b,656018846682f3df8008bb8f,656018da8afbc727314d9682,2,4,328,38,1,fourtwo,,,,,,,,,,,,,,,,,,,,,,,,,,,,,,,,,,,,,,,,,,,,,,,,,,,,,,,,,,,,,,,,,,,,,,,,,,,,,,,,,,,,,
656013477ede6fae3cc2728b,2023-11-23_20h31.26.615,kallum_motion_pilot,2023.1.2,MacIntel,30.00120005,656013477ede6fae3cc2728b,656018846682f3df8008bb8f,656018da8afbc727314d9682,2,5,329,140,1,sevenfive,,,,,,,,,,,,,,,,,,,,,,,,,,,,,,,,,,,,,,,,,,,,,,,,,,,,,,,,,,,,,,,,,,,,,,,,,,,,,,,,,,,,,
656013477ede6fae3cc2728b,2023-11-23_20h31.26.615,kallum_motion_pilot,2023.1.2,MacIntel,30.00120005,656013477ede6fae3cc2728b,656018846682f3df8008bb8f,656018da8afbc727314d9682,2,6,330,94,1,eightsix,,,,,,,,,,,,,,,,,,,,,,,,,,,,,,,,,,,,,,,,,,,,,,,,,,,,,,,,,,,,,,,,,,,,,,,,,,,,,,,,,,,,,
656013477ede6fae3cc2728b,2023-11-23_20h31.26.615,kallum_motion_pilot,2023.1.2,MacIntel,30.00120005,656013477ede6fae3cc2728b,656018846682f3df8008bb8f,656018da8afbc727314d9682,2,7,331,108,1,sevenfive,,,,,,,,,,,,,,,,,,,,,,,,,,,,,,,,,,,,,,,,,,,,,,,,,,,,,,,,,,,,,,,,,,,,,,,,,,,,,,,,,,,,,
656013477ede6fae3cc2728b,2023-11-23_20h31.26.615,kallum_motion_pilot,2023.1.2,MacIntel,30.00120005,656013477ede6fae3cc2728b,656018846682f3df8008bb8f,656018da8afbc727314d9682,2,8,332,68,1,threeone,,,,,,,,,,,,,,,,,,,,,,,,,,,,,,,,,,,,,,,,,,,,,,,,,,,,,,,,,,,,,,,,,,,,,,,,,,,,,,,,,,,,,
656013477ede6fae3cc2728b,2023-11-23_20h31.26.615,kallum_motion_pilot,2023.1.2,MacIntel,30.00120005,656013477ede6fae3cc2728b,656018846682f3df8008bb8f,656018da8afbc727314d9682,2,9,333,47,1,fourthree,,,,,,,,,,,,,,,,,,,,,,,,,,,,,,,,,,,,,,,,,,,,,,,,,,,,,,,,,,,,,,,,,,,,,,,,,,,,,,,,,,,,,
656013477ede6fae3cc2728b,2023-11-23_20h31.26.615,kallum_motion_pilot,2023.1.2,MacIntel,30.00120005,656013477ede6fae3cc2728b,656018846682f3df8008bb8f,656018da8afbc727314d9682,2,10,334,90,1,sixfive,,,,,,,,,,,,,,,,,,,,,,,,,,,,,,,,,,,,,,,,,,,,,,,,,,,,,,,,,,,,,,,,,,,,,,,,,,,,,,,,,,,,,
656013477ede6fae3cc2728b,2023-11-23_20h31.26.615,kallum_motion_pilot,2023.1.2,MacIntel,30.00120005,656013477ede6fae3cc2728b,656018846682f3df8008bb8f,656018da8afbc727314d9682,2,11,335,62,1,fourtwo,,,,,,,,,,,,,,,,,,,,,,,,,,,,,,,,,,,,,,,,,,,,,,,,,,,,,,,,,,,,,,,,,,,,,,,,,,,,,,,,,,,,,
656013477ede6fae3cc2728b,2023-11-23_20h31.26.615,kallum_motion_pilot,2023.1.2,MacIntel,30.00120005,656013477ede6fae3cc2728b,656018846682f3df8008bb8f,656018da8afbc727314d9682,2,12,336,159,1,eightseven,,,,,,,,,,,,,,,,,,,,,,,,,,,,,,,,,,,,,,,,,,,,,,,,,,,,,,,,,,,,,,,,,,,,,,,,,,,,,,,,,,,,,
656013477ede6fae3cc2728b,2023-11-23_20h31.26.615,kallum_motion_pilot,2023.1.2,MacIntel,30.00120005,656013477ede6fae3cc2728b,656018846682f3df8008bb8f,656018da8afbc727314d9682,2,13,337,43,1,twofour,,,,,,,,,,,,,,,,,,,,,,,,,,,,,,,,,,,,,,,,,,,,,,,,,,,,,,,,,,,,,,,,,,,,,,,,,,,,,,,,,,,,,
656013477ede6fae3cc2728b,2023-11-23_20h31.26.615,kallum_motion_pilot,2023.1.2,MacIntel,30.00120005,656013477ede6fae3cc2728b,656018846682f3df8008bb8f,656018da8afbc727314d9682,2,14,338,75,1,twofour,,,,,,,,,,,,,,,,,,,,,,,,,,,,,,,,,,,,,,,,,,,,,,,,,,,,,,,,,,,,,,,,,,,,,,,,,,,,,,,,,,,,,
656013477ede6fae3cc2728b,2023-11-23_20h31.26.615,kallum_motion_pilot,2023.1.2,MacIntel,30.00120005,656013477ede6fae3cc2728b,656018846682f3df8008bb8f,656018da8afbc727314d9682,2,15,339,65,1,onethree,,,,,,,,,,,,,,,,,,,,,,,,,,,,,,,,,,,,,,,,,,,,,,,,,,,,,,,,,,,,,,,,,,,,,,,,,,,,,,,,,,,,,
656013477ede6fae3cc2728b,2023-11-23_20h31.26.615,kallum_motion_pilot,2023.1.2,MacIntel,30.00120005,656013477ede6fae3cc2728b,656018846682f3df8008bb8f,656018da8afbc727314d9682,2,16,340,102,1,eightsix,,,,,,,,,,,,,,,,,,,,,,,,,,,,,,,,,,,,,,,,,,,,,,,,,,,,,,,,,,,,,,,,,,,,,,,,,,,,,,,,,,,,,
656013477ede6fae3cc2728b,2023-11-23_20h31.26.615,kallum_motion_pilot,2023.1.2,MacIntel,30.00120005,656013477ede6fae3cc2728b,656018846682f3df8008bb8f,656018da8afbc727314d9682,2,17,341,17,1,onethree,,,,,,,,,,,,,,,,,,,,,,,,,,,,,,,,,,,,,,,,,,,,,,,,,,,,,,,,,,,,,,,,,,,,,,,,,,,,,,,,,,,,,
656013477ede6fae3cc2728b,2023-11-23_20h31.26.615,kallum_motion_pilot,2023.1.2,MacIntel,30.00120005,656013477ede6fae3cc2728b,656018846682f3df8008bb8f,656018da8afbc727314d9682,2,18,342,103,1,eightseven,,,,,,,,,,,,,,,,,,,,,,,,,,,,,,,,,,,,,,,,,,,,,,,,,,,,,,,,,,,,,,,,,,,,,,,,,,,,,,,,,,,,,
656013477ede6fae3cc2728b,2023-11-23_20h31.26.615,kallum_motion_pilot,2023.1.2,MacIntel,30.00120005,656013477ede6fae3cc2728b,656018846682f3df8008bb8f,656018da8afbc727314d9682,2,19,343,160,1,fivesix,,,,,,,,,,,,,,,,,,,,,,,,,,,,,,,,,,,,,,,,,,,,,,,,,,,,,,,,,,,,,,,,,,,,,,,,,,,,,,,,,,,,,
656013477ede6fae3cc2728b,2023-11-23_20h31.26.615,kallum_motion_pilot,2023.1.2,MacIntel,30.00120005,656013477ede6fae3cc2728b,656018846682f3df8008bb8f,656018da8afbc727314d9682,2,20,344,13,1,threefour,,,,,,,,,,,,,,,,,,,,,,,,,,,,,,,,,,,,,,,,,,,,,,,,,,,,,,,,,,,,,,,,,,,,,,,,,,,,,,,,,,,,,
656013477ede6fae3cc2728b,2023-11-23_20h31.26.615,kallum_motion_pilot,2023.1.2,MacIntel,30.00120005,656013477ede6fae3cc2728b,656018846682f3df8008bb8f,656018da8afbc727314d9682,2,21,345,42,1,twoone,,,,,,,,,,,,,,,,,,,,,,,,,,,,,,,,,,,,,,,,,,,,,,,,,,,,,,,,,,,,,,,,,,,,,,,,,,,,,,,,,,,,,
656013477ede6fae3cc2728b,2023-11-23_20h31.26.615,kallum_motion_pilot,2023.1.2,MacIntel,30.00120005,656013477ede6fae3cc2728b,656018846682f3df8008bb8f,656018da8afbc727314d9682,2,22,346,25,1,onethree,,,,,,,,,,,,,,,,,,,,,,,,,,,,,,,,,,,,,,,,,,,,,,,,,,,,,,,,,,,,,,,,,,,,,,,,,,,,,,,,,,,,,
