Prolific_ID*,date,expName,psychopyVersion,OS,frameRate,PROLIFIC_PID,STUDY_ID,SESSION_ID,hardcoded_stimulus_positions.thisRepN,hardcoded_stimulus_positions.thisTrialN,hardcoded_stimulus_positions.thisN,hardcoded_stimulus_positions.thisIndex,hardcoded_stimulus_positions.ran,StimulusPos,prac_stimorientation_import_loop.thisRepN,prac_stimorientation_import_loop.thisTrialN,prac_stimorientation_import_loop.thisN,prac_stimorientation_import_loop.thisIndex,prac_stimorientation_import_loop.ran,Stimorientation,key_resp.keys,key_resp.rt,key_resp_20.keys,key_resp_20.rt,key_resp_19.keys,key_resp_19.rt,key_resp_15.keys,key_resp_15.rt,key_resp_9.keys,key_resp_9.rt,key_resp_10.keys,key_resp_10.rt,Ecc,Circle1_ori,Circle2_ori,similarity,response_time,mouse_5.x,mouse_5.y,mouse_5.leftButton,mouse_5.midButton,mouse_5.rightButton,mouse_5.clicked_name,mouse_6.x,mouse_6.y,mouse_6.leftButton,mouse_6.midButton,mouse_6.rightButton,mouse_6.clicked_name,duringprac.thisRepN,duringprac.thisTrialN,duringprac.thisN,duringprac.thisIndex,duringprac.ran,key_resp_22.keys,key_resp_22.rt,circle1_ori,circle2_ori,mouse.x,mouse.y,mouse.leftButton,mouse.midButton,mouse.rightButton,mouse.clicked_name,mouse_2.x,mouse_2.y,mouse_2.leftButton,mouse_2.midButton,mouse_2.rightButton,mouse_2.clicked_name,mouse_3.x,mouse_3.y,mouse_3.leftButton,mouse_3.midButton,mouse_3.rightButton,catchresponse,catchnumber,response_time_catch,Catch,mouse_11.x,mouse_11.y,mouse_11.leftButton,mouse_11.midButton,mouse_11.rightButton,main_trial.thisRepN,main_trial.thisTrialN,main_trial.thisN,main_trial.thisIndex,main_trial.ran,Orientationtrialno,xcircle1_ori,xcircle2_ori,double_pass.thisRepN,double_pass.thisTrialN,double_pass.thisN,double_pass.thisIndex,double_pass.ran,key_resp_3.keys,key_resp_3.rt
605d34ffa51bd5dd5f8fad8e,2023-11-24_24h35.59.839,kallum_motion_pilot,2023.1.2,Win32,59.98080614,605d34ffa51bd5dd5f8fad8e,656018846682f3df8008bb8f,656019cab0372956de0c1ee2,,,,,,,,,,,,,,,,,,,,,,,,,,,,,,,,,,,,,,,,,,,,,,,,,,,,,,,,,,,,,,,,,,,,,,,,,,,,,,,,,,,,,,,,,,,
605d34ffa51bd5dd5f8fad8e,2023-11-24_24h35.59.839,kallum_motion_pilot,2023.1.2,Win32,59.98080614,605d34ffa51bd5dd5f8fad8e,656018846682f3df8008bb8f,656019cab0372956de0c1ee2,0,0,0,114,1,sixfive,,,,,,,,,,,,,,,,,,,,,,,,,,,,,,,,,,,,,,,,,,,,,,,,,,,,,,,,,,,,,,,,,,,,,,,,,,,,,,,,,,,,,
605d34ffa51bd5dd5f8fad8e,2023-11-24_24h35.59.839,kallum_motion_pilot,2023.1.2,Win32,59.98080614,605d34ffa51bd5dd5f8fad8e,656018846682f3df8008bb8f,656019cab0372956de0c1ee2,0,1,1,137,1,fiveseven,,,,,,,,,,,,,,,,,,,,,,,,,,,,,,,,,,,,,,,,,,,,,,,,,,,,,,,,,,,,,,,,,,,,,,,,,,,,,,,,,,,,,
605d34ffa51bd5dd5f8fad8e,2023-11-24_24h35.59.839,kallum_motion_pilot,2023.1.2,Win32,59.98080614,605d34ffa51bd5dd5f8fad8e,656018846682f3df8008bb8f,656019cab0372956de0c1ee2,0,2,2,123,1,sixeight,,,,,,,,,,,,,,,,,,,,,,,,,,,,,,,,,,,,,,,,,,,,,,,,,,,,,,,,,,,,,,,,,,,,,,,,,,,,,,,,,,,,,
605d34ffa51bd5dd5f8fad8e,2023-11-24_24h35.59.839,kallum_motion_pilot,2023.1.2,Win32,59.98080614,605d34ffa51bd5dd5f8fad8e,656018846682f3df8008bb8f,656019cab0372956de0c1ee2,0,3,3,116,1,sevenfive,,,,,,,,,,,,,,,,,,,,,,,,,,,,,,,,,,,,,,,,,,,,,,,,,,,,,,,,,,,,,,,,,,,,,,,,,,,,,,,,,,,,,
605d34ffa51bd5dd5f8fad8e,2023-11-24_24h35.59.839,kallum_motion_pilot,2023.1.2,Win32,59.98080614,605d34ffa51bd5dd5f8fad8e,656018846682f3df8008bb8f,656019cab0372956de0c1ee2,0,4,4,111,1,eightseven,,,,,,,,,,,,,,,,,,,,,,,,,,,,,,,,,,,,,,,,,,,,,,,,,,,,,,,,,,,,,,,,,,,,,,,,,,,,,,,,,,,,,
605d34ffa51bd5dd5f8fad8e,2023-11-24_24h35.59.839,kallum_motion_pilot,2023.1.2,Win32,59.98080614,605d34ffa51bd5dd5f8fad8e,656018846682f3df8008bb8f,656019cab0372956de0c1ee2,0,5,5,90,1,sixfive,,,,,,,,,,,,,,,,,,,,,,,,,,,,,,,,,,,,,,,,,,,,,,,,,,,,,,,,,,,,,,,,,,,,,,,,,,,,,,,,,,,,,
605d34ffa51bd5dd5f8fad8e,2023-11-24_24h35.59.839,kallum_motion_pilot,2023.1.2,Win32,59.98080614,605d34ffa51bd5dd5f8fad8e,656018846682f3df8008bb8f,656019cab0372956de0c1ee2,0,6,6,88,1,fivesix,,,,,,,,,,,,,,,,,,,,,,,,,,,,,,,,,,,,,,,,,,,,,,,,,,,,,,,,,,,,,,,,,,,,,,,,,,,,,,,,,,,,,
605d34ffa51bd5dd5f8fad8e,2023-11-24_24h35.59.839,kallum_motion_pilot,2023.1.2,Win32,59.98080614,605d34ffa51bd5dd5f8fad8e,656018846682f3df8008bb8f,656019cab0372956de0c1ee2,0,7,7,86,1,eightsix,,,,,,,,,,,,,,,,,,,,,,,,,,,,,,,,,,,,,,,,,,,,,,,,,,,,,,,,,,,,,,,,,,,,,,,,,,,,,,,,,,,,,
605d34ffa51bd5dd5f8fad8e,2023-11-24_24h35.59.839,kallum_motion_pilot,2023.1.2,Win32,59.98080614,605d34ffa51bd5dd5f8fad8e,656018846682f3df8008bb8f,656019cab0372956de0c1ee2,0,8,8,142,1,eightsix,,,,,,,,,,,,,,,,,,,,,,,,,,,,,,,,,,,,,,,,,,,,,,,,,,,,,,,,,,,,,,,,,,,,,,,,,,,,,,,,,,,,,
605d34ffa51bd5dd5f8fad8e,2023-11-24_24h35.59.839,kallum_motion_pilot,2023.1.2,Win32,59.98080614,605d34ffa51bd5dd5f8fad8e,656018846682f3df8008bb8f,656019cab0372956de0c1ee2,0,9,9,127,1,eightseven,,,,,,,,,,,,,,,,,,,,,,,,,,,,,,,,,,,,,,,,,,,,,,,,,,,,,,,,,,,,,,,,,,,,,,,,,,,,,,,,,,,,,
605d34ffa51bd5dd5f8fad8e,2023-11-24_24h35.59.839,kallum_motion_pilot,2023.1.2,Win32,59.98080614,605d34ffa51bd5dd5f8fad8e,656018846682f3df8008bb8f,656019cab0372956de0c1ee2,0,10,10,44,1,threeone,,,,,,,,,,,,,,,,,,,,,,,,,,,,,,,,,,,,,,,,,,,,,,,,,,,,,,,,,,,,,,,,,,,,,,,,,,,,,,,,,,,,,
605d34ffa51bd5dd5f8fad8e,2023-11-24_24h35.59.839,kallum_motion_pilot,2023.1.2,Win32,59.98080614,605d34ffa51bd5dd5f8fad8e,656018846682f3df8008bb8f,656019cab0372956de0c1ee2,0,11,11,153,1,fiveseven,,,,,,,,,,,,,,,,,,,,,,,,,,,,,,,,,,,,,,,,,,,,,,,,,,,,,,,,,,,,,,,,,,,,,,,,,,,,,,,,,,,,,
605d34ffa51bd5dd5f8fad8e,2023-11-24_24h35.59.839,kallum_motion_pilot,2023.1.2,Win32,59.98080614,605d34ffa51bd5dd5f8fad8e,656018846682f3df8008bb8f,656019cab0372956de0c1ee2,0,12,12,10,1,twoone,,,,,,,,,,,,,,,,,,,,,,,,,,,,,,,,,,,,,,,,,,,,,,,,,,,,,,,,,,,,,,,,,,,,,,,,,,,,,,,,,,,,,
605d34ffa51bd5dd5f8fad8e,2023-11-24_24h35.59.839,kallum_motion_pilot,2023.1.2,Win32,59.98080614,605d34ffa51bd5dd5f8fad8e,656018846682f3df8008bb8f,656019cab0372956de0c1ee2,0,13,13,150,1,eightsix,,,,,,,,,,,,,,,,,,,,,,,,,,,,,,,,,,,,,,,,,,,,,,,,,,,,,,,,,,,,,,,,,,,,,,,,,,,,,,,,,,,,,
605d34ffa51bd5dd5f8fad8e,2023-11-24_24h35.59.839,kallum_motion_pilot,2023.1.2,Win32,59.98080614,605d34ffa51bd5dd5f8fad8e,656018846682f3df8008bb8f,656019cab0372956de0c1ee2,0,14,14,16,1,onetwo,,,,,,,,,,,,,,,,,,,,,,,,,,,,,,,,,,,,,,,,,,,,,,,,,,,,,,,,,,,,,,,,,,,,,,,,,,,,,,,,,,,,,
605d34ffa51bd5dd5f8fad8e,2023-11-24_24h35.59.839,kallum_motion_pilot,2023.1.2,Win32,59.98080614,605d34ffa51bd5dd5f8fad8e,656018846682f3df8008bb8f,656019cab0372956de0c1ee2,0,15,15,9,1,onethree,,,,,,,,,,,,,,,,,,,,,,,,,,,,,,,,,,,,,,,,,,,,,,,,,,,,,,,,,,,,,,,,,,,,,,,,,,,,,,,,,,,,,
605d34ffa51bd5dd5f8fad8e,2023-11-24_24h35.59.839,kallum_motion_pilot,2023.1.2,Win32,59.98080614,605d34ffa51bd5dd5f8fad8e,656018846682f3df8008bb8f,656019cab0372956de0c1ee2,0,16,16,29,1,threefour,,,,,,,,,,,,,,,,,,,,,,,,,,,,,,,,,,,,,,,,,,,,,,,,,,,,,,,,,,,,,,,,,,,,,,,,,,,,,,,,,,,,,
605d34ffa51bd5dd5f8fad8e,2023-11-24_24h35.59.839,kallum_motion_pilot,2023.1.2,Win32,59.98080614,605d34ffa51bd5dd5f8fad8e,656018846682f3df8008bb8f,656019cab0372956de0c1ee2,0,17,17,144,1,fivesix,,,,,,,,,,,,,,,,,,,,,,,,,,,,,,,,,,,,,,,,,,,,,,,,,,,,,,,,,,,,,,,,,,,,,,,,,,,,,,,,,,,,,
605d34ffa51bd5dd5f8fad8e,2023-11-24_24h35.59.839,kallum_motion_pilot,2023.1.2,Win32,59.98080614,605d34ffa51bd5dd5f8fad8e,656018846682f3df8008bb8f,656019cab0372956de0c1ee2,0,18,18,136,1,fivesix,,,,,,,,,,,,,,,,,,,,,,,,,,,,,,,,,,,,,,,,,,,,,,,,,,,,,,,,,,,,,,,,,,,,,,,,,,,,,,,,,,,,,
605d34ffa51bd5dd5f8fad8e,2023-11-24_24h35.59.839,kallum_motion_pilot,2023.1.2,Win32,59.98080614,605d34ffa51bd5dd5f8fad8e,656018846682f3df8008bb8f,656019cab0372956de0c1ee2,0,19,19,11,1,twofour,,,,,,,,,,,,,,,,,,,,,,,,,,,,,,,,,,,,,,,,,,,,,,,,,,,,,,,,,,,,,,,,,,,,,,,,,,,,,,,,,,,,,
605d34ffa51bd5dd5f8fad8e,2023-11-24_24h35.59.839,kallum_motion_pilot,2023.1.2,Win32,59.98080614,605d34ffa51bd5dd5f8fad8e,656018846682f3df8008bb8f,656019cab0372956de0c1ee2,0,20,20,37,1,threefour,,,,,,,,,,,,,,,,,,,,,,,,,,,,,,,,,,,,,,,,,,,,,,,,,,,,,,,,,,,,,,,,,,,,,,,,,,,,,,,,,,,,,
605d34ffa51bd5dd5f8fad8e,2023-11-24_24h35.59.839,kallum_motion_pilot,2023.1.2,Win32,59.98080614,605d34ffa51bd5dd5f8fad8e,656018846682f3df8008bb8f,656019cab0372956de0c1ee2,0,21,21,135,1,eightseven,,,,,,,,,,,,,,,,,,,,,,,,,,,,,,,,,,,,,,,,,,,,,,,,,,,,,,,,,,,,,,,,,,,,,,,,,,,,,,,,,,,,,
605d34ffa51bd5dd5f8fad8e,2023-11-24_24h35.59.839,kallum_motion_pilot,2023.1.2,Win32,59.98080614,605d34ffa51bd5dd5f8fad8e,656018846682f3df8008bb8f,656019cab0372956de0c1ee2,0,22,22,109,1,seveneight,,,,,,,,,,,,,,,,,,,,,,,,,,,,,,,,,,,,,,,,,,,,,,,,,,,,,,,,,,,,,,,,,,,,,,,,,,,,,,,,,,,,,
605d34ffa51bd5dd5f8fad8e,2023-11-24_24h35.59.839,kallum_motion_pilot,2023.1.2,Win32,59.98080614,605d34ffa51bd5dd5f8fad8e,656018846682f3df8008bb8f,656019cab0372956de0c1ee2,0,23,23,149,1,seveneight,,,,,,,,,,,,,,,,,,,,,,,,,,,,,,,,,,,,,,,,,,,,,,,,,,,,,,,,,,,,,,,,,,,,,,,,,,,,,,,,,,,,,
605d34ffa51bd5dd5f8fad8e,2023-11-24_24h35.59.839,kallum_motion_pilot,2023.1.2,Win32,59.98080614,605d34ffa51bd5dd5f8fad8e,656018846682f3df8008bb8f,656019cab0372956de0c1ee2,0,24,24,67,1,twofour,,,,,,,,,,,,,,,,,,,,,,,,,,,,,,,,,,,,,,,,,,,,,,,,,,,,,,,,,,,,,,,,,,,,,,,,,,,,,,,,,,,,,
605d34ffa51bd5dd5f8fad8e,2023-11-24_24h35.59.839,kallum_motion_pilot,2023.1.2,Win32,59.98080614,605d34ffa51bd5dd5f8fad8e,656018846682f3df8008bb8f,656019cab0372956de0c1ee2,0,25,25,120,1,fivesix,,,,,,,,,,,,,,,,,,,,,,,,,,,,,,,,,,,,,,,,,,,,,,,,,,,,,,,,,,,,,,,,,,,,,,,,,,,,,,,,,,,,,
605d34ffa51bd5dd5f8fad8e,2023-11-24_24h35.59.839,kallum_motion_pilot,2023.1.2,Win32,59.98080614,605d34ffa51bd5dd5f8fad8e,656018846682f3df8008bb8f,656019cab0372956de0c1ee2,0,26,26,19,1,twofour,,,,,,,,,,,,,,,,,,,,,,,,,,,,,,,,,,,,,,,,,,,,,,,,,,,,,,,,,,,,,,,,,,,,,,,,,,,,,,,,,,,,,
605d34ffa51bd5dd5f8fad8e,2023-11-24_24h35.59.839,kallum_motion_pilot,2023.1.2,Win32,59.98080614,605d34ffa51bd5dd5f8fad8e,656018846682f3df8008bb8f,656019cab0372956de0c1ee2,0,27,27,128,1,fivesix,,,,,,,,,,,,,,,,,,,,,,,,,,,,,,,,,,,,,,,,,,,,,,,,,,,,,,,,,,,,,,,,,,,,,,,,,,,,,,,,,,,,,
605d34ffa51bd5dd5f8fad8e,2023-11-24_24h35.59.839,kallum_motion_pilot,2023.1.2,Win32,59.98080614,605d34ffa51bd5dd5f8fad8e,656018846682f3df8008bb8f,656019cab0372956de0c1ee2,0,28,28,56,1,onetwo,,,,,,,,,,,,,,,,,,,,,,,,,,,,,,,,,,,,,,,,,,,,,,,,,,,,,,,,,,,,,,,,,,,,,,,,,,,,,,,,,,,,,
605d34ffa51bd5dd5f8fad8e,2023-11-24_24h35.59.839,kallum_motion_pilot,2023.1.2,Win32,59.98080614,605d34ffa51bd5dd5f8fad8e,656018846682f3df8008bb8f,656019cab0372956de0c1ee2,0,29,29,82,1,sixfive,,,,,,,,,,,,,,,,,,,,,,,,,,,,,,,,,,,,,,,,,,,,,,,,,,,,,,,,,,,,,,,,,,,,,,,,,,,,,,,,,,,,,
605d34ffa51bd5dd5f8fad8e,2023-11-24_24h35.59.839,kallum_motion_pilot,2023.1.2,Win32,59.98080614,605d34ffa51bd5dd5f8fad8e,656018846682f3df8008bb8f,656019cab0372956de0c1ee2,0,30,30,7,1,fourthree,,,,,,,,,,,,,,,,,,,,,,,,,,,,,,,,,,,,,,,,,,,,,,,,,,,,,,,,,,,,,,,,,,,,,,,,,,,,,,,,,,,,,
605d34ffa51bd5dd5f8fad8e,2023-11-24_24h35.59.839,kallum_motion_pilot,2023.1.2,Win32,59.98080614,605d34ffa51bd5dd5f8fad8e,656018846682f3df8008bb8f,656019cab0372956de0c1ee2,0,31,31,93,1,seveneight,,,,,,,,,,,,,,,,,,,,,,,,,,,,,,,,,,,,,,,,,,,,,,,,,,,,,,,,,,,,,,,,,,,,,,,,,,,,,,,,,,,,,
605d34ffa51bd5dd5f8fad8e,2023-11-24_24h35.59.839,kallum_motion_pilot,2023.1.2,Win32,59.98080614,605d34ffa51bd5dd5f8fad8e,656018846682f3df8008bb8f,656019cab0372956de0c1ee2,0,32,32,55,1,fourthree,,,,,,,,,,,,,,,,,,,,,,,,,,,,,,,,,,,,,,,,,,,,,,,,,,,,,,,,,,,,,,,,,,,,,,,,,,,,,,,,,,,,,
605d34ffa51bd5dd5f8fad8e,2023-11-24_24h35.59.839,kallum_motion_pilot,2023.1.2,Win32,59.98080614,605d34ffa51bd5dd5f8fad8e,656018846682f3df8008bb8f,656019cab0372956de0c1ee2,0,33,33,46,1,fourtwo,,,,,,,,,,,,,,,,,,,,,,,,,,,,,,,,,,,,,,,,,,,,,,,,,,,,,,,,,,,,,,,,,,,,,,,,,,,,,,,,,,,,,
605d34ffa51bd5dd5f8fad8e,2023-11-24_24h35.59.839,kallum_motion_pilot,2023.1.2,Win32,59.98080614,605d34ffa51bd5dd5f8fad8e,656018846682f3df8008bb8f,656019cab0372956de0c1ee2,0,34,34,103,1,eightseven,,,,,,,,,,,,,,,,,,,,,,,,,,,,,,,,,,,,,,,,,,,,,,,,,,,,,,,,,,,,,,,,,,,,,,,,,,,,,,,,,,,,,
605d34ffa51bd5dd5f8fad8e,2023-11-24_24h35.59.839,kallum_motion_pilot,2023.1.2,Win32,59.98080614,605d34ffa51bd5dd5f8fad8e,656018846682f3df8008bb8f,656019cab0372956de0c1ee2,0,35,35,96,1,fivesix,,,,,,,,,,,,,,,,,,,,,,,,,,,,,,,,,,,,,,,,,,,,,,,,,,,,,,,,,,,,,,,,,,,,,,,,,,,,,,,,,,,,,
605d34ffa51bd5dd5f8fad8e,2023-11-24_24h35.59.839,kallum_motion_pilot,2023.1.2,Win32,59.98080614,605d34ffa51bd5dd5f8fad8e,656018846682f3df8008bb8f,656019cab0372956de0c1ee2,0,36,36,119,1,eightseven,,,,,,,,,,,,,,,,,,,,,,,,,,,,,,,,,,,,,,,,,,,,,,,,,,,,,,,,,,,,,,,,,,,,,,,,,,,,,,,,,,,,,
605d34ffa51bd5dd5f8fad8e,2023-11-24_24h35.59.839,kallum_motion_pilot,2023.1.2,Win32,59.98080614,605d34ffa51bd5dd5f8fad8e,656018846682f3df8008bb8f,656019cab0372956de0c1ee2,0,37,37,39,1,fourthree,,,,,,,,,,,,,,,,,,,,,,,,,,,,,,,,,,,,,,,,,,,,,,,,,,,,,,,,,,,,,,,,,,,,,,,,,,,,,,,,,,,,,
605d34ffa51bd5dd5f8fad8e,2023-11-24_24h35.59.839,kallum_motion_pilot,2023.1.2,Win32,59.98080614,605d34ffa51bd5dd5f8fad8e,656018846682f3df8008bb8f,656019cab0372956de0c1ee2,0,38,38,4,1,threeone,,,,,,,,,,,,,,,,,,,,,,,,,,,,,,,,,,,,,,,,,,,,,,,,,,,,,,,,,,,,,,,,,,,,,,,,,,,,,,,,,,,,,
605d34ffa51bd5dd5f8fad8e,2023-11-24_24h35.59.839,kallum_motion_pilot,2023.1.2,Win32,59.98080614,605d34ffa51bd5dd5f8fad8e,656018846682f3df8008bb8f,656019cab0372956de0c1ee2,0,39,39,60,1,threeone,,,,,,,,,,,,,,,,,,,,,,,,,,,,,,,,,,,,,,,,,,,,,,,,,,,,,,,,,,,,,,,,,,,,,,,,,,,,,,,,,,,,,
605d34ffa51bd5dd5f8fad8e,2023-11-24_24h35.59.839,kallum_motion_pilot,2023.1.2,Win32,59.98080614,605d34ffa51bd5dd5f8fad8e,656018846682f3df8008bb8f,656019cab0372956de0c1ee2,0,40,40,115,1,sixeight,,,,,,,,,,,,,,,,,,,,,,,,,,,,,,,,,,,,,,,,,,,,,,,,,,,,,,,,,,,,,,,,,,,,,,,,,,,,,,,,,,,,,
605d34ffa51bd5dd5f8fad8e,2023-11-24_24h35.59.839,kallum_motion_pilot,2023.1.2,Win32,59.98080614,605d34ffa51bd5dd5f8fad8e,656018846682f3df8008bb8f,656019cab0372956de0c1ee2,0,41,41,132,1,sevenfive,,,,,,,,,,,,,,,,,,,,,,,,,,,,,,,,,,,,,,,,,,,,,,,,,,,,,,,,,,,,,,,,,,,,,,,,,,,,,,,,,,,,,
605d34ffa51bd5dd5f8fad8e,2023-11-24_24h35.59.839,kallum_motion_pilot,2023.1.2,Win32,59.98080614,605d34ffa51bd5dd5f8fad8e,656018846682f3df8008bb8f,656019cab0372956de0c1ee2,0,42,42,13,1,threefour,,,,,,,,,,,,,,,,,,,,,,,,,,,,,,,,,,,,,,,,,,,,,,,,,,,,,,,,,,,,,,,,,,,,,,,,,,,,,,,,,,,,,
605d34ffa51bd5dd5f8fad8e,2023-11-24_24h35.59.839,kallum_motion_pilot,2023.1.2,Win32,59.98080614,605d34ffa51bd5dd5f8fad8e,656018846682f3df8008bb8f,656019cab0372956de0c1ee2,0,43,43,61,1,threefour,,,,,,,,,,,,,,,,,,,,,,,,,,,,,,,,,,,,,,,,,,,,,,,,,,,,,,,,,,,,,,,,,,,,,,,,,,,,,,,,,,,,,
605d34ffa51bd5dd5f8fad8e,2023-11-24_24h35.59.839,kallum_motion_pilot,2023.1.2,Win32,59.98080614,605d34ffa51bd5dd5f8fad8e,656018846682f3df8008bb8f,656019cab0372956de0c1ee2,0,44,44,36,1,threeone,,,,,,,,,,,,,,,,,,,,,,,,,,,,,,,,,,,,,,,,,,,,,,,,,,,,,,,,,,,,,,,,,,,,,,,,,,,,,,,,,,,,,
605d34ffa51bd5dd5f8fad8e,2023-11-24_24h35.59.839,kallum_motion_pilot,2023.1.2,Win32,59.98080614,605d34ffa51bd5dd5f8fad8e,656018846682f3df8008bb8f,656019cab0372956de0c1ee2,0,45,45,129,1,fiveseven,,,,,,,,,,,,,,,,,,,,,,,,,,,,,,,,,,,,,,,,,,,,,,,,,,,,,,,,,,,,,,,,,,,,,,,,,,,,,,,,,,,,,
605d34ffa51bd5dd5f8fad8e,2023-11-24_24h35.59.839,kallum_motion_pilot,2023.1.2,Win32,59.98080614,605d34ffa51bd5dd5f8fad8e,656018846682f3df8008bb8f,656019cab0372956de0c1ee2,0,46,46,97,1,fiveseven,,,,,,,,,,,,,,,,,,,,,,,,,,,,,,,,,,,,,,,,,,,,,,,,,,,,,,,,,,,,,,,,,,,,,,,,,,,,,,,,,,,,,
605d34ffa51bd5dd5f8fad8e,2023-11-24_24h35.59.839,kallum_motion_pilot,2023.1.2,Win32,59.98080614,605d34ffa51bd5dd5f8fad8e,656018846682f3df8008bb8f,656019cab0372956de0c1ee2,0,47,47,87,1,eightseven,,,,,,,,,,,,,,,,,,,,,,,,,,,,,,,,,,,,,,,,,,,,,,,,,,,,,,,,,,,,,,,,,,,,,,,,,,,,,,,,,,,,,
605d34ffa51bd5dd5f8fad8e,2023-11-24_24h35.59.839,kallum_motion_pilot,2023.1.2,Win32,59.98080614,605d34ffa51bd5dd5f8fad8e,656018846682f3df8008bb8f,656019cab0372956de0c1ee2,0,48,48,3,1,twofour,,,,,,,,,,,,,,,,,,,,,,,,,,,,,,,,,,,,,,,,,,,,,,,,,,,,,,,,,,,,,,,,,,,,,,,,,,,,,,,,,,,,,
605d34ffa51bd5dd5f8fad8e,2023-11-24_24h35.59.839,kallum_motion_pilot,2023.1.2,Win32,59.98080614,605d34ffa51bd5dd5f8fad8e,656018846682f3df8008bb8f,656019cab0372956de0c1ee2,0,49,49,73,1,onethree,,,,,,,,,,,,,,,,,,,,,,,,,,,,,,,,,,,,,,,,,,,,,,,,,,,,,,,,,,,,,,,,,,,,,,,,,,,,,,,,,,,,,
605d34ffa51bd5dd5f8fad8e,2023-11-24_24h35.59.839,kallum_motion_pilot,2023.1.2,Win32,59.98080614,605d34ffa51bd5dd5f8fad8e,656018846682f3df8008bb8f,656019cab0372956de0c1ee2,0,50,50,34,1,twoone,,,,,,,,,,,,,,,,,,,,,,,,,,,,,,,,,,,,,,,,,,,,,,,,,,,,,,,,,,,,,,,,,,,,,,,,,,,,,,,,,,,,,
605d34ffa51bd5dd5f8fad8e,2023-11-24_24h35.59.839,kallum_motion_pilot,2023.1.2,Win32,59.98080614,605d34ffa51bd5dd5f8fad8e,656018846682f3df8008bb8f,656019cab0372956de0c1ee2,0,51,51,49,1,onethree,,,,,,,,,,,,,,,,,,,,,,,,,,,,,,,,,,,,,,,,,,,,,,,,,,,,,,,,,,,,,,,,,,,,,,,,,,,,,,,,,,,,,
605d34ffa51bd5dd5f8fad8e,2023-11-24_24h35.59.839,kallum_motion_pilot,2023.1.2,Win32,59.98080614,605d34ffa51bd5dd5f8fad8e,656018846682f3df8008bb8f,656019cab0372956de0c1ee2,0,52,52,98,1,sixfive,,,,,,,,,,,,,,,,,,,,,,,,,,,,,,,,,,,,,,,,,,,,,,,,,,,,,,,,,,,,,,,,,,,,,,,,,,,,,,,,,,,,,
605d34ffa51bd5dd5f8fad8e,2023-11-24_24h35.59.839,kallum_motion_pilot,2023.1.2,Win32,59.98080614,605d34ffa51bd5dd5f8fad8e,656018846682f3df8008bb8f,656019cab0372956de0c1ee2,0,53,53,54,1,fourtwo,,,,,,,,,,,,,,,,,,,,,,,,,,,,,,,,,,,,,,,,,,,,,,,,,,,,,,,,,,,,,,,,,,,,,,,,,,,,,,,,,,,,,
605d34ffa51bd5dd5f8fad8e,2023-11-24_24h35.59.839,kallum_motion_pilot,2023.1.2,Win32,59.98080614,605d34ffa51bd5dd5f8fad8e,656018846682f3df8008bb8f,656019cab0372956de0c1ee2,0,54,54,52,1,threeone,,,,,,,,,,,,,,,,,,,,,,,,,,,,,,,,,,,,,,,,,,,,,,,,,,,,,,,,,,,,,,,,,,,,,,,,,,,,,,,,,,,,,
605d34ffa51bd5dd5f8fad8e,2023-11-24_24h35.59.839,kallum_motion_pilot,2023.1.2,Win32,59.98080614,605d34ffa51bd5dd5f8fad8e,656018846682f3df8008bb8f,656019cab0372956de0c1ee2,0,55,55,24,1,onetwo,,,,,,,,,,,,,,,,,,,,,,,,,,,,,,,,,,,,,,,,,,,,,,,,,,,,,,,,,,,,,,,,,,,,,,,,,,,,,,,,,,,,,
605d34ffa51bd5dd5f8fad8e,2023-11-24_24h35.59.839,kallum_motion_pilot,2023.1.2,Win32,59.98080614,605d34ffa51bd5dd5f8fad8e,656018846682f3df8008bb8f,656019cab0372956de0c1ee2,0,56,56,53,1,threefour,,,,,,,,,,,,,,,,,,,,,,,,,,,,,,,,,,,,,,,,,,,,,,,,,,,,,,,,,,,,,,,,,,,,,,,,,,,,,,,,,,,,,
605d34ffa51bd5dd5f8fad8e,2023-11-24_24h35.59.839,kallum_motion_pilot,2023.1.2,Win32,59.98080614,605d34ffa51bd5dd5f8fad8e,656018846682f3df8008bb8f,656019cab0372956de0c1ee2,0,57,57,134,1,eightsix,,,,,,,,,,,,,,,,,,,,,,,,,,,,,,,,,,,,,,,,,,,,,,,,,,,,,,,,,,,,,,,,,,,,,,,,,,,,,,,,,,,,,
605d34ffa51bd5dd5f8fad8e,2023-11-24_24h35.59.839,kallum_motion_pilot,2023.1.2,Win32,59.98080614,605d34ffa51bd5dd5f8fad8e,656018846682f3df8008bb8f,656019cab0372956de0c1ee2,0,58,58,155,1,sixeight,,,,,,,,,,,,,,,,,,,,,,,,,,,,,,,,,,,,,,,,,,,,,,,,,,,,,,,,,,,,,,,,,,,,,,,,,,,,,,,,,,,,,
605d34ffa51bd5dd5f8fad8e,2023-11-24_24h35.59.839,kallum_motion_pilot,2023.1.2,Win32,59.98080614,605d34ffa51bd5dd5f8fad8e,656018846682f3df8008bb8f,656019cab0372956de0c1ee2,0,59,59,30,1,fourtwo,,,,,,,,,,,,,,,,,,,,,,,,,,,,,,,,,,,,,,,,,,,,,,,,,,,,,,,,,,,,,,,,,,,,,,,,,,,,,,,,,,,,,
605d34ffa51bd5dd5f8fad8e,2023-11-24_24h35.59.839,kallum_motion_pilot,2023.1.2,Win32,59.98080614,605d34ffa51bd5dd5f8fad8e,656018846682f3df8008bb8f,656019cab0372956de0c1ee2,0,60,60,118,1,eightsix,,,,,,,,,,,,,,,,,,,,,,,,,,,,,,,,,,,,,,,,,,,,,,,,,,,,,,,,,,,,,,,,,,,,,,,,,,,,,,,,,,,,,
605d34ffa51bd5dd5f8fad8e,2023-11-24_24h35.59.839,kallum_motion_pilot,2023.1.2,Win32,59.98080614,605d34ffa51bd5dd5f8fad8e,656018846682f3df8008bb8f,656019cab0372956de0c1ee2,0,61,61,62,1,fourtwo,,,,,,,,,,,,,,,,,,,,,,,,,,,,,,,,,,,,,,,,,,,,,,,,,,,,,,,,,,,,,,,,,,,,,,,,,,,,,,,,,,,,,
605d34ffa51bd5dd5f8fad8e,2023-11-24_24h35.59.839,kallum_motion_pilot,2023.1.2,Win32,59.98080614,605d34ffa51bd5dd5f8fad8e,656018846682f3df8008bb8f,656019cab0372956de0c1ee2,0,62,62,112,1,fivesix,,,,,,,,,,,,,,,,,,,,,,,,,,,,,,,,,,,,,,,,,,,,,,,,,,,,,,,,,,,,,,,,,,,,,,,,,,,,,,,,,,,,,
605d34ffa51bd5dd5f8fad8e,2023-11-24_24h35.59.839,kallum_motion_pilot,2023.1.2,Win32,59.98080614,605d34ffa51bd5dd5f8fad8e,656018846682f3df8008bb8f,656019cab0372956de0c1ee2,0,63,63,26,1,twoone,,,,,,,,,,,,,,,,,,,,,,,,,,,,,,,,,,,,,,,,,,,,,,,,,,,,,,,,,,,,,,,,,,,,,,,,,,,,,,,,,,,,,
605d34ffa51bd5dd5f8fad8e,2023-11-24_24h35.59.839,kallum_motion_pilot,2023.1.2,Win32,59.98080614,605d34ffa51bd5dd5f8fad8e,656018846682f3df8008bb8f,656019cab0372956de0c1ee2,0,64,64,1,1,onethree,,,,,,,,,,,,,,,,,,,,,,,,,,,,,,,,,,,,,,,,,,,,,,,,,,,,,,,,,,,,,,,,,,,,,,,,,,,,,,,,,,,,,
605d34ffa51bd5dd5f8fad8e,2023-11-24_24h35.59.839,kallum_motion_pilot,2023.1.2,Win32,59.98080614,605d34ffa51bd5dd5f8fad8e,656018846682f3df8008bb8f,656019cab0372956de0c1ee2,0,65,65,31,1,fourthree,,,,,,,,,,,,,,,,,,,,,,,,,,,,,,,,,,,,,,,,,,,,,,,,,,,,,,,,,,,,,,,,,,,,,,,,,,,,,,,,,,,,,
605d34ffa51bd5dd5f8fad8e,2023-11-24_24h35.59.839,kallum_motion_pilot,2023.1.2,Win32,59.98080614,605d34ffa51bd5dd5f8fad8e,656018846682f3df8008bb8f,656019cab0372956de0c1ee2,0,66,66,95,1,eightseven,,,,,,,,,,,,,,,,,,,,,,,,,,,,,,,,,,,,,,,,,,,,,,,,,,,,,,,,,,,,,,,,,,,,,,,,,,,,,,,,,,,,,
605d34ffa51bd5dd5f8fad8e,2023-11-24_24h35.59.839,kallum_motion_pilot,2023.1.2,Win32,59.98080614,605d34ffa51bd5dd5f8fad8e,656018846682f3df8008bb8f,656019cab0372956de0c1ee2,0,67,67,18,1,twoone,,,,,,,,,,,,,,,,,,,,,,,,,,,,,,,,,,,,,,,,,,,,,,,,,,,,,,,,,,,,,,,,,,,,,,,,,,,,,,,,,,,,,
605d34ffa51bd5dd5f8fad8e,2023-11-24_24h35.59.839,kallum_motion_pilot,2023.1.2,Win32,59.98080614,605d34ffa51bd5dd5f8fad8e,656018846682f3df8008bb8f,656019cab0372956de0c1ee2,0,68,68,92,1,sevenfive,,,,,,,,,,,,,,,,,,,,,,,,,,,,,,,,,,,,,,,,,,,,,,,,,,,,,,,,,,,,,,,,,,,,,,,,,,,,,,,,,,,,,
605d34ffa51bd5dd5f8fad8e,2023-11-24_24h35.59.839,kallum_motion_pilot,2023.1.2,Win32,59.98080614,605d34ffa51bd5dd5f8fad8e,656018846682f3df8008bb8f,656019cab0372956de0c1ee2,0,69,69,122,1,sixfive,,,,,,,,,,,,,,,,,,,,,,,,,,,,,,,,,,,,,,,,,,,,,,,,,,,,,,,,,,,,,,,,,,,,,,,,,,,,,,,,,,,,,
605d34ffa51bd5dd5f8fad8e,2023-11-24_24h35.59.839,kallum_motion_pilot,2023.1.2,Win32,59.98080614,605d34ffa51bd5dd5f8fad8e,656018846682f3df8008bb8f,656019cab0372956de0c1ee2,0,70,70,124,1,sevenfive,,,,,,,,,,,,,,,,,,,,,,,,,,,,,,,,,,,,,,,,,,,,,,,,,,,,,,,,,,,,,,,,,,,,,,,,,,,,,,,,,,,,,
605d34ffa51bd5dd5f8fad8e,2023-11-24_24h35.59.839,kallum_motion_pilot,2023.1.2,Win32,59.98080614,605d34ffa51bd5dd5f8fad8e,656018846682f3df8008bb8f,656019cab0372956de0c1ee2,0,71,71,91,1,sixeight,,,,,,,,,,,,,,,,,,,,,,,,,,,,,,,,,,,,,,,,,,,,,,,,,,,,,,,,,,,,,,,,,,,,,,,,,,,,,,,,,,,,,
605d34ffa51bd5dd5f8fad8e,2023-11-24_24h35.59.839,kallum_motion_pilot,2023.1.2,Win32,59.98080614,605d34ffa51bd5dd5f8fad8e,656018846682f3df8008bb8f,656019cab0372956de0c1ee2,0,72,72,80,1,fivesix,,,,,,,,,,,,,,,,,,,,,,,,,,,,,,,,,,,,,,,,,,,,,,,,,,,,,,,,,,,,,,,,,,,,,,,,,,,,,,,,,,,,,
605d34ffa51bd5dd5f8fad8e,2023-11-24_24h35.59.839,kallum_motion_pilot,2023.1.2,Win32,59.98080614,605d34ffa51bd5dd5f8fad8e,656018846682f3df8008bb8f,656019cab0372956de0c1ee2,0,73,73,33,1,onethree,,,,,,,,,,,,,,,,,,,,,,,,,,,,,,,,,,,,,,,,,,,,,,,,,,,,,,,,,,,,,,,,,,,,,,,,,,,,,,,,,,,,,
605d34ffa51bd5dd5f8fad8e,2023-11-24_24h35.59.839,kallum_motion_pilot,2023.1.2,Win32,59.98080614,605d34ffa51bd5dd5f8fad8e,656018846682f3df8008bb8f,656019cab0372956de0c1ee2,0,74,74,105,1,fiveseven,,,,,,,,,,,,,,,,,,,,,,,,,,,,,,,,,,,,,,,,,,,,,,,,,,,,,,,,,,,,,,,,,,,,,,,,,,,,,,,,,,,,,
605d34ffa51bd5dd5f8fad8e,2023-11-24_24h35.59.839,kallum_motion_pilot,2023.1.2,Win32,59.98080614,605d34ffa51bd5dd5f8fad8e,656018846682f3df8008bb8f,656019cab0372956de0c1ee2,0,75,75,131,1,sixeight,,,,,,,,,,,,,,,,,,,,,,,,,,,,,,,,,,,,,,,,,,,,,,,,,,,,,,,,,,,,,,,,,,,,,,,,,,,,,,,,,,,,,
605d34ffa51bd5dd5f8fad8e,2023-11-24_24h35.59.839,kallum_motion_pilot,2023.1.2,Win32,59.98080614,605d34ffa51bd5dd5f8fad8e,656018846682f3df8008bb8f,656019cab0372956de0c1ee2,0,76,76,84,1,sevenfive,,,,,,,,,,,,,,,,,,,,,,,,,,,,,,,,,,,,,,,,,,,,,,,,,,,,,,,,,,,,,,,,,,,,,,,,,,,,,,,,,,,,,
605d34ffa51bd5dd5f8fad8e,2023-11-24_24h35.59.839,kallum_motion_pilot,2023.1.2,Win32,59.98080614,605d34ffa51bd5dd5f8fad8e,656018846682f3df8008bb8f,656019cab0372956de0c1ee2,0,77,77,102,1,eightsix,,,,,,,,,,,,,,,,,,,,,,,,,,,,,,,,,,,,,,,,,,,,,,,,,,,,,,,,,,,,,,,,,,,,,,,,,,,,,,,,,,,,,
605d34ffa51bd5dd5f8fad8e,2023-11-24_24h35.59.839,kallum_motion_pilot,2023.1.2,Win32,59.98080614,605d34ffa51bd5dd5f8fad8e,656018846682f3df8008bb8f,656019cab0372956de0c1ee2,0,78,78,108,1,sevenfive,,,,,,,,,,,,,,,,,,,,,,,,,,,,,,,,,,,,,,,,,,,,,,,,,,,,,,,,,,,,,,,,,,,,,,,,,,,,,,,,,,,,,
605d34ffa51bd5dd5f8fad8e,2023-11-24_24h35.59.839,kallum_motion_pilot,2023.1.2,Win32,59.98080614,605d34ffa51bd5dd5f8fad8e,656018846682f3df8008bb8f,656019cab0372956de0c1ee2,0,79,79,75,1,twofour,,,,,,,,,,,,,,,,,,,,,,,,,,,,,,,,,,,,,,,,,,,,,,,,,,,,,,,,,,,,,,,,,,,,,,,,,,,,,,,,,,,,,
605d34ffa51bd5dd5f8fad8e,2023-11-24_24h35.59.839,kallum_motion_pilot,2023.1.2,Win32,59.98080614,605d34ffa51bd5dd5f8fad8e,656018846682f3df8008bb8f,656019cab0372956de0c1ee2,0,80,80,107,1,sixeight,,,,,,,,,,,,,,,,,,,,,,,,,,,,,,,,,,,,,,,,,,,,,,,,,,,,,,,,,,,,,,,,,,,,,,,,,,,,,,,,,,,,,
605d34ffa51bd5dd5f8fad8e,2023-11-24_24h35.59.839,kallum_motion_pilot,2023.1.2,Win32,59.98080614,605d34ffa51bd5dd5f8fad8e,656018846682f3df8008bb8f,656019cab0372956de0c1ee2,0,81,81,106,1,sixfive,,,,,,,,,,,,,,,,,,,,,,,,,,,,,,,,,,,,,,,,,,,,,,,,,,,,,,,,,,,,,,,,,,,,,,,,,,,,,,,,,,,,,
605d34ffa51bd5dd5f8fad8e,2023-11-24_24h35.59.839,kallum_motion_pilot,2023.1.2,Win32,59.98080614,605d34ffa51bd5dd5f8fad8e,656018846682f3df8008bb8f,656019cab0372956de0c1ee2,0,82,82,14,1,fourtwo,,,,,,,,,,,,,,,,,,,,,,,,,,,,,,,,,,,,,,,,,,,,,,,,,,,,,,,,,,,,,,,,,,,,,,,,,,,,,,,,,,,,,
605d34ffa51bd5dd5f8fad8e,2023-11-24_24h35.59.839,kallum_motion_pilot,2023.1.2,Win32,59.98080614,605d34ffa51bd5dd5f8fad8e,656018846682f3df8008bb8f,656019cab0372956de0c1ee2,0,83,83,69,1,threefour,,,,,,,,,,,,,,,,,,,,,,,,,,,,,,,,,,,,,,,,,,,,,,,,,,,,,,,,,,,,,,,,,,,,,,,,,,,,,,,,,,,,,
605d34ffa51bd5dd5f8fad8e,2023-11-24_24h35.59.839,kallum_motion_pilot,2023.1.2,Win32,59.98080614,605d34ffa51bd5dd5f8fad8e,656018846682f3df8008bb8f,656019cab0372956de0c1ee2,0,84,84,45,1,threefour,,,,,,,,,,,,,,,,,,,,,,,,,,,,,,,,,,,,,,,,,,,,,,,,,,,,,,,,,,,,,,,,,,,,,,,,,,,,,,,,,,,,,
605d34ffa51bd5dd5f8fad8e,2023-11-24_24h35.59.839,kallum_motion_pilot,2023.1.2,Win32,59.98080614,605d34ffa51bd5dd5f8fad8e,656018846682f3df8008bb8f,656019cab0372956de0c1ee2,0,85,85,35,1,twofour,,,,,,,,,,,,,,,,,,,,,,,,,,,,,,,,,,,,,,,,,,,,,,,,,,,,,,,,,,,,,,,,,,,,,,,,,,,,,,,,,,,,,
605d34ffa51bd5dd5f8fad8e,2023-11-24_24h35.59.839,kallum_motion_pilot,2023.1.2,Win32,59.98080614,605d34ffa51bd5dd5f8fad8e,656018846682f3df8008bb8f,656019cab0372956de0c1ee2,0,86,86,130,1,sixfive,,,,,,,,,,,,,,,,,,,,,,,,,,,,,,,,,,,,,,,,,,,,,,,,,,,,,,,,,,,,,,,,,,,,,,,,,,,,,,,,,,,,,
605d34ffa51bd5dd5f8fad8e,2023-11-24_24h35.59.839,kallum_motion_pilot,2023.1.2,Win32,59.98080614,605d34ffa51bd5dd5f8fad8e,656018846682f3df8008bb8f,656019cab0372956de0c1ee2,0,87,87,0,1,onetwo,,,,,,,,,,,,,,,,,,,,,,,,,,,,,,,,,,,,,,,,,,,,,,,,,,,,,,,,,,,,,,,,,,,,,,,,,,,,,,,,,,,,,
605d34ffa51bd5dd5f8fad8e,2023-11-24_24h35.59.839,kallum_motion_pilot,2023.1.2,Win32,59.98080614,605d34ffa51bd5dd5f8fad8e,656018846682f3df8008bb8f,656019cab0372956de0c1ee2,0,88,88,157,1,seveneight,,,,,,,,,,,,,,,,,,,,,,,,,,,,,,,,,,,,,,,,,,,,,,,,,,,,,,,,,,,,,,,,,,,,,,,,,,,,,,,,,,,,,
605d34ffa51bd5dd5f8fad8e,2023-11-24_24h35.59.839,kallum_motion_pilot,2023.1.2,Win32,59.98080614,605d34ffa51bd5dd5f8fad8e,656018846682f3df8008bb8f,656019cab0372956de0c1ee2,0,89,89,154,1,sixfive,,,,,,,,,,,,,,,,,,,,,,,,,,,,,,,,,,,,,,,,,,,,,,,,,,,,,,,,,,,,,,,,,,,,,,,,,,,,,,,,,,,,,
605d34ffa51bd5dd5f8fad8e,2023-11-24_24h35.59.839,kallum_motion_pilot,2023.1.2,Win32,59.98080614,605d34ffa51bd5dd5f8fad8e,656018846682f3df8008bb8f,656019cab0372956de0c1ee2,0,90,90,94,1,eightsix,,,,,,,,,,,,,,,,,,,,,,,,,,,,,,,,,,,,,,,,,,,,,,,,,,,,,,,,,,,,,,,,,,,,,,,,,,,,,,,,,,,,,
605d34ffa51bd5dd5f8fad8e,2023-11-24_24h35.59.839,kallum_motion_pilot,2023.1.2,Win32,59.98080614,605d34ffa51bd5dd5f8fad8e,656018846682f3df8008bb8f,656019cab0372956de0c1ee2,0,91,91,139,1,sixeight,,,,,,,,,,,,,,,,,,,,,,,,,,,,,,,,,,,,,,,,,,,,,,,,,,,,,,,,,,,,,,,,,,,,,,,,,,,,,,,,,,,,,
605d34ffa51bd5dd5f8fad8e,2023-11-24_24h35.59.839,kallum_motion_pilot,2023.1.2,Win32,59.98080614,605d34ffa51bd5dd5f8fad8e,656018846682f3df8008bb8f,656019cab0372956de0c1ee2,0,92,92,160,1,fivesix,,,,,,,,,,,,,,,,,,,,,,,,,,,,,,,,,,,,,,,,,,,,,,,,,,,,,,,,,,,,,,,,,,,,,,,,,,,,,,,,,,,,,
605d34ffa51bd5dd5f8fad8e,2023-11-24_24h35.59.839,kallum_motion_pilot,2023.1.2,Win32,59.98080614,605d34ffa51bd5dd5f8fad8e,656018846682f3df8008bb8f,656019cab0372956de0c1ee2,0,93,93,8,1,onetwo,,,,,,,,,,,,,,,,,,,,,,,,,,,,,,,,,,,,,,,,,,,,,,,,,,,,,,,,,,,,,,,,,,,,,,,,,,,,,,,,,,,,,
605d34ffa51bd5dd5f8fad8e,2023-11-24_24h35.59.839,kallum_motion_pilot,2023.1.2,Win32,59.98080614,605d34ffa51bd5dd5f8fad8e,656018846682f3df8008bb8f,656019cab0372956de0c1ee2,0,94,94,113,1,fiveseven,,,,,,,,,,,,,,,,,,,,,,,,,,,,,,,,,,,,,,,,,,,,,,,,,,,,,,,,,,,,,,,,,,,,,,,,,,,,,,,,,,,,,
605d34ffa51bd5dd5f8fad8e,2023-11-24_24h35.59.839,kallum_motion_pilot,2023.1.2,Win32,59.98080614,605d34ffa51bd5dd5f8fad8e,656018846682f3df8008bb8f,656019cab0372956de0c1ee2,0,95,95,100,1,sevenfive,,,,,,,,,,,,,,,,,,,,,,,,,,,,,,,,,,,,,,,,,,,,,,,,,,,,,,,,,,,,,,,,,,,,,,,,,,,,,,,,,,,,,
605d34ffa51bd5dd5f8fad8e,2023-11-24_24h35.59.839,kallum_motion_pilot,2023.1.2,Win32,59.98080614,605d34ffa51bd5dd5f8fad8e,656018846682f3df8008bb8f,656019cab0372956de0c1ee2,0,96,96,65,1,onethree,,,,,,,,,,,,,,,,,,,,,,,,,,,,,,,,,,,,,,,,,,,,,,,,,,,,,,,,,,,,,,,,,,,,,,,,,,,,,,,,,,,,,
605d34ffa51bd5dd5f8fad8e,2023-11-24_24h35.59.839,kallum_motion_pilot,2023.1.2,Win32,59.98080614,605d34ffa51bd5dd5f8fad8e,656018846682f3df8008bb8f,656019cab0372956de0c1ee2,0,97,97,71,1,fourthree,,,,,,,,,,,,,,,,,,,,,,,,,,,,,,,,,,,,,,,,,,,,,,,,,,,,,,,,,,,,,,,,,,,,,,,,,,,,,,,,,,,,,
605d34ffa51bd5dd5f8fad8e,2023-11-24_24h35.59.839,kallum_motion_pilot,2023.1.2,Win32,59.98080614,605d34ffa51bd5dd5f8fad8e,656018846682f3df8008bb8f,656019cab0372956de0c1ee2,0,98,98,143,1,eightseven,,,,,,,,,,,,,,,,,,,,,,,,,,,,,,,,,,,,,,,,,,,,,,,,,,,,,,,,,,,,,,,,,,,,,,,,,,,,,,,,,,,,,
605d34ffa51bd5dd5f8fad8e,2023-11-24_24h35.59.839,kallum_motion_pilot,2023.1.2,Win32,59.98080614,605d34ffa51bd5dd5f8fad8e,656018846682f3df8008bb8f,656019cab0372956de0c1ee2,0,99,99,22,1,fourtwo,,,,,,,,,,,,,,,,,,,,,,,,,,,,,,,,,,,,,,,,,,,,,,,,,,,,,,,,,,,,,,,,,,,,,,,,,,,,,,,,,,,,,
605d34ffa51bd5dd5f8fad8e,2023-11-24_24h35.59.839,kallum_motion_pilot,2023.1.2,Win32,59.98080614,605d34ffa51bd5dd5f8fad8e,656018846682f3df8008bb8f,656019cab0372956de0c1ee2,0,100,100,70,1,fourtwo,,,,,,,,,,,,,,,,,,,,,,,,,,,,,,,,,,,,,,,,,,,,,,,,,,,,,,,,,,,,,,,,,,,,,,,,,,,,,,,,,,,,,
605d34ffa51bd5dd5f8fad8e,2023-11-24_24h35.59.839,kallum_motion_pilot,2023.1.2,Win32,59.98080614,605d34ffa51bd5dd5f8fad8e,656018846682f3df8008bb8f,656019cab0372956de0c1ee2,0,101,101,68,1,threeone,,,,,,,,,,,,,,,,,,,,,,,,,,,,,,,,,,,,,,,,,,,,,,,,,,,,,,,,,,,,,,,,,,,,,,,,,,,,,,,,,,,,,
605d34ffa51bd5dd5f8fad8e,2023-11-24_24h35.59.839,kallum_motion_pilot,2023.1.2,Win32,59.98080614,605d34ffa51bd5dd5f8fad8e,656018846682f3df8008bb8f,656019cab0372956de0c1ee2,0,102,102,133,1,seveneight,,,,,,,,,,,,,,,,,,,,,,,,,,,,,,,,,,,,,,,,,,,,,,,,,,,,,,,,,,,,,,,,,,,,,,,,,,,,,,,,,,,,,
605d34ffa51bd5dd5f8fad8e,2023-11-24_24h35.59.839,kallum_motion_pilot,2023.1.2,Win32,59.98080614,605d34ffa51bd5dd5f8fad8e,656018846682f3df8008bb8f,656019cab0372956de0c1ee2,0,103,103,79,1,eightseven,,,,,,,,,,,,,,,,,,,,,,,,,,,,,,,,,,,,,,,,,,,,,,,,,,,,,,,,,,,,,,,,,,,,,,,,,,,,,,,,,,,,,
605d34ffa51bd5dd5f8fad8e,2023-11-24_24h35.59.839,kallum_motion_pilot,2023.1.2,Win32,59.98080614,605d34ffa51bd5dd5f8fad8e,656018846682f3df8008bb8f,656019cab0372956de0c1ee2,0,104,104,58,1,twoone,,,,,,,,,,,,,,,,,,,,,,,,,,,,,,,,,,,,,,,,,,,,,,,,,,,,,,,,,,,,,,,,,,,,,,,,,,,,,,,,,,,,,
605d34ffa51bd5dd5f8fad8e,2023-11-24_24h35.59.839,kallum_motion_pilot,2023.1.2,Win32,59.98080614,605d34ffa51bd5dd5f8fad8e,656018846682f3df8008bb8f,656019cab0372956de0c1ee2,0,105,105,101,1,seveneight,,,,,,,,,,,,,,,,,,,,,,,,,,,,,,,,,,,,,,,,,,,,,,,,,,,,,,,,,,,,,,,,,,,,,,,,,,,,,,,,,,,,,
605d34ffa51bd5dd5f8fad8e,2023-11-24_24h35.59.839,kallum_motion_pilot,2023.1.2,Win32,59.98080614,605d34ffa51bd5dd5f8fad8e,656018846682f3df8008bb8f,656019cab0372956de0c1ee2,0,106,106,48,1,onetwo,,,,,,,,,,,,,,,,,,,,,,,,,,,,,,,,,,,,,,,,,,,,,,,,,,,,,,,,,,,,,,,,,,,,,,,,,,,,,,,,,,,,,
605d34ffa51bd5dd5f8fad8e,2023-11-24_24h35.59.839,kallum_motion_pilot,2023.1.2,Win32,59.98080614,605d34ffa51bd5dd5f8fad8e,656018846682f3df8008bb8f,656019cab0372956de0c1ee2,0,107,107,5,1,threefour,,,,,,,,,,,,,,,,,,,,,,,,,,,,,,,,,,,,,,,,,,,,,,,,,,,,,,,,,,,,,,,,,,,,,,,,,,,,,,,,,,,,,
605d34ffa51bd5dd5f8fad8e,2023-11-24_24h35.59.839,kallum_motion_pilot,2023.1.2,Win32,59.98080614,605d34ffa51bd5dd5f8fad8e,656018846682f3df8008bb8f,656019cab0372956de0c1ee2,0,108,108,126,1,eightsix,,,,,,,,,,,,,,,,,,,,,,,,,,,,,,,,,,,,,,,,,,,,,,,,,,,,,,,,,,,,,,,,,,,,,,,,,,,,,,,,,,,,,
605d34ffa51bd5dd5f8fad8e,2023-11-24_24h35.59.839,kallum_motion_pilot,2023.1.2,Win32,59.98080614,605d34ffa51bd5dd5f8fad8e,656018846682f3df8008bb8f,656019cab0372956de0c1ee2,0,109,109,2,1,twoone,,,,,,,,,,,,,,,,,,,,,,,,,,,,,,,,,,,,,,,,,,,,,,,,,,,,,,,,,,,,,,,,,,,,,,,,,,,,,,,,,,,,,
605d34ffa51bd5dd5f8fad8e,2023-11-24_24h35.59.839,kallum_motion_pilot,2023.1.2,Win32,59.98080614,605d34ffa51bd5dd5f8fad8e,656018846682f3df8008bb8f,656019cab0372956de0c1ee2,0,110,110,51,1,twofour,,,,,,,,,,,,,,,,,,,,,,,,,,,,,,,,,,,,,,,,,,,,,,,,,,,,,,,,,,,,,,,,,,,,,,,,,,,,,,,,,,,,,
605d34ffa51bd5dd5f8fad8e,2023-11-24_24h35.59.839,kallum_motion_pilot,2023.1.2,Win32,59.98080614,605d34ffa51bd5dd5f8fad8e,656018846682f3df8008bb8f,656019cab0372956de0c1ee2,0,111,111,138,1,sixfive,,,,,,,,,,,,,,,,,,,,,,,,,,,,,,,,,,,,,,,,,,,,,,,,,,,,,,,,,,,,,,,,,,,,,,,,,,,,,,,,,,,,,
605d34ffa51bd5dd5f8fad8e,2023-11-24_24h35.59.839,kallum_motion_pilot,2023.1.2,Win32,59.98080614,605d34ffa51bd5dd5f8fad8e,656018846682f3df8008bb8f,656019cab0372956de0c1ee2,0,112,112,17,1,onethree,,,,,,,,,,,,,,,,,,,,,,,,,,,,,,,,,,,,,,,,,,,,,,,,,,,,,,,,,,,,,,,,,,,,,,,,,,,,,,,,,,,,,
605d34ffa51bd5dd5f8fad8e,2023-11-24_24h35.59.839,kallum_motion_pilot,2023.1.2,Win32,59.98080614,605d34ffa51bd5dd5f8fad8e,656018846682f3df8008bb8f,656019cab0372956de0c1ee2,0,113,113,81,1,fiveseven,,,,,,,,,,,,,,,,,,,,,,,,,,,,,,,,,,,,,,,,,,,,,,,,,,,,,,,,,,,,,,,,,,,,,,,,,,,,,,,,,,,,,
605d34ffa51bd5dd5f8fad8e,2023-11-24_24h35.59.839,kallum_motion_pilot,2023.1.2,Win32,59.98080614,605d34ffa51bd5dd5f8fad8e,656018846682f3df8008bb8f,656019cab0372956de0c1ee2,0,114,114,156,1,sevenfive,,,,,,,,,,,,,,,,,,,,,,,,,,,,,,,,,,,,,,,,,,,,,,,,,,,,,,,,,,,,,,,,,,,,,,,,,,,,,,,,,,,,,
605d34ffa51bd5dd5f8fad8e,2023-11-24_24h35.59.839,kallum_motion_pilot,2023.1.2,Win32,59.98080614,605d34ffa51bd5dd5f8fad8e,656018846682f3df8008bb8f,656019cab0372956de0c1ee2,0,115,115,21,1,threefour,,,,,,,,,,,,,,,,,,,,,,,,,,,,,,,,,,,,,,,,,,,,,,,,,,,,,,,,,,,,,,,,,,,,,,,,,,,,,,,,,,,,,
605d34ffa51bd5dd5f8fad8e,2023-11-24_24h35.59.839,kallum_motion_pilot,2023.1.2,Win32,59.98080614,605d34ffa51bd5dd5f8fad8e,656018846682f3df8008bb8f,656019cab0372956de0c1ee2,0,116,116,50,1,twoone,,,,,,,,,,,,,,,,,,,,,,,,,,,,,,,,,,,,,,,,,,,,,,,,,,,,,,,,,,,,,,,,,,,,,,,,,,,,,,,,,,,,,
605d34ffa51bd5dd5f8fad8e,2023-11-24_24h35.59.839,kallum_motion_pilot,2023.1.2,Win32,59.98080614,605d34ffa51bd5dd5f8fad8e,656018846682f3df8008bb8f,656019cab0372956de0c1ee2,0,117,117,83,1,sixeight,,,,,,,,,,,,,,,,,,,,,,,,,,,,,,,,,,,,,,,,,,,,,,,,,,,,,,,,,,,,,,,,,,,,,,,,,,,,,,,,,,,,,
605d34ffa51bd5dd5f8fad8e,2023-11-24_24h35.59.839,kallum_motion_pilot,2023.1.2,Win32,59.98080614,605d34ffa51bd5dd5f8fad8e,656018846682f3df8008bb8f,656019cab0372956de0c1ee2,0,118,118,152,1,fivesix,,,,,,,,,,,,,,,,,,,,,,,,,,,,,,,,,,,,,,,,,,,,,,,,,,,,,,,,,,,,,,,,,,,,,,,,,,,,,,,,,,,,,
605d34ffa51bd5dd5f8fad8e,2023-11-24_24h35.59.839,kallum_motion_pilot,2023.1.2,Win32,59.98080614,605d34ffa51bd5dd5f8fad8e,656018846682f3df8008bb8f,656019cab0372956de0c1ee2,0,119,119,42,1,twoone,,,,,,,,,,,,,,,,,,,,,,,,,,,,,,,,,,,,,,,,,,,,,,,,,,,,,,,,,,,,,,,,,,,,,,,,,,,,,,,,,,,,,
605d34ffa51bd5dd5f8fad8e,2023-11-24_24h35.59.839,kallum_motion_pilot,2023.1.2,Win32,59.98080614,605d34ffa51bd5dd5f8fad8e,656018846682f3df8008bb8f,656019cab0372956de0c1ee2,0,120,120,32,1,onetwo,,,,,,,,,,,,,,,,,,,,,,,,,,,,,,,,,,,,,,,,,,,,,,,,,,,,,,,,,,,,,,,,,,,,,,,,,,,,,,,,,,,,,
605d34ffa51bd5dd5f8fad8e,2023-11-24_24h35.59.839,kallum_motion_pilot,2023.1.2,Win32,59.98080614,605d34ffa51bd5dd5f8fad8e,656018846682f3df8008bb8f,656019cab0372956de0c1ee2,0,121,121,159,1,eightseven,,,,,,,,,,,,,,,,,,,,,,,,,,,,,,,,,,,,,,,,,,,,,,,,,,,,,,,,,,,,,,,,,,,,,,,,,,,,,,,,,,,,,
605d34ffa51bd5dd5f8fad8e,2023-11-24_24h35.59.839,kallum_motion_pilot,2023.1.2,Win32,59.98080614,605d34ffa51bd5dd5f8fad8e,656018846682f3df8008bb8f,656019cab0372956de0c1ee2,0,122,122,6,1,fourtwo,,,,,,,,,,,,,,,,,,,,,,,,,,,,,,,,,,,,,,,,,,,,,,,,,,,,,,,,,,,,,,,,,,,,,,,,,,,,,,,,,,,,,
605d34ffa51bd5dd5f8fad8e,2023-11-24_24h35.59.839,kallum_motion_pilot,2023.1.2,Win32,59.98080614,605d34ffa51bd5dd5f8fad8e,656018846682f3df8008bb8f,656019cab0372956de0c1ee2,0,123,123,146,1,sixfive,,,,,,,,,,,,,,,,,,,,,,,,,,,,,,,,,,,,,,,,,,,,,,,,,,,,,,,,,,,,,,,,,,,,,,,,,,,,,,,,,,,,,
605d34ffa51bd5dd5f8fad8e,2023-11-24_24h35.59.839,kallum_motion_pilot,2023.1.2,Win32,59.98080614,605d34ffa51bd5dd5f8fad8e,656018846682f3df8008bb8f,656019cab0372956de0c1ee2,0,124,124,12,1,threeone,,,,,,,,,,,,,,,,,,,,,,,,,,,,,,,,,,,,,,,,,,,,,,,,,,,,,,,,,,,,,,,,,,,,,,,,,,,,,,,,,,,,,
605d34ffa51bd5dd5f8fad8e,2023-11-24_24h35.59.839,kallum_motion_pilot,2023.1.2,Win32,59.98080614,605d34ffa51bd5dd5f8fad8e,656018846682f3df8008bb8f,656019cab0372956de0c1ee2,0,125,125,145,1,fiveseven,,,,,,,,,,,,,,,,,,,,,,,,,,,,,,,,,,,,,,,,,,,,,,,,,,,,,,,,,,,,,,,,,,,,,,,,,,,,,,,,,,,,,
605d34ffa51bd5dd5f8fad8e,2023-11-24_24h35.59.839,kallum_motion_pilot,2023.1.2,Win32,59.98080614,605d34ffa51bd5dd5f8fad8e,656018846682f3df8008bb8f,656019cab0372956de0c1ee2,0,126,126,27,1,twofour,,,,,,,,,,,,,,,,,,,,,,,,,,,,,,,,,,,,,,,,,,,,,,,,,,,,,,,,,,,,,,,,,,,,,,,,,,,,,,,,,,,,,
605d34ffa51bd5dd5f8fad8e,2023-11-24_24h35.59.839,kallum_motion_pilot,2023.1.2,Win32,59.98080614,605d34ffa51bd5dd5f8fad8e,656018846682f3df8008bb8f,656019cab0372956de0c1ee2,0,127,127,43,1,twofour,,,,,,,,,,,,,,,,,,,,,,,,,,,,,,,,,,,,,,,,,,,,,,,,,,,,,,,,,,,,,,,,,,,,,,,,,,,,,,,,,,,,,
605d34ffa51bd5dd5f8fad8e,2023-11-24_24h35.59.839,kallum_motion_pilot,2023.1.2,Win32,59.98080614,605d34ffa51bd5dd5f8fad8e,656018846682f3df8008bb8f,656019cab0372956de0c1ee2,0,128,128,151,1,eightseven,,,,,,,,,,,,,,,,,,,,,,,,,,,,,,,,,,,,,,,,,,,,,,,,,,,,,,,,,,,,,,,,,,,,,,,,,,,,,,,,,,,,,
605d34ffa51bd5dd5f8fad8e,2023-11-24_24h35.59.839,kallum_motion_pilot,2023.1.2,Win32,59.98080614,605d34ffa51bd5dd5f8fad8e,656018846682f3df8008bb8f,656019cab0372956de0c1ee2,0,129,129,77,1,threefour,,,,,,,,,,,,,,,,,,,,,,,,,,,,,,,,,,,,,,,,,,,,,,,,,,,,,,,,,,,,,,,,,,,,,,,,,,,,,,,,,,,,,
605d34ffa51bd5dd5f8fad8e,2023-11-24_24h35.59.839,kallum_motion_pilot,2023.1.2,Win32,59.98080614,605d34ffa51bd5dd5f8fad8e,656018846682f3df8008bb8f,656019cab0372956de0c1ee2,0,130,130,85,1,seveneight,,,,,,,,,,,,,,,,,,,,,,,,,,,,,,,,,,,,,,,,,,,,,,,,,,,,,,,,,,,,,,,,,,,,,,,,,,,,,,,,,,,,,
605d34ffa51bd5dd5f8fad8e,2023-11-24_24h35.59.839,kallum_motion_pilot,2023.1.2,Win32,59.98080614,605d34ffa51bd5dd5f8fad8e,656018846682f3df8008bb8f,656019cab0372956de0c1ee2,0,131,131,161,1,fiveseven,,,,,,,,,,,,,,,,,,,,,,,,,,,,,,,,,,,,,,,,,,,,,,,,,,,,,,,,,,,,,,,,,,,,,,,,,,,,,,,,,,,,,
605d34ffa51bd5dd5f8fad8e,2023-11-24_24h35.59.839,kallum_motion_pilot,2023.1.2,Win32,59.98080614,605d34ffa51bd5dd5f8fad8e,656018846682f3df8008bb8f,656019cab0372956de0c1ee2,0,132,132,59,1,twofour,,,,,,,,,,,,,,,,,,,,,,,,,,,,,,,,,,,,,,,,,,,,,,,,,,,,,,,,,,,,,,,,,,,,,,,,,,,,,,,,,,,,,
605d34ffa51bd5dd5f8fad8e,2023-11-24_24h35.59.839,kallum_motion_pilot,2023.1.2,Win32,59.98080614,605d34ffa51bd5dd5f8fad8e,656018846682f3df8008bb8f,656019cab0372956de0c1ee2,0,133,133,158,1,eightsix,,,,,,,,,,,,,,,,,,,,,,,,,,,,,,,,,,,,,,,,,,,,,,,,,,,,,,,,,,,,,,,,,,,,,,,,,,,,,,,,,,,,,
605d34ffa51bd5dd5f8fad8e,2023-11-24_24h35.59.839,kallum_motion_pilot,2023.1.2,Win32,59.98080614,605d34ffa51bd5dd5f8fad8e,656018846682f3df8008bb8f,656019cab0372956de0c1ee2,0,134,134,117,1,seveneight,,,,,,,,,,,,,,,,,,,,,,,,,,,,,,,,,,,,,,,,,,,,,,,,,,,,,,,,,,,,,,,,,,,,,,,,,,,,,,,,,,,,,
605d34ffa51bd5dd5f8fad8e,2023-11-24_24h35.59.839,kallum_motion_pilot,2023.1.2,Win32,59.98080614,605d34ffa51bd5dd5f8fad8e,656018846682f3df8008bb8f,656019cab0372956de0c1ee2,0,135,135,41,1,onethree,,,,,,,,,,,,,,,,,,,,,,,,,,,,,,,,,,,,,,,,,,,,,,,,,,,,,,,,,,,,,,,,,,,,,,,,,,,,,,,,,,,,,
605d34ffa51bd5dd5f8fad8e,2023-11-24_24h35.59.839,kallum_motion_pilot,2023.1.2,Win32,59.98080614,605d34ffa51bd5dd5f8fad8e,656018846682f3df8008bb8f,656019cab0372956de0c1ee2,0,136,136,28,1,threeone,,,,,,,,,,,,,,,,,,,,,,,,,,,,,,,,,,,,,,,,,,,,,,,,,,,,,,,,,,,,,,,,,,,,,,,,,,,,,,,,,,,,,
605d34ffa51bd5dd5f8fad8e,2023-11-24_24h35.59.839,kallum_motion_pilot,2023.1.2,Win32,59.98080614,605d34ffa51bd5dd5f8fad8e,656018846682f3df8008bb8f,656019cab0372956de0c1ee2,0,137,137,110,1,eightsix,,,,,,,,,,,,,,,,,,,,,,,,,,,,,,,,,,,,,,,,,,,,,,,,,,,,,,,,,,,,,,,,,,,,,,,,,,,,,,,,,,,,,
605d34ffa51bd5dd5f8fad8e,2023-11-24_24h35.59.839,kallum_motion_pilot,2023.1.2,Win32,59.98080614,605d34ffa51bd5dd5f8fad8e,656018846682f3df8008bb8f,656019cab0372956de0c1ee2,0,138,138,47,1,fourthree,,,,,,,,,,,,,,,,,,,,,,,,,,,,,,,,,,,,,,,,,,,,,,,,,,,,,,,,,,,,,,,,,,,,,,,,,,,,,,,,,,,,,
605d34ffa51bd5dd5f8fad8e,2023-11-24_24h35.59.839,kallum_motion_pilot,2023.1.2,Win32,59.98080614,605d34ffa51bd5dd5f8fad8e,656018846682f3df8008bb8f,656019cab0372956de0c1ee2,0,139,139,25,1,onethree,,,,,,,,,,,,,,,,,,,,,,,,,,,,,,,,,,,,,,,,,,,,,,,,,,,,,,,,,,,,,,,,,,,,,,,,,,,,,,,,,,,,,
605d34ffa51bd5dd5f8fad8e,2023-11-24_24h35.59.839,kallum_motion_pilot,2023.1.2,Win32,59.98080614,605d34ffa51bd5dd5f8fad8e,656018846682f3df8008bb8f,656019cab0372956de0c1ee2,0,140,140,76,1,threeone,,,,,,,,,,,,,,,,,,,,,,,,,,,,,,,,,,,,,,,,,,,,,,,,,,,,,,,,,,,,,,,,,,,,,,,,,,,,,,,,,,,,,
605d34ffa51bd5dd5f8fad8e,2023-11-24_24h35.59.839,kallum_motion_pilot,2023.1.2,Win32,59.98080614,605d34ffa51bd5dd5f8fad8e,656018846682f3df8008bb8f,656019cab0372956de0c1ee2,0,141,141,147,1,sixeight,,,,,,,,,,,,,,,,,,,,,,,,,,,,,,,,,,,,,,,,,,,,,,,,,,,,,,,,,,,,,,,,,,,,,,,,,,,,,,,,,,,,,
605d34ffa51bd5dd5f8fad8e,2023-11-24_24h35.59.839,kallum_motion_pilot,2023.1.2,Win32,59.98080614,605d34ffa51bd5dd5f8fad8e,656018846682f3df8008bb8f,656019cab0372956de0c1ee2,0,142,142,40,1,onetwo,,,,,,,,,,,,,,,,,,,,,,,,,,,,,,,,,,,,,,,,,,,,,,,,,,,,,,,,,,,,,,,,,,,,,,,,,,,,,,,,,,,,,
605d34ffa51bd5dd5f8fad8e,2023-11-24_24h35.59.839,kallum_motion_pilot,2023.1.2,Win32,59.98080614,605d34ffa51bd5dd5f8fad8e,656018846682f3df8008bb8f,656019cab0372956de0c1ee2,0,143,143,104,1,fivesix,,,,,,,,,,,,,,,,,,,,,,,,,,,,,,,,,,,,,,,,,,,,,,,,,,,,,,,,,,,,,,,,,,,,,,,,,,,,,,,,,,,,,
605d34ffa51bd5dd5f8fad8e,2023-11-24_24h35.59.839,kallum_motion_pilot,2023.1.2,Win32,59.98080614,605d34ffa51bd5dd5f8fad8e,656018846682f3df8008bb8f,656019cab0372956de0c1ee2,0,144,144,89,1,fiveseven,,,,,,,,,,,,,,,,,,,,,,,,,,,,,,,,,,,,,,,,,,,,,,,,,,,,,,,,,,,,,,,,,,,,,,,,,,,,,,,,,,,,,
605d34ffa51bd5dd5f8fad8e,2023-11-24_24h35.59.839,kallum_motion_pilot,2023.1.2,Win32,59.98080614,605d34ffa51bd5dd5f8fad8e,656018846682f3df8008bb8f,656019cab0372956de0c1ee2,0,145,145,15,1,fourthree,,,,,,,,,,,,,,,,,,,,,,,,,,,,,,,,,,,,,,,,,,,,,,,,,,,,,,,,,,,,,,,,,,,,,,,,,,,,,,,,,,,,,
605d34ffa51bd5dd5f8fad8e,2023-11-24_24h35.59.839,kallum_motion_pilot,2023.1.2,Win32,59.98080614,605d34ffa51bd5dd5f8fad8e,656018846682f3df8008bb8f,656019cab0372956de0c1ee2,0,146,146,74,1,twoone,,,,,,,,,,,,,,,,,,,,,,,,,,,,,,,,,,,,,,,,,,,,,,,,,,,,,,,,,,,,,,,,,,,,,,,,,,,,,,,,,,,,,
605d34ffa51bd5dd5f8fad8e,2023-11-24_24h35.59.839,kallum_motion_pilot,2023.1.2,Win32,59.98080614,605d34ffa51bd5dd5f8fad8e,656018846682f3df8008bb8f,656019cab0372956de0c1ee2,0,147,147,78,1,fourtwo,,,,,,,,,,,,,,,,,,,,,,,,,,,,,,,,,,,,,,,,,,,,,,,,,,,,,,,,,,,,,,,,,,,,,,,,,,,,,,,,,,,,,
605d34ffa51bd5dd5f8fad8e,2023-11-24_24h35.59.839,kallum_motion_pilot,2023.1.2,Win32,59.98080614,605d34ffa51bd5dd5f8fad8e,656018846682f3df8008bb8f,656019cab0372956de0c1ee2,0,148,148,125,1,seveneight,,,,,,,,,,,,,,,,,,,,,,,,,,,,,,,,,,,,,,,,,,,,,,,,,,,,,,,,,,,,,,,,,,,,,,,,,,,,,,,,,,,,,
605d34ffa51bd5dd5f8fad8e,2023-11-24_24h35.59.839,kallum_motion_pilot,2023.1.2,Win32,59.98080614,605d34ffa51bd5dd5f8fad8e,656018846682f3df8008bb8f,656019cab0372956de0c1ee2,0,149,149,23,1,fourthree,,,,,,,,,,,,,,,,,,,,,,,,,,,,,,,,,,,,,,,,,,,,,,,,,,,,,,,,,,,,,,,,,,,,,,,,,,,,,,,,,,,,,
605d34ffa51bd5dd5f8fad8e,2023-11-24_24h35.59.839,kallum_motion_pilot,2023.1.2,Win32,59.98080614,605d34ffa51bd5dd5f8fad8e,656018846682f3df8008bb8f,656019cab0372956de0c1ee2,0,150,150,141,1,seveneight,,,,,,,,,,,,,,,,,,,,,,,,,,,,,,,,,,,,,,,,,,,,,,,,,,,,,,,,,,,,,,,,,,,,,,,,,,,,,,,,,,,,,
605d34ffa51bd5dd5f8fad8e,2023-11-24_24h35.59.839,kallum_motion_pilot,2023.1.2,Win32,59.98080614,605d34ffa51bd5dd5f8fad8e,656018846682f3df8008bb8f,656019cab0372956de0c1ee2,0,151,151,148,1,sevenfive,,,,,,,,,,,,,,,,,,,,,,,,,,,,,,,,,,,,,,,,,,,,,,,,,,,,,,,,,,,,,,,,,,,,,,,,,,,,,,,,,,,,,
605d34ffa51bd5dd5f8fad8e,2023-11-24_24h35.59.839,kallum_motion_pilot,2023.1.2,Win32,59.98080614,605d34ffa51bd5dd5f8fad8e,656018846682f3df8008bb8f,656019cab0372956de0c1ee2,0,152,152,66,1,twoone,,,,,,,,,,,,,,,,,,,,,,,,,,,,,,,,,,,,,,,,,,,,,,,,,,,,,,,,,,,,,,,,,,,,,,,,,,,,,,,,,,,,,
605d34ffa51bd5dd5f8fad8e,2023-11-24_24h35.59.839,kallum_motion_pilot,2023.1.2,Win32,59.98080614,605d34ffa51bd5dd5f8fad8e,656018846682f3df8008bb8f,656019cab0372956de0c1ee2,0,153,153,38,1,fourtwo,,,,,,,,,,,,,,,,,,,,,,,,,,,,,,,,,,,,,,,,,,,,,,,,,,,,,,,,,,,,,,,,,,,,,,,,,,,,,,,,,,,,,
605d34ffa51bd5dd5f8fad8e,2023-11-24_24h35.59.839,kallum_motion_pilot,2023.1.2,Win32,59.98080614,605d34ffa51bd5dd5f8fad8e,656018846682f3df8008bb8f,656019cab0372956de0c1ee2,0,154,154,64,1,onetwo,,,,,,,,,,,,,,,,,,,,,,,,,,,,,,,,,,,,,,,,,,,,,,,,,,,,,,,,,,,,,,,,,,,,,,,,,,,,,,,,,,,,,
605d34ffa51bd5dd5f8fad8e,2023-11-24_24h35.59.839,kallum_motion_pilot,2023.1.2,Win32,59.98080614,605d34ffa51bd5dd5f8fad8e,656018846682f3df8008bb8f,656019cab0372956de0c1ee2,0,155,155,140,1,sevenfive,,,,,,,,,,,,,,,,,,,,,,,,,,,,,,,,,,,,,,,,,,,,,,,,,,,,,,,,,,,,,,,,,,,,,,,,,,,,,,,,,,,,,
605d34ffa51bd5dd5f8fad8e,2023-11-24_24h35.59.839,kallum_motion_pilot,2023.1.2,Win32,59.98080614,605d34ffa51bd5dd5f8fad8e,656018846682f3df8008bb8f,656019cab0372956de0c1ee2,0,156,156,72,1,onetwo,,,,,,,,,,,,,,,,,,,,,,,,,,,,,,,,,,,,,,,,,,,,,,,,,,,,,,,,,,,,,,,,,,,,,,,,,,,,,,,,,,,,,
605d34ffa51bd5dd5f8fad8e,2023-11-24_24h35.59.839,kallum_motion_pilot,2023.1.2,Win32,59.98080614,605d34ffa51bd5dd5f8fad8e,656018846682f3df8008bb8f,656019cab0372956de0c1ee2,0,157,157,121,1,fiveseven,,,,,,,,,,,,,,,,,,,,,,,,,,,,,,,,,,,,,,,,,,,,,,,,,,,,,,,,,,,,,,,,,,,,,,,,,,,,,,,,,,,,,
605d34ffa51bd5dd5f8fad8e,2023-11-24_24h35.59.839,kallum_motion_pilot,2023.1.2,Win32,59.98080614,605d34ffa51bd5dd5f8fad8e,656018846682f3df8008bb8f,656019cab0372956de0c1ee2,0,158,158,57,1,onethree,,,,,,,,,,,,,,,,,,,,,,,,,,,,,,,,,,,,,,,,,,,,,,,,,,,,,,,,,,,,,,,,,,,,,,,,,,,,,,,,,,,,,
605d34ffa51bd5dd5f8fad8e,2023-11-24_24h35.59.839,kallum_motion_pilot,2023.1.2,Win32,59.98080614,605d34ffa51bd5dd5f8fad8e,656018846682f3df8008bb8f,656019cab0372956de0c1ee2,0,159,159,63,1,fourthree,,,,,,,,,,,,,,,,,,,,,,,,,,,,,,,,,,,,,,,,,,,,,,,,,,,,,,,,,,,,,,,,,,,,,,,,,,,,,,,,,,,,,
605d34ffa51bd5dd5f8fad8e,2023-11-24_24h35.59.839,kallum_motion_pilot,2023.1.2,Win32,59.98080614,605d34ffa51bd5dd5f8fad8e,656018846682f3df8008bb8f,656019cab0372956de0c1ee2,0,160,160,99,1,sixeight,,,,,,,,,,,,,,,,,,,,,,,,,,,,,,,,,,,,,,,,,,,,,,,,,,,,,,,,,,,,,,,,,,,,,,,,,,,,,,,,,,,,,
605d34ffa51bd5dd5f8fad8e,2023-11-24_24h35.59.839,kallum_motion_pilot,2023.1.2,Win32,59.98080614,605d34ffa51bd5dd5f8fad8e,656018846682f3df8008bb8f,656019cab0372956de0c1ee2,0,161,161,20,1,threeone,,,,,,,,,,,,,,,,,,,,,,,,,,,,,,,,,,,,,,,,,,,,,,,,,,,,,,,,,,,,,,,,,,,,,,,,,,,,,,,,,,,,,
605d34ffa51bd5dd5f8fad8e,2023-11-24_24h35.59.839,kallum_motion_pilot,2023.1.2,Win32,59.98080614,605d34ffa51bd5dd5f8fad8e,656018846682f3df8008bb8f,656019cab0372956de0c1ee2,1,0,162,119,1,eightseven,,,,,,,,,,,,,,,,,,,,,,,,,,,,,,,,,,,,,,,,,,,,,,,,,,,,,,,,,,,,,,,,,,,,,,,,,,,,,,,,,,,,,
605d34ffa51bd5dd5f8fad8e,2023-11-24_24h35.59.839,kallum_motion_pilot,2023.1.2,Win32,59.98080614,605d34ffa51bd5dd5f8fad8e,656018846682f3df8008bb8f,656019cab0372956de0c1ee2,1,1,163,29,1,threefour,,,,,,,,,,,,,,,,,,,,,,,,,,,,,,,,,,,,,,,,,,,,,,,,,,,,,,,,,,,,,,,,,,,,,,,,,,,,,,,,,,,,,
605d34ffa51bd5dd5f8fad8e,2023-11-24_24h35.59.839,kallum_motion_pilot,2023.1.2,Win32,59.98080614,605d34ffa51bd5dd5f8fad8e,656018846682f3df8008bb8f,656019cab0372956de0c1ee2,1,2,164,78,1,fourtwo,,,,,,,,,,,,,,,,,,,,,,,,,,,,,,,,,,,,,,,,,,,,,,,,,,,,,,,,,,,,,,,,,,,,,,,,,,,,,,,,,,,,,
605d34ffa51bd5dd5f8fad8e,2023-11-24_24h35.59.839,kallum_motion_pilot,2023.1.2,Win32,59.98080614,605d34ffa51bd5dd5f8fad8e,656018846682f3df8008bb8f,656019cab0372956de0c1ee2,1,3,165,135,1,eightseven,,,,,,,,,,,,,,,,,,,,,,,,,,,,,,,,,,,,,,,,,,,,,,,,,,,,,,,,,,,,,,,,,,,,,,,,,,,,,,,,,,,,,
605d34ffa51bd5dd5f8fad8e,2023-11-24_24h35.59.839,kallum_motion_pilot,2023.1.2,Win32,59.98080614,605d34ffa51bd5dd5f8fad8e,656018846682f3df8008bb8f,656019cab0372956de0c1ee2,1,4,166,87,1,eightseven,,,,,,,,,,,,,,,,,,,,,,,,,,,,,,,,,,,,,,,,,,,,,,,,,,,,,,,,,,,,,,,,,,,,,,,,,,,,,,,,,,,,,
605d34ffa51bd5dd5f8fad8e,2023-11-24_24h35.59.839,kallum_motion_pilot,2023.1.2,Win32,59.98080614,605d34ffa51bd5dd5f8fad8e,656018846682f3df8008bb8f,656019cab0372956de0c1ee2,1,5,167,115,1,sixeight,,,,,,,,,,,,,,,,,,,,,,,,,,,,,,,,,,,,,,,,,,,,,,,,,,,,,,,,,,,,,,,,,,,,,,,,,,,,,,,,,,,,,
605d34ffa51bd5dd5f8fad8e,2023-11-24_24h35.59.839,kallum_motion_pilot,2023.1.2,Win32,59.98080614,605d34ffa51bd5dd5f8fad8e,656018846682f3df8008bb8f,656019cab0372956de0c1ee2,1,6,168,141,1,seveneight,,,,,,,,,,,,,,,,,,,,,,,,,,,,,,,,,,,,,,,,,,,,,,,,,,,,,,,,,,,,,,,,,,,,,,,,,,,,,,,,,,,,,
605d34ffa51bd5dd5f8fad8e,2023-11-24_24h35.59.839,kallum_motion_pilot,2023.1.2,Win32,59.98080614,605d34ffa51bd5dd5f8fad8e,656018846682f3df8008bb8f,656019cab0372956de0c1ee2,1,7,169,84,1,sevenfive,,,,,,,,,,,,,,,,,,,,,,,,,,,,,,,,,,,,,,,,,,,,,,,,,,,,,,,,,,,,,,,,,,,,,,,,,,,,,,,,,,,,,
605d34ffa51bd5dd5f8fad8e,2023-11-24_24h35.59.839,kallum_motion_pilot,2023.1.2,Win32,59.98080614,605d34ffa51bd5dd5f8fad8e,656018846682f3df8008bb8f,656019cab0372956de0c1ee2,1,8,170,156,1,sevenfive,,,,,,,,,,,,,,,,,,,,,,,,,,,,,,,,,,,,,,,,,,,,,,,,,,,,,,,,,,,,,,,,,,,,,,,,,,,,,,,,,,,,,
605d34ffa51bd5dd5f8fad8e,2023-11-24_24h35.59.839,kallum_motion_pilot,2023.1.2,Win32,59.98080614,605d34ffa51bd5dd5f8fad8e,656018846682f3df8008bb8f,656019cab0372956de0c1ee2,1,9,171,150,1,eightsix,,,,,,,,,,,,,,,,,,,,,,,,,,,,,,,,,,,,,,,,,,,,,,,,,,,,,,,,,,,,,,,,,,,,,,,,,,,,,,,,,,,,,
605d34ffa51bd5dd5f8fad8e,2023-11-24_24h35.59.839,kallum_motion_pilot,2023.1.2,Win32,59.98080614,605d34ffa51bd5dd5f8fad8e,656018846682f3df8008bb8f,656019cab0372956de0c1ee2,1,10,172,33,1,onethree,,,,,,,,,,,,,,,,,,,,,,,,,,,,,,,,,,,,,,,,,,,,,,,,,,,,,,,,,,,,,,,,,,,,,,,,,,,,,,,,,,,,,
605d34ffa51bd5dd5f8fad8e,2023-11-24_24h35.59.839,kallum_motion_pilot,2023.1.2,Win32,59.98080614,605d34ffa51bd5dd5f8fad8e,656018846682f3df8008bb8f,656019cab0372956de0c1ee2,1,11,173,12,1,threeone,,,,,,,,,,,,,,,,,,,,,,,,,,,,,,,,,,,,,,,,,,,,,,,,,,,,,,,,,,,,,,,,,,,,,,,,,,,,,,,,,,,,,
605d34ffa51bd5dd5f8fad8e,2023-11-24_24h35.59.839,kallum_motion_pilot,2023.1.2,Win32,59.98080614,605d34ffa51bd5dd5f8fad8e,656018846682f3df8008bb8f,656019cab0372956de0c1ee2,1,12,174,74,1,twoone,,,,,,,,,,,,,,,,,,,,,,,,,,,,,,,,,,,,,,,,,,,,,,,,,,,,,,,,,,,,,,,,,,,,,,,,,,,,,,,,,,,,,
605d34ffa51bd5dd5f8fad8e,2023-11-24_24h35.59.839,kallum_motion_pilot,2023.1.2,Win32,59.98080614,605d34ffa51bd5dd5f8fad8e,656018846682f3df8008bb8f,656019cab0372956de0c1ee2,1,13,175,100,1,sevenfive,,,,,,,,,,,,,,,,,,,,,,,,,,,,,,,,,,,,,,,,,,,,,,,,,,,,,,,,,,,,,,,,,,,,,,,,,,,,,,,,,,,,,
605d34ffa51bd5dd5f8fad8e,2023-11-24_24h35.59.839,kallum_motion_pilot,2023.1.2,Win32,59.98080614,605d34ffa51bd5dd5f8fad8e,656018846682f3df8008bb8f,656019cab0372956de0c1ee2,1,14,176,146,1,sixfive,,,,,,,,,,,,,,,,,,,,,,,,,,,,,,,,,,,,,,,,,,,,,,,,,,,,,,,,,,,,,,,,,,,,,,,,,,,,,,,,,,,,,
605d34ffa51bd5dd5f8fad8e,2023-11-24_24h35.59.839,kallum_motion_pilot,2023.1.2,Win32,59.98080614,605d34ffa51bd5dd5f8fad8e,656018846682f3df8008bb8f,656019cab0372956de0c1ee2,1,15,177,122,1,sixfive,,,,,,,,,,,,,,,,,,,,,,,,,,,,,,,,,,,,,,,,,,,,,,,,,,,,,,,,,,,,,,,,,,,,,,,,,,,,,,,,,,,,,
605d34ffa51bd5dd5f8fad8e,2023-11-24_24h35.59.839,kallum_motion_pilot,2023.1.2,Win32,59.98080614,605d34ffa51bd5dd5f8fad8e,656018846682f3df8008bb8f,656019cab0372956de0c1ee2,1,16,178,128,1,fivesix,,,,,,,,,,,,,,,,,,,,,,,,,,,,,,,,,,,,,,,,,,,,,,,,,,,,,,,,,,,,,,,,,,,,,,,,,,,,,,,,,,,,,
605d34ffa51bd5dd5f8fad8e,2023-11-24_24h35.59.839,kallum_motion_pilot,2023.1.2,Win32,59.98080614,605d34ffa51bd5dd5f8fad8e,656018846682f3df8008bb8f,656019cab0372956de0c1ee2,1,17,179,10,1,twoone,,,,,,,,,,,,,,,,,,,,,,,,,,,,,,,,,,,,,,,,,,,,,,,,,,,,,,,,,,,,,,,,,,,,,,,,,,,,,,,,,,,,,
605d34ffa51bd5dd5f8fad8e,2023-11-24_24h35.59.839,kallum_motion_pilot,2023.1.2,Win32,59.98080614,605d34ffa51bd5dd5f8fad8e,656018846682f3df8008bb8f,656019cab0372956de0c1ee2,1,18,180,159,1,eightseven,,,,,,,,,,,,,,,,,,,,,,,,,,,,,,,,,,,,,,,,,,,,,,,,,,,,,,,,,,,,,,,,,,,,,,,,,,,,,,,,,,,,,
605d34ffa51bd5dd5f8fad8e,2023-11-24_24h35.59.839,kallum_motion_pilot,2023.1.2,Win32,59.98080614,605d34ffa51bd5dd5f8fad8e,656018846682f3df8008bb8f,656019cab0372956de0c1ee2,1,19,181,25,1,onethree,,,,,,,,,,,,,,,,,,,,,,,,,,,,,,,,,,,,,,,,,,,,,,,,,,,,,,,,,,,,,,,,,,,,,,,,,,,,,,,,,,,,,
605d34ffa51bd5dd5f8fad8e,2023-11-24_24h35.59.839,kallum_motion_pilot,2023.1.2,Win32,59.98080614,605d34ffa51bd5dd5f8fad8e,656018846682f3df8008bb8f,656019cab0372956de0c1ee2,1,20,182,97,1,fiveseven,,,,,,,,,,,,,,,,,,,,,,,,,,,,,,,,,,,,,,,,,,,,,,,,,,,,,,,,,,,,,,,,,,,,,,,,,,,,,,,,,,,,,
605d34ffa51bd5dd5f8fad8e,2023-11-24_24h35.59.839,kallum_motion_pilot,2023.1.2,Win32,59.98080614,605d34ffa51bd5dd5f8fad8e,656018846682f3df8008bb8f,656019cab0372956de0c1ee2,1,21,183,117,1,seveneight,,,,,,,,,,,,,,,,,,,,,,,,,,,,,,,,,,,,,,,,,,,,,,,,,,,,,,,,,,,,,,,,,,,,,,,,,,,,,,,,,,,,,
605d34ffa51bd5dd5f8fad8e,2023-11-24_24h35.59.839,kallum_motion_pilot,2023.1.2,Win32,59.98080614,605d34ffa51bd5dd5f8fad8e,656018846682f3df8008bb8f,656019cab0372956de0c1ee2,1,22,184,101,1,seveneight,,,,,,,,,,,,,,,,,,,,,,,,,,,,,,,,,,,,,,,,,,,,,,,,,,,,,,,,,,,,,,,,,,,,,,,,,,,,,,,,,,,,,
605d34ffa51bd5dd5f8fad8e,2023-11-24_24h35.59.839,kallum_motion_pilot,2023.1.2,Win32,59.98080614,605d34ffa51bd5dd5f8fad8e,656018846682f3df8008bb8f,656019cab0372956de0c1ee2,1,23,185,53,1,threefour,,,,,,,,,,,,,,,,,,,,,,,,,,,,,,,,,,,,,,,,,,,,,,,,,,,,,,,,,,,,,,,,,,,,,,,,,,,,,,,,,,,,,
605d34ffa51bd5dd5f8fad8e,2023-11-24_24h35.59.839,kallum_motion_pilot,2023.1.2,Win32,59.98080614,605d34ffa51bd5dd5f8fad8e,656018846682f3df8008bb8f,656019cab0372956de0c1ee2,1,24,186,40,1,onetwo,,,,,,,,,,,,,,,,,,,,,,,,,,,,,,,,,,,,,,,,,,,,,,,,,,,,,,,,,,,,,,,,,,,,,,,,,,,,,,,,,,,,,
605d34ffa51bd5dd5f8fad8e,2023-11-24_24h35.59.839,kallum_motion_pilot,2023.1.2,Win32,59.98080614,605d34ffa51bd5dd5f8fad8e,656018846682f3df8008bb8f,656019cab0372956de0c1ee2,1,25,187,14,1,fourtwo,,,,,,,,,,,,,,,,,,,,,,,,,,,,,,,,,,,,,,,,,,,,,,,,,,,,,,,,,,,,,,,,,,,,,,,,,,,,,,,,,,,,,
605d34ffa51bd5dd5f8fad8e,2023-11-24_24h35.59.839,kallum_motion_pilot,2023.1.2,Win32,59.98080614,605d34ffa51bd5dd5f8fad8e,656018846682f3df8008bb8f,656019cab0372956de0c1ee2,1,26,188,63,1,fourthree,,,,,,,,,,,,,,,,,,,,,,,,,,,,,,,,,,,,,,,,,,,,,,,,,,,,,,,,,,,,,,,,,,,,,,,,,,,,,,,,,,,,,
605d34ffa51bd5dd5f8fad8e,2023-11-24_24h35.59.839,kallum_motion_pilot,2023.1.2,Win32,59.98080614,605d34ffa51bd5dd5f8fad8e,656018846682f3df8008bb8f,656019cab0372956de0c1ee2,1,27,189,49,1,onethree,,,,,,,,,,,,,,,,,,,,,,,,,,,,,,,,,,,,,,,,,,,,,,,,,,,,,,,,,,,,,,,,,,,,,,,,,,,,,,,,,,,,,
605d34ffa51bd5dd5f8fad8e,2023-11-24_24h35.59.839,kallum_motion_pilot,2023.1.2,Win32,59.98080614,605d34ffa51bd5dd5f8fad8e,656018846682f3df8008bb8f,656019cab0372956de0c1ee2,1,28,190,96,1,fivesix,,,,,,,,,,,,,,,,,,,,,,,,,,,,,,,,,,,,,,,,,,,,,,,,,,,,,,,,,,,,,,,,,,,,,,,,,,,,,,,,,,,,,
605d34ffa51bd5dd5f8fad8e,2023-11-24_24h35.59.839,kallum_motion_pilot,2023.1.2,Win32,59.98080614,605d34ffa51bd5dd5f8fad8e,656018846682f3df8008bb8f,656019cab0372956de0c1ee2,1,29,191,129,1,fiveseven,,,,,,,,,,,,,,,,,,,,,,,,,,,,,,,,,,,,,,,,,,,,,,,,,,,,,,,,,,,,,,,,,,,,,,,,,,,,,,,,,,,,,
605d34ffa51bd5dd5f8fad8e,2023-11-24_24h35.59.839,kallum_motion_pilot,2023.1.2,Win32,59.98080614,605d34ffa51bd5dd5f8fad8e,656018846682f3df8008bb8f,656019cab0372956de0c1ee2,1,30,192,139,1,sixeight,,,,,,,,,,,,,,,,,,,,,,,,,,,,,,,,,,,,,,,,,,,,,,,,,,,,,,,,,,,,,,,,,,,,,,,,,,,,,,,,,,,,,
605d34ffa51bd5dd5f8fad8e,2023-11-24_24h35.59.839,kallum_motion_pilot,2023.1.2,Win32,59.98080614,605d34ffa51bd5dd5f8fad8e,656018846682f3df8008bb8f,656019cab0372956de0c1ee2,1,31,193,68,1,threeone,,,,,,,,,,,,,,,,,,,,,,,,,,,,,,,,,,,,,,,,,,,,,,,,,,,,,,,,,,,,,,,,,,,,,,,,,,,,,,,,,,,,,
605d34ffa51bd5dd5f8fad8e,2023-11-24_24h35.59.839,kallum_motion_pilot,2023.1.2,Win32,59.98080614,605d34ffa51bd5dd5f8fad8e,656018846682f3df8008bb8f,656019cab0372956de0c1ee2,1,32,194,94,1,eightsix,,,,,,,,,,,,,,,,,,,,,,,,,,,,,,,,,,,,,,,,,,,,,,,,,,,,,,,,,,,,,,,,,,,,,,,,,,,,,,,,,,,,,
605d34ffa51bd5dd5f8fad8e,2023-11-24_24h35.59.839,kallum_motion_pilot,2023.1.2,Win32,59.98080614,605d34ffa51bd5dd5f8fad8e,656018846682f3df8008bb8f,656019cab0372956de0c1ee2,1,33,195,153,1,fiveseven,,,,,,,,,,,,,,,,,,,,,,,,,,,,,,,,,,,,,,,,,,,,,,,,,,,,,,,,,,,,,,,,,,,,,,,,,,,,,,,,,,,,,
605d34ffa51bd5dd5f8fad8e,2023-11-24_24h35.59.839,kallum_motion_pilot,2023.1.2,Win32,59.98080614,605d34ffa51bd5dd5f8fad8e,656018846682f3df8008bb8f,656019cab0372956de0c1ee2,1,34,196,55,1,fourthree,,,,,,,,,,,,,,,,,,,,,,,,,,,,,,,,,,,,,,,,,,,,,,,,,,,,,,,,,,,,,,,,,,,,,,,,,,,,,,,,,,,,,
605d34ffa51bd5dd5f8fad8e,2023-11-24_24h35.59.839,kallum_motion_pilot,2023.1.2,Win32,59.98080614,605d34ffa51bd5dd5f8fad8e,656018846682f3df8008bb8f,656019cab0372956de0c1ee2,1,35,197,73,1,onethree,,,,,,,,,,,,,,,,,,,,,,,,,,,,,,,,,,,,,,,,,,,,,,,,,,,,,,,,,,,,,,,,,,,,,,,,,,,,,,,,,,,,,
605d34ffa51bd5dd5f8fad8e,2023-11-24_24h35.59.839,kallum_motion_pilot,2023.1.2,Win32,59.98080614,605d34ffa51bd5dd5f8fad8e,656018846682f3df8008bb8f,656019cab0372956de0c1ee2,1,36,198,13,1,threefour,,,,,,,,,,,,,,,,,,,,,,,,,,,,,,,,,,,,,,,,,,,,,,,,,,,,,,,,,,,,,,,,,,,,,,,,,,,,,,,,,,,,,
605d34ffa51bd5dd5f8fad8e,2023-11-24_24h35.59.839,kallum_motion_pilot,2023.1.2,Win32,59.98080614,605d34ffa51bd5dd5f8fad8e,656018846682f3df8008bb8f,656019cab0372956de0c1ee2,1,37,199,147,1,sixeight,,,,,,,,,,,,,,,,,,,,,,,,,,,,,,,,,,,,,,,,,,,,,,,,,,,,,,,,,,,,,,,,,,,,,,,,,,,,,,,,,,,,,
605d34ffa51bd5dd5f8fad8e,2023-11-24_24h35.59.839,kallum_motion_pilot,2023.1.2,Win32,59.98080614,605d34ffa51bd5dd5f8fad8e,656018846682f3df8008bb8f,656019cab0372956de0c1ee2,1,38,200,123,1,sixeight,,,,,,,,,,,,,,,,,,,,,,,,,,,,,,,,,,,,,,,,,,,,,,,,,,,,,,,,,,,,,,,,,,,,,,,,,,,,,,,,,,,,,
605d34ffa51bd5dd5f8fad8e,2023-11-24_24h35.59.839,kallum_motion_pilot,2023.1.2,Win32,59.98080614,605d34ffa51bd5dd5f8fad8e,656018846682f3df8008bb8f,656019cab0372956de0c1ee2,1,39,201,48,1,onetwo,,,,,,,,,,,,,,,,,,,,,,,,,,,,,,,,,,,,,,,,,,,,,,,,,,,,,,,,,,,,,,,,,,,,,,,,,,,,,,,,,,,,,
605d34ffa51bd5dd5f8fad8e,2023-11-24_24h35.59.839,kallum_motion_pilot,2023.1.2,Win32,59.98080614,605d34ffa51bd5dd5f8fad8e,656018846682f3df8008bb8f,656019cab0372956de0c1ee2,1,40,202,127,1,eightseven,,,,,,,,,,,,,,,,,,,,,,,,,,,,,,,,,,,,,,,,,,,,,,,,,,,,,,,,,,,,,,,,,,,,,,,,,,,,,,,,,,,,,
605d34ffa51bd5dd5f8fad8e,2023-11-24_24h35.59.839,kallum_motion_pilot,2023.1.2,Win32,59.98080614,605d34ffa51bd5dd5f8fad8e,656018846682f3df8008bb8f,656019cab0372956de0c1ee2,1,41,203,95,1,eightseven,,,,,,,,,,,,,,,,,,,,,,,,,,,,,,,,,,,,,,,,,,,,,,,,,,,,,,,,,,,,,,,,,,,,,,,,,,,,,,,,,,,,,
605d34ffa51bd5dd5f8fad8e,2023-11-24_24h35.59.839,kallum_motion_pilot,2023.1.2,Win32,59.98080614,605d34ffa51bd5dd5f8fad8e,656018846682f3df8008bb8f,656019cab0372956de0c1ee2,1,42,204,1,1,onethree,,,,,,,,,,,,,,,,,,,,,,,,,,,,,,,,,,,,,,,,,,,,,,,,,,,,,,,,,,,,,,,,,,,,,,,,,,,,,,,,,,,,,
605d34ffa51bd5dd5f8fad8e,2023-11-24_24h35.59.839,kallum_motion_pilot,2023.1.2,Win32,59.98080614,605d34ffa51bd5dd5f8fad8e,656018846682f3df8008bb8f,656019cab0372956de0c1ee2,1,43,205,19,1,twofour,,,,,,,,,,,,,,,,,,,,,,,,,,,,,,,,,,,,,,,,,,,,,,,,,,,,,,,,,,,,,,,,,,,,,,,,,,,,,,,,,,,,,
605d34ffa51bd5dd5f8fad8e,2023-11-24_24h35.59.839,kallum_motion_pilot,2023.1.2,Win32,59.98080614,605d34ffa51bd5dd5f8fad8e,656018846682f3df8008bb8f,656019cab0372956de0c1ee2,1,44,206,111,1,eightseven,,,,,,,,,,,,,,,,,,,,,,,,,,,,,,,,,,,,,,,,,,,,,,,,,,,,,,,,,,,,,,,,,,,,,,,,,,,,,,,,,,,,,
605d34ffa51bd5dd5f8fad8e,2023-11-24_24h35.59.839,kallum_motion_pilot,2023.1.2,Win32,59.98080614,605d34ffa51bd5dd5f8fad8e,656018846682f3df8008bb8f,656019cab0372956de0c1ee2,1,45,207,43,1,twofour,,,,,,,,,,,,,,,,,,,,,,,,,,,,,,,,,,,,,,,,,,,,,,,,,,,,,,,,,,,,,,,,,,,,,,,,,,,,,,,,,,,,,
605d34ffa51bd5dd5f8fad8e,2023-11-24_24h35.59.839,kallum_motion_pilot,2023.1.2,Win32,59.98080614,605d34ffa51bd5dd5f8fad8e,656018846682f3df8008bb8f,656019cab0372956de0c1ee2,1,46,208,76,1,threeone,,,,,,,,,,,,,,,,,,,,,,,,,,,,,,,,,,,,,,,,,,,,,,,,,,,,,,,,,,,,,,,,,,,,,,,,,,,,,,,,,,,,,
605d34ffa51bd5dd5f8fad8e,2023-11-24_24h35.59.839,kallum_motion_pilot,2023.1.2,Win32,59.98080614,605d34ffa51bd5dd5f8fad8e,656018846682f3df8008bb8f,656019cab0372956de0c1ee2,1,47,209,8,1,onetwo,,,,,,,,,,,,,,,,,,,,,,,,,,,,,,,,,,,,,,,,,,,,,,,,,,,,,,,,,,,,,,,,,,,,,,,,,,,,,,,,,,,,,
605d34ffa51bd5dd5f8fad8e,2023-11-24_24h35.59.839,kallum_motion_pilot,2023.1.2,Win32,59.98080614,605d34ffa51bd5dd5f8fad8e,656018846682f3df8008bb8f,656019cab0372956de0c1ee2,1,48,210,71,1,fourthree,,,,,,,,,,,,,,,,,,,,,,,,,,,,,,,,,,,,,,,,,,,,,,,,,,,,,,,,,,,,,,,,,,,,,,,,,,,,,,,,,,,,,
605d34ffa51bd5dd5f8fad8e,2023-11-24_24h35.59.839,kallum_motion_pilot,2023.1.2,Win32,59.98080614,605d34ffa51bd5dd5f8fad8e,656018846682f3df8008bb8f,656019cab0372956de0c1ee2,1,49,211,7,1,fourthree,,,,,,,,,,,,,,,,,,,,,,,,,,,,,,,,,,,,,,,,,,,,,,,,,,,,,,,,,,,,,,,,,,,,,,,,,,,,,,,,,,,,,
605d34ffa51bd5dd5f8fad8e,2023-11-24_24h35.59.839,kallum_motion_pilot,2023.1.2,Win32,59.98080614,605d34ffa51bd5dd5f8fad8e,656018846682f3df8008bb8f,656019cab0372956de0c1ee2,1,50,212,151,1,eightseven,,,,,,,,,,,,,,,,,,,,,,,,,,,,,,,,,,,,,,,,,,,,,,,,,,,,,,,,,,,,,,,,,,,,,,,,,,,,,,,,,,,,,
605d34ffa51bd5dd5f8fad8e,2023-11-24_24h35.59.839,kallum_motion_pilot,2023.1.2,Win32,59.98080614,605d34ffa51bd5dd5f8fad8e,656018846682f3df8008bb8f,656019cab0372956de0c1ee2,1,51,213,66,1,twoone,,,,,,,,,,,,,,,,,,,,,,,,,,,,,,,,,,,,,,,,,,,,,,,,,,,,,,,,,,,,,,,,,,,,,,,,,,,,,,,,,,,,,
605d34ffa51bd5dd5f8fad8e,2023-11-24_24h35.59.839,kallum_motion_pilot,2023.1.2,Win32,59.98080614,605d34ffa51bd5dd5f8fad8e,656018846682f3df8008bb8f,656019cab0372956de0c1ee2,1,52,214,145,1,fiveseven,,,,,,,,,,,,,,,,,,,,,,,,,,,,,,,,,,,,,,,,,,,,,,,,,,,,,,,,,,,,,,,,,,,,,,,,,,,,,,,,,,,,,
605d34ffa51bd5dd5f8fad8e,2023-11-24_24h35.59.839,kallum_motion_pilot,2023.1.2,Win32,59.98080614,605d34ffa51bd5dd5f8fad8e,656018846682f3df8008bb8f,656019cab0372956de0c1ee2,1,53,215,112,1,fivesix,,,,,,,,,,,,,,,,,,,,,,,,,,,,,,,,,,,,,,,,,,,,,,,,,,,,,,,,,,,,,,,,,,,,,,,,,,,,,,,,,,,,,
605d34ffa51bd5dd5f8fad8e,2023-11-24_24h35.59.839,kallum_motion_pilot,2023.1.2,Win32,59.98080614,605d34ffa51bd5dd5f8fad8e,656018846682f3df8008bb8f,656019cab0372956de0c1ee2,1,54,216,125,1,seveneight,,,,,,,,,,,,,,,,,,,,,,,,,,,,,,,,,,,,,,,,,,,,,,,,,,,,,,,,,,,,,,,,,,,,,,,,,,,,,,,,,,,,,
605d34ffa51bd5dd5f8fad8e,2023-11-24_24h35.59.839,kallum_motion_pilot,2023.1.2,Win32,59.98080614,605d34ffa51bd5dd5f8fad8e,656018846682f3df8008bb8f,656019cab0372956de0c1ee2,1,55,217,104,1,fivesix,,,,,,,,,,,,,,,,,,,,,,,,,,,,,,,,,,,,,,,,,,,,,,,,,,,,,,,,,,,,,,,,,,,,,,,,,,,,,,,,,,,,,
605d34ffa51bd5dd5f8fad8e,2023-11-24_24h35.59.839,kallum_motion_pilot,2023.1.2,Win32,59.98080614,605d34ffa51bd5dd5f8fad8e,656018846682f3df8008bb8f,656019cab0372956de0c1ee2,1,56,218,6,1,fourtwo,,,,,,,,,,,,,,,,,,,,,,,,,,,,,,,,,,,,,,,,,,,,,,,,,,,,,,,,,,,,,,,,,,,,,,,,,,,,,,,,,,,,,
605d34ffa51bd5dd5f8fad8e,2023-11-24_24h35.59.839,kallum_motion_pilot,2023.1.2,Win32,59.98080614,605d34ffa51bd5dd5f8fad8e,656018846682f3df8008bb8f,656019cab0372956de0c1ee2,1,57,219,2,1,twoone,,,,,,,,,,,,,,,,,,,,,,,,,,,,,,,,,,,,,,,,,,,,,,,,,,,,,,,,,,,,,,,,,,,,,,,,,,,,,,,,,,,,,
605d34ffa51bd5dd5f8fad8e,2023-11-24_24h35.59.839,kallum_motion_pilot,2023.1.2,Win32,59.98080614,605d34ffa51bd5dd5f8fad8e,656018846682f3df8008bb8f,656019cab0372956de0c1ee2,1,58,220,110,1,eightsix,,,,,,,,,,,,,,,,,,,,,,,,,,,,,,,,,,,,,,,,,,,,,,,,,,,,,,,,,,,,,,,,,,,,,,,,,,,,,,,,,,,,,
605d34ffa51bd5dd5f8fad8e,2023-11-24_24h35.59.839,kallum_motion_pilot,2023.1.2,Win32,59.98080614,605d34ffa51bd5dd5f8fad8e,656018846682f3df8008bb8f,656019cab0372956de0c1ee2,1,59,221,103,1,eightseven,,,,,,,,,,,,,,,,,,,,,,,,,,,,,,,,,,,,,,,,,,,,,,,,,,,,,,,,,,,,,,,,,,,,,,,,,,,,,,,,,,,,,
605d34ffa51bd5dd5f8fad8e,2023-11-24_24h35.59.839,kallum_motion_pilot,2023.1.2,Win32,59.98080614,605d34ffa51bd5dd5f8fad8e,656018846682f3df8008bb8f,656019cab0372956de0c1ee2,1,60,222,45,1,threefour,,,,,,,,,,,,,,,,,,,,,,,,,,,,,,,,,,,,,,,,,,,,,,,,,,,,,,,,,,,,,,,,,,,,,,,,,,,,,,,,,,,,,
605d34ffa51bd5dd5f8fad8e,2023-11-24_24h35.59.839,kallum_motion_pilot,2023.1.2,Win32,59.98080614,605d34ffa51bd5dd5f8fad8e,656018846682f3df8008bb8f,656019cab0372956de0c1ee2,1,61,223,3,1,twofour,,,,,,,,,,,,,,,,,,,,,,,,,,,,,,,,,,,,,,,,,,,,,,,,,,,,,,,,,,,,,,,,,,,,,,,,,,,,,,,,,,,,,
605d34ffa51bd5dd5f8fad8e,2023-11-24_24h35.59.839,kallum_motion_pilot,2023.1.2,Win32,59.98080614,605d34ffa51bd5dd5f8fad8e,656018846682f3df8008bb8f,656019cab0372956de0c1ee2,1,62,224,155,1,sixeight,,,,,,,,,,,,,,,,,,,,,,,,,,,,,,,,,,,,,,,,,,,,,,,,,,,,,,,,,,,,,,,,,,,,,,,,,,,,,,,,,,,,,
605d34ffa51bd5dd5f8fad8e,2023-11-24_24h35.59.839,kallum_motion_pilot,2023.1.2,Win32,59.98080614,605d34ffa51bd5dd5f8fad8e,656018846682f3df8008bb8f,656019cab0372956de0c1ee2,1,63,225,18,1,twoone,,,,,,,,,,,,,,,,,,,,,,,,,,,,,,,,,,,,,,,,,,,,,,,,,,,,,,,,,,,,,,,,,,,,,,,,,,,,,,,,,,,,,
605d34ffa51bd5dd5f8fad8e,2023-11-24_24h35.59.839,kallum_motion_pilot,2023.1.2,Win32,59.98080614,605d34ffa51bd5dd5f8fad8e,656018846682f3df8008bb8f,656019cab0372956de0c1ee2,1,64,226,39,1,fourthree,,,,,,,,,,,,,,,,,,,,,,,,,,,,,,,,,,,,,,,,,,,,,,,,,,,,,,,,,,,,,,,,,,,,,,,,,,,,,,,,,,,,,
605d34ffa51bd5dd5f8fad8e,2023-11-24_24h35.59.839,kallum_motion_pilot,2023.1.2,Win32,59.98080614,605d34ffa51bd5dd5f8fad8e,656018846682f3df8008bb8f,656019cab0372956de0c1ee2,1,65,227,144,1,fivesix,,,,,,,,,,,,,,,,,,,,,,,,,,,,,,,,,,,,,,,,,,,,,,,,,,,,,,,,,,,,,,,,,,,,,,,,,,,,,,,,,,,,,
605d34ffa51bd5dd5f8fad8e,2023-11-24_24h35.59.839,kallum_motion_pilot,2023.1.2,Win32,59.98080614,605d34ffa51bd5dd5f8fad8e,656018846682f3df8008bb8f,656019cab0372956de0c1ee2,1,66,228,70,1,fourtwo,,,,,,,,,,,,,,,,,,,,,,,,,,,,,,,,,,,,,,,,,,,,,,,,,,,,,,,,,,,,,,,,,,,,,,,,,,,,,,,,,,,,,
605d34ffa51bd5dd5f8fad8e,2023-11-24_24h35.59.839,kallum_motion_pilot,2023.1.2,Win32,59.98080614,605d34ffa51bd5dd5f8fad8e,656018846682f3df8008bb8f,656019cab0372956de0c1ee2,1,67,229,143,1,eightseven,,,,,,,,,,,,,,,,,,,,,,,,,,,,,,,,,,,,,,,,,,,,,,,,,,,,,,,,,,,,,,,,,,,,,,,,,,,,,,,,,,,,,
605d34ffa51bd5dd5f8fad8e,2023-11-24_24h35.59.839,kallum_motion_pilot,2023.1.2,Win32,59.98080614,605d34ffa51bd5dd5f8fad8e,656018846682f3df8008bb8f,656019cab0372956de0c1ee2,1,68,230,9,1,onethree,,,,,,,,,,,,,,,,,,,,,,,,,,,,,,,,,,,,,,,,,,,,,,,,,,,,,,,,,,,,,,,,,,,,,,,,,,,,,,,,,,,,,
605d34ffa51bd5dd5f8fad8e,2023-11-24_24h35.59.839,kallum_motion_pilot,2023.1.2,Win32,59.98080614,605d34ffa51bd5dd5f8fad8e,656018846682f3df8008bb8f,656019cab0372956de0c1ee2,1,69,231,62,1,fourtwo,,,,,,,,,,,,,,,,,,,,,,,,,,,,,,,,,,,,,,,,,,,,,,,,,,,,,,,,,,,,,,,,,,,,,,,,,,,,,,,,,,,,,
605d34ffa51bd5dd5f8fad8e,2023-11-24_24h35.59.839,kallum_motion_pilot,2023.1.2,Win32,59.98080614,605d34ffa51bd5dd5f8fad8e,656018846682f3df8008bb8f,656019cab0372956de0c1ee2,1,70,232,21,1,threefour,,,,,,,,,,,,,,,,,,,,,,,,,,,,,,,,,,,,,,,,,,,,,,,,,,,,,,,,,,,,,,,,,,,,,,,,,,,,,,,,,,,,,
605d34ffa51bd5dd5f8fad8e,2023-11-24_24h35.59.839,kallum_motion_pilot,2023.1.2,Win32,59.98080614,605d34ffa51bd5dd5f8fad8e,656018846682f3df8008bb8f,656019cab0372956de0c1ee2,1,71,233,138,1,sixfive,,,,,,,,,,,,,,,,,,,,,,,,,,,,,,,,,,,,,,,,,,,,,,,,,,,,,,,,,,,,,,,,,,,,,,,,,,,,,,,,,,,,,
605d34ffa51bd5dd5f8fad8e,2023-11-24_24h35.59.839,kallum_motion_pilot,2023.1.2,Win32,59.98080614,605d34ffa51bd5dd5f8fad8e,656018846682f3df8008bb8f,656019cab0372956de0c1ee2,1,72,234,154,1,sixfive,,,,,,,,,,,,,,,,,,,,,,,,,,,,,,,,,,,,,,,,,,,,,,,,,,,,,,,,,,,,,,,,,,,,,,,,,,,,,,,,,,,,,
605d34ffa51bd5dd5f8fad8e,2023-11-24_24h35.59.839,kallum_motion_pilot,2023.1.2,Win32,59.98080614,605d34ffa51bd5dd5f8fad8e,656018846682f3df8008bb8f,656019cab0372956de0c1ee2,1,73,235,69,1,threefour,,,,,,,,,,,,,,,,,,,,,,,,,,,,,,,,,,,,,,,,,,,,,,,,,,,,,,,,,,,,,,,,,,,,,,,,,,,,,,,,,,,,,
605d34ffa51bd5dd5f8fad8e,2023-11-24_24h35.59.839,kallum_motion_pilot,2023.1.2,Win32,59.98080614,605d34ffa51bd5dd5f8fad8e,656018846682f3df8008bb8f,656019cab0372956de0c1ee2,1,74,236,89,1,fiveseven,,,,,,,,,,,,,,,,,,,,,,,,,,,,,,,,,,,,,,,,,,,,,,,,,,,,,,,,,,,,,,,,,,,,,,,,,,,,,,,,,,,,,
605d34ffa51bd5dd5f8fad8e,2023-11-24_24h35.59.839,kallum_motion_pilot,2023.1.2,Win32,59.98080614,605d34ffa51bd5dd5f8fad8e,656018846682f3df8008bb8f,656019cab0372956de0c1ee2,1,75,237,35,1,twofour,,,,,,,,,,,,,,,,,,,,,,,,,,,,,,,,,,,,,,,,,,,,,,,,,,,,,,,,,,,,,,,,,,,,,,,,,,,,,,,,,,,,,
605d34ffa51bd5dd5f8fad8e,2023-11-24_24h35.59.839,kallum_motion_pilot,2023.1.2,Win32,59.98080614,605d34ffa51bd5dd5f8fad8e,656018846682f3df8008bb8f,656019cab0372956de0c1ee2,1,76,238,36,1,threeone,,,,,,,,,,,,,,,,,,,,,,,,,,,,,,,,,,,,,,,,,,,,,,,,,,,,,,,,,,,,,,,,,,,,,,,,,,,,,,,,,,,,,
605d34ffa51bd5dd5f8fad8e,2023-11-24_24h35.59.839,kallum_motion_pilot,2023.1.2,Win32,59.98080614,605d34ffa51bd5dd5f8fad8e,656018846682f3df8008bb8f,656019cab0372956de0c1ee2,1,77,239,106,1,sixfive,,,,,,,,,,,,,,,,,,,,,,,,,,,,,,,,,,,,,,,,,,,,,,,,,,,,,,,,,,,,,,,,,,,,,,,,,,,,,,,,,,,,,
605d34ffa51bd5dd5f8fad8e,2023-11-24_24h35.59.839,kallum_motion_pilot,2023.1.2,Win32,59.98080614,605d34ffa51bd5dd5f8fad8e,656018846682f3df8008bb8f,656019cab0372956de0c1ee2,1,78,240,105,1,fiveseven,,,,,,,,,,,,,,,,,,,,,,,,,,,,,,,,,,,,,,,,,,,,,,,,,,,,,,,,,,,,,,,,,,,,,,,,,,,,,,,,,,,,,
605d34ffa51bd5dd5f8fad8e,2023-11-24_24h35.59.839,kallum_motion_pilot,2023.1.2,Win32,59.98080614,605d34ffa51bd5dd5f8fad8e,656018846682f3df8008bb8f,656019cab0372956de0c1ee2,1,79,241,4,1,threeone,,,,,,,,,,,,,,,,,,,,,,,,,,,,,,,,,,,,,,,,,,,,,,,,,,,,,,,,,,,,,,,,,,,,,,,,,,,,,,,,,,,,,
605d34ffa51bd5dd5f8fad8e,2023-11-24_24h35.59.839,kallum_motion_pilot,2023.1.2,Win32,59.98080614,605d34ffa51bd5dd5f8fad8e,656018846682f3df8008bb8f,656019cab0372956de0c1ee2,1,80,242,20,1,threeone,,,,,,,,,,,,,,,,,,,,,,,,,,,,,,,,,,,,,,,,,,,,,,,,,,,,,,,,,,,,,,,,,,,,,,,,,,,,,,,,,,,,,
605d34ffa51bd5dd5f8fad8e,2023-11-24_24h35.59.839,kallum_motion_pilot,2023.1.2,Win32,59.98080614,605d34ffa51bd5dd5f8fad8e,656018846682f3df8008bb8f,656019cab0372956de0c1ee2,1,81,243,93,1,seveneight,,,,,,,,,,,,,,,,,,,,,,,,,,,,,,,,,,,,,,,,,,,,,,,,,,,,,,,,,,,,,,,,,,,,,,,,,,,,,,,,,,,,,
605d34ffa51bd5dd5f8fad8e,2023-11-24_24h35.59.839,kallum_motion_pilot,2023.1.2,Win32,59.98080614,605d34ffa51bd5dd5f8fad8e,656018846682f3df8008bb8f,656019cab0372956de0c1ee2,1,82,244,137,1,fiveseven,,,,,,,,,,,,,,,,,,,,,,,,,,,,,,,,,,,,,,,,,,,,,,,,,,,,,,,,,,,,,,,,,,,,,,,,,,,,,,,,,,,,,
605d34ffa51bd5dd5f8fad8e,2023-11-24_24h35.59.839,kallum_motion_pilot,2023.1.2,Win32,59.98080614,605d34ffa51bd5dd5f8fad8e,656018846682f3df8008bb8f,656019cab0372956de0c1ee2,1,83,245,109,1,seveneight,,,,,,,,,,,,,,,,,,,,,,,,,,,,,,,,,,,,,,,,,,,,,,,,,,,,,,,,,,,,,,,,,,,,,,,,,,,,,,,,,,,,,
605d34ffa51bd5dd5f8fad8e,2023-11-24_24h35.59.839,kallum_motion_pilot,2023.1.2,Win32,59.98080614,605d34ffa51bd5dd5f8fad8e,656018846682f3df8008bb8f,656019cab0372956de0c1ee2,1,84,246,148,1,sevenfive,,,,,,,,,,,,,,,,,,,,,,,,,,,,,,,,,,,,,,,,,,,,,,,,,,,,,,,,,,,,,,,,,,,,,,,,,,,,,,,,,,,,,
605d34ffa51bd5dd5f8fad8e,2023-11-24_24h35.59.839,kallum_motion_pilot,2023.1.2,Win32,59.98080614,605d34ffa51bd5dd5f8fad8e,656018846682f3df8008bb8f,656019cab0372956de0c1ee2,1,85,247,85,1,seveneight,,,,,,,,,,,,,,,,,,,,,,,,,,,,,,,,,,,,,,,,,,,,,,,,,,,,,,,,,,,,,,,,,,,,,,,,,,,,,,,,,,,,,
605d34ffa51bd5dd5f8fad8e,2023-11-24_24h35.59.839,kallum_motion_pilot,2023.1.2,Win32,59.98080614,605d34ffa51bd5dd5f8fad8e,656018846682f3df8008bb8f,656019cab0372956de0c1ee2,1,86,248,90,1,sixfive,,,,,,,,,,,,,,,,,,,,,,,,,,,,,,,,,,,,,,,,,,,,,,,,,,,,,,,,,,,,,,,,,,,,,,,,,,,,,,,,,,,,,
605d34ffa51bd5dd5f8fad8e,2023-11-24_24h35.59.839,kallum_motion_pilot,2023.1.2,Win32,59.98080614,605d34ffa51bd5dd5f8fad8e,656018846682f3df8008bb8f,656019cab0372956de0c1ee2,1,87,249,64,1,onetwo,,,,,,,,,,,,,,,,,,,,,,,,,,,,,,,,,,,,,,,,,,,,,,,,,,,,,,,,,,,,,,,,,,,,,,,,,,,,,,,,,,,,,
605d34ffa51bd5dd5f8fad8e,2023-11-24_24h35.59.839,kallum_motion_pilot,2023.1.2,Win32,59.98080614,605d34ffa51bd5dd5f8fad8e,656018846682f3df8008bb8f,656019cab0372956de0c1ee2,1,88,250,34,1,twoone,,,,,,,,,,,,,,,,,,,,,,,,,,,,,,,,,,,,,,,,,,,,,,,,,,,,,,,,,,,,,,,,,,,,,,,,,,,,,,,,,,,,,
605d34ffa51bd5dd5f8fad8e,2023-11-24_24h35.59.839,kallum_motion_pilot,2023.1.2,Win32,59.98080614,605d34ffa51bd5dd5f8fad8e,656018846682f3df8008bb8f,656019cab0372956de0c1ee2,1,89,251,52,1,threeone,,,,,,,,,,,,,,,,,,,,,,,,,,,,,,,,,,,,,,,,,,,,,,,,,,,,,,,,,,,,,,,,,,,,,,,,,,,,,,,,,,,,,
605d34ffa51bd5dd5f8fad8e,2023-11-24_24h35.59.839,kallum_motion_pilot,2023.1.2,Win32,59.98080614,605d34ffa51bd5dd5f8fad8e,656018846682f3df8008bb8f,656019cab0372956de0c1ee2,1,90,252,41,1,onethree,,,,,,,,,,,,,,,,,,,,,,,,,,,,,,,,,,,,,,,,,,,,,,,,,,,,,,,,,,,,,,,,,,,,,,,,,,,,,,,,,,,,,
605d34ffa51bd5dd5f8fad8e,2023-11-24_24h35.59.839,kallum_motion_pilot,2023.1.2,Win32,59.98080614,605d34ffa51bd5dd5f8fad8e,656018846682f3df8008bb8f,656019cab0372956de0c1ee2,1,91,253,88,1,fivesix,,,,,,,,,,,,,,,,,,,,,,,,,,,,,,,,,,,,,,,,,,,,,,,,,,,,,,,,,,,,,,,,,,,,,,,,,,,,,,,,,,,,,
605d34ffa51bd5dd5f8fad8e,2023-11-24_24h35.59.839,kallum_motion_pilot,2023.1.2,Win32,59.98080614,605d34ffa51bd5dd5f8fad8e,656018846682f3df8008bb8f,656019cab0372956de0c1ee2,1,92,254,108,1,sevenfive,,,,,,,,,,,,,,,,,,,,,,,,,,,,,,,,,,,,,,,,,,,,,,,,,,,,,,,,,,,,,,,,,,,,,,,,,,,,,,,,,,,,,
605d34ffa51bd5dd5f8fad8e,2023-11-24_24h35.59.839,kallum_motion_pilot,2023.1.2,Win32,59.98080614,605d34ffa51bd5dd5f8fad8e,656018846682f3df8008bb8f,656019cab0372956de0c1ee2,1,93,255,22,1,fourtwo,,,,,,,,,,,,,,,,,,,,,,,,,,,,,,,,,,,,,,,,,,,,,,,,,,,,,,,,,,,,,,,,,,,,,,,,,,,,,,,,,,,,,
605d34ffa51bd5dd5f8fad8e,2023-11-24_24h35.59.839,kallum_motion_pilot,2023.1.2,Win32,59.98080614,605d34ffa51bd5dd5f8fad8e,656018846682f3df8008bb8f,656019cab0372956de0c1ee2,1,94,256,116,1,sevenfive,,,,,,,,,,,,,,,,,,,,,,,,,,,,,,,,,,,,,,,,,,,,,,,,,,,,,,,,,,,,,,,,,,,,,,,,,,,,,,,,,,,,,
605d34ffa51bd5dd5f8fad8e,2023-11-24_24h35.59.839,kallum_motion_pilot,2023.1.2,Win32,59.98080614,605d34ffa51bd5dd5f8fad8e,656018846682f3df8008bb8f,656019cab0372956de0c1ee2,1,95,257,27,1,twofour,,,,,,,,,,,,,,,,,,,,,,,,,,,,,,,,,,,,,,,,,,,,,,,,,,,,,,,,,,,,,,,,,,,,,,,,,,,,,,,,,,,,,
605d34ffa51bd5dd5f8fad8e,2023-11-24_24h35.59.839,kallum_motion_pilot,2023.1.2,Win32,59.98080614,605d34ffa51bd5dd5f8fad8e,656018846682f3df8008bb8f,656019cab0372956de0c1ee2,1,96,258,81,1,fiveseven,,,,,,,,,,,,,,,,,,,,,,,,,,,,,,,,,,,,,,,,,,,,,,,,,,,,,,,,,,,,,,,,,,,,,,,,,,,,,,,,,,,,,
605d34ffa51bd5dd5f8fad8e,2023-11-24_24h35.59.839,kallum_motion_pilot,2023.1.2,Win32,59.98080614,605d34ffa51bd5dd5f8fad8e,656018846682f3df8008bb8f,656019cab0372956de0c1ee2,1,97,259,161,1,fiveseven,,,,,,,,,,,,,,,,,,,,,,,,,,,,,,,,,,,,,,,,,,,,,,,,,,,,,,,,,,,,,,,,,,,,,,,,,,,,,,,,,,,,,
605d34ffa51bd5dd5f8fad8e,2023-11-24_24h35.59.839,kallum_motion_pilot,2023.1.2,Win32,59.98080614,605d34ffa51bd5dd5f8fad8e,656018846682f3df8008bb8f,656019cab0372956de0c1ee2,1,98,260,24,1,onetwo,,,,,,,,,,,,,,,,,,,,,,,,,,,,,,,,,,,,,,,,,,,,,,,,,,,,,,,,,,,,,,,,,,,,,,,,,,,,,,,,,,,,,
605d34ffa51bd5dd5f8fad8e,2023-11-24_24h35.59.839,kallum_motion_pilot,2023.1.2,Win32,59.98080614,605d34ffa51bd5dd5f8fad8e,656018846682f3df8008bb8f,656019cab0372956de0c1ee2,1,99,261,15,1,fourthree,,,,,,,,,,,,,,,,,,,,,,,,,,,,,,,,,,,,,,,,,,,,,,,,,,,,,,,,,,,,,,,,,,,,,,,,,,,,,,,,,,,,,
605d34ffa51bd5dd5f8fad8e,2023-11-24_24h35.59.839,kallum_motion_pilot,2023.1.2,Win32,59.98080614,605d34ffa51bd5dd5f8fad8e,656018846682f3df8008bb8f,656019cab0372956de0c1ee2,1,100,262,102,1,eightsix,,,,,,,,,,,,,,,,,,,,,,,,,,,,,,,,,,,,,,,,,,,,,,,,,,,,,,,,,,,,,,,,,,,,,,,,,,,,,,,,,,,,,
605d34ffa51bd5dd5f8fad8e,2023-11-24_24h35.59.839,kallum_motion_pilot,2023.1.2,Win32,59.98080614,605d34ffa51bd5dd5f8fad8e,656018846682f3df8008bb8f,656019cab0372956de0c1ee2,1,101,263,158,1,eightsix,,,,,,,,,,,,,,,,,,,,,,,,,,,,,,,,,,,,,,,,,,,,,,,,,,,,,,,,,,,,,,,,,,,,,,,,,,,,,,,,,,,,,
605d34ffa51bd5dd5f8fad8e,2023-11-24_24h35.59.839,kallum_motion_pilot,2023.1.2,Win32,59.98080614,605d34ffa51bd5dd5f8fad8e,656018846682f3df8008bb8f,656019cab0372956de0c1ee2,1,102,264,113,1,fiveseven,,,,,,,,,,,,,,,,,,,,,,,,,,,,,,,,,,,,,,,,,,,,,,,,,,,,,,,,,,,,,,,,,,,,,,,,,,,,,,,,,,,,,
605d34ffa51bd5dd5f8fad8e,2023-11-24_24h35.59.839,kallum_motion_pilot,2023.1.2,Win32,59.98080614,605d34ffa51bd5dd5f8fad8e,656018846682f3df8008bb8f,656019cab0372956de0c1ee2,1,103,265,17,1,onethree,,,,,,,,,,,,,,,,,,,,,,,,,,,,,,,,,,,,,,,,,,,,,,,,,,,,,,,,,,,,,,,,,,,,,,,,,,,,,,,,,,,,,
605d34ffa51bd5dd5f8fad8e,2023-11-24_24h35.59.839,kallum_motion_pilot,2023.1.2,Win32,59.98080614,605d34ffa51bd5dd5f8fad8e,656018846682f3df8008bb8f,656019cab0372956de0c1ee2,1,104,266,28,1,threeone,,,,,,,,,,,,,,,,,,,,,,,,,,,,,,,,,,,,,,,,,,,,,,,,,,,,,,,,,,,,,,,,,,,,,,,,,,,,,,,,,,,,,
605d34ffa51bd5dd5f8fad8e,2023-11-24_24h35.59.839,kallum_motion_pilot,2023.1.2,Win32,59.98080614,605d34ffa51bd5dd5f8fad8e,656018846682f3df8008bb8f,656019cab0372956de0c1ee2,1,105,267,160,1,fivesix,,,,,,,,,,,,,,,,,,,,,,,,,,,,,,,,,,,,,,,,,,,,,,,,,,,,,,,,,,,,,,,,,,,,,,,,,,,,,,,,,,,,,
605d34ffa51bd5dd5f8fad8e,2023-11-24_24h35.59.839,kallum_motion_pilot,2023.1.2,Win32,59.98080614,605d34ffa51bd5dd5f8fad8e,656018846682f3df8008bb8f,656019cab0372956de0c1ee2,1,106,268,152,1,fivesix,,,,,,,,,,,,,,,,,,,,,,,,,,,,,,,,,,,,,,,,,,,,,,,,,,,,,,,,,,,,,,,,,,,,,,,,,,,,,,,,,,,,,
605d34ffa51bd5dd5f8fad8e,2023-11-24_24h35.59.839,kallum_motion_pilot,2023.1.2,Win32,59.98080614,605d34ffa51bd5dd5f8fad8e,656018846682f3df8008bb8f,656019cab0372956de0c1ee2,1,107,269,77,1,threefour,,,,,,,,,,,,,,,,,,,,,,,,,,,,,,,,,,,,,,,,,,,,,,,,,,,,,,,,,,,,,,,,,,,,,,,,,,,,,,,,,,,,,
605d34ffa51bd5dd5f8fad8e,2023-11-24_24h35.59.839,kallum_motion_pilot,2023.1.2,Win32,59.98080614,605d34ffa51bd5dd5f8fad8e,656018846682f3df8008bb8f,656019cab0372956de0c1ee2,1,108,270,98,1,sixfive,,,,,,,,,,,,,,,,,,,,,,,,,,,,,,,,,,,,,,,,,,,,,,,,,,,,,,,,,,,,,,,,,,,,,,,,,,,,,,,,,,,,,
605d34ffa51bd5dd5f8fad8e,2023-11-24_24h35.59.839,kallum_motion_pilot,2023.1.2,Win32,59.98080614,605d34ffa51bd5dd5f8fad8e,656018846682f3df8008bb8f,656019cab0372956de0c1ee2,1,109,271,131,1,sixeight,,,,,,,,,,,,,,,,,,,,,,,,,,,,,,,,,,,,,,,,,,,,,,,,,,,,,,,,,,,,,,,,,,,,,,,,,,,,,,,,,,,,,
605d34ffa51bd5dd5f8fad8e,2023-11-24_24h35.59.839,kallum_motion_pilot,2023.1.2,Win32,59.98080614,605d34ffa51bd5dd5f8fad8e,656018846682f3df8008bb8f,656019cab0372956de0c1ee2,1,110,272,140,1,sevenfive,,,,,,,,,,,,,,,,,,,,,,,,,,,,,,,,,,,,,,,,,,,,,,,,,,,,,,,,,,,,,,,,,,,,,,,,,,,,,,,,,,,,,
605d34ffa51bd5dd5f8fad8e,2023-11-24_24h35.59.839,kallum_motion_pilot,2023.1.2,Win32,59.98080614,605d34ffa51bd5dd5f8fad8e,656018846682f3df8008bb8f,656019cab0372956de0c1ee2,1,111,273,38,1,fourtwo,,,,,,,,,,,,,,,,,,,,,,,,,,,,,,,,,,,,,,,,,,,,,,,,,,,,,,,,,,,,,,,,,,,,,,,,,,,,,,,,,,,,,
605d34ffa51bd5dd5f8fad8e,2023-11-24_24h35.59.839,kallum_motion_pilot,2023.1.2,Win32,59.98080614,605d34ffa51bd5dd5f8fad8e,656018846682f3df8008bb8f,656019cab0372956de0c1ee2,1,112,274,59,1,twofour,,,,,,,,,,,,,,,,,,,,,,,,,,,,,,,,,,,,,,,,,,,,,,,,,,,,,,,,,,,,,,,,,,,,,,,,,,,,,,,,,,,,,
605d34ffa51bd5dd5f8fad8e,2023-11-24_24h35.59.839,kallum_motion_pilot,2023.1.2,Win32,59.98080614,605d34ffa51bd5dd5f8fad8e,656018846682f3df8008bb8f,656019cab0372956de0c1ee2,1,113,275,149,1,seveneight,,,,,,,,,,,,,,,,,,,,,,,,,,,,,,,,,,,,,,,,,,,,,,,,,,,,,,,,,,,,,,,,,,,,,,,,,,,,,,,,,,,,,
605d34ffa51bd5dd5f8fad8e,2023-11-24_24h35.59.839,kallum_motion_pilot,2023.1.2,Win32,59.98080614,605d34ffa51bd5dd5f8fad8e,656018846682f3df8008bb8f,656019cab0372956de0c1ee2,1,114,276,60,1,threeone,,,,,,,,,,,,,,,,,,,,,,,,,,,,,,,,,,,,,,,,,,,,,,,,,,,,,,,,,,,,,,,,,,,,,,,,,,,,,,,,,,,,,
605d34ffa51bd5dd5f8fad8e,2023-11-24_24h35.59.839,kallum_motion_pilot,2023.1.2,Win32,59.98080614,605d34ffa51bd5dd5f8fad8e,656018846682f3df8008bb8f,656019cab0372956de0c1ee2,1,115,277,67,1,twofour,,,,,,,,,,,,,,,,,,,,,,,,,,,,,,,,,,,,,,,,,,,,,,,,,,,,,,,,,,,,,,,,,,,,,,,,,,,,,,,,,,,,,
605d34ffa51bd5dd5f8fad8e,2023-11-24_24h35.59.839,kallum_motion_pilot,2023.1.2,Win32,59.98080614,605d34ffa51bd5dd5f8fad8e,656018846682f3df8008bb8f,656019cab0372956de0c1ee2,1,116,278,30,1,fourtwo,,,,,,,,,,,,,,,,,,,,,,,,,,,,,,,,,,,,,,,,,,,,,,,,,,,,,,,,,,,,,,,,,,,,,,,,,,,,,,,,,,,,,
605d34ffa51bd5dd5f8fad8e,2023-11-24_24h35.59.839,kallum_motion_pilot,2023.1.2,Win32,59.98080614,605d34ffa51bd5dd5f8fad8e,656018846682f3df8008bb8f,656019cab0372956de0c1ee2,1,117,279,157,1,seveneight,,,,,,,,,,,,,,,,,,,,,,,,,,,,,,,,,,,,,,,,,,,,,,,,,,,,,,,,,,,,,,,,,,,,,,,,,,,,,,,,,,,,,
605d34ffa51bd5dd5f8fad8e,2023-11-24_24h35.59.839,kallum_motion_pilot,2023.1.2,Win32,59.98080614,605d34ffa51bd5dd5f8fad8e,656018846682f3df8008bb8f,656019cab0372956de0c1ee2,1,118,280,16,1,onetwo,,,,,,,,,,,,,,,,,,,,,,,,,,,,,,,,,,,,,,,,,,,,,,,,,,,,,,,,,,,,,,,,,,,,,,,,,,,,,,,,,,,,,
605d34ffa51bd5dd5f8fad8e,2023-11-24_24h35.59.839,kallum_motion_pilot,2023.1.2,Win32,59.98080614,605d34ffa51bd5dd5f8fad8e,656018846682f3df8008bb8f,656019cab0372956de0c1ee2,1,119,281,134,1,eightsix,,,,,,,,,,,,,,,,,,,,,,,,,,,,,,,,,,,,,,,,,,,,,,,,,,,,,,,,,,,,,,,,,,,,,,,,,,,,,,,,,,,,,
605d34ffa51bd5dd5f8fad8e,2023-11-24_24h35.59.839,kallum_motion_pilot,2023.1.2,Win32,59.98080614,605d34ffa51bd5dd5f8fad8e,656018846682f3df8008bb8f,656019cab0372956de0c1ee2,1,120,282,80,1,fivesix,,,,,,,,,,,,,,,,,,,,,,,,,,,,,,,,,,,,,,,,,,,,,,,,,,,,,,,,,,,,,,,,,,,,,,,,,,,,,,,,,,,,,
605d34ffa51bd5dd5f8fad8e,2023-11-24_24h35.59.839,kallum_motion_pilot,2023.1.2,Win32,59.98080614,605d34ffa51bd5dd5f8fad8e,656018846682f3df8008bb8f,656019cab0372956de0c1ee2,1,121,283,118,1,eightsix,,,,,,,,,,,,,,,,,,,,,,,,,,,,,,,,,,,,,,,,,,,,,,,,,,,,,,,,,,,,,,,,,,,,,,,,,,,,,,,,,,,,,
605d34ffa51bd5dd5f8fad8e,2023-11-24_24h35.59.839,kallum_motion_pilot,2023.1.2,Win32,59.98080614,605d34ffa51bd5dd5f8fad8e,656018846682f3df8008bb8f,656019cab0372956de0c1ee2,1,122,284,86,1,eightsix,,,,,,,,,,,,,,,,,,,,,,,,,,,,,,,,,,,,,,,,,,,,,,,,,,,,,,,,,,,,,,,,,,,,,,,,,,,,,,,,,,,,,
605d34ffa51bd5dd5f8fad8e,2023-11-24_24h35.59.839,kallum_motion_pilot,2023.1.2,Win32,59.98080614,605d34ffa51bd5dd5f8fad8e,656018846682f3df8008bb8f,656019cab0372956de0c1ee2,1,123,285,92,1,sevenfive,,,,,,,,,,,,,,,,,,,,,,,,,,,,,,,,,,,,,,,,,,,,,,,,,,,,,,,,,,,,,,,,,,,,,,,,,,,,,,,,,,,,,
605d34ffa51bd5dd5f8fad8e,2023-11-24_24h35.59.839,kallum_motion_pilot,2023.1.2,Win32,59.98080614,605d34ffa51bd5dd5f8fad8e,656018846682f3df8008bb8f,656019cab0372956de0c1ee2,1,124,286,37,1,threefour,,,,,,,,,,,,,,,,,,,,,,,,,,,,,,,,,,,,,,,,,,,,,,,,,,,,,,,,,,,,,,,,,,,,,,,,,,,,,,,,,,,,,
605d34ffa51bd5dd5f8fad8e,2023-11-24_24h35.59.839,kallum_motion_pilot,2023.1.2,Win32,59.98080614,605d34ffa51bd5dd5f8fad8e,656018846682f3df8008bb8f,656019cab0372956de0c1ee2,1,125,287,121,1,fiveseven,,,,,,,,,,,,,,,,,,,,,,,,,,,,,,,,,,,,,,,,,,,,,,,,,,,,,,,,,,,,,,,,,,,,,,,,,,,,,,,,,,,,,
605d34ffa51bd5dd5f8fad8e,2023-11-24_24h35.59.839,kallum_motion_pilot,2023.1.2,Win32,59.98080614,605d34ffa51bd5dd5f8fad8e,656018846682f3df8008bb8f,656019cab0372956de0c1ee2,1,126,288,107,1,sixeight,,,,,,,,,,,,,,,,,,,,,,,,,,,,,,,,,,,,,,,,,,,,,,,,,,,,,,,,,,,,,,,,,,,,,,,,,,,,,,,,,,,,,
605d34ffa51bd5dd5f8fad8e,2023-11-24_24h35.59.839,kallum_motion_pilot,2023.1.2,Win32,59.98080614,605d34ffa51bd5dd5f8fad8e,656018846682f3df8008bb8f,656019cab0372956de0c1ee2,1,127,289,57,1,onethree,,,,,,,,,,,,,,,,,,,,,,,,,,,,,,,,,,,,,,,,,,,,,,,,,,,,,,,,,,,,,,,,,,,,,,,,,,,,,,,,,,,,,
605d34ffa51bd5dd5f8fad8e,2023-11-24_24h35.59.839,kallum_motion_pilot,2023.1.2,Win32,59.98080614,605d34ffa51bd5dd5f8fad8e,656018846682f3df8008bb8f,656019cab0372956de0c1ee2,1,128,290,133,1,seveneight,,,,,,,,,,,,,,,,,,,,,,,,,,,,,,,,,,,,,,,,,,,,,,,,,,,,,,,,,,,,,,,,,,,,,,,,,,,,,,,,,,,,,
605d34ffa51bd5dd5f8fad8e,2023-11-24_24h35.59.839,kallum_motion_pilot,2023.1.2,Win32,59.98080614,605d34ffa51bd5dd5f8fad8e,656018846682f3df8008bb8f,656019cab0372956de0c1ee2,1,129,291,126,1,eightsix,,,,,,,,,,,,,,,,,,,,,,,,,,,,,,,,,,,,,,,,,,,,,,,,,,,,,,,,,,,,,,,,,,,,,,,,,,,,,,,,,,,,,
605d34ffa51bd5dd5f8fad8e,2023-11-24_24h35.59.839,kallum_motion_pilot,2023.1.2,Win32,59.98080614,605d34ffa51bd5dd5f8fad8e,656018846682f3df8008bb8f,656019cab0372956de0c1ee2,1,130,292,56,1,onetwo,,,,,,,,,,,,,,,,,,,,,,,,,,,,,,,,,,,,,,,,,,,,,,,,,,,,,,,,,,,,,,,,,,,,,,,,,,,,,,,,,,,,,
605d34ffa51bd5dd5f8fad8e,2023-11-24_24h35.59.839,kallum_motion_pilot,2023.1.2,Win32,59.98080614,605d34ffa51bd5dd5f8fad8e,656018846682f3df8008bb8f,656019cab0372956de0c1ee2,1,131,293,46,1,fourtwo,,,,,,,,,,,,,,,,,,,,,,,,,,,,,,,,,,,,,,,,,,,,,,,,,,,,,,,,,,,,,,,,,,,,,,,,,,,,,,,,,,,,,
605d34ffa51bd5dd5f8fad8e,2023-11-24_24h35.59.839,kallum_motion_pilot,2023.1.2,Win32,59.98080614,605d34ffa51bd5dd5f8fad8e,656018846682f3df8008bb8f,656019cab0372956de0c1ee2,1,132,294,32,1,onetwo,,,,,,,,,,,,,,,,,,,,,,,,,,,,,,,,,,,,,,,,,,,,,,,,,,,,,,,,,,,,,,,,,,,,,,,,,,,,,,,,,,,,,
605d34ffa51bd5dd5f8fad8e,2023-11-24_24h35.59.839,kallum_motion_pilot,2023.1.2,Win32,59.98080614,605d34ffa51bd5dd5f8fad8e,656018846682f3df8008bb8f,656019cab0372956de0c1ee2,1,133,295,61,1,threefour,,,,,,,,,,,,,,,,,,,,,,,,,,,,,,,,,,,,,,,,,,,,,,,,,,,,,,,,,,,,,,,,,,,,,,,,,,,,,,,,,,,,,
605d34ffa51bd5dd5f8fad8e,2023-11-24_24h35.59.839,kallum_motion_pilot,2023.1.2,Win32,59.98080614,605d34ffa51bd5dd5f8fad8e,656018846682f3df8008bb8f,656019cab0372956de0c1ee2,1,134,296,50,1,twoone,,,,,,,,,,,,,,,,,,,,,,,,,,,,,,,,,,,,,,,,,,,,,,,,,,,,,,,,,,,,,,,,,,,,,,,,,,,,,,,,,,,,,
605d34ffa51bd5dd5f8fad8e,2023-11-24_24h35.59.839,kallum_motion_pilot,2023.1.2,Win32,59.98080614,605d34ffa51bd5dd5f8fad8e,656018846682f3df8008bb8f,656019cab0372956de0c1ee2,1,135,297,44,1,threeone,,,,,,,,,,,,,,,,,,,,,,,,,,,,,,,,,,,,,,,,,,,,,,,,,,,,,,,,,,,,,,,,,,,,,,,,,,,,,,,,,,,,,
605d34ffa51bd5dd5f8fad8e,2023-11-24_24h35.59.839,kallum_motion_pilot,2023.1.2,Win32,59.98080614,605d34ffa51bd5dd5f8fad8e,656018846682f3df8008bb8f,656019cab0372956de0c1ee2,1,136,298,82,1,sixfive,,,,,,,,,,,,,,,,,,,,,,,,,,,,,,,,,,,,,,,,,,,,,,,,,,,,,,,,,,,,,,,,,,,,,,,,,,,,,,,,,,,,,
605d34ffa51bd5dd5f8fad8e,2023-11-24_24h35.59.839,kallum_motion_pilot,2023.1.2,Win32,59.98080614,605d34ffa51bd5dd5f8fad8e,656018846682f3df8008bb8f,656019cab0372956de0c1ee2,1,137,299,11,1,twofour,,,,,,,,,,,,,,,,,,,,,,,,,,,,,,,,,,,,,,,,,,,,,,,,,,,,,,,,,,,,,,,,,,,,,,,,,,,,,,,,,,,,,
605d34ffa51bd5dd5f8fad8e,2023-11-24_24h35.59.839,kallum_motion_pilot,2023.1.2,Win32,59.98080614,605d34ffa51bd5dd5f8fad8e,656018846682f3df8008bb8f,656019cab0372956de0c1ee2,1,138,300,47,1,fourthree,,,,,,,,,,,,,,,,,,,,,,,,,,,,,,,,,,,,,,,,,,,,,,,,,,,,,,,,,,,,,,,,,,,,,,,,,,,,,,,,,,,,,
605d34ffa51bd5dd5f8fad8e,2023-11-24_24h35.59.839,kallum_motion_pilot,2023.1.2,Win32,59.98080614,605d34ffa51bd5dd5f8fad8e,656018846682f3df8008bb8f,656019cab0372956de0c1ee2,1,139,301,79,1,eightseven,,,,,,,,,,,,,,,,,,,,,,,,,,,,,,,,,,,,,,,,,,,,,,,,,,,,,,,,,,,,,,,,,,,,,,,,,,,,,,,,,,,,,
605d34ffa51bd5dd5f8fad8e,2023-11-24_24h35.59.839,kallum_motion_pilot,2023.1.2,Win32,59.98080614,605d34ffa51bd5dd5f8fad8e,656018846682f3df8008bb8f,656019cab0372956de0c1ee2,1,140,302,26,1,twoone,,,,,,,,,,,,,,,,,,,,,,,,,,,,,,,,,,,,,,,,,,,,,,,,,,,,,,,,,,,,,,,,,,,,,,,,,,,,,,,,,,,,,
605d34ffa51bd5dd5f8fad8e,2023-11-24_24h35.59.839,kallum_motion_pilot,2023.1.2,Win32,59.98080614,605d34ffa51bd5dd5f8fad8e,656018846682f3df8008bb8f,656019cab0372956de0c1ee2,1,141,303,72,1,onetwo,,,,,,,,,,,,,,,,,,,,,,,,,,,,,,,,,,,,,,,,,,,,,,,,,,,,,,,,,,,,,,,,,,,,,,,,,,,,,,,,,,,,,
605d34ffa51bd5dd5f8fad8e,2023-11-24_24h35.59.839,kallum_motion_pilot,2023.1.2,Win32,59.98080614,605d34ffa51bd5dd5f8fad8e,656018846682f3df8008bb8f,656019cab0372956de0c1ee2,1,142,304,5,1,threefour,,,,,,,,,,,,,,,,,,,,,,,,,,,,,,,,,,,,,,,,,,,,,,,,,,,,,,,,,,,,,,,,,,,,,,,,,,,,,,,,,,,,,
605d34ffa51bd5dd5f8fad8e,2023-11-24_24h35.59.839,kallum_motion_pilot,2023.1.2,Win32,59.98080614,605d34ffa51bd5dd5f8fad8e,656018846682f3df8008bb8f,656019cab0372956de0c1ee2,1,143,305,83,1,sixeight,,,,,,,,,,,,,,,,,,,,,,,,,,,,,,,,,,,,,,,,,,,,,,,,,,,,,,,,,,,,,,,,,,,,,,,,,,,,,,,,,,,,,
605d34ffa51bd5dd5f8fad8e,2023-11-24_24h35.59.839,kallum_motion_pilot,2023.1.2,Win32,59.98080614,605d34ffa51bd5dd5f8fad8e,656018846682f3df8008bb8f,656019cab0372956de0c1ee2,1,144,306,23,1,fourthree,,,,,,,,,,,,,,,,,,,,,,,,,,,,,,,,,,,,,,,,,,,,,,,,,,,,,,,,,,,,,,,,,,,,,,,,,,,,,,,,,,,,,
605d34ffa51bd5dd5f8fad8e,2023-11-24_24h35.59.839,kallum_motion_pilot,2023.1.2,Win32,59.98080614,605d34ffa51bd5dd5f8fad8e,656018846682f3df8008bb8f,656019cab0372956de0c1ee2,1,145,307,91,1,sixeight,,,,,,,,,,,,,,,,,,,,,,,,,,,,,,,,,,,,,,,,,,,,,,,,,,,,,,,,,,,,,,,,,,,,,,,,,,,,,,,,,,,,,
605d34ffa51bd5dd5f8fad8e,2023-11-24_24h35.59.839,kallum_motion_pilot,2023.1.2,Win32,59.98080614,605d34ffa51bd5dd5f8fad8e,656018846682f3df8008bb8f,656019cab0372956de0c1ee2,1,146,308,31,1,fourthree,,,,,,,,,,,,,,,,,,,,,,,,,,,,,,,,,,,,,,,,,,,,,,,,,,,,,,,,,,,,,,,,,,,,,,,,,,,,,,,,,,,,,
605d34ffa51bd5dd5f8fad8e,2023-11-24_24h35.59.839,kallum_motion_pilot,2023.1.2,Win32,59.98080614,605d34ffa51bd5dd5f8fad8e,656018846682f3df8008bb8f,656019cab0372956de0c1ee2,1,147,309,124,1,sevenfive,,,,,,,,,,,,,,,,,,,,,,,,,,,,,,,,,,,,,,,,,,,,,,,,,,,,,,,,,,,,,,,,,,,,,,,,,,,,,,,,,,,,,
605d34ffa51bd5dd5f8fad8e,2023-11-24_24h35.59.839,kallum_motion_pilot,2023.1.2,Win32,59.98080614,605d34ffa51bd5dd5f8fad8e,656018846682f3df8008bb8f,656019cab0372956de0c1ee2,1,148,310,120,1,fivesix,,,,,,,,,,,,,,,,,,,,,,,,,,,,,,,,,,,,,,,,,,,,,,,,,,,,,,,,,,,,,,,,,,,,,,,,,,,,,,,,,,,,,
605d34ffa51bd5dd5f8fad8e,2023-11-24_24h35.59.839,kallum_motion_pilot,2023.1.2,Win32,59.98080614,605d34ffa51bd5dd5f8fad8e,656018846682f3df8008bb8f,656019cab0372956de0c1ee2,1,149,311,0,1,onetwo,,,,,,,,,,,,,,,,,,,,,,,,,,,,,,,,,,,,,,,,,,,,,,,,,,,,,,,,,,,,,,,,,,,,,,,,,,,,,,,,,,,,,
605d34ffa51bd5dd5f8fad8e,2023-11-24_24h35.59.839,kallum_motion_pilot,2023.1.2,Win32,59.98080614,605d34ffa51bd5dd5f8fad8e,656018846682f3df8008bb8f,656019cab0372956de0c1ee2,1,150,312,75,1,twofour,,,,,,,,,,,,,,,,,,,,,,,,,,,,,,,,,,,,,,,,,,,,,,,,,,,,,,,,,,,,,,,,,,,,,,,,,,,,,,,,,,,,,
605d34ffa51bd5dd5f8fad8e,2023-11-24_24h35.59.839,kallum_motion_pilot,2023.1.2,Win32,59.98080614,605d34ffa51bd5dd5f8fad8e,656018846682f3df8008bb8f,656019cab0372956de0c1ee2,1,151,313,54,1,fourtwo,,,,,,,,,,,,,,,,,,,,,,,,,,,,,,,,,,,,,,,,,,,,,,,,,,,,,,,,,,,,,,,,,,,,,,,,,,,,,,,,,,,,,
605d34ffa51bd5dd5f8fad8e,2023-11-24_24h35.59.839,kallum_motion_pilot,2023.1.2,Win32,59.98080614,605d34ffa51bd5dd5f8fad8e,656018846682f3df8008bb8f,656019cab0372956de0c1ee2,1,152,314,65,1,onethree,,,,,,,,,,,,,,,,,,,,,,,,,,,,,,,,,,,,,,,,,,,,,,,,,,,,,,,,,,,,,,,,,,,,,,,,,,,,,,,,,,,,,
605d34ffa51bd5dd5f8fad8e,2023-11-24_24h35.59.839,kallum_motion_pilot,2023.1.2,Win32,59.98080614,605d34ffa51bd5dd5f8fad8e,656018846682f3df8008bb8f,656019cab0372956de0c1ee2,1,153,315,142,1,eightsix,,,,,,,,,,,,,,,,,,,,,,,,,,,,,,,,,,,,,,,,,,,,,,,,,,,,,,,,,,,,,,,,,,,,,,,,,,,,,,,,,,,,,
605d34ffa51bd5dd5f8fad8e,2023-11-24_24h35.59.839,kallum_motion_pilot,2023.1.2,Win32,59.98080614,605d34ffa51bd5dd5f8fad8e,656018846682f3df8008bb8f,656019cab0372956de0c1ee2,1,154,316,114,1,sixfive,,,,,,,,,,,,,,,,,,,,,,,,,,,,,,,,,,,,,,,,,,,,,,,,,,,,,,,,,,,,,,,,,,,,,,,,,,,,,,,,,,,,,
605d34ffa51bd5dd5f8fad8e,2023-11-24_24h35.59.839,kallum_motion_pilot,2023.1.2,Win32,59.98080614,605d34ffa51bd5dd5f8fad8e,656018846682f3df8008bb8f,656019cab0372956de0c1ee2,1,155,317,58,1,twoone,,,,,,,,,,,,,,,,,,,,,,,,,,,,,,,,,,,,,,,,,,,,,,,,,,,,,,,,,,,,,,,,,,,,,,,,,,,,,,,,,,,,,
605d34ffa51bd5dd5f8fad8e,2023-11-24_24h35.59.839,kallum_motion_pilot,2023.1.2,Win32,59.98080614,605d34ffa51bd5dd5f8fad8e,656018846682f3df8008bb8f,656019cab0372956de0c1ee2,1,156,318,99,1,sixeight,,,,,,,,,,,,,,,,,,,,,,,,,,,,,,,,,,,,,,,,,,,,,,,,,,,,,,,,,,,,,,,,,,,,,,,,,,,,,,,,,,,,,
605d34ffa51bd5dd5f8fad8e,2023-11-24_24h35.59.839,kallum_motion_pilot,2023.1.2,Win32,59.98080614,605d34ffa51bd5dd5f8fad8e,656018846682f3df8008bb8f,656019cab0372956de0c1ee2,1,157,319,132,1,sevenfive,,,,,,,,,,,,,,,,,,,,,,,,,,,,,,,,,,,,,,,,,,,,,,,,,,,,,,,,,,,,,,,,,,,,,,,,,,,,,,,,,,,,,
605d34ffa51bd5dd5f8fad8e,2023-11-24_24h35.59.839,kallum_motion_pilot,2023.1.2,Win32,59.98080614,605d34ffa51bd5dd5f8fad8e,656018846682f3df8008bb8f,656019cab0372956de0c1ee2,1,158,320,136,1,fivesix,,,,,,,,,,,,,,,,,,,,,,,,,,,,,,,,,,,,,,,,,,,,,,,,,,,,,,,,,,,,,,,,,,,,,,,,,,,,,,,,,,,,,
605d34ffa51bd5dd5f8fad8e,2023-11-24_24h35.59.839,kallum_motion_pilot,2023.1.2,Win32,59.98080614,605d34ffa51bd5dd5f8fad8e,656018846682f3df8008bb8f,656019cab0372956de0c1ee2,1,159,321,130,1,sixfive,,,,,,,,,,,,,,,,,,,,,,,,,,,,,,,,,,,,,,,,,,,,,,,,,,,,,,,,,,,,,,,,,,,,,,,,,,,,,,,,,,,,,
605d34ffa51bd5dd5f8fad8e,2023-11-24_24h35.59.839,kallum_motion_pilot,2023.1.2,Win32,59.98080614,605d34ffa51bd5dd5f8fad8e,656018846682f3df8008bb8f,656019cab0372956de0c1ee2,1,160,322,42,1,twoone,,,,,,,,,,,,,,,,,,,,,,,,,,,,,,,,,,,,,,,,,,,,,,,,,,,,,,,,,,,,,,,,,,,,,,,,,,,,,,,,,,,,,
605d34ffa51bd5dd5f8fad8e,2023-11-24_24h35.59.839,kallum_motion_pilot,2023.1.2,Win32,59.98080614,605d34ffa51bd5dd5f8fad8e,656018846682f3df8008bb8f,656019cab0372956de0c1ee2,1,161,323,51,1,twofour,,,,,,,,,,,,,,,,,,,,,,,,,,,,,,,,,,,,,,,,,,,,,,,,,,,,,,,,,,,,,,,,,,,,,,,,,,,,,,,,,,,,,
605d34ffa51bd5dd5f8fad8e,2023-11-24_24h35.59.839,kallum_motion_pilot,2023.1.2,Win32,59.98080614,605d34ffa51bd5dd5f8fad8e,656018846682f3df8008bb8f,656019cab0372956de0c1ee2,2,0,324,128,1,fivesix,,,,,,,,,,,,,,,,,,,,,,,,,,,,,,,,,,,,,,,,,,,,,,,,,,,,,,,,,,,,,,,,,,,,,,,,,,,,,,,,,,,,,
605d34ffa51bd5dd5f8fad8e,2023-11-24_24h35.59.839,kallum_motion_pilot,2023.1.2,Win32,59.98080614,605d34ffa51bd5dd5f8fad8e,656018846682f3df8008bb8f,656019cab0372956de0c1ee2,2,1,325,107,1,sixeight,,,,,,,,,,,,,,,,,,,,,,,,,,,,,,,,,,,,,,,,,,,,,,,,,,,,,,,,,,,,,,,,,,,,,,,,,,,,,,,,,,,,,
605d34ffa51bd5dd5f8fad8e,2023-11-24_24h35.59.839,kallum_motion_pilot,2023.1.2,Win32,59.98080614,605d34ffa51bd5dd5f8fad8e,656018846682f3df8008bb8f,656019cab0372956de0c1ee2,2,2,326,153,1,fiveseven,,,,,,,,,,,,,,,,,,,,,,,,,,,,,,,,,,,,,,,,,,,,,,,,,,,,,,,,,,,,,,,,,,,,,,,,,,,,,,,,,,,,,
605d34ffa51bd5dd5f8fad8e,2023-11-24_24h35.59.839,kallum_motion_pilot,2023.1.2,Win32,59.98080614,605d34ffa51bd5dd5f8fad8e,656018846682f3df8008bb8f,656019cab0372956de0c1ee2,2,3,327,97,1,fiveseven,,,,,,,,,,,,,,,,,,,,,,,,,,,,,,,,,,,,,,,,,,,,,,,,,,,,,,,,,,,,,,,,,,,,,,,,,,,,,,,,,,,,,
605d34ffa51bd5dd5f8fad8e,2023-11-24_24h35.59.839,kallum_motion_pilot,2023.1.2,Win32,59.98080614,605d34ffa51bd5dd5f8fad8e,656018846682f3df8008bb8f,656019cab0372956de0c1ee2,2,4,328,158,1,eightsix,,,,,,,,,,,,,,,,,,,,,,,,,,,,,,,,,,,,,,,,,,,,,,,,,,,,,,,,,,,,,,,,,,,,,,,,,,,,,,,,,,,,,
605d34ffa51bd5dd5f8fad8e,2023-11-24_24h35.59.839,kallum_motion_pilot,2023.1.2,Win32,59.98080614,605d34ffa51bd5dd5f8fad8e,656018846682f3df8008bb8f,656019cab0372956de0c1ee2,2,5,329,44,1,threeone,,,,,,,,,,,,,,,,,,,,,,,,,,,,,,,,,,,,,,,,,,,,,,,,,,,,,,,,,,,,,,,,,,,,,,,,,,,,,,,,,,,,,
605d34ffa51bd5dd5f8fad8e,2023-11-24_24h35.59.839,kallum_motion_pilot,2023.1.2,Win32,59.98080614,605d34ffa51bd5dd5f8fad8e,656018846682f3df8008bb8f,656019cab0372956de0c1ee2,2,6,330,62,1,fourtwo,,,,,,,,,,,,,,,,,,,,,,,,,,,,,,,,,,,,,,,,,,,,,,,,,,,,,,,,,,,,,,,,,,,,,,,,,,,,,,,,,,,,,
605d34ffa51bd5dd5f8fad8e,2023-11-24_24h35.59.839,kallum_motion_pilot,2023.1.2,Win32,59.98080614,605d34ffa51bd5dd5f8fad8e,656018846682f3df8008bb8f,656019cab0372956de0c1ee2,2,7,331,23,1,fourthree,,,,,,,,,,,,,,,,,,,,,,,,,,,,,,,,,,,,,,,,,,,,,,,,,,,,,,,,,,,,,,,,,,,,,,,,,,,,,,,,,,,,,
605d34ffa51bd5dd5f8fad8e,2023-11-24_24h35.59.839,kallum_motion_pilot,2023.1.2,Win32,59.98080614,605d34ffa51bd5dd5f8fad8e,656018846682f3df8008bb8f,656019cab0372956de0c1ee2,2,8,332,134,1,eightsix,,,,,,,,,,,,,,,,,,,,,,,,,,,,,,,,,,,,,,,,,,,,,,,,,,,,,,,,,,,,,,,,,,,,,,,,,,,,,,,,,,,,,
605d34ffa51bd5dd5f8fad8e,2023-11-24_24h35.59.839,kallum_motion_pilot,2023.1.2,Win32,59.98080614,605d34ffa51bd5dd5f8fad8e,656018846682f3df8008bb8f,656019cab0372956de0c1ee2,2,9,333,5,1,threefour,,,,,,,,,,,,,,,,,,,,,,,,,,,,,,,,,,,,,,,,,,,,,,,,,,,,,,,,,,,,,,,,,,,,,,,,,,,,,,,,,,,,,
605d34ffa51bd5dd5f8fad8e,2023-11-24_24h35.59.839,kallum_motion_pilot,2023.1.2,Win32,59.98080614,605d34ffa51bd5dd5f8fad8e,656018846682f3df8008bb8f,656019cab0372956de0c1ee2,2,10,334,41,1,onethree,,,,,,,,,,,,,,,,,,,,,,,,,,,,,,,,,,,,,,,,,,,,,,,,,,,,,,,,,,,,,,,,,,,,,,,,,,,,,,,,,,,,,
605d34ffa51bd5dd5f8fad8e,2023-11-24_24h35.59.839,kallum_motion_pilot,2023.1.2,Win32,59.98080614,605d34ffa51bd5dd5f8fad8e,656018846682f3df8008bb8f,656019cab0372956de0c1ee2,2,11,335,135,1,eightseven,,,,,,,,,,,,,,,,,,,,,,,,,,,,,,,,,,,,,,,,,,,,,,,,,,,,,,,,,,,,,,,,,,,,,,,,,,,,,,,,,,,,,
605d34ffa51bd5dd5f8fad8e,2023-11-24_24h35.59.839,kallum_motion_pilot,2023.1.2,Win32,59.98080614,605d34ffa51bd5dd5f8fad8e,656018846682f3df8008bb8f,656019cab0372956de0c1ee2,2,12,336,4,1,threeone,,,,,,,,,,,,,,,,,,,,,,,,,,,,,,,,,,,,,,,,,,,,,,,,,,,,,,,,,,,,,,,,,,,,,,,,,,,,,,,,,,,,,
605d34ffa51bd5dd5f8fad8e,2023-11-24_24h35.59.839,kallum_motion_pilot,2023.1.2,Win32,59.98080614,605d34ffa51bd5dd5f8fad8e,656018846682f3df8008bb8f,656019cab0372956de0c1ee2,2,13,337,14,1,fourtwo,,,,,,,,,,,,,,,,,,,,,,,,,,,,,,,,,,,,,,,,,,,,,,,,,,,,,,,,,,,,,,,,,,,,,,,,,,,,,,,,,,,,,
605d34ffa51bd5dd5f8fad8e,2023-11-24_24h35.59.839,kallum_motion_pilot,2023.1.2,Win32,59.98080614,605d34ffa51bd5dd5f8fad8e,656018846682f3df8008bb8f,656019cab0372956de0c1ee2,2,14,338,144,1,fivesix,,,,,,,,,,,,,,,,,,,,,,,,,,,,,,,,,,,,,,,,,,,,,,,,,,,,,,,,,,,,,,,,,,,,,,,,,,,,,,,,,,,,,
605d34ffa51bd5dd5f8fad8e,2023-11-24_24h35.59.839,kallum_motion_pilot,2023.1.2,Win32,59.98080614,605d34ffa51bd5dd5f8fad8e,656018846682f3df8008bb8f,656019cab0372956de0c1ee2,2,15,339,129,1,fiveseven,,,,,,,,,,,,,,,,,,,,,,,,,,,,,,,,,,,,,,,,,,,,,,,,,,,,,,,,,,,,,,,,,,,,,,,,,,,,,,,,,,,,,
605d34ffa51bd5dd5f8fad8e,2023-11-24_24h35.59.839,kallum_motion_pilot,2023.1.2,Win32,59.98080614,605d34ffa51bd5dd5f8fad8e,656018846682f3df8008bb8f,656019cab0372956de0c1ee2,2,16,340,89,1,fiveseven,,,,,,,,,,,,,,,,,,,,,,,,,,,,,,,,,,,,,,,,,,,,,,,,,,,,,,,,,,,,,,,,,,,,,,,,,,,,,,,,,,,,,
605d34ffa51bd5dd5f8fad8e,2023-11-24_24h35.59.839,kallum_motion_pilot,2023.1.2,Win32,59.98080614,605d34ffa51bd5dd5f8fad8e,656018846682f3df8008bb8f,656019cab0372956de0c1ee2,2,17,341,131,1,sixeight,,,,,,,,,,,,,,,,,,,,,,,,,,,,,,,,,,,,,,,,,,,,,,,,,,,,,,,,,,,,,,,,,,,,,,,,,,,,,,,,,,,,,
605d34ffa51bd5dd5f8fad8e,2023-11-24_24h35.59.839,kallum_motion_pilot,2023.1.2,Win32,59.98080614,605d34ffa51bd5dd5f8fad8e,656018846682f3df8008bb8f,656019cab0372956de0c1ee2,2,18,342,124,1,sevenfive,,,,,,,,,,,,,,,,,,,,,,,,,,,,,,,,,,,,,,,,,,,,,,,,,,,,,,,,,,,,,,,,,,,,,,,,,,,,,,,,,,,,,
605d34ffa51bd5dd5f8fad8e,2023-11-24_24h35.59.839,kallum_motion_pilot,2023.1.2,Win32,59.98080614,605d34ffa51bd5dd5f8fad8e,656018846682f3df8008bb8f,656019cab0372956de0c1ee2,2,19,343,83,1,sixeight,,,,,,,,,,,,,,,,,,,,,,,,,,,,,,,,,,,,,,,,,,,,,,,,,,,,,,,,,,,,,,,,,,,,,,,,,,,,,,,,,,,,,
605d34ffa51bd5dd5f8fad8e,2023-11-24_24h35.59.839,kallum_motion_pilot,2023.1.2,Win32,59.98080614,605d34ffa51bd5dd5f8fad8e,656018846682f3df8008bb8f,656019cab0372956de0c1ee2,2,20,344,51,1,twofour,,,,,,,,,,,,,,,,,,,,,,,,,,,,,,,,,,,,,,,,,,,,,,,,,,,,,,,,,,,,,,,,,,,,,,,,,,,,,,,,,,,,,
605d34ffa51bd5dd5f8fad8e,2023-11-24_24h35.59.839,kallum_motion_pilot,2023.1.2,Win32,59.98080614,605d34ffa51bd5dd5f8fad8e,656018846682f3df8008bb8f,656019cab0372956de0c1ee2,2,21,345,73,1,onethree,,,,,,,,,,,,,,,,,,,,,,,,,,,,,,,,,,,,,,,,,,,,,,,,,,,,,,,,,,,,,,,,,,,,,,,,,,,,,,,,,,,,,
605d34ffa51bd5dd5f8fad8e,2023-11-24_24h35.59.839,kallum_motion_pilot,2023.1.2,Win32,59.98080614,605d34ffa51bd5dd5f8fad8e,656018846682f3df8008bb8f,656019cab0372956de0c1ee2,2,22,346,78,1,fourtwo,,,,,,,,,,,,,,,,,,,,,,,,,,,,,,,,,,,,,,,,,,,,,,,,,,,,,,,,,,,,,,,,,,,,,,,,,,,,,,,,,,,,,
605d34ffa51bd5dd5f8fad8e,2023-11-24_24h35.59.839,kallum_motion_pilot,2023.1.2,Win32,59.98080614,605d34ffa51bd5dd5f8fad8e,656018846682f3df8008bb8f,656019cab0372956de0c1ee2,2,23,347,94,1,eightsix,,,,,,,,,,,,,,,,,,,,,,,,,,,,,,,,,,,,,,,,,,,,,,,,,,,,,,,,,,,,,,,,,,,,,,,,,,,,,,,,,,,,,
605d34ffa51bd5dd5f8fad8e,2023-11-24_24h35.59.839,kallum_motion_pilot,2023.1.2,Win32,59.98080614,605d34ffa51bd5dd5f8fad8e,656018846682f3df8008bb8f,656019cab0372956de0c1ee2,2,24,348,105,1,fiveseven,,,,,,,,,,,,,,,,,,,,,,,,,,,,,,,,,,,,,,,,,,,,,,,,,,,,,,,,,,,,,,,,,,,,,,,,,,,,,,,,,,,,,
605d34ffa51bd5dd5f8fad8e,2023-11-24_24h35.59.839,kallum_motion_pilot,2023.1.2,Win32,59.98080614,605d34ffa51bd5dd5f8fad8e,656018846682f3df8008bb8f,656019cab0372956de0c1ee2,2,25,349,33,1,onethree,,,,,,,,,,,,,,,,,,,,,,,,,,,,,,,,,,,,,,,,,,,,,,,,,,,,,,,,,,,,,,,,,,,,,,,,,,,,,,,,,,,,,
