Prolific_ID*,date,expName,psychopyVersion,OS,frameRate,PROLIFIC_PID,STUDY_ID,SESSION_ID,hardcoded_stimulus_positions.thisRepN,hardcoded_stimulus_positions.thisTrialN,hardcoded_stimulus_positions.thisN,hardcoded_stimulus_positions.thisIndex,hardcoded_stimulus_positions.ran,StimulusPos,prac_stimorientation_import_loop.thisRepN,prac_stimorientation_import_loop.thisTrialN,prac_stimorientation_import_loop.thisN,prac_stimorientation_import_loop.thisIndex,prac_stimorientation_import_loop.ran,Stimorientation,key_resp.keys,key_resp.rt,key_resp_20.keys,key_resp_20.rt,key_resp_19.keys,key_resp_19.rt,key_resp_15.keys,key_resp_15.rt,key_resp_9.keys,key_resp_9.rt,key_resp_10.keys,key_resp_10.rt,Ecc,Circle1_ori,Circle2_ori,similarity,response_time,mouse_5.x,mouse_5.y,mouse_5.leftButton,mouse_5.midButton,mouse_5.rightButton,mouse_5.clicked_name,mouse_6.x,mouse_6.y,mouse_6.leftButton,mouse_6.midButton,mouse_6.rightButton,mouse_6.clicked_name,duringprac.thisRepN,duringprac.thisTrialN,duringprac.thisN,duringprac.thisIndex,duringprac.ran,key_resp_22.keys,key_resp_22.rt,circle1_ori,circle2_ori,mouse.x,mouse.y,mouse.leftButton,mouse.midButton,mouse.rightButton,mouse.clicked_name,mouse_2.x,mouse_2.y,mouse_2.leftButton,mouse_2.midButton,mouse_2.rightButton,mouse_2.clicked_name,mouse_3.x,mouse_3.y,mouse_3.leftButton,mouse_3.midButton,mouse_3.rightButton,catchresponse,catchnumber,response_time_catch,Catch,mouse_11.x,mouse_11.y,mouse_11.leftButton,mouse_11.midButton,mouse_11.rightButton,main_trial.thisRepN,main_trial.thisTrialN,main_trial.thisN,main_trial.thisIndex,main_trial.ran,Orientationtrialno,xcircle1_ori,xcircle2_ori,double_pass.thisRepN,double_pass.thisTrialN,double_pass.thisN,double_pass.thisIndex,double_pass.ran,key_resp_3.keys,key_resp_3.rt
5df6304773d724428a9cff45,2023-11-24_03h34.59.051,kallum_motion_pilot,2023.1.2,Win32,119.8035222,5df6304773d724428a9cff45,656018846682f3df8008bb8f,656019cf810898dd828156ab,,,,,,,,,,,,,,,,,,,,,,,,,,,,,,,,,,,,,,,,,,,,,,,,,,,,,,,,,,,,,,,,,,,,,,,,,,,,,,,,,,,,,,,,,,,
5df6304773d724428a9cff45,2023-11-24_03h34.59.051,kallum_motion_pilot,2023.1.2,Win32,119.8035222,5df6304773d724428a9cff45,656018846682f3df8008bb8f,656019cf810898dd828156ab,0,0,0,147,1,sixeight,,,,,,,,,,,,,,,,,,,,,,,,,,,,,,,,,,,,,,,,,,,,,,,,,,,,,,,,,,,,,,,,,,,,,,,,,,,,,,,,,,,,,
5df6304773d724428a9cff45,2023-11-24_03h34.59.051,kallum_motion_pilot,2023.1.2,Win32,119.8035222,5df6304773d724428a9cff45,656018846682f3df8008bb8f,656019cf810898dd828156ab,0,1,1,96,1,fivesix,,,,,,,,,,,,,,,,,,,,,,,,,,,,,,,,,,,,,,,,,,,,,,,,,,,,,,,,,,,,,,,,,,,,,,,,,,,,,,,,,,,,,
5df6304773d724428a9cff45,2023-11-24_03h34.59.051,kallum_motion_pilot,2023.1.2,Win32,119.8035222,5df6304773d724428a9cff45,656018846682f3df8008bb8f,656019cf810898dd828156ab,0,2,2,35,1,twofour,,,,,,,,,,,,,,,,,,,,,,,,,,,,,,,,,,,,,,,,,,,,,,,,,,,,,,,,,,,,,,,,,,,,,,,,,,,,,,,,,,,,,
5df6304773d724428a9cff45,2023-11-24_03h34.59.051,kallum_motion_pilot,2023.1.2,Win32,119.8035222,5df6304773d724428a9cff45,656018846682f3df8008bb8f,656019cf810898dd828156ab,0,3,3,39,1,fourthree,,,,,,,,,,,,,,,,,,,,,,,,,,,,,,,,,,,,,,,,,,,,,,,,,,,,,,,,,,,,,,,,,,,,,,,,,,,,,,,,,,,,,
5df6304773d724428a9cff45,2023-11-24_03h34.59.051,kallum_motion_pilot,2023.1.2,Win32,119.8035222,5df6304773d724428a9cff45,656018846682f3df8008bb8f,656019cf810898dd828156ab,0,4,4,0,1,onetwo,,,,,,,,,,,,,,,,,,,,,,,,,,,,,,,,,,,,,,,,,,,,,,,,,,,,,,,,,,,,,,,,,,,,,,,,,,,,,,,,,,,,,
5df6304773d724428a9cff45,2023-11-24_03h34.59.051,kallum_motion_pilot,2023.1.2,Win32,119.8035222,5df6304773d724428a9cff45,656018846682f3df8008bb8f,656019cf810898dd828156ab,0,5,5,6,1,fourtwo,,,,,,,,,,,,,,,,,,,,,,,,,,,,,,,,,,,,,,,,,,,,,,,,,,,,,,,,,,,,,,,,,,,,,,,,,,,,,,,,,,,,,
5df6304773d724428a9cff45,2023-11-24_03h34.59.051,kallum_motion_pilot,2023.1.2,Win32,119.8035222,5df6304773d724428a9cff45,656018846682f3df8008bb8f,656019cf810898dd828156ab,0,6,6,48,1,onetwo,,,,,,,,,,,,,,,,,,,,,,,,,,,,,,,,,,,,,,,,,,,,,,,,,,,,,,,,,,,,,,,,,,,,,,,,,,,,,,,,,,,,,
5df6304773d724428a9cff45,2023-11-24_03h34.59.051,kallum_motion_pilot,2023.1.2,Win32,119.8035222,5df6304773d724428a9cff45,656018846682f3df8008bb8f,656019cf810898dd828156ab,0,7,7,7,1,fourthree,,,,,,,,,,,,,,,,,,,,,,,,,,,,,,,,,,,,,,,,,,,,,,,,,,,,,,,,,,,,,,,,,,,,,,,,,,,,,,,,,,,,,
5df6304773d724428a9cff45,2023-11-24_03h34.59.051,kallum_motion_pilot,2023.1.2,Win32,119.8035222,5df6304773d724428a9cff45,656018846682f3df8008bb8f,656019cf810898dd828156ab,0,8,8,31,1,fourthree,,,,,,,,,,,,,,,,,,,,,,,,,,,,,,,,,,,,,,,,,,,,,,,,,,,,,,,,,,,,,,,,,,,,,,,,,,,,,,,,,,,,,
5df6304773d724428a9cff45,2023-11-24_03h34.59.051,kallum_motion_pilot,2023.1.2,Win32,119.8035222,5df6304773d724428a9cff45,656018846682f3df8008bb8f,656019cf810898dd828156ab,0,9,9,84,1,sevenfive,,,,,,,,,,,,,,,,,,,,,,,,,,,,,,,,,,,,,,,,,,,,,,,,,,,,,,,,,,,,,,,,,,,,,,,,,,,,,,,,,,,,,
5df6304773d724428a9cff45,2023-11-24_03h34.59.051,kallum_motion_pilot,2023.1.2,Win32,119.8035222,5df6304773d724428a9cff45,656018846682f3df8008bb8f,656019cf810898dd828156ab,0,10,10,10,1,twoone,,,,,,,,,,,,,,,,,,,,,,,,,,,,,,,,,,,,,,,,,,,,,,,,,,,,,,,,,,,,,,,,,,,,,,,,,,,,,,,,,,,,,
5df6304773d724428a9cff45,2023-11-24_03h34.59.051,kallum_motion_pilot,2023.1.2,Win32,119.8035222,5df6304773d724428a9cff45,656018846682f3df8008bb8f,656019cf810898dd828156ab,0,11,11,155,1,sixeight,,,,,,,,,,,,,,,,,,,,,,,,,,,,,,,,,,,,,,,,,,,,,,,,,,,,,,,,,,,,,,,,,,,,,,,,,,,,,,,,,,,,,
5df6304773d724428a9cff45,2023-11-24_03h34.59.051,kallum_motion_pilot,2023.1.2,Win32,119.8035222,5df6304773d724428a9cff45,656018846682f3df8008bb8f,656019cf810898dd828156ab,0,12,12,149,1,seveneight,,,,,,,,,,,,,,,,,,,,,,,,,,,,,,,,,,,,,,,,,,,,,,,,,,,,,,,,,,,,,,,,,,,,,,,,,,,,,,,,,,,,,
5df6304773d724428a9cff45,2023-11-24_03h34.59.051,kallum_motion_pilot,2023.1.2,Win32,119.8035222,5df6304773d724428a9cff45,656018846682f3df8008bb8f,656019cf810898dd828156ab,0,13,13,89,1,fiveseven,,,,,,,,,,,,,,,,,,,,,,,,,,,,,,,,,,,,,,,,,,,,,,,,,,,,,,,,,,,,,,,,,,,,,,,,,,,,,,,,,,,,,
5df6304773d724428a9cff45,2023-11-24_03h34.59.051,kallum_motion_pilot,2023.1.2,Win32,119.8035222,5df6304773d724428a9cff45,656018846682f3df8008bb8f,656019cf810898dd828156ab,0,14,14,118,1,eightsix,,,,,,,,,,,,,,,,,,,,,,,,,,,,,,,,,,,,,,,,,,,,,,,,,,,,,,,,,,,,,,,,,,,,,,,,,,,,,,,,,,,,,
5df6304773d724428a9cff45,2023-11-24_03h34.59.051,kallum_motion_pilot,2023.1.2,Win32,119.8035222,5df6304773d724428a9cff45,656018846682f3df8008bb8f,656019cf810898dd828156ab,0,15,15,5,1,threefour,,,,,,,,,,,,,,,,,,,,,,,,,,,,,,,,,,,,,,,,,,,,,,,,,,,,,,,,,,,,,,,,,,,,,,,,,,,,,,,,,,,,,
5df6304773d724428a9cff45,2023-11-24_03h34.59.051,kallum_motion_pilot,2023.1.2,Win32,119.8035222,5df6304773d724428a9cff45,656018846682f3df8008bb8f,656019cf810898dd828156ab,0,16,16,159,1,eightseven,,,,,,,,,,,,,,,,,,,,,,,,,,,,,,,,,,,,,,,,,,,,,,,,,,,,,,,,,,,,,,,,,,,,,,,,,,,,,,,,,,,,,
5df6304773d724428a9cff45,2023-11-24_03h34.59.051,kallum_motion_pilot,2023.1.2,Win32,119.8035222,5df6304773d724428a9cff45,656018846682f3df8008bb8f,656019cf810898dd828156ab,0,17,17,148,1,sevenfive,,,,,,,,,,,,,,,,,,,,,,,,,,,,,,,,,,,,,,,,,,,,,,,,,,,,,,,,,,,,,,,,,,,,,,,,,,,,,,,,,,,,,
5df6304773d724428a9cff45,2023-11-24_03h34.59.051,kallum_motion_pilot,2023.1.2,Win32,119.8035222,5df6304773d724428a9cff45,656018846682f3df8008bb8f,656019cf810898dd828156ab,0,18,18,14,1,fourtwo,,,,,,,,,,,,,,,,,,,,,,,,,,,,,,,,,,,,,,,,,,,,,,,,,,,,,,,,,,,,,,,,,,,,,,,,,,,,,,,,,,,,,
5df6304773d724428a9cff45,2023-11-24_03h34.59.051,kallum_motion_pilot,2023.1.2,Win32,119.8035222,5df6304773d724428a9cff45,656018846682f3df8008bb8f,656019cf810898dd828156ab,0,19,19,110,1,eightsix,,,,,,,,,,,,,,,,,,,,,,,,,,,,,,,,,,,,,,,,,,,,,,,,,,,,,,,,,,,,,,,,,,,,,,,,,,,,,,,,,,,,,
5df6304773d724428a9cff45,2023-11-24_03h34.59.051,kallum_motion_pilot,2023.1.2,Win32,119.8035222,5df6304773d724428a9cff45,656018846682f3df8008bb8f,656019cf810898dd828156ab,0,20,20,36,1,threeone,,,,,,,,,,,,,,,,,,,,,,,,,,,,,,,,,,,,,,,,,,,,,,,,,,,,,,,,,,,,,,,,,,,,,,,,,,,,,,,,,,,,,
5df6304773d724428a9cff45,2023-11-24_03h34.59.051,kallum_motion_pilot,2023.1.2,Win32,119.8035222,5df6304773d724428a9cff45,656018846682f3df8008bb8f,656019cf810898dd828156ab,0,21,21,91,1,sixeight,,,,,,,,,,,,,,,,,,,,,,,,,,,,,,,,,,,,,,,,,,,,,,,,,,,,,,,,,,,,,,,,,,,,,,,,,,,,,,,,,,,,,
5df6304773d724428a9cff45,2023-11-24_03h34.59.051,kallum_motion_pilot,2023.1.2,Win32,119.8035222,5df6304773d724428a9cff45,656018846682f3df8008bb8f,656019cf810898dd828156ab,0,22,22,82,1,sixfive,,,,,,,,,,,,,,,,,,,,,,,,,,,,,,,,,,,,,,,,,,,,,,,,,,,,,,,,,,,,,,,,,,,,,,,,,,,,,,,,,,,,,
5df6304773d724428a9cff45,2023-11-24_03h34.59.051,kallum_motion_pilot,2023.1.2,Win32,119.8035222,5df6304773d724428a9cff45,656018846682f3df8008bb8f,656019cf810898dd828156ab,0,23,23,98,1,sixfive,,,,,,,,,,,,,,,,,,,,,,,,,,,,,,,,,,,,,,,,,,,,,,,,,,,,,,,,,,,,,,,,,,,,,,,,,,,,,,,,,,,,,
5df6304773d724428a9cff45,2023-11-24_03h34.59.051,kallum_motion_pilot,2023.1.2,Win32,119.8035222,5df6304773d724428a9cff45,656018846682f3df8008bb8f,656019cf810898dd828156ab,0,24,24,68,1,threeone,,,,,,,,,,,,,,,,,,,,,,,,,,,,,,,,,,,,,,,,,,,,,,,,,,,,,,,,,,,,,,,,,,,,,,,,,,,,,,,,,,,,,
5df6304773d724428a9cff45,2023-11-24_03h34.59.051,kallum_motion_pilot,2023.1.2,Win32,119.8035222,5df6304773d724428a9cff45,656018846682f3df8008bb8f,656019cf810898dd828156ab,0,25,25,131,1,sixeight,,,,,,,,,,,,,,,,,,,,,,,,,,,,,,,,,,,,,,,,,,,,,,,,,,,,,,,,,,,,,,,,,,,,,,,,,,,,,,,,,,,,,
5df6304773d724428a9cff45,2023-11-24_03h34.59.051,kallum_motion_pilot,2023.1.2,Win32,119.8035222,5df6304773d724428a9cff45,656018846682f3df8008bb8f,656019cf810898dd828156ab,0,26,26,65,1,onethree,,,,,,,,,,,,,,,,,,,,,,,,,,,,,,,,,,,,,,,,,,,,,,,,,,,,,,,,,,,,,,,,,,,,,,,,,,,,,,,,,,,,,
5df6304773d724428a9cff45,2023-11-24_03h34.59.051,kallum_motion_pilot,2023.1.2,Win32,119.8035222,5df6304773d724428a9cff45,656018846682f3df8008bb8f,656019cf810898dd828156ab,0,27,27,111,1,eightseven,,,,,,,,,,,,,,,,,,,,,,,,,,,,,,,,,,,,,,,,,,,,,,,,,,,,,,,,,,,,,,,,,,,,,,,,,,,,,,,,,,,,,
5df6304773d724428a9cff45,2023-11-24_03h34.59.051,kallum_motion_pilot,2023.1.2,Win32,119.8035222,5df6304773d724428a9cff45,656018846682f3df8008bb8f,656019cf810898dd828156ab,0,28,28,119,1,eightseven,,,,,,,,,,,,,,,,,,,,,,,,,,,,,,,,,,,,,,,,,,,,,,,,,,,,,,,,,,,,,,,,,,,,,,,,,,,,,,,,,,,,,
5df6304773d724428a9cff45,2023-11-24_03h34.59.051,kallum_motion_pilot,2023.1.2,Win32,119.8035222,5df6304773d724428a9cff45,656018846682f3df8008bb8f,656019cf810898dd828156ab,0,29,29,144,1,fivesix,,,,,,,,,,,,,,,,,,,,,,,,,,,,,,,,,,,,,,,,,,,,,,,,,,,,,,,,,,,,,,,,,,,,,,,,,,,,,,,,,,,,,
5df6304773d724428a9cff45,2023-11-24_03h34.59.051,kallum_motion_pilot,2023.1.2,Win32,119.8035222,5df6304773d724428a9cff45,656018846682f3df8008bb8f,656019cf810898dd828156ab,0,30,30,129,1,fiveseven,,,,,,,,,,,,,,,,,,,,,,,,,,,,,,,,,,,,,,,,,,,,,,,,,,,,,,,,,,,,,,,,,,,,,,,,,,,,,,,,,,,,,
5df6304773d724428a9cff45,2023-11-24_03h34.59.051,kallum_motion_pilot,2023.1.2,Win32,119.8035222,5df6304773d724428a9cff45,656018846682f3df8008bb8f,656019cf810898dd828156ab,0,31,31,38,1,fourtwo,,,,,,,,,,,,,,,,,,,,,,,,,,,,,,,,,,,,,,,,,,,,,,,,,,,,,,,,,,,,,,,,,,,,,,,,,,,,,,,,,,,,,
5df6304773d724428a9cff45,2023-11-24_03h34.59.051,kallum_motion_pilot,2023.1.2,Win32,119.8035222,5df6304773d724428a9cff45,656018846682f3df8008bb8f,656019cf810898dd828156ab,0,32,32,106,1,sixfive,,,,,,,,,,,,,,,,,,,,,,,,,,,,,,,,,,,,,,,,,,,,,,,,,,,,,,,,,,,,,,,,,,,,,,,,,,,,,,,,,,,,,
5df6304773d724428a9cff45,2023-11-24_03h34.59.051,kallum_motion_pilot,2023.1.2,Win32,119.8035222,5df6304773d724428a9cff45,656018846682f3df8008bb8f,656019cf810898dd828156ab,0,33,33,37,1,threefour,,,,,,,,,,,,,,,,,,,,,,,,,,,,,,,,,,,,,,,,,,,,,,,,,,,,,,,,,,,,,,,,,,,,,,,,,,,,,,,,,,,,,
5df6304773d724428a9cff45,2023-11-24_03h34.59.051,kallum_motion_pilot,2023.1.2,Win32,119.8035222,5df6304773d724428a9cff45,656018846682f3df8008bb8f,656019cf810898dd828156ab,0,34,34,83,1,sixeight,,,,,,,,,,,,,,,,,,,,,,,,,,,,,,,,,,,,,,,,,,,,,,,,,,,,,,,,,,,,,,,,,,,,,,,,,,,,,,,,,,,,,
5df6304773d724428a9cff45,2023-11-24_03h34.59.051,kallum_motion_pilot,2023.1.2,Win32,119.8035222,5df6304773d724428a9cff45,656018846682f3df8008bb8f,656019cf810898dd828156ab,0,35,35,103,1,eightseven,,,,,,,,,,,,,,,,,,,,,,,,,,,,,,,,,,,,,,,,,,,,,,,,,,,,,,,,,,,,,,,,,,,,,,,,,,,,,,,,,,,,,
5df6304773d724428a9cff45,2023-11-24_03h34.59.051,kallum_motion_pilot,2023.1.2,Win32,119.8035222,5df6304773d724428a9cff45,656018846682f3df8008bb8f,656019cf810898dd828156ab,0,36,36,49,1,onethree,,,,,,,,,,,,,,,,,,,,,,,,,,,,,,,,,,,,,,,,,,,,,,,,,,,,,,,,,,,,,,,,,,,,,,,,,,,,,,,,,,,,,
5df6304773d724428a9cff45,2023-11-24_03h34.59.051,kallum_motion_pilot,2023.1.2,Win32,119.8035222,5df6304773d724428a9cff45,656018846682f3df8008bb8f,656019cf810898dd828156ab,0,37,37,151,1,eightseven,,,,,,,,,,,,,,,,,,,,,,,,,,,,,,,,,,,,,,,,,,,,,,,,,,,,,,,,,,,,,,,,,,,,,,,,,,,,,,,,,,,,,
5df6304773d724428a9cff45,2023-11-24_03h34.59.051,kallum_motion_pilot,2023.1.2,Win32,119.8035222,5df6304773d724428a9cff45,656018846682f3df8008bb8f,656019cf810898dd828156ab,0,38,38,124,1,sevenfive,,,,,,,,,,,,,,,,,,,,,,,,,,,,,,,,,,,,,,,,,,,,,,,,,,,,,,,,,,,,,,,,,,,,,,,,,,,,,,,,,,,,,
5df6304773d724428a9cff45,2023-11-24_03h34.59.051,kallum_motion_pilot,2023.1.2,Win32,119.8035222,5df6304773d724428a9cff45,656018846682f3df8008bb8f,656019cf810898dd828156ab,0,39,39,142,1,eightsix,,,,,,,,,,,,,,,,,,,,,,,,,,,,,,,,,,,,,,,,,,,,,,,,,,,,,,,,,,,,,,,,,,,,,,,,,,,,,,,,,,,,,
5df6304773d724428a9cff45,2023-11-24_03h34.59.051,kallum_motion_pilot,2023.1.2,Win32,119.8035222,5df6304773d724428a9cff45,656018846682f3df8008bb8f,656019cf810898dd828156ab,0,40,40,54,1,fourtwo,,,,,,,,,,,,,,,,,,,,,,,,,,,,,,,,,,,,,,,,,,,,,,,,,,,,,,,,,,,,,,,,,,,,,,,,,,,,,,,,,,,,,
5df6304773d724428a9cff45,2023-11-24_03h34.59.051,kallum_motion_pilot,2023.1.2,Win32,119.8035222,5df6304773d724428a9cff45,656018846682f3df8008bb8f,656019cf810898dd828156ab,0,41,41,90,1,sixfive,,,,,,,,,,,,,,,,,,,,,,,,,,,,,,,,,,,,,,,,,,,,,,,,,,,,,,,,,,,,,,,,,,,,,,,,,,,,,,,,,,,,,
5df6304773d724428a9cff45,2023-11-24_03h34.59.051,kallum_motion_pilot,2023.1.2,Win32,119.8035222,5df6304773d724428a9cff45,656018846682f3df8008bb8f,656019cf810898dd828156ab,0,42,42,101,1,seveneight,,,,,,,,,,,,,,,,,,,,,,,,,,,,,,,,,,,,,,,,,,,,,,,,,,,,,,,,,,,,,,,,,,,,,,,,,,,,,,,,,,,,,
5df6304773d724428a9cff45,2023-11-24_03h34.59.051,kallum_motion_pilot,2023.1.2,Win32,119.8035222,5df6304773d724428a9cff45,656018846682f3df8008bb8f,656019cf810898dd828156ab,0,43,43,158,1,eightsix,,,,,,,,,,,,,,,,,,,,,,,,,,,,,,,,,,,,,,,,,,,,,,,,,,,,,,,,,,,,,,,,,,,,,,,,,,,,,,,,,,,,,
5df6304773d724428a9cff45,2023-11-24_03h34.59.051,kallum_motion_pilot,2023.1.2,Win32,119.8035222,5df6304773d724428a9cff45,656018846682f3df8008bb8f,656019cf810898dd828156ab,0,44,44,88,1,fivesix,,,,,,,,,,,,,,,,,,,,,,,,,,,,,,,,,,,,,,,,,,,,,,,,,,,,,,,,,,,,,,,,,,,,,,,,,,,,,,,,,,,,,
5df6304773d724428a9cff45,2023-11-24_03h34.59.051,kallum_motion_pilot,2023.1.2,Win32,119.8035222,5df6304773d724428a9cff45,656018846682f3df8008bb8f,656019cf810898dd828156ab,0,45,45,122,1,sixfive,,,,,,,,,,,,,,,,,,,,,,,,,,,,,,,,,,,,,,,,,,,,,,,,,,,,,,,,,,,,,,,,,,,,,,,,,,,,,,,,,,,,,
5df6304773d724428a9cff45,2023-11-24_03h34.59.051,kallum_motion_pilot,2023.1.2,Win32,119.8035222,5df6304773d724428a9cff45,656018846682f3df8008bb8f,656019cf810898dd828156ab,0,46,46,26,1,twoone,,,,,,,,,,,,,,,,,,,,,,,,,,,,,,,,,,,,,,,,,,,,,,,,,,,,,,,,,,,,,,,,,,,,,,,,,,,,,,,,,,,,,
5df6304773d724428a9cff45,2023-11-24_03h34.59.051,kallum_motion_pilot,2023.1.2,Win32,119.8035222,5df6304773d724428a9cff45,656018846682f3df8008bb8f,656019cf810898dd828156ab,0,47,47,161,1,fiveseven,,,,,,,,,,,,,,,,,,,,,,,,,,,,,,,,,,,,,,,,,,,,,,,,,,,,,,,,,,,,,,,,,,,,,,,,,,,,,,,,,,,,,
5df6304773d724428a9cff45,2023-11-24_03h34.59.051,kallum_motion_pilot,2023.1.2,Win32,119.8035222,5df6304773d724428a9cff45,656018846682f3df8008bb8f,656019cf810898dd828156ab,0,48,48,33,1,onethree,,,,,,,,,,,,,,,,,,,,,,,,,,,,,,,,,,,,,,,,,,,,,,,,,,,,,,,,,,,,,,,,,,,,,,,,,,,,,,,,,,,,,
5df6304773d724428a9cff45,2023-11-24_03h34.59.051,kallum_motion_pilot,2023.1.2,Win32,119.8035222,5df6304773d724428a9cff45,656018846682f3df8008bb8f,656019cf810898dd828156ab,0,49,49,126,1,eightsix,,,,,,,,,,,,,,,,,,,,,,,,,,,,,,,,,,,,,,,,,,,,,,,,,,,,,,,,,,,,,,,,,,,,,,,,,,,,,,,,,,,,,
5df6304773d724428a9cff45,2023-11-24_03h34.59.051,kallum_motion_pilot,2023.1.2,Win32,119.8035222,5df6304773d724428a9cff45,656018846682f3df8008bb8f,656019cf810898dd828156ab,0,50,50,27,1,twofour,,,,,,,,,,,,,,,,,,,,,,,,,,,,,,,,,,,,,,,,,,,,,,,,,,,,,,,,,,,,,,,,,,,,,,,,,,,,,,,,,,,,,
5df6304773d724428a9cff45,2023-11-24_03h34.59.051,kallum_motion_pilot,2023.1.2,Win32,119.8035222,5df6304773d724428a9cff45,656018846682f3df8008bb8f,656019cf810898dd828156ab,0,51,51,99,1,sixeight,,,,,,,,,,,,,,,,,,,,,,,,,,,,,,,,,,,,,,,,,,,,,,,,,,,,,,,,,,,,,,,,,,,,,,,,,,,,,,,,,,,,,
5df6304773d724428a9cff45,2023-11-24_03h34.59.051,kallum_motion_pilot,2023.1.2,Win32,119.8035222,5df6304773d724428a9cff45,656018846682f3df8008bb8f,656019cf810898dd828156ab,0,52,52,4,1,threeone,,,,,,,,,,,,,,,,,,,,,,,,,,,,,,,,,,,,,,,,,,,,,,,,,,,,,,,,,,,,,,,,,,,,,,,,,,,,,,,,,,,,,
5df6304773d724428a9cff45,2023-11-24_03h34.59.051,kallum_motion_pilot,2023.1.2,Win32,119.8035222,5df6304773d724428a9cff45,656018846682f3df8008bb8f,656019cf810898dd828156ab,0,53,53,150,1,eightsix,,,,,,,,,,,,,,,,,,,,,,,,,,,,,,,,,,,,,,,,,,,,,,,,,,,,,,,,,,,,,,,,,,,,,,,,,,,,,,,,,,,,,
5df6304773d724428a9cff45,2023-11-24_03h34.59.051,kallum_motion_pilot,2023.1.2,Win32,119.8035222,5df6304773d724428a9cff45,656018846682f3df8008bb8f,656019cf810898dd828156ab,0,54,54,121,1,fiveseven,,,,,,,,,,,,,,,,,,,,,,,,,,,,,,,,,,,,,,,,,,,,,,,,,,,,,,,,,,,,,,,,,,,,,,,,,,,,,,,,,,,,,
5df6304773d724428a9cff45,2023-11-24_03h34.59.051,kallum_motion_pilot,2023.1.2,Win32,119.8035222,5df6304773d724428a9cff45,656018846682f3df8008bb8f,656019cf810898dd828156ab,0,55,55,87,1,eightseven,,,,,,,,,,,,,,,,,,,,,,,,,,,,,,,,,,,,,,,,,,,,,,,,,,,,,,,,,,,,,,,,,,,,,,,,,,,,,,,,,,,,,
5df6304773d724428a9cff45,2023-11-24_03h34.59.051,kallum_motion_pilot,2023.1.2,Win32,119.8035222,5df6304773d724428a9cff45,656018846682f3df8008bb8f,656019cf810898dd828156ab,0,56,56,145,1,fiveseven,,,,,,,,,,,,,,,,,,,,,,,,,,,,,,,,,,,,,,,,,,,,,,,,,,,,,,,,,,,,,,,,,,,,,,,,,,,,,,,,,,,,,
5df6304773d724428a9cff45,2023-11-24_03h34.59.051,kallum_motion_pilot,2023.1.2,Win32,119.8035222,5df6304773d724428a9cff45,656018846682f3df8008bb8f,656019cf810898dd828156ab,0,57,57,93,1,seveneight,,,,,,,,,,,,,,,,,,,,,,,,,,,,,,,,,,,,,,,,,,,,,,,,,,,,,,,,,,,,,,,,,,,,,,,,,,,,,,,,,,,,,
5df6304773d724428a9cff45,2023-11-24_03h34.59.051,kallum_motion_pilot,2023.1.2,Win32,119.8035222,5df6304773d724428a9cff45,656018846682f3df8008bb8f,656019cf810898dd828156ab,0,58,58,60,1,threeone,,,,,,,,,,,,,,,,,,,,,,,,,,,,,,,,,,,,,,,,,,,,,,,,,,,,,,,,,,,,,,,,,,,,,,,,,,,,,,,,,,,,,
5df6304773d724428a9cff45,2023-11-24_03h34.59.051,kallum_motion_pilot,2023.1.2,Win32,119.8035222,5df6304773d724428a9cff45,656018846682f3df8008bb8f,656019cf810898dd828156ab,0,59,59,125,1,seveneight,,,,,,,,,,,,,,,,,,,,,,,,,,,,,,,,,,,,,,,,,,,,,,,,,,,,,,,,,,,,,,,,,,,,,,,,,,,,,,,,,,,,,
5df6304773d724428a9cff45,2023-11-24_03h34.59.051,kallum_motion_pilot,2023.1.2,Win32,119.8035222,5df6304773d724428a9cff45,656018846682f3df8008bb8f,656019cf810898dd828156ab,0,60,60,44,1,threeone,,,,,,,,,,,,,,,,,,,,,,,,,,,,,,,,,,,,,,,,,,,,,,,,,,,,,,,,,,,,,,,,,,,,,,,,,,,,,,,,,,,,,
5df6304773d724428a9cff45,2023-11-24_03h34.59.051,kallum_motion_pilot,2023.1.2,Win32,119.8035222,5df6304773d724428a9cff45,656018846682f3df8008bb8f,656019cf810898dd828156ab,0,61,61,57,1,onethree,,,,,,,,,,,,,,,,,,,,,,,,,,,,,,,,,,,,,,,,,,,,,,,,,,,,,,,,,,,,,,,,,,,,,,,,,,,,,,,,,,,,,
5df6304773d724428a9cff45,2023-11-24_03h34.59.051,kallum_motion_pilot,2023.1.2,Win32,119.8035222,5df6304773d724428a9cff45,656018846682f3df8008bb8f,656019cf810898dd828156ab,0,62,62,64,1,onetwo,,,,,,,,,,,,,,,,,,,,,,,,,,,,,,,,,,,,,,,,,,,,,,,,,,,,,,,,,,,,,,,,,,,,,,,,,,,,,,,,,,,,,
5df6304773d724428a9cff45,2023-11-24_03h34.59.051,kallum_motion_pilot,2023.1.2,Win32,119.8035222,5df6304773d724428a9cff45,656018846682f3df8008bb8f,656019cf810898dd828156ab,0,63,63,50,1,twoone,,,,,,,,,,,,,,,,,,,,,,,,,,,,,,,,,,,,,,,,,,,,,,,,,,,,,,,,,,,,,,,,,,,,,,,,,,,,,,,,,,,,,
5df6304773d724428a9cff45,2023-11-24_03h34.59.051,kallum_motion_pilot,2023.1.2,Win32,119.8035222,5df6304773d724428a9cff45,656018846682f3df8008bb8f,656019cf810898dd828156ab,0,64,64,71,1,fourthree,,,,,,,,,,,,,,,,,,,,,,,,,,,,,,,,,,,,,,,,,,,,,,,,,,,,,,,,,,,,,,,,,,,,,,,,,,,,,,,,,,,,,
5df6304773d724428a9cff45,2023-11-24_03h34.59.051,kallum_motion_pilot,2023.1.2,Win32,119.8035222,5df6304773d724428a9cff45,656018846682f3df8008bb8f,656019cf810898dd828156ab,0,65,65,55,1,fourthree,,,,,,,,,,,,,,,,,,,,,,,,,,,,,,,,,,,,,,,,,,,,,,,,,,,,,,,,,,,,,,,,,,,,,,,,,,,,,,,,,,,,,
5df6304773d724428a9cff45,2023-11-24_03h34.59.051,kallum_motion_pilot,2023.1.2,Win32,119.8035222,5df6304773d724428a9cff45,656018846682f3df8008bb8f,656019cf810898dd828156ab,0,66,66,95,1,eightseven,,,,,,,,,,,,,,,,,,,,,,,,,,,,,,,,,,,,,,,,,,,,,,,,,,,,,,,,,,,,,,,,,,,,,,,,,,,,,,,,,,,,,
5df6304773d724428a9cff45,2023-11-24_03h34.59.051,kallum_motion_pilot,2023.1.2,Win32,119.8035222,5df6304773d724428a9cff45,656018846682f3df8008bb8f,656019cf810898dd828156ab,0,67,67,108,1,sevenfive,,,,,,,,,,,,,,,,,,,,,,,,,,,,,,,,,,,,,,,,,,,,,,,,,,,,,,,,,,,,,,,,,,,,,,,,,,,,,,,,,,,,,
5df6304773d724428a9cff45,2023-11-24_03h34.59.051,kallum_motion_pilot,2023.1.2,Win32,119.8035222,5df6304773d724428a9cff45,656018846682f3df8008bb8f,656019cf810898dd828156ab,0,68,68,138,1,sixfive,,,,,,,,,,,,,,,,,,,,,,,,,,,,,,,,,,,,,,,,,,,,,,,,,,,,,,,,,,,,,,,,,,,,,,,,,,,,,,,,,,,,,
5df6304773d724428a9cff45,2023-11-24_03h34.59.051,kallum_motion_pilot,2023.1.2,Win32,119.8035222,5df6304773d724428a9cff45,656018846682f3df8008bb8f,656019cf810898dd828156ab,0,69,69,137,1,fiveseven,,,,,,,,,,,,,,,,,,,,,,,,,,,,,,,,,,,,,,,,,,,,,,,,,,,,,,,,,,,,,,,,,,,,,,,,,,,,,,,,,,,,,
5df6304773d724428a9cff45,2023-11-24_03h34.59.051,kallum_motion_pilot,2023.1.2,Win32,119.8035222,5df6304773d724428a9cff45,656018846682f3df8008bb8f,656019cf810898dd828156ab,0,70,70,66,1,twoone,,,,,,,,,,,,,,,,,,,,,,,,,,,,,,,,,,,,,,,,,,,,,,,,,,,,,,,,,,,,,,,,,,,,,,,,,,,,,,,,,,,,,
5df6304773d724428a9cff45,2023-11-24_03h34.59.051,kallum_motion_pilot,2023.1.2,Win32,119.8035222,5df6304773d724428a9cff45,656018846682f3df8008bb8f,656019cf810898dd828156ab,0,71,71,20,1,threeone,,,,,,,,,,,,,,,,,,,,,,,,,,,,,,,,,,,,,,,,,,,,,,,,,,,,,,,,,,,,,,,,,,,,,,,,,,,,,,,,,,,,,
5df6304773d724428a9cff45,2023-11-24_03h34.59.051,kallum_motion_pilot,2023.1.2,Win32,119.8035222,5df6304773d724428a9cff45,656018846682f3df8008bb8f,656019cf810898dd828156ab,0,72,72,2,1,twoone,,,,,,,,,,,,,,,,,,,,,,,,,,,,,,,,,,,,,,,,,,,,,,,,,,,,,,,,,,,,,,,,,,,,,,,,,,,,,,,,,,,,,
5df6304773d724428a9cff45,2023-11-24_03h34.59.051,kallum_motion_pilot,2023.1.2,Win32,119.8035222,5df6304773d724428a9cff45,656018846682f3df8008bb8f,656019cf810898dd828156ab,0,73,73,52,1,threeone,,,,,,,,,,,,,,,,,,,,,,,,,,,,,,,,,,,,,,,,,,,,,,,,,,,,,,,,,,,,,,,,,,,,,,,,,,,,,,,,,,,,,
5df6304773d724428a9cff45,2023-11-24_03h34.59.051,kallum_motion_pilot,2023.1.2,Win32,119.8035222,5df6304773d724428a9cff45,656018846682f3df8008bb8f,656019cf810898dd828156ab,0,74,74,75,1,twofour,,,,,,,,,,,,,,,,,,,,,,,,,,,,,,,,,,,,,,,,,,,,,,,,,,,,,,,,,,,,,,,,,,,,,,,,,,,,,,,,,,,,,
5df6304773d724428a9cff45,2023-11-24_03h34.59.051,kallum_motion_pilot,2023.1.2,Win32,119.8035222,5df6304773d724428a9cff45,656018846682f3df8008bb8f,656019cf810898dd828156ab,0,75,75,123,1,sixeight,,,,,,,,,,,,,,,,,,,,,,,,,,,,,,,,,,,,,,,,,,,,,,,,,,,,,,,,,,,,,,,,,,,,,,,,,,,,,,,,,,,,,
5df6304773d724428a9cff45,2023-11-24_03h34.59.051,kallum_motion_pilot,2023.1.2,Win32,119.8035222,5df6304773d724428a9cff45,656018846682f3df8008bb8f,656019cf810898dd828156ab,0,76,76,141,1,seveneight,,,,,,,,,,,,,,,,,,,,,,,,,,,,,,,,,,,,,,,,,,,,,,,,,,,,,,,,,,,,,,,,,,,,,,,,,,,,,,,,,,,,,
5df6304773d724428a9cff45,2023-11-24_03h34.59.051,kallum_motion_pilot,2023.1.2,Win32,119.8035222,5df6304773d724428a9cff45,656018846682f3df8008bb8f,656019cf810898dd828156ab,0,77,77,112,1,fivesix,,,,,,,,,,,,,,,,,,,,,,,,,,,,,,,,,,,,,,,,,,,,,,,,,,,,,,,,,,,,,,,,,,,,,,,,,,,,,,,,,,,,,
5df6304773d724428a9cff45,2023-11-24_03h34.59.051,kallum_motion_pilot,2023.1.2,Win32,119.8035222,5df6304773d724428a9cff45,656018846682f3df8008bb8f,656019cf810898dd828156ab,0,78,78,136,1,fivesix,,,,,,,,,,,,,,,,,,,,,,,,,,,,,,,,,,,,,,,,,,,,,,,,,,,,,,,,,,,,,,,,,,,,,,,,,,,,,,,,,,,,,
5df6304773d724428a9cff45,2023-11-24_03h34.59.051,kallum_motion_pilot,2023.1.2,Win32,119.8035222,5df6304773d724428a9cff45,656018846682f3df8008bb8f,656019cf810898dd828156ab,0,79,79,80,1,fivesix,,,,,,,,,,,,,,,,,,,,,,,,,,,,,,,,,,,,,,,,,,,,,,,,,,,,,,,,,,,,,,,,,,,,,,,,,,,,,,,,,,,,,
5df6304773d724428a9cff45,2023-11-24_03h34.59.051,kallum_motion_pilot,2023.1.2,Win32,119.8035222,5df6304773d724428a9cff45,656018846682f3df8008bb8f,656019cf810898dd828156ab,0,80,80,67,1,twofour,,,,,,,,,,,,,,,,,,,,,,,,,,,,,,,,,,,,,,,,,,,,,,,,,,,,,,,,,,,,,,,,,,,,,,,,,,,,,,,,,,,,,
5df6304773d724428a9cff45,2023-11-24_03h34.59.051,kallum_motion_pilot,2023.1.2,Win32,119.8035222,5df6304773d724428a9cff45,656018846682f3df8008bb8f,656019cf810898dd828156ab,0,81,81,53,1,threefour,,,,,,,,,,,,,,,,,,,,,,,,,,,,,,,,,,,,,,,,,,,,,,,,,,,,,,,,,,,,,,,,,,,,,,,,,,,,,,,,,,,,,
5df6304773d724428a9cff45,2023-11-24_03h34.59.051,kallum_motion_pilot,2023.1.2,Win32,119.8035222,5df6304773d724428a9cff45,656018846682f3df8008bb8f,656019cf810898dd828156ab,0,82,82,146,1,sixfive,,,,,,,,,,,,,,,,,,,,,,,,,,,,,,,,,,,,,,,,,,,,,,,,,,,,,,,,,,,,,,,,,,,,,,,,,,,,,,,,,,,,,
5df6304773d724428a9cff45,2023-11-24_03h34.59.051,kallum_motion_pilot,2023.1.2,Win32,119.8035222,5df6304773d724428a9cff45,656018846682f3df8008bb8f,656019cf810898dd828156ab,0,83,83,140,1,sevenfive,,,,,,,,,,,,,,,,,,,,,,,,,,,,,,,,,,,,,,,,,,,,,,,,,,,,,,,,,,,,,,,,,,,,,,,,,,,,,,,,,,,,,
5df6304773d724428a9cff45,2023-11-24_03h34.59.051,kallum_motion_pilot,2023.1.2,Win32,119.8035222,5df6304773d724428a9cff45,656018846682f3df8008bb8f,656019cf810898dd828156ab,0,84,84,127,1,eightseven,,,,,,,,,,,,,,,,,,,,,,,,,,,,,,,,,,,,,,,,,,,,,,,,,,,,,,,,,,,,,,,,,,,,,,,,,,,,,,,,,,,,,
5df6304773d724428a9cff45,2023-11-24_03h34.59.051,kallum_motion_pilot,2023.1.2,Win32,119.8035222,5df6304773d724428a9cff45,656018846682f3df8008bb8f,656019cf810898dd828156ab,0,85,85,12,1,threeone,,,,,,,,,,,,,,,,,,,,,,,,,,,,,,,,,,,,,,,,,,,,,,,,,,,,,,,,,,,,,,,,,,,,,,,,,,,,,,,,,,,,,
5df6304773d724428a9cff45,2023-11-24_03h34.59.051,kallum_motion_pilot,2023.1.2,Win32,119.8035222,5df6304773d724428a9cff45,656018846682f3df8008bb8f,656019cf810898dd828156ab,0,86,86,74,1,twoone,,,,,,,,,,,,,,,,,,,,,,,,,,,,,,,,,,,,,,,,,,,,,,,,,,,,,,,,,,,,,,,,,,,,,,,,,,,,,,,,,,,,,
5df6304773d724428a9cff45,2023-11-24_03h34.59.051,kallum_motion_pilot,2023.1.2,Win32,119.8035222,5df6304773d724428a9cff45,656018846682f3df8008bb8f,656019cf810898dd828156ab,0,87,87,8,1,onetwo,,,,,,,,,,,,,,,,,,,,,,,,,,,,,,,,,,,,,,,,,,,,,,,,,,,,,,,,,,,,,,,,,,,,,,,,,,,,,,,,,,,,,
5df6304773d724428a9cff45,2023-11-24_03h34.59.051,kallum_motion_pilot,2023.1.2,Win32,119.8035222,5df6304773d724428a9cff45,656018846682f3df8008bb8f,656019cf810898dd828156ab,0,88,88,79,1,eightseven,,,,,,,,,,,,,,,,,,,,,,,,,,,,,,,,,,,,,,,,,,,,,,,,,,,,,,,,,,,,,,,,,,,,,,,,,,,,,,,,,,,,,
5df6304773d724428a9cff45,2023-11-24_03h34.59.051,kallum_motion_pilot,2023.1.2,Win32,119.8035222,5df6304773d724428a9cff45,656018846682f3df8008bb8f,656019cf810898dd828156ab,0,89,89,40,1,onetwo,,,,,,,,,,,,,,,,,,,,,,,,,,,,,,,,,,,,,,,,,,,,,,,,,,,,,,,,,,,,,,,,,,,,,,,,,,,,,,,,,,,,,
5df6304773d724428a9cff45,2023-11-24_03h34.59.051,kallum_motion_pilot,2023.1.2,Win32,119.8035222,5df6304773d724428a9cff45,656018846682f3df8008bb8f,656019cf810898dd828156ab,0,90,90,30,1,fourtwo,,,,,,,,,,,,,,,,,,,,,,,,,,,,,,,,,,,,,,,,,,,,,,,,,,,,,,,,,,,,,,,,,,,,,,,,,,,,,,,,,,,,,
5df6304773d724428a9cff45,2023-11-24_03h34.59.051,kallum_motion_pilot,2023.1.2,Win32,119.8035222,5df6304773d724428a9cff45,656018846682f3df8008bb8f,656019cf810898dd828156ab,0,91,91,114,1,sixfive,,,,,,,,,,,,,,,,,,,,,,,,,,,,,,,,,,,,,,,,,,,,,,,,,,,,,,,,,,,,,,,,,,,,,,,,,,,,,,,,,,,,,
5df6304773d724428a9cff45,2023-11-24_03h34.59.051,kallum_motion_pilot,2023.1.2,Win32,119.8035222,5df6304773d724428a9cff45,656018846682f3df8008bb8f,656019cf810898dd828156ab,0,92,92,132,1,sevenfive,,,,,,,,,,,,,,,,,,,,,,,,,,,,,,,,,,,,,,,,,,,,,,,,,,,,,,,,,,,,,,,,,,,,,,,,,,,,,,,,,,,,,
5df6304773d724428a9cff45,2023-11-24_03h34.59.051,kallum_motion_pilot,2023.1.2,Win32,119.8035222,5df6304773d724428a9cff45,656018846682f3df8008bb8f,656019cf810898dd828156ab,0,93,93,24,1,onetwo,,,,,,,,,,,,,,,,,,,,,,,,,,,,,,,,,,,,,,,,,,,,,,,,,,,,,,,,,,,,,,,,,,,,,,,,,,,,,,,,,,,,,
5df6304773d724428a9cff45,2023-11-24_03h34.59.051,kallum_motion_pilot,2023.1.2,Win32,119.8035222,5df6304773d724428a9cff45,656018846682f3df8008bb8f,656019cf810898dd828156ab,0,94,94,134,1,eightsix,,,,,,,,,,,,,,,,,,,,,,,,,,,,,,,,,,,,,,,,,,,,,,,,,,,,,,,,,,,,,,,,,,,,,,,,,,,,,,,,,,,,,
5df6304773d724428a9cff45,2023-11-24_03h34.59.051,kallum_motion_pilot,2023.1.2,Win32,119.8035222,5df6304773d724428a9cff45,656018846682f3df8008bb8f,656019cf810898dd828156ab,0,95,95,77,1,threefour,,,,,,,,,,,,,,,,,,,,,,,,,,,,,,,,,,,,,,,,,,,,,,,,,,,,,,,,,,,,,,,,,,,,,,,,,,,,,,,,,,,,,
5df6304773d724428a9cff45,2023-11-24_03h34.59.051,kallum_motion_pilot,2023.1.2,Win32,119.8035222,5df6304773d724428a9cff45,656018846682f3df8008bb8f,656019cf810898dd828156ab,0,96,96,97,1,fiveseven,,,,,,,,,,,,,,,,,,,,,,,,,,,,,,,,,,,,,,,,,,,,,,,,,,,,,,,,,,,,,,,,,,,,,,,,,,,,,,,,,,,,,
5df6304773d724428a9cff45,2023-11-24_03h34.59.051,kallum_motion_pilot,2023.1.2,Win32,119.8035222,5df6304773d724428a9cff45,656018846682f3df8008bb8f,656019cf810898dd828156ab,0,97,97,23,1,fourthree,,,,,,,,,,,,,,,,,,,,,,,,,,,,,,,,,,,,,,,,,,,,,,,,,,,,,,,,,,,,,,,,,,,,,,,,,,,,,,,,,,,,,
5df6304773d724428a9cff45,2023-11-24_03h34.59.051,kallum_motion_pilot,2023.1.2,Win32,119.8035222,5df6304773d724428a9cff45,656018846682f3df8008bb8f,656019cf810898dd828156ab,0,98,98,41,1,onethree,,,,,,,,,,,,,,,,,,,,,,,,,,,,,,,,,,,,,,,,,,,,,,,,,,,,,,,,,,,,,,,,,,,,,,,,,,,,,,,,,,,,,
5df6304773d724428a9cff45,2023-11-24_03h34.59.051,kallum_motion_pilot,2023.1.2,Win32,119.8035222,5df6304773d724428a9cff45,656018846682f3df8008bb8f,656019cf810898dd828156ab,0,99,99,16,1,onetwo,,,,,,,,,,,,,,,,,,,,,,,,,,,,,,,,,,,,,,,,,,,,,,,,,,,,,,,,,,,,,,,,,,,,,,,,,,,,,,,,,,,,,
5df6304773d724428a9cff45,2023-11-24_03h34.59.051,kallum_motion_pilot,2023.1.2,Win32,119.8035222,5df6304773d724428a9cff45,656018846682f3df8008bb8f,656019cf810898dd828156ab,0,100,100,100,1,sevenfive,,,,,,,,,,,,,,,,,,,,,,,,,,,,,,,,,,,,,,,,,,,,,,,,,,,,,,,,,,,,,,,,,,,,,,,,,,,,,,,,,,,,,
5df6304773d724428a9cff45,2023-11-24_03h34.59.051,kallum_motion_pilot,2023.1.2,Win32,119.8035222,5df6304773d724428a9cff45,656018846682f3df8008bb8f,656019cf810898dd828156ab,0,101,101,32,1,onetwo,,,,,,,,,,,,,,,,,,,,,,,,,,,,,,,,,,,,,,,,,,,,,,,,,,,,,,,,,,,,,,,,,,,,,,,,,,,,,,,,,,,,,
5df6304773d724428a9cff45,2023-11-24_03h34.59.051,kallum_motion_pilot,2023.1.2,Win32,119.8035222,5df6304773d724428a9cff45,656018846682f3df8008bb8f,656019cf810898dd828156ab,0,102,102,92,1,sevenfive,,,,,,,,,,,,,,,,,,,,,,,,,,,,,,,,,,,,,,,,,,,,,,,,,,,,,,,,,,,,,,,,,,,,,,,,,,,,,,,,,,,,,
5df6304773d724428a9cff45,2023-11-24_03h34.59.051,kallum_motion_pilot,2023.1.2,Win32,119.8035222,5df6304773d724428a9cff45,656018846682f3df8008bb8f,656019cf810898dd828156ab,0,103,103,156,1,sevenfive,,,,,,,,,,,,,,,,,,,,,,,,,,,,,,,,,,,,,,,,,,,,,,,,,,,,,,,,,,,,,,,,,,,,,,,,,,,,,,,,,,,,,
5df6304773d724428a9cff45,2023-11-24_03h34.59.051,kallum_motion_pilot,2023.1.2,Win32,119.8035222,5df6304773d724428a9cff45,656018846682f3df8008bb8f,656019cf810898dd828156ab,0,104,104,46,1,fourtwo,,,,,,,,,,,,,,,,,,,,,,,,,,,,,,,,,,,,,,,,,,,,,,,,,,,,,,,,,,,,,,,,,,,,,,,,,,,,,,,,,,,,,
5df6304773d724428a9cff45,2023-11-24_03h34.59.051,kallum_motion_pilot,2023.1.2,Win32,119.8035222,5df6304773d724428a9cff45,656018846682f3df8008bb8f,656019cf810898dd828156ab,0,105,105,45,1,threefour,,,,,,,,,,,,,,,,,,,,,,,,,,,,,,,,,,,,,,,,,,,,,,,,,,,,,,,,,,,,,,,,,,,,,,,,,,,,,,,,,,,,,
5df6304773d724428a9cff45,2023-11-24_03h34.59.051,kallum_motion_pilot,2023.1.2,Win32,119.8035222,5df6304773d724428a9cff45,656018846682f3df8008bb8f,656019cf810898dd828156ab,0,106,106,153,1,fiveseven,,,,,,,,,,,,,,,,,,,,,,,,,,,,,,,,,,,,,,,,,,,,,,,,,,,,,,,,,,,,,,,,,,,,,,,,,,,,,,,,,,,,,
5df6304773d724428a9cff45,2023-11-24_03h34.59.051,kallum_motion_pilot,2023.1.2,Win32,119.8035222,5df6304773d724428a9cff45,656018846682f3df8008bb8f,656019cf810898dd828156ab,0,107,107,22,1,fourtwo,,,,,,,,,,,,,,,,,,,,,,,,,,,,,,,,,,,,,,,,,,,,,,,,,,,,,,,,,,,,,,,,,,,,,,,,,,,,,,,,,,,,,
5df6304773d724428a9cff45,2023-11-24_03h34.59.051,kallum_motion_pilot,2023.1.2,Win32,119.8035222,5df6304773d724428a9cff45,656018846682f3df8008bb8f,656019cf810898dd828156ab,0,108,108,85,1,seveneight,,,,,,,,,,,,,,,,,,,,,,,,,,,,,,,,,,,,,,,,,,,,,,,,,,,,,,,,,,,,,,,,,,,,,,,,,,,,,,,,,,,,,
5df6304773d724428a9cff45,2023-11-24_03h34.59.051,kallum_motion_pilot,2023.1.2,Win32,119.8035222,5df6304773d724428a9cff45,656018846682f3df8008bb8f,656019cf810898dd828156ab,0,109,109,47,1,fourthree,,,,,,,,,,,,,,,,,,,,,,,,,,,,,,,,,,,,,,,,,,,,,,,,,,,,,,,,,,,,,,,,,,,,,,,,,,,,,,,,,,,,,
5df6304773d724428a9cff45,2023-11-24_03h34.59.051,kallum_motion_pilot,2023.1.2,Win32,119.8035222,5df6304773d724428a9cff45,656018846682f3df8008bb8f,656019cf810898dd828156ab,0,110,110,117,1,seveneight,,,,,,,,,,,,,,,,,,,,,,,,,,,,,,,,,,,,,,,,,,,,,,,,,,,,,,,,,,,,,,,,,,,,,,,,,,,,,,,,,,,,,
5df6304773d724428a9cff45,2023-11-24_03h34.59.051,kallum_motion_pilot,2023.1.2,Win32,119.8035222,5df6304773d724428a9cff45,656018846682f3df8008bb8f,656019cf810898dd828156ab,0,111,111,128,1,fivesix,,,,,,,,,,,,,,,,,,,,,,,,,,,,,,,,,,,,,,,,,,,,,,,,,,,,,,,,,,,,,,,,,,,,,,,,,,,,,,,,,,,,,
5df6304773d724428a9cff45,2023-11-24_03h34.59.051,kallum_motion_pilot,2023.1.2,Win32,119.8035222,5df6304773d724428a9cff45,656018846682f3df8008bb8f,656019cf810898dd828156ab,0,112,112,56,1,onetwo,,,,,,,,,,,,,,,,,,,,,,,,,,,,,,,,,,,,,,,,,,,,,,,,,,,,,,,,,,,,,,,,,,,,,,,,,,,,,,,,,,,,,
5df6304773d724428a9cff45,2023-11-24_03h34.59.051,kallum_motion_pilot,2023.1.2,Win32,119.8035222,5df6304773d724428a9cff45,656018846682f3df8008bb8f,656019cf810898dd828156ab,0,113,113,104,1,fivesix,,,,,,,,,,,,,,,,,,,,,,,,,,,,,,,,,,,,,,,,,,,,,,,,,,,,,,,,,,,,,,,,,,,,,,,,,,,,,,,,,,,,,
5df6304773d724428a9cff45,2023-11-24_03h34.59.051,kallum_motion_pilot,2023.1.2,Win32,119.8035222,5df6304773d724428a9cff45,656018846682f3df8008bb8f,656019cf810898dd828156ab,0,114,114,116,1,sevenfive,,,,,,,,,,,,,,,,,,,,,,,,,,,,,,,,,,,,,,,,,,,,,,,,,,,,,,,,,,,,,,,,,,,,,,,,,,,,,,,,,,,,,
5df6304773d724428a9cff45,2023-11-24_03h34.59.051,kallum_motion_pilot,2023.1.2,Win32,119.8035222,5df6304773d724428a9cff45,656018846682f3df8008bb8f,656019cf810898dd828156ab,0,115,115,19,1,twofour,,,,,,,,,,,,,,,,,,,,,,,,,,,,,,,,,,,,,,,,,,,,,,,,,,,,,,,,,,,,,,,,,,,,,,,,,,,,,,,,,,,,,
5df6304773d724428a9cff45,2023-11-24_03h34.59.051,kallum_motion_pilot,2023.1.2,Win32,119.8035222,5df6304773d724428a9cff45,656018846682f3df8008bb8f,656019cf810898dd828156ab,0,116,116,107,1,sixeight,,,,,,,,,,,,,,,,,,,,,,,,,,,,,,,,,,,,,,,,,,,,,,,,,,,,,,,,,,,,,,,,,,,,,,,,,,,,,,,,,,,,,
5df6304773d724428a9cff45,2023-11-24_03h34.59.051,kallum_motion_pilot,2023.1.2,Win32,119.8035222,5df6304773d724428a9cff45,656018846682f3df8008bb8f,656019cf810898dd828156ab,0,117,117,21,1,threefour,,,,,,,,,,,,,,,,,,,,,,,,,,,,,,,,,,,,,,,,,,,,,,,,,,,,,,,,,,,,,,,,,,,,,,,,,,,,,,,,,,,,,
5df6304773d724428a9cff45,2023-11-24_03h34.59.051,kallum_motion_pilot,2023.1.2,Win32,119.8035222,5df6304773d724428a9cff45,656018846682f3df8008bb8f,656019cf810898dd828156ab,0,118,118,115,1,sixeight,,,,,,,,,,,,,,,,,,,,,,,,,,,,,,,,,,,,,,,,,,,,,,,,,,,,,,,,,,,,,,,,,,,,,,,,,,,,,,,,,,,,,
5df6304773d724428a9cff45,2023-11-24_03h34.59.051,kallum_motion_pilot,2023.1.2,Win32,119.8035222,5df6304773d724428a9cff45,656018846682f3df8008bb8f,656019cf810898dd828156ab,0,119,119,94,1,eightsix,,,,,,,,,,,,,,,,,,,,,,,,,,,,,,,,,,,,,,,,,,,,,,,,,,,,,,,,,,,,,,,,,,,,,,,,,,,,,,,,,,,,,
5df6304773d724428a9cff45,2023-11-24_03h34.59.051,kallum_motion_pilot,2023.1.2,Win32,119.8035222,5df6304773d724428a9cff45,656018846682f3df8008bb8f,656019cf810898dd828156ab,0,120,120,76,1,threeone,,,,,,,,,,,,,,,,,,,,,,,,,,,,,,,,,,,,,,,,,,,,,,,,,,,,,,,,,,,,,,,,,,,,,,,,,,,,,,,,,,,,,
5df6304773d724428a9cff45,2023-11-24_03h34.59.051,kallum_motion_pilot,2023.1.2,Win32,119.8035222,5df6304773d724428a9cff45,656018846682f3df8008bb8f,656019cf810898dd828156ab,0,121,121,120,1,fivesix,,,,,,,,,,,,,,,,,,,,,,,,,,,,,,,,,,,,,,,,,,,,,,,,,,,,,,,,,,,,,,,,,,,,,,,,,,,,,,,,,,,,,
5df6304773d724428a9cff45,2023-11-24_03h34.59.051,kallum_motion_pilot,2023.1.2,Win32,119.8035222,5df6304773d724428a9cff45,656018846682f3df8008bb8f,656019cf810898dd828156ab,0,122,122,86,1,eightsix,,,,,,,,,,,,,,,,,,,,,,,,,,,,,,,,,,,,,,,,,,,,,,,,,,,,,,,,,,,,,,,,,,,,,,,,,,,,,,,,,,,,,
5df6304773d724428a9cff45,2023-11-24_03h34.59.051,kallum_motion_pilot,2023.1.2,Win32,119.8035222,5df6304773d724428a9cff45,656018846682f3df8008bb8f,656019cf810898dd828156ab,0,123,123,29,1,threefour,,,,,,,,,,,,,,,,,,,,,,,,,,,,,,,,,,,,,,,,,,,,,,,,,,,,,,,,,,,,,,,,,,,,,,,,,,,,,,,,,,,,,
5df6304773d724428a9cff45,2023-11-24_03h34.59.051,kallum_motion_pilot,2023.1.2,Win32,119.8035222,5df6304773d724428a9cff45,656018846682f3df8008bb8f,656019cf810898dd828156ab,0,124,124,78,1,fourtwo,,,,,,,,,,,,,,,,,,,,,,,,,,,,,,,,,,,,,,,,,,,,,,,,,,,,,,,,,,,,,,,,,,,,,,,,,,,,,,,,,,,,,
5df6304773d724428a9cff45,2023-11-24_03h34.59.051,kallum_motion_pilot,2023.1.2,Win32,119.8035222,5df6304773d724428a9cff45,656018846682f3df8008bb8f,656019cf810898dd828156ab,0,125,125,69,1,threefour,,,,,,,,,,,,,,,,,,,,,,,,,,,,,,,,,,,,,,,,,,,,,,,,,,,,,,,,,,,,,,,,,,,,,,,,,,,,,,,,,,,,,
5df6304773d724428a9cff45,2023-11-24_03h34.59.051,kallum_motion_pilot,2023.1.2,Win32,119.8035222,5df6304773d724428a9cff45,656018846682f3df8008bb8f,656019cf810898dd828156ab,0,126,126,61,1,threefour,,,,,,,,,,,,,,,,,,,,,,,,,,,,,,,,,,,,,,,,,,,,,,,,,,,,,,,,,,,,,,,,,,,,,,,,,,,,,,,,,,,,,
5df6304773d724428a9cff45,2023-11-24_03h34.59.051,kallum_motion_pilot,2023.1.2,Win32,119.8035222,5df6304773d724428a9cff45,656018846682f3df8008bb8f,656019cf810898dd828156ab,0,127,127,143,1,eightseven,,,,,,,,,,,,,,,,,,,,,,,,,,,,,,,,,,,,,,,,,,,,,,,,,,,,,,,,,,,,,,,,,,,,,,,,,,,,,,,,,,,,,
5df6304773d724428a9cff45,2023-11-24_03h34.59.051,kallum_motion_pilot,2023.1.2,Win32,119.8035222,5df6304773d724428a9cff45,656018846682f3df8008bb8f,656019cf810898dd828156ab,0,128,128,34,1,twoone,,,,,,,,,,,,,,,,,,,,,,,,,,,,,,,,,,,,,,,,,,,,,,,,,,,,,,,,,,,,,,,,,,,,,,,,,,,,,,,,,,,,,
5df6304773d724428a9cff45,2023-11-24_03h34.59.051,kallum_motion_pilot,2023.1.2,Win32,119.8035222,5df6304773d724428a9cff45,656018846682f3df8008bb8f,656019cf810898dd828156ab,0,129,129,152,1,fivesix,,,,,,,,,,,,,,,,,,,,,,,,,,,,,,,,,,,,,,,,,,,,,,,,,,,,,,,,,,,,,,,,,,,,,,,,,,,,,,,,,,,,,
5df6304773d724428a9cff45,2023-11-24_03h34.59.051,kallum_motion_pilot,2023.1.2,Win32,119.8035222,5df6304773d724428a9cff45,656018846682f3df8008bb8f,656019cf810898dd828156ab,0,130,130,62,1,fourtwo,,,,,,,,,,,,,,,,,,,,,,,,,,,,,,,,,,,,,,,,,,,,,,,,,,,,,,,,,,,,,,,,,,,,,,,,,,,,,,,,,,,,,
5df6304773d724428a9cff45,2023-11-24_03h34.59.051,kallum_motion_pilot,2023.1.2,Win32,119.8035222,5df6304773d724428a9cff45,656018846682f3df8008bb8f,656019cf810898dd828156ab,0,131,131,13,1,threefour,,,,,,,,,,,,,,,,,,,,,,,,,,,,,,,,,,,,,,,,,,,,,,,,,,,,,,,,,,,,,,,,,,,,,,,,,,,,,,,,,,,,,
5df6304773d724428a9cff45,2023-11-24_03h34.59.051,kallum_motion_pilot,2023.1.2,Win32,119.8035222,5df6304773d724428a9cff45,656018846682f3df8008bb8f,656019cf810898dd828156ab,0,132,132,72,1,onetwo,,,,,,,,,,,,,,,,,,,,,,,,,,,,,,,,,,,,,,,,,,,,,,,,,,,,,,,,,,,,,,,,,,,,,,,,,,,,,,,,,,,,,
5df6304773d724428a9cff45,2023-11-24_03h34.59.051,kallum_motion_pilot,2023.1.2,Win32,119.8035222,5df6304773d724428a9cff45,656018846682f3df8008bb8f,656019cf810898dd828156ab,0,133,133,70,1,fourtwo,,,,,,,,,,,,,,,,,,,,,,,,,,,,,,,,,,,,,,,,,,,,,,,,,,,,,,,,,,,,,,,,,,,,,,,,,,,,,,,,,,,,,
5df6304773d724428a9cff45,2023-11-24_03h34.59.051,kallum_motion_pilot,2023.1.2,Win32,119.8035222,5df6304773d724428a9cff45,656018846682f3df8008bb8f,656019cf810898dd828156ab,0,134,134,1,1,onethree,,,,,,,,,,,,,,,,,,,,,,,,,,,,,,,,,,,,,,,,,,,,,,,,,,,,,,,,,,,,,,,,,,,,,,,,,,,,,,,,,,,,,
5df6304773d724428a9cff45,2023-11-24_03h34.59.051,kallum_motion_pilot,2023.1.2,Win32,119.8035222,5df6304773d724428a9cff45,656018846682f3df8008bb8f,656019cf810898dd828156ab,0,135,135,18,1,twoone,,,,,,,,,,,,,,,,,,,,,,,,,,,,,,,,,,,,,,,,,,,,,,,,,,,,,,,,,,,,,,,,,,,,,,,,,,,,,,,,,,,,,
5df6304773d724428a9cff45,2023-11-24_03h34.59.051,kallum_motion_pilot,2023.1.2,Win32,119.8035222,5df6304773d724428a9cff45,656018846682f3df8008bb8f,656019cf810898dd828156ab,0,136,136,42,1,twoone,,,,,,,,,,,,,,,,,,,,,,,,,,,,,,,,,,,,,,,,,,,,,,,,,,,,,,,,,,,,,,,,,,,,,,,,,,,,,,,,,,,,,
5df6304773d724428a9cff45,2023-11-24_03h34.59.051,kallum_motion_pilot,2023.1.2,Win32,119.8035222,5df6304773d724428a9cff45,656018846682f3df8008bb8f,656019cf810898dd828156ab,0,137,137,113,1,fiveseven,,,,,,,,,,,,,,,,,,,,,,,,,,,,,,,,,,,,,,,,,,,,,,,,,,,,,,,,,,,,,,,,,,,,,,,,,,,,,,,,,,,,,
5df6304773d724428a9cff45,2023-11-24_03h34.59.051,kallum_motion_pilot,2023.1.2,Win32,119.8035222,5df6304773d724428a9cff45,656018846682f3df8008bb8f,656019cf810898dd828156ab,0,138,138,160,1,fivesix,,,,,,,,,,,,,,,,,,,,,,,,,,,,,,,,,,,,,,,,,,,,,,,,,,,,,,,,,,,,,,,,,,,,,,,,,,,,,,,,,,,,,
5df6304773d724428a9cff45,2023-11-24_03h34.59.051,kallum_motion_pilot,2023.1.2,Win32,119.8035222,5df6304773d724428a9cff45,656018846682f3df8008bb8f,656019cf810898dd828156ab,0,139,139,28,1,threeone,,,,,,,,,,,,,,,,,,,,,,,,,,,,,,,,,,,,,,,,,,,,,,,,,,,,,,,,,,,,,,,,,,,,,,,,,,,,,,,,,,,,,
5df6304773d724428a9cff45,2023-11-24_03h34.59.051,kallum_motion_pilot,2023.1.2,Win32,119.8035222,5df6304773d724428a9cff45,656018846682f3df8008bb8f,656019cf810898dd828156ab,0,140,140,9,1,onethree,,,,,,,,,,,,,,,,,,,,,,,,,,,,,,,,,,,,,,,,,,,,,,,,,,,,,,,,,,,,,,,,,,,,,,,,,,,,,,,,,,,,,
5df6304773d724428a9cff45,2023-11-24_03h34.59.051,kallum_motion_pilot,2023.1.2,Win32,119.8035222,5df6304773d724428a9cff45,656018846682f3df8008bb8f,656019cf810898dd828156ab,0,141,141,135,1,eightseven,,,,,,,,,,,,,,,,,,,,,,,,,,,,,,,,,,,,,,,,,,,,,,,,,,,,,,,,,,,,,,,,,,,,,,,,,,,,,,,,,,,,,
5df6304773d724428a9cff45,2023-11-24_03h34.59.051,kallum_motion_pilot,2023.1.2,Win32,119.8035222,5df6304773d724428a9cff45,656018846682f3df8008bb8f,656019cf810898dd828156ab,0,142,142,139,1,sixeight,,,,,,,,,,,,,,,,,,,,,,,,,,,,,,,,,,,,,,,,,,,,,,,,,,,,,,,,,,,,,,,,,,,,,,,,,,,,,,,,,,,,,
5df6304773d724428a9cff45,2023-11-24_03h34.59.051,kallum_motion_pilot,2023.1.2,Win32,119.8035222,5df6304773d724428a9cff45,656018846682f3df8008bb8f,656019cf810898dd828156ab,0,143,143,105,1,fiveseven,,,,,,,,,,,,,,,,,,,,,,,,,,,,,,,,,,,,,,,,,,,,,,,,,,,,,,,,,,,,,,,,,,,,,,,,,,,,,,,,,,,,,
5df6304773d724428a9cff45,2023-11-24_03h34.59.051,kallum_motion_pilot,2023.1.2,Win32,119.8035222,5df6304773d724428a9cff45,656018846682f3df8008bb8f,656019cf810898dd828156ab,0,144,144,59,1,twofour,,,,,,,,,,,,,,,,,,,,,,,,,,,,,,,,,,,,,,,,,,,,,,,,,,,,,,,,,,,,,,,,,,,,,,,,,,,,,,,,,,,,,
5df6304773d724428a9cff45,2023-11-24_03h34.59.051,kallum_motion_pilot,2023.1.2,Win32,119.8035222,5df6304773d724428a9cff45,656018846682f3df8008bb8f,656019cf810898dd828156ab,0,145,145,15,1,fourthree,,,,,,,,,,,,,,,,,,,,,,,,,,,,,,,,,,,,,,,,,,,,,,,,,,,,,,,,,,,,,,,,,,,,,,,,,,,,,,,,,,,,,
5df6304773d724428a9cff45,2023-11-24_03h34.59.051,kallum_motion_pilot,2023.1.2,Win32,119.8035222,5df6304773d724428a9cff45,656018846682f3df8008bb8f,656019cf810898dd828156ab,0,146,146,17,1,onethree,,,,,,,,,,,,,,,,,,,,,,,,,,,,,,,,,,,,,,,,,,,,,,,,,,,,,,,,,,,,,,,,,,,,,,,,,,,,,,,,,,,,,
5df6304773d724428a9cff45,2023-11-24_03h34.59.051,kallum_motion_pilot,2023.1.2,Win32,119.8035222,5df6304773d724428a9cff45,656018846682f3df8008bb8f,656019cf810898dd828156ab,0,147,147,51,1,twofour,,,,,,,,,,,,,,,,,,,,,,,,,,,,,,,,,,,,,,,,,,,,,,,,,,,,,,,,,,,,,,,,,,,,,,,,,,,,,,,,,,,,,
5df6304773d724428a9cff45,2023-11-24_03h34.59.051,kallum_motion_pilot,2023.1.2,Win32,119.8035222,5df6304773d724428a9cff45,656018846682f3df8008bb8f,656019cf810898dd828156ab,0,148,148,109,1,seveneight,,,,,,,,,,,,,,,,,,,,,,,,,,,,,,,,,,,,,,,,,,,,,,,,,,,,,,,,,,,,,,,,,,,,,,,,,,,,,,,,,,,,,
5df6304773d724428a9cff45,2023-11-24_03h34.59.051,kallum_motion_pilot,2023.1.2,Win32,119.8035222,5df6304773d724428a9cff45,656018846682f3df8008bb8f,656019cf810898dd828156ab,0,149,149,43,1,twofour,,,,,,,,,,,,,,,,,,,,,,,,,,,,,,,,,,,,,,,,,,,,,,,,,,,,,,,,,,,,,,,,,,,,,,,,,,,,,,,,,,,,,
5df6304773d724428a9cff45,2023-11-24_03h34.59.051,kallum_motion_pilot,2023.1.2,Win32,119.8035222,5df6304773d724428a9cff45,656018846682f3df8008bb8f,656019cf810898dd828156ab,0,150,150,133,1,seveneight,,,,,,,,,,,,,,,,,,,,,,,,,,,,,,,,,,,,,,,,,,,,,,,,,,,,,,,,,,,,,,,,,,,,,,,,,,,,,,,,,,,,,
5df6304773d724428a9cff45,2023-11-24_03h34.59.051,kallum_motion_pilot,2023.1.2,Win32,119.8035222,5df6304773d724428a9cff45,656018846682f3df8008bb8f,656019cf810898dd828156ab,0,151,151,102,1,eightsix,,,,,,,,,,,,,,,,,,,,,,,,,,,,,,,,,,,,,,,,,,,,,,,,,,,,,,,,,,,,,,,,,,,,,,,,,,,,,,,,,,,,,
5df6304773d724428a9cff45,2023-11-24_03h34.59.051,kallum_motion_pilot,2023.1.2,Win32,119.8035222,5df6304773d724428a9cff45,656018846682f3df8008bb8f,656019cf810898dd828156ab,0,152,152,3,1,twofour,,,,,,,,,,,,,,,,,,,,,,,,,,,,,,,,,,,,,,,,,,,,,,,,,,,,,,,,,,,,,,,,,,,,,,,,,,,,,,,,,,,,,
5df6304773d724428a9cff45,2023-11-24_03h34.59.051,kallum_motion_pilot,2023.1.2,Win32,119.8035222,5df6304773d724428a9cff45,656018846682f3df8008bb8f,656019cf810898dd828156ab,0,153,153,154,1,sixfive,,,,,,,,,,,,,,,,,,,,,,,,,,,,,,,,,,,,,,,,,,,,,,,,,,,,,,,,,,,,,,,,,,,,,,,,,,,,,,,,,,,,,
5df6304773d724428a9cff45,2023-11-24_03h34.59.051,kallum_motion_pilot,2023.1.2,Win32,119.8035222,5df6304773d724428a9cff45,656018846682f3df8008bb8f,656019cf810898dd828156ab,0,154,154,58,1,twoone,,,,,,,,,,,,,,,,,,,,,,,,,,,,,,,,,,,,,,,,,,,,,,,,,,,,,,,,,,,,,,,,,,,,,,,,,,,,,,,,,,,,,
5df6304773d724428a9cff45,2023-11-24_03h34.59.051,kallum_motion_pilot,2023.1.2,Win32,119.8035222,5df6304773d724428a9cff45,656018846682f3df8008bb8f,656019cf810898dd828156ab,0,155,155,157,1,seveneight,,,,,,,,,,,,,,,,,,,,,,,,,,,,,,,,,,,,,,,,,,,,,,,,,,,,,,,,,,,,,,,,,,,,,,,,,,,,,,,,,,,,,
5df6304773d724428a9cff45,2023-11-24_03h34.59.051,kallum_motion_pilot,2023.1.2,Win32,119.8035222,5df6304773d724428a9cff45,656018846682f3df8008bb8f,656019cf810898dd828156ab,0,156,156,130,1,sixfive,,,,,,,,,,,,,,,,,,,,,,,,,,,,,,,,,,,,,,,,,,,,,,,,,,,,,,,,,,,,,,,,,,,,,,,,,,,,,,,,,,,,,
5df6304773d724428a9cff45,2023-11-24_03h34.59.051,kallum_motion_pilot,2023.1.2,Win32,119.8035222,5df6304773d724428a9cff45,656018846682f3df8008bb8f,656019cf810898dd828156ab,0,157,157,25,1,onethree,,,,,,,,,,,,,,,,,,,,,,,,,,,,,,,,,,,,,,,,,,,,,,,,,,,,,,,,,,,,,,,,,,,,,,,,,,,,,,,,,,,,,
5df6304773d724428a9cff45,2023-11-24_03h34.59.051,kallum_motion_pilot,2023.1.2,Win32,119.8035222,5df6304773d724428a9cff45,656018846682f3df8008bb8f,656019cf810898dd828156ab,0,158,158,63,1,fourthree,,,,,,,,,,,,,,,,,,,,,,,,,,,,,,,,,,,,,,,,,,,,,,,,,,,,,,,,,,,,,,,,,,,,,,,,,,,,,,,,,,,,,
5df6304773d724428a9cff45,2023-11-24_03h34.59.051,kallum_motion_pilot,2023.1.2,Win32,119.8035222,5df6304773d724428a9cff45,656018846682f3df8008bb8f,656019cf810898dd828156ab,0,159,159,73,1,onethree,,,,,,,,,,,,,,,,,,,,,,,,,,,,,,,,,,,,,,,,,,,,,,,,,,,,,,,,,,,,,,,,,,,,,,,,,,,,,,,,,,,,,
5df6304773d724428a9cff45,2023-11-24_03h34.59.051,kallum_motion_pilot,2023.1.2,Win32,119.8035222,5df6304773d724428a9cff45,656018846682f3df8008bb8f,656019cf810898dd828156ab,0,160,160,11,1,twofour,,,,,,,,,,,,,,,,,,,,,,,,,,,,,,,,,,,,,,,,,,,,,,,,,,,,,,,,,,,,,,,,,,,,,,,,,,,,,,,,,,,,,
5df6304773d724428a9cff45,2023-11-24_03h34.59.051,kallum_motion_pilot,2023.1.2,Win32,119.8035222,5df6304773d724428a9cff45,656018846682f3df8008bb8f,656019cf810898dd828156ab,0,161,161,81,1,fiveseven,,,,,,,,,,,,,,,,,,,,,,,,,,,,,,,,,,,,,,,,,,,,,,,,,,,,,,,,,,,,,,,,,,,,,,,,,,,,,,,,,,,,,
5df6304773d724428a9cff45,2023-11-24_03h34.59.051,kallum_motion_pilot,2023.1.2,Win32,119.8035222,5df6304773d724428a9cff45,656018846682f3df8008bb8f,656019cf810898dd828156ab,1,0,162,69,1,threefour,,,,,,,,,,,,,,,,,,,,,,,,,,,,,,,,,,,,,,,,,,,,,,,,,,,,,,,,,,,,,,,,,,,,,,,,,,,,,,,,,,,,,
5df6304773d724428a9cff45,2023-11-24_03h34.59.051,kallum_motion_pilot,2023.1.2,Win32,119.8035222,5df6304773d724428a9cff45,656018846682f3df8008bb8f,656019cf810898dd828156ab,1,1,163,53,1,threefour,,,,,,,,,,,,,,,,,,,,,,,,,,,,,,,,,,,,,,,,,,,,,,,,,,,,,,,,,,,,,,,,,,,,,,,,,,,,,,,,,,,,,
5df6304773d724428a9cff45,2023-11-24_03h34.59.051,kallum_motion_pilot,2023.1.2,Win32,119.8035222,5df6304773d724428a9cff45,656018846682f3df8008bb8f,656019cf810898dd828156ab,1,2,164,87,1,eightseven,,,,,,,,,,,,,,,,,,,,,,,,,,,,,,,,,,,,,,,,,,,,,,,,,,,,,,,,,,,,,,,,,,,,,,,,,,,,,,,,,,,,,
5df6304773d724428a9cff45,2023-11-24_03h34.59.051,kallum_motion_pilot,2023.1.2,Win32,119.8035222,5df6304773d724428a9cff45,656018846682f3df8008bb8f,656019cf810898dd828156ab,1,3,165,115,1,sixeight,,,,,,,,,,,,,,,,,,,,,,,,,,,,,,,,,,,,,,,,,,,,,,,,,,,,,,,,,,,,,,,,,,,,,,,,,,,,,,,,,,,,,
5df6304773d724428a9cff45,2023-11-24_03h34.59.051,kallum_motion_pilot,2023.1.2,Win32,119.8035222,5df6304773d724428a9cff45,656018846682f3df8008bb8f,656019cf810898dd828156ab,1,4,166,95,1,eightseven,,,,,,,,,,,,,,,,,,,,,,,,,,,,,,,,,,,,,,,,,,,,,,,,,,,,,,,,,,,,,,,,,,,,,,,,,,,,,,,,,,,,,
5df6304773d724428a9cff45,2023-11-24_03h34.59.051,kallum_motion_pilot,2023.1.2,Win32,119.8035222,5df6304773d724428a9cff45,656018846682f3df8008bb8f,656019cf810898dd828156ab,1,5,167,12,1,threeone,,,,,,,,,,,,,,,,,,,,,,,,,,,,,,,,,,,,,,,,,,,,,,,,,,,,,,,,,,,,,,,,,,,,,,,,,,,,,,,,,,,,,
5df6304773d724428a9cff45,2023-11-24_03h34.59.051,kallum_motion_pilot,2023.1.2,Win32,119.8035222,5df6304773d724428a9cff45,656018846682f3df8008bb8f,656019cf810898dd828156ab,1,6,168,24,1,onetwo,,,,,,,,,,,,,,,,,,,,,,,,,,,,,,,,,,,,,,,,,,,,,,,,,,,,,,,,,,,,,,,,,,,,,,,,,,,,,,,,,,,,,
5df6304773d724428a9cff45,2023-11-24_03h34.59.051,kallum_motion_pilot,2023.1.2,Win32,119.8035222,5df6304773d724428a9cff45,656018846682f3df8008bb8f,656019cf810898dd828156ab,1,7,169,150,1,eightsix,,,,,,,,,,,,,,,,,,,,,,,,,,,,,,,,,,,,,,,,,,,,,,,,,,,,,,,,,,,,,,,,,,,,,,,,,,,,,,,,,,,,,
5df6304773d724428a9cff45,2023-11-24_03h34.59.051,kallum_motion_pilot,2023.1.2,Win32,119.8035222,5df6304773d724428a9cff45,656018846682f3df8008bb8f,656019cf810898dd828156ab,1,8,170,159,1,eightseven,,,,,,,,,,,,,,,,,,,,,,,,,,,,,,,,,,,,,,,,,,,,,,,,,,,,,,,,,,,,,,,,,,,,,,,,,,,,,,,,,,,,,
5df6304773d724428a9cff45,2023-11-24_03h34.59.051,kallum_motion_pilot,2023.1.2,Win32,119.8035222,5df6304773d724428a9cff45,656018846682f3df8008bb8f,656019cf810898dd828156ab,1,9,171,49,1,onethree,,,,,,,,,,,,,,,,,,,,,,,,,,,,,,,,,,,,,,,,,,,,,,,,,,,,,,,,,,,,,,,,,,,,,,,,,,,,,,,,,,,,,
5df6304773d724428a9cff45,2023-11-24_03h34.59.051,kallum_motion_pilot,2023.1.2,Win32,119.8035222,5df6304773d724428a9cff45,656018846682f3df8008bb8f,656019cf810898dd828156ab,1,10,172,50,1,twoone,,,,,,,,,,,,,,,,,,,,,,,,,,,,,,,,,,,,,,,,,,,,,,,,,,,,,,,,,,,,,,,,,,,,,,,,,,,,,,,,,,,,,
5df6304773d724428a9cff45,2023-11-24_03h34.59.051,kallum_motion_pilot,2023.1.2,Win32,119.8035222,5df6304773d724428a9cff45,656018846682f3df8008bb8f,656019cf810898dd828156ab,1,11,173,154,1,sixfive,,,,,,,,,,,,,,,,,,,,,,,,,,,,,,,,,,,,,,,,,,,,,,,,,,,,,,,,,,,,,,,,,,,,,,,,,,,,,,,,,,,,,
5df6304773d724428a9cff45,2023-11-24_03h34.59.051,kallum_motion_pilot,2023.1.2,Win32,119.8035222,5df6304773d724428a9cff45,656018846682f3df8008bb8f,656019cf810898dd828156ab,1,12,174,136,1,fivesix,,,,,,,,,,,,,,,,,,,,,,,,,,,,,,,,,,,,,,,,,,,,,,,,,,,,,,,,,,,,,,,,,,,,,,,,,,,,,,,,,,,,,
5df6304773d724428a9cff45,2023-11-24_03h34.59.051,kallum_motion_pilot,2023.1.2,Win32,119.8035222,5df6304773d724428a9cff45,656018846682f3df8008bb8f,656019cf810898dd828156ab,1,13,175,149,1,seveneight,,,,,,,,,,,,,,,,,,,,,,,,,,,,,,,,,,,,,,,,,,,,,,,,,,,,,,,,,,,,,,,,,,,,,,,,,,,,,,,,,,,,,
5df6304773d724428a9cff45,2023-11-24_03h34.59.051,kallum_motion_pilot,2023.1.2,Win32,119.8035222,5df6304773d724428a9cff45,656018846682f3df8008bb8f,656019cf810898dd828156ab,1,14,176,126,1,eightsix,,,,,,,,,,,,,,,,,,,,,,,,,,,,,,,,,,,,,,,,,,,,,,,,,,,,,,,,,,,,,,,,,,,,,,,,,,,,,,,,,,,,,
5df6304773d724428a9cff45,2023-11-24_03h34.59.051,kallum_motion_pilot,2023.1.2,Win32,119.8035222,5df6304773d724428a9cff45,656018846682f3df8008bb8f,656019cf810898dd828156ab,1,15,177,79,1,eightseven,,,,,,,,,,,,,,,,,,,,,,,,,,,,,,,,,,,,,,,,,,,,,,,,,,,,,,,,,,,,,,,,,,,,,,,,,,,,,,,,,,,,,
5df6304773d724428a9cff45,2023-11-24_03h34.59.051,kallum_motion_pilot,2023.1.2,Win32,119.8035222,5df6304773d724428a9cff45,656018846682f3df8008bb8f,656019cf810898dd828156ab,1,16,178,86,1,eightsix,,,,,,,,,,,,,,,,,,,,,,,,,,,,,,,,,,,,,,,,,,,,,,,,,,,,,,,,,,,,,,,,,,,,,,,,,,,,,,,,,,,,,
5df6304773d724428a9cff45,2023-11-24_03h34.59.051,kallum_motion_pilot,2023.1.2,Win32,119.8035222,5df6304773d724428a9cff45,656018846682f3df8008bb8f,656019cf810898dd828156ab,1,17,179,34,1,twoone,,,,,,,,,,,,,,,,,,,,,,,,,,,,,,,,,,,,,,,,,,,,,,,,,,,,,,,,,,,,,,,,,,,,,,,,,,,,,,,,,,,,,
5df6304773d724428a9cff45,2023-11-24_03h34.59.051,kallum_motion_pilot,2023.1.2,Win32,119.8035222,5df6304773d724428a9cff45,656018846682f3df8008bb8f,656019cf810898dd828156ab,1,18,180,129,1,fiveseven,,,,,,,,,,,,,,,,,,,,,,,,,,,,,,,,,,,,,,,,,,,,,,,,,,,,,,,,,,,,,,,,,,,,,,,,,,,,,,,,,,,,,
5df6304773d724428a9cff45,2023-11-24_03h34.59.051,kallum_motion_pilot,2023.1.2,Win32,119.8035222,5df6304773d724428a9cff45,656018846682f3df8008bb8f,656019cf810898dd828156ab,1,19,181,93,1,seveneight,,,,,,,,,,,,,,,,,,,,,,,,,,,,,,,,,,,,,,,,,,,,,,,,,,,,,,,,,,,,,,,,,,,,,,,,,,,,,,,,,,,,,
5df6304773d724428a9cff45,2023-11-24_03h34.59.051,kallum_motion_pilot,2023.1.2,Win32,119.8035222,5df6304773d724428a9cff45,656018846682f3df8008bb8f,656019cf810898dd828156ab,1,20,182,80,1,fivesix,,,,,,,,,,,,,,,,,,,,,,,,,,,,,,,,,,,,,,,,,,,,,,,,,,,,,,,,,,,,,,,,,,,,,,,,,,,,,,,,,,,,,
5df6304773d724428a9cff45,2023-11-24_03h34.59.051,kallum_motion_pilot,2023.1.2,Win32,119.8035222,5df6304773d724428a9cff45,656018846682f3df8008bb8f,656019cf810898dd828156ab,1,21,183,65,1,onethree,,,,,,,,,,,,,,,,,,,,,,,,,,,,,,,,,,,,,,,,,,,,,,,,,,,,,,,,,,,,,,,,,,,,,,,,,,,,,,,,,,,,,
5df6304773d724428a9cff45,2023-11-24_03h34.59.051,kallum_motion_pilot,2023.1.2,Win32,119.8035222,5df6304773d724428a9cff45,656018846682f3df8008bb8f,656019cf810898dd828156ab,1,22,184,75,1,twofour,,,,,,,,,,,,,,,,,,,,,,,,,,,,,,,,,,,,,,,,,,,,,,,,,,,,,,,,,,,,,,,,,,,,,,,,,,,,,,,,,,,,,
5df6304773d724428a9cff45,2023-11-24_03h34.59.051,kallum_motion_pilot,2023.1.2,Win32,119.8035222,5df6304773d724428a9cff45,656018846682f3df8008bb8f,656019cf810898dd828156ab,1,23,185,104,1,fivesix,,,,,,,,,,,,,,,,,,,,,,,,,,,,,,,,,,,,,,,,,,,,,,,,,,,,,,,,,,,,,,,,,,,,,,,,,,,,,,,,,,,,,
5df6304773d724428a9cff45,2023-11-24_03h34.59.051,kallum_motion_pilot,2023.1.2,Win32,119.8035222,5df6304773d724428a9cff45,656018846682f3df8008bb8f,656019cf810898dd828156ab,1,24,186,9,1,onethree,,,,,,,,,,,,,,,,,,,,,,,,,,,,,,,,,,,,,,,,,,,,,,,,,,,,,,,,,,,,,,,,,,,,,,,,,,,,,,,,,,,,,
5df6304773d724428a9cff45,2023-11-24_03h34.59.051,kallum_motion_pilot,2023.1.2,Win32,119.8035222,5df6304773d724428a9cff45,656018846682f3df8008bb8f,656019cf810898dd828156ab,1,25,187,18,1,twoone,,,,,,,,,,,,,,,,,,,,,,,,,,,,,,,,,,,,,,,,,,,,,,,,,,,,,,,,,,,,,,,,,,,,,,,,,,,,,,,,,,,,,
5df6304773d724428a9cff45,2023-11-24_03h34.59.051,kallum_motion_pilot,2023.1.2,Win32,119.8035222,5df6304773d724428a9cff45,656018846682f3df8008bb8f,656019cf810898dd828156ab,1,26,188,36,1,threeone,,,,,,,,,,,,,,,,,,,,,,,,,,,,,,,,,,,,,,,,,,,,,,,,,,,,,,,,,,,,,,,,,,,,,,,,,,,,,,,,,,,,,
5df6304773d724428a9cff45,2023-11-24_03h34.59.051,kallum_motion_pilot,2023.1.2,Win32,119.8035222,5df6304773d724428a9cff45,656018846682f3df8008bb8f,656019cf810898dd828156ab,1,27,189,32,1,onetwo,,,,,,,,,,,,,,,,,,,,,,,,,,,,,,,,,,,,,,,,,,,,,,,,,,,,,,,,,,,,,,,,,,,,,,,,,,,,,,,,,,,,,
5df6304773d724428a9cff45,2023-11-24_03h34.59.051,kallum_motion_pilot,2023.1.2,Win32,119.8035222,5df6304773d724428a9cff45,656018846682f3df8008bb8f,656019cf810898dd828156ab,1,28,190,38,1,fourtwo,,,,,,,,,,,,,,,,,,,,,,,,,,,,,,,,,,,,,,,,,,,,,,,,,,,,,,,,,,,,,,,,,,,,,,,,,,,,,,,,,,,,,
5df6304773d724428a9cff45,2023-11-24_03h34.59.051,kallum_motion_pilot,2023.1.2,Win32,119.8035222,5df6304773d724428a9cff45,656018846682f3df8008bb8f,656019cf810898dd828156ab,1,29,191,143,1,eightseven,,,,,,,,,,,,,,,,,,,,,,,,,,,,,,,,,,,,,,,,,,,,,,,,,,,,,,,,,,,,,,,,,,,,,,,,,,,,,,,,,,,,,
5df6304773d724428a9cff45,2023-11-24_03h34.59.051,kallum_motion_pilot,2023.1.2,Win32,119.8035222,5df6304773d724428a9cff45,656018846682f3df8008bb8f,656019cf810898dd828156ab,1,30,192,134,1,eightsix,,,,,,,,,,,,,,,,,,,,,,,,,,,,,,,,,,,,,,,,,,,,,,,,,,,,,,,,,,,,,,,,,,,,,,,,,,,,,,,,,,,,,
5df6304773d724428a9cff45,2023-11-24_03h34.59.051,kallum_motion_pilot,2023.1.2,Win32,119.8035222,5df6304773d724428a9cff45,656018846682f3df8008bb8f,656019cf810898dd828156ab,1,31,193,60,1,threeone,,,,,,,,,,,,,,,,,,,,,,,,,,,,,,,,,,,,,,,,,,,,,,,,,,,,,,,,,,,,,,,,,,,,,,,,,,,,,,,,,,,,,
5df6304773d724428a9cff45,2023-11-24_03h34.59.051,kallum_motion_pilot,2023.1.2,Win32,119.8035222,5df6304773d724428a9cff45,656018846682f3df8008bb8f,656019cf810898dd828156ab,1,32,194,111,1,eightseven,,,,,,,,,,,,,,,,,,,,,,,,,,,,,,,,,,,,,,,,,,,,,,,,,,,,,,,,,,,,,,,,,,,,,,,,,,,,,,,,,,,,,
5df6304773d724428a9cff45,2023-11-24_03h34.59.051,kallum_motion_pilot,2023.1.2,Win32,119.8035222,5df6304773d724428a9cff45,656018846682f3df8008bb8f,656019cf810898dd828156ab,1,33,195,83,1,sixeight,,,,,,,,,,,,,,,,,,,,,,,,,,,,,,,,,,,,,,,,,,,,,,,,,,,,,,,,,,,,,,,,,,,,,,,,,,,,,,,,,,,,,
5df6304773d724428a9cff45,2023-11-24_03h34.59.051,kallum_motion_pilot,2023.1.2,Win32,119.8035222,5df6304773d724428a9cff45,656018846682f3df8008bb8f,656019cf810898dd828156ab,1,34,196,128,1,fivesix,,,,,,,,,,,,,,,,,,,,,,,,,,,,,,,,,,,,,,,,,,,,,,,,,,,,,,,,,,,,,,,,,,,,,,,,,,,,,,,,,,,,,
5df6304773d724428a9cff45,2023-11-24_03h34.59.051,kallum_motion_pilot,2023.1.2,Win32,119.8035222,5df6304773d724428a9cff45,656018846682f3df8008bb8f,656019cf810898dd828156ab,1,35,197,105,1,fiveseven,,,,,,,,,,,,,,,,,,,,,,,,,,,,,,,,,,,,,,,,,,,,,,,,,,,,,,,,,,,,,,,,,,,,,,,,,,,,,,,,,,,,,
5df6304773d724428a9cff45,2023-11-24_03h34.59.051,kallum_motion_pilot,2023.1.2,Win32,119.8035222,5df6304773d724428a9cff45,656018846682f3df8008bb8f,656019cf810898dd828156ab,1,36,198,106,1,sixfive,,,,,,,,,,,,,,,,,,,,,,,,,,,,,,,,,,,,,,,,,,,,,,,,,,,,,,,,,,,,,,,,,,,,,,,,,,,,,,,,,,,,,
5df6304773d724428a9cff45,2023-11-24_03h34.59.051,kallum_motion_pilot,2023.1.2,Win32,119.8035222,5df6304773d724428a9cff45,656018846682f3df8008bb8f,656019cf810898dd828156ab,1,37,199,40,1,onetwo,,,,,,,,,,,,,,,,,,,,,,,,,,,,,,,,,,,,,,,,,,,,,,,,,,,,,,,,,,,,,,,,,,,,,,,,,,,,,,,,,,,,,
5df6304773d724428a9cff45,2023-11-24_03h34.59.051,kallum_motion_pilot,2023.1.2,Win32,119.8035222,5df6304773d724428a9cff45,656018846682f3df8008bb8f,656019cf810898dd828156ab,1,38,200,78,1,fourtwo,,,,,,,,,,,,,,,,,,,,,,,,,,,,,,,,,,,,,,,,,,,,,,,,,,,,,,,,,,,,,,,,,,,,,,,,,,,,,,,,,,,,,
5df6304773d724428a9cff45,2023-11-24_03h34.59.051,kallum_motion_pilot,2023.1.2,Win32,119.8035222,5df6304773d724428a9cff45,656018846682f3df8008bb8f,656019cf810898dd828156ab,1,39,201,30,1,fourtwo,,,,,,,,,,,,,,,,,,,,,,,,,,,,,,,,,,,,,,,,,,,,,,,,,,,,,,,,,,,,,,,,,,,,,,,,,,,,,,,,,,,,,
5df6304773d724428a9cff45,2023-11-24_03h34.59.051,kallum_motion_pilot,2023.1.2,Win32,119.8035222,5df6304773d724428a9cff45,656018846682f3df8008bb8f,656019cf810898dd828156ab,1,40,202,131,1,sixeight,,,,,,,,,,,,,,,,,,,,,,,,,,,,,,,,,,,,,,,,,,,,,,,,,,,,,,,,,,,,,,,,,,,,,,,,,,,,,,,,,,,,,
5df6304773d724428a9cff45,2023-11-24_03h34.59.051,kallum_motion_pilot,2023.1.2,Win32,119.8035222,5df6304773d724428a9cff45,656018846682f3df8008bb8f,656019cf810898dd828156ab,1,41,203,157,1,seveneight,,,,,,,,,,,,,,,,,,,,,,,,,,,,,,,,,,,,,,,,,,,,,,,,,,,,,,,,,,,,,,,,,,,,,,,,,,,,,,,,,,,,,
5df6304773d724428a9cff45,2023-11-24_03h34.59.051,kallum_motion_pilot,2023.1.2,Win32,119.8035222,5df6304773d724428a9cff45,656018846682f3df8008bb8f,656019cf810898dd828156ab,1,42,204,139,1,sixeight,,,,,,,,,,,,,,,,,,,,,,,,,,,,,,,,,,,,,,,,,,,,,,,,,,,,,,,,,,,,,,,,,,,,,,,,,,,,,,,,,,,,,
5df6304773d724428a9cff45,2023-11-24_03h34.59.051,kallum_motion_pilot,2023.1.2,Win32,119.8035222,5df6304773d724428a9cff45,656018846682f3df8008bb8f,656019cf810898dd828156ab,1,43,205,47,1,fourthree,,,,,,,,,,,,,,,,,,,,,,,,,,,,,,,,,,,,,,,,,,,,,,,,,,,,,,,,,,,,,,,,,,,,,,,,,,,,,,,,,,,,,
5df6304773d724428a9cff45,2023-11-24_03h34.59.051,kallum_motion_pilot,2023.1.2,Win32,119.8035222,5df6304773d724428a9cff45,656018846682f3df8008bb8f,656019cf810898dd828156ab,1,44,206,85,1,seveneight,,,,,,,,,,,,,,,,,,,,,,,,,,,,,,,,,,,,,,,,,,,,,,,,,,,,,,,,,,,,,,,,,,,,,,,,,,,,,,,,,,,,,
5df6304773d724428a9cff45,2023-11-24_03h34.59.051,kallum_motion_pilot,2023.1.2,Win32,119.8035222,5df6304773d724428a9cff45,656018846682f3df8008bb8f,656019cf810898dd828156ab,1,45,207,96,1,fivesix,,,,,,,,,,,,,,,,,,,,,,,,,,,,,,,,,,,,,,,,,,,,,,,,,,,,,,,,,,,,,,,,,,,,,,,,,,,,,,,,,,,,,
5df6304773d724428a9cff45,2023-11-24_03h34.59.051,kallum_motion_pilot,2023.1.2,Win32,119.8035222,5df6304773d724428a9cff45,656018846682f3df8008bb8f,656019cf810898dd828156ab,1,46,208,109,1,seveneight,,,,,,,,,,,,,,,,,,,,,,,,,,,,,,,,,,,,,,,,,,,,,,,,,,,,,,,,,,,,,,,,,,,,,,,,,,,,,,,,,,,,,
5df6304773d724428a9cff45,2023-11-24_03h34.59.051,kallum_motion_pilot,2023.1.2,Win32,119.8035222,5df6304773d724428a9cff45,656018846682f3df8008bb8f,656019cf810898dd828156ab,1,47,209,99,1,sixeight,,,,,,,,,,,,,,,,,,,,,,,,,,,,,,,,,,,,,,,,,,,,,,,,,,,,,,,,,,,,,,,,,,,,,,,,,,,,,,,,,,,,,
5df6304773d724428a9cff45,2023-11-24_03h34.59.051,kallum_motion_pilot,2023.1.2,Win32,119.8035222,5df6304773d724428a9cff45,656018846682f3df8008bb8f,656019cf810898dd828156ab,1,48,210,22,1,fourtwo,,,,,,,,,,,,,,,,,,,,,,,,,,,,,,,,,,,,,,,,,,,,,,,,,,,,,,,,,,,,,,,,,,,,,,,,,,,,,,,,,,,,,
5df6304773d724428a9cff45,2023-11-24_03h34.59.051,kallum_motion_pilot,2023.1.2,Win32,119.8035222,5df6304773d724428a9cff45,656018846682f3df8008bb8f,656019cf810898dd828156ab,1,49,211,45,1,threefour,,,,,,,,,,,,,,,,,,,,,,,,,,,,,,,,,,,,,,,,,,,,,,,,,,,,,,,,,,,,,,,,,,,,,,,,,,,,,,,,,,,,,
5df6304773d724428a9cff45,2023-11-24_03h34.59.051,kallum_motion_pilot,2023.1.2,Win32,119.8035222,5df6304773d724428a9cff45,656018846682f3df8008bb8f,656019cf810898dd828156ab,1,50,212,56,1,onetwo,,,,,,,,,,,,,,,,,,,,,,,,,,,,,,,,,,,,,,,,,,,,,,,,,,,,,,,,,,,,,,,,,,,,,,,,,,,,,,,,,,,,,
5df6304773d724428a9cff45,2023-11-24_03h34.59.051,kallum_motion_pilot,2023.1.2,Win32,119.8035222,5df6304773d724428a9cff45,656018846682f3df8008bb8f,656019cf810898dd828156ab,1,51,213,146,1,sixfive,,,,,,,,,,,,,,,,,,,,,,,,,,,,,,,,,,,,,,,,,,,,,,,,,,,,,,,,,,,,,,,,,,,,,,,,,,,,,,,,,,,,,
5df6304773d724428a9cff45,2023-11-24_03h34.59.051,kallum_motion_pilot,2023.1.2,Win32,119.8035222,5df6304773d724428a9cff45,656018846682f3df8008bb8f,656019cf810898dd828156ab,1,52,214,141,1,seveneight,,,,,,,,,,,,,,,,,,,,,,,,,,,,,,,,,,,,,,,,,,,,,,,,,,,,,,,,,,,,,,,,,,,,,,,,,,,,,,,,,,,,,
5df6304773d724428a9cff45,2023-11-24_03h34.59.051,kallum_motion_pilot,2023.1.2,Win32,119.8035222,5df6304773d724428a9cff45,656018846682f3df8008bb8f,656019cf810898dd828156ab,1,53,215,89,1,fiveseven,,,,,,,,,,,,,,,,,,,,,,,,,,,,,,,,,,,,,,,,,,,,,,,,,,,,,,,,,,,,,,,,,,,,,,,,,,,,,,,,,,,,,
5df6304773d724428a9cff45,2023-11-24_03h34.59.051,kallum_motion_pilot,2023.1.2,Win32,119.8035222,5df6304773d724428a9cff45,656018846682f3df8008bb8f,656019cf810898dd828156ab,1,54,216,100,1,sevenfive,,,,,,,,,,,,,,,,,,,,,,,,,,,,,,,,,,,,,,,,,,,,,,,,,,,,,,,,,,,,,,,,,,,,,,,,,,,,,,,,,,,,,
5df6304773d724428a9cff45,2023-11-24_03h34.59.051,kallum_motion_pilot,2023.1.2,Win32,119.8035222,5df6304773d724428a9cff45,656018846682f3df8008bb8f,656019cf810898dd828156ab,1,55,217,29,1,threefour,,,,,,,,,,,,,,,,,,,,,,,,,,,,,,,,,,,,,,,,,,,,,,,,,,,,,,,,,,,,,,,,,,,,,,,,,,,,,,,,,,,,,
5df6304773d724428a9cff45,2023-11-24_03h34.59.051,kallum_motion_pilot,2023.1.2,Win32,119.8035222,5df6304773d724428a9cff45,656018846682f3df8008bb8f,656019cf810898dd828156ab,1,56,218,152,1,fivesix,,,,,,,,,,,,,,,,,,,,,,,,,,,,,,,,,,,,,,,,,,,,,,,,,,,,,,,,,,,,,,,,,,,,,,,,,,,,,,,,,,,,,
5df6304773d724428a9cff45,2023-11-24_03h34.59.051,kallum_motion_pilot,2023.1.2,Win32,119.8035222,5df6304773d724428a9cff45,656018846682f3df8008bb8f,656019cf810898dd828156ab,1,57,219,10,1,twoone,,,,,,,,,,,,,,,,,,,,,,,,,,,,,,,,,,,,,,,,,,,,,,,,,,,,,,,,,,,,,,,,,,,,,,,,,,,,,,,,,,,,,
5df6304773d724428a9cff45,2023-11-24_03h34.59.051,kallum_motion_pilot,2023.1.2,Win32,119.8035222,5df6304773d724428a9cff45,656018846682f3df8008bb8f,656019cf810898dd828156ab,1,58,220,28,1,threeone,,,,,,,,,,,,,,,,,,,,,,,,,,,,,,,,,,,,,,,,,,,,,,,,,,,,,,,,,,,,,,,,,,,,,,,,,,,,,,,,,,,,,
5df6304773d724428a9cff45,2023-11-24_03h34.59.051,kallum_motion_pilot,2023.1.2,Win32,119.8035222,5df6304773d724428a9cff45,656018846682f3df8008bb8f,656019cf810898dd828156ab,1,59,221,120,1,fivesix,,,,,,,,,,,,,,,,,,,,,,,,,,,,,,,,,,,,,,,,,,,,,,,,,,,,,,,,,,,,,,,,,,,,,,,,,,,,,,,,,,,,,
5df6304773d724428a9cff45,2023-11-24_03h34.59.051,kallum_motion_pilot,2023.1.2,Win32,119.8035222,5df6304773d724428a9cff45,656018846682f3df8008bb8f,656019cf810898dd828156ab,1,60,222,151,1,eightseven,,,,,,,,,,,,,,,,,,,,,,,,,,,,,,,,,,,,,,,,,,,,,,,,,,,,,,,,,,,,,,,,,,,,,,,,,,,,,,,,,,,,,
5df6304773d724428a9cff45,2023-11-24_03h34.59.051,kallum_motion_pilot,2023.1.2,Win32,119.8035222,5df6304773d724428a9cff45,656018846682f3df8008bb8f,656019cf810898dd828156ab,1,61,223,21,1,threefour,,,,,,,,,,,,,,,,,,,,,,,,,,,,,,,,,,,,,,,,,,,,,,,,,,,,,,,,,,,,,,,,,,,,,,,,,,,,,,,,,,,,,
5df6304773d724428a9cff45,2023-11-24_03h34.59.051,kallum_motion_pilot,2023.1.2,Win32,119.8035222,5df6304773d724428a9cff45,656018846682f3df8008bb8f,656019cf810898dd828156ab,1,62,224,23,1,fourthree,,,,,,,,,,,,,,,,,,,,,,,,,,,,,,,,,,,,,,,,,,,,,,,,,,,,,,,,,,,,,,,,,,,,,,,,,,,,,,,,,,,,,
5df6304773d724428a9cff45,2023-11-24_03h34.59.051,kallum_motion_pilot,2023.1.2,Win32,119.8035222,5df6304773d724428a9cff45,656018846682f3df8008bb8f,656019cf810898dd828156ab,1,63,225,3,1,twofour,,,,,,,,,,,,,,,,,,,,,,,,,,,,,,,,,,,,,,,,,,,,,,,,,,,,,,,,,,,,,,,,,,,,,,,,,,,,,,,,,,,,,
5df6304773d724428a9cff45,2023-11-24_03h34.59.051,kallum_motion_pilot,2023.1.2,Win32,119.8035222,5df6304773d724428a9cff45,656018846682f3df8008bb8f,656019cf810898dd828156ab,1,64,226,64,1,onetwo,,,,,,,,,,,,,,,,,,,,,,,,,,,,,,,,,,,,,,,,,,,,,,,,,,,,,,,,,,,,,,,,,,,,,,,,,,,,,,,,,,,,,
5df6304773d724428a9cff45,2023-11-24_03h34.59.051,kallum_motion_pilot,2023.1.2,Win32,119.8035222,5df6304773d724428a9cff45,656018846682f3df8008bb8f,656019cf810898dd828156ab,1,65,227,35,1,twofour,,,,,,,,,,,,,,,,,,,,,,,,,,,,,,,,,,,,,,,,,,,,,,,,,,,,,,,,,,,,,,,,,,,,,,,,,,,,,,,,,,,,,
5df6304773d724428a9cff45,2023-11-24_03h34.59.051,kallum_motion_pilot,2023.1.2,Win32,119.8035222,5df6304773d724428a9cff45,656018846682f3df8008bb8f,656019cf810898dd828156ab,1,66,228,7,1,fourthree,,,,,,,,,,,,,,,,,,,,,,,,,,,,,,,,,,,,,,,,,,,,,,,,,,,,,,,,,,,,,,,,,,,,,,,,,,,,,,,,,,,,,
5df6304773d724428a9cff45,2023-11-24_03h34.59.051,kallum_motion_pilot,2023.1.2,Win32,119.8035222,5df6304773d724428a9cff45,656018846682f3df8008bb8f,656019cf810898dd828156ab,1,67,229,125,1,seveneight,,,,,,,,,,,,,,,,,,,,,,,,,,,,,,,,,,,,,,,,,,,,,,,,,,,,,,,,,,,,,,,,,,,,,,,,,,,,,,,,,,,,,
5df6304773d724428a9cff45,2023-11-24_03h34.59.051,kallum_motion_pilot,2023.1.2,Win32,119.8035222,5df6304773d724428a9cff45,656018846682f3df8008bb8f,656019cf810898dd828156ab,1,68,230,55,1,fourthree,,,,,,,,,,,,,,,,,,,,,,,,,,,,,,,,,,,,,,,,,,,,,,,,,,,,,,,,,,,,,,,,,,,,,,,,,,,,,,,,,,,,,
5df6304773d724428a9cff45,2023-11-24_03h34.59.051,kallum_motion_pilot,2023.1.2,Win32,119.8035222,5df6304773d724428a9cff45,656018846682f3df8008bb8f,656019cf810898dd828156ab,1,69,231,39,1,fourthree,,,,,,,,,,,,,,,,,,,,,,,,,,,,,,,,,,,,,,,,,,,,,,,,,,,,,,,,,,,,,,,,,,,,,,,,,,,,,,,,,,,,,
5df6304773d724428a9cff45,2023-11-24_03h34.59.051,kallum_motion_pilot,2023.1.2,Win32,119.8035222,5df6304773d724428a9cff45,656018846682f3df8008bb8f,656019cf810898dd828156ab,1,70,232,2,1,twoone,,,,,,,,,,,,,,,,,,,,,,,,,,,,,,,,,,,,,,,,,,,,,,,,,,,,,,,,,,,,,,,,,,,,,,,,,,,,,,,,,,,,,
5df6304773d724428a9cff45,2023-11-24_03h34.59.051,kallum_motion_pilot,2023.1.2,Win32,119.8035222,5df6304773d724428a9cff45,656018846682f3df8008bb8f,656019cf810898dd828156ab,1,71,233,20,1,threeone,,,,,,,,,,,,,,,,,,,,,,,,,,,,,,,,,,,,,,,,,,,,,,,,,,,,,,,,,,,,,,,,,,,,,,,,,,,,,,,,,,,,,
5df6304773d724428a9cff45,2023-11-24_03h34.59.051,kallum_motion_pilot,2023.1.2,Win32,119.8035222,5df6304773d724428a9cff45,656018846682f3df8008bb8f,656019cf810898dd828156ab,1,72,234,5,1,threefour,,,,,,,,,,,,,,,,,,,,,,,,,,,,,,,,,,,,,,,,,,,,,,,,,,,,,,,,,,,,,,,,,,,,,,,,,,,,,,,,,,,,,
5df6304773d724428a9cff45,2023-11-24_03h34.59.051,kallum_motion_pilot,2023.1.2,Win32,119.8035222,5df6304773d724428a9cff45,656018846682f3df8008bb8f,656019cf810898dd828156ab,1,73,235,71,1,fourthree,,,,,,,,,,,,,,,,,,,,,,,,,,,,,,,,,,,,,,,,,,,,,,,,,,,,,,,,,,,,,,,,,,,,,,,,,,,,,,,,,,,,,
5df6304773d724428a9cff45,2023-11-24_03h34.59.051,kallum_motion_pilot,2023.1.2,Win32,119.8035222,5df6304773d724428a9cff45,656018846682f3df8008bb8f,656019cf810898dd828156ab,1,74,236,46,1,fourtwo,,,,,,,,,,,,,,,,,,,,,,,,,,,,,,,,,,,,,,,,,,,,,,,,,,,,,,,,,,,,,,,,,,,,,,,,,,,,,,,,,,,,,
5df6304773d724428a9cff45,2023-11-24_03h34.59.051,kallum_motion_pilot,2023.1.2,Win32,119.8035222,5df6304773d724428a9cff45,656018846682f3df8008bb8f,656019cf810898dd828156ab,1,75,237,26,1,twoone,,,,,,,,,,,,,,,,,,,,,,,,,,,,,,,,,,,,,,,,,,,,,,,,,,,,,,,,,,,,,,,,,,,,,,,,,,,,,,,,,,,,,
5df6304773d724428a9cff45,2023-11-24_03h34.59.051,kallum_motion_pilot,2023.1.2,Win32,119.8035222,5df6304773d724428a9cff45,656018846682f3df8008bb8f,656019cf810898dd828156ab,1,76,238,72,1,onetwo,,,,,,,,,,,,,,,,,,,,,,,,,,,,,,,,,,,,,,,,,,,,,,,,,,,,,,,,,,,,,,,,,,,,,,,,,,,,,,,,,,,,,
5df6304773d724428a9cff45,2023-11-24_03h34.59.051,kallum_motion_pilot,2023.1.2,Win32,119.8035222,5df6304773d724428a9cff45,656018846682f3df8008bb8f,656019cf810898dd828156ab,1,77,239,76,1,threeone,,,,,,,,,,,,,,,,,,,,,,,,,,,,,,,,,,,,,,,,,,,,,,,,,,,,,,,,,,,,,,,,,,,,,,,,,,,,,,,,,,,,,
5df6304773d724428a9cff45,2023-11-24_03h34.59.051,kallum_motion_pilot,2023.1.2,Win32,119.8035222,5df6304773d724428a9cff45,656018846682f3df8008bb8f,656019cf810898dd828156ab,1,78,240,160,1,fivesix,,,,,,,,,,,,,,,,,,,,,,,,,,,,,,,,,,,,,,,,,,,,,,,,,,,,,,,,,,,,,,,,,,,,,,,,,,,,,,,,,,,,,
5df6304773d724428a9cff45,2023-11-24_03h34.59.051,kallum_motion_pilot,2023.1.2,Win32,119.8035222,5df6304773d724428a9cff45,656018846682f3df8008bb8f,656019cf810898dd828156ab,1,79,241,84,1,sevenfive,,,,,,,,,,,,,,,,,,,,,,,,,,,,,,,,,,,,,,,,,,,,,,,,,,,,,,,,,,,,,,,,,,,,,,,,,,,,,,,,,,,,,
5df6304773d724428a9cff45,2023-11-24_03h34.59.051,kallum_motion_pilot,2023.1.2,Win32,119.8035222,5df6304773d724428a9cff45,656018846682f3df8008bb8f,656019cf810898dd828156ab,1,80,242,161,1,fiveseven,,,,,,,,,,,,,,,,,,,,,,,,,,,,,,,,,,,,,,,,,,,,,,,,,,,,,,,,,,,,,,,,,,,,,,,,,,,,,,,,,,,,,
5df6304773d724428a9cff45,2023-11-24_03h34.59.051,kallum_motion_pilot,2023.1.2,Win32,119.8035222,5df6304773d724428a9cff45,656018846682f3df8008bb8f,656019cf810898dd828156ab,1,81,243,92,1,sevenfive,,,,,,,,,,,,,,,,,,,,,,,,,,,,,,,,,,,,,,,,,,,,,,,,,,,,,,,,,,,,,,,,,,,,,,,,,,,,,,,,,,,,,
5df6304773d724428a9cff45,2023-11-24_03h34.59.051,kallum_motion_pilot,2023.1.2,Win32,119.8035222,5df6304773d724428a9cff45,656018846682f3df8008bb8f,656019cf810898dd828156ab,1,82,244,1,1,onethree,,,,,,,,,,,,,,,,,,,,,,,,,,,,,,,,,,,,,,,,,,,,,,,,,,,,,,,,,,,,,,,,,,,,,,,,,,,,,,,,,,,,,
5df6304773d724428a9cff45,2023-11-24_03h34.59.051,kallum_motion_pilot,2023.1.2,Win32,119.8035222,5df6304773d724428a9cff45,656018846682f3df8008bb8f,656019cf810898dd828156ab,1,83,245,37,1,threefour,,,,,,,,,,,,,,,,,,,,,,,,,,,,,,,,,,,,,,,,,,,,,,,,,,,,,,,,,,,,,,,,,,,,,,,,,,,,,,,,,,,,,
5df6304773d724428a9cff45,2023-11-24_03h34.59.051,kallum_motion_pilot,2023.1.2,Win32,119.8035222,5df6304773d724428a9cff45,656018846682f3df8008bb8f,656019cf810898dd828156ab,1,84,246,102,1,eightsix,,,,,,,,,,,,,,,,,,,,,,,,,,,,,,,,,,,,,,,,,,,,,,,,,,,,,,,,,,,,,,,,,,,,,,,,,,,,,,,,,,,,,
5df6304773d724428a9cff45,2023-11-24_03h34.59.051,kallum_motion_pilot,2023.1.2,Win32,119.8035222,5df6304773d724428a9cff45,656018846682f3df8008bb8f,656019cf810898dd828156ab,1,85,247,19,1,twofour,,,,,,,,,,,,,,,,,,,,,,,,,,,,,,,,,,,,,,,,,,,,,,,,,,,,,,,,,,,,,,,,,,,,,,,,,,,,,,,,,,,,,
5df6304773d724428a9cff45,2023-11-24_03h34.59.051,kallum_motion_pilot,2023.1.2,Win32,119.8035222,5df6304773d724428a9cff45,656018846682f3df8008bb8f,656019cf810898dd828156ab,1,86,248,158,1,eightsix,,,,,,,,,,,,,,,,,,,,,,,,,,,,,,,,,,,,,,,,,,,,,,,,,,,,,,,,,,,,,,,,,,,,,,,,,,,,,,,,,,,,,
5df6304773d724428a9cff45,2023-11-24_03h34.59.051,kallum_motion_pilot,2023.1.2,Win32,119.8035222,5df6304773d724428a9cff45,656018846682f3df8008bb8f,656019cf810898dd828156ab,1,87,249,68,1,threeone,,,,,,,,,,,,,,,,,,,,,,,,,,,,,,,,,,,,,,,,,,,,,,,,,,,,,,,,,,,,,,,,,,,,,,,,,,,,,,,,,,,,,
5df6304773d724428a9cff45,2023-11-24_03h34.59.051,kallum_motion_pilot,2023.1.2,Win32,119.8035222,5df6304773d724428a9cff45,656018846682f3df8008bb8f,656019cf810898dd828156ab,1,88,250,138,1,sixfive,,,,,,,,,,,,,,,,,,,,,,,,,,,,,,,,,,,,,,,,,,,,,,,,,,,,,,,,,,,,,,,,,,,,,,,,,,,,,,,,,,,,,
5df6304773d724428a9cff45,2023-11-24_03h34.59.051,kallum_motion_pilot,2023.1.2,Win32,119.8035222,5df6304773d724428a9cff45,656018846682f3df8008bb8f,656019cf810898dd828156ab,1,89,251,77,1,threefour,,,,,,,,,,,,,,,,,,,,,,,,,,,,,,,,,,,,,,,,,,,,,,,,,,,,,,,,,,,,,,,,,,,,,,,,,,,,,,,,,,,,,
5df6304773d724428a9cff45,2023-11-24_03h34.59.051,kallum_motion_pilot,2023.1.2,Win32,119.8035222,5df6304773d724428a9cff45,656018846682f3df8008bb8f,656019cf810898dd828156ab,1,90,252,63,1,fourthree,,,,,,,,,,,,,,,,,,,,,,,,,,,,,,,,,,,,,,,,,,,,,,,,,,,,,,,,,,,,,,,,,,,,,,,,,,,,,,,,,,,,,
5df6304773d724428a9cff45,2023-11-24_03h34.59.051,kallum_motion_pilot,2023.1.2,Win32,119.8035222,5df6304773d724428a9cff45,656018846682f3df8008bb8f,656019cf810898dd828156ab,1,91,253,62,1,fourtwo,,,,,,,,,,,,,,,,,,,,,,,,,,,,,,,,,,,,,,,,,,,,,,,,,,,,,,,,,,,,,,,,,,,,,,,,,,,,,,,,,,,,,
5df6304773d724428a9cff45,2023-11-24_03h34.59.051,kallum_motion_pilot,2023.1.2,Win32,119.8035222,5df6304773d724428a9cff45,656018846682f3df8008bb8f,656019cf810898dd828156ab,1,92,254,112,1,fivesix,,,,,,,,,,,,,,,,,,,,,,,,,,,,,,,,,,,,,,,,,,,,,,,,,,,,,,,,,,,,,,,,,,,,,,,,,,,,,,,,,,,,,
5df6304773d724428a9cff45,2023-11-24_03h34.59.051,kallum_motion_pilot,2023.1.2,Win32,119.8035222,5df6304773d724428a9cff45,656018846682f3df8008bb8f,656019cf810898dd828156ab,1,93,255,98,1,sixfive,,,,,,,,,,,,,,,,,,,,,,,,,,,,,,,,,,,,,,,,,,,,,,,,,,,,,,,,,,,,,,,,,,,,,,,,,,,,,,,,,,,,,
5df6304773d724428a9cff45,2023-11-24_03h34.59.051,kallum_motion_pilot,2023.1.2,Win32,119.8035222,5df6304773d724428a9cff45,656018846682f3df8008bb8f,656019cf810898dd828156ab,1,94,256,135,1,eightseven,,,,,,,,,,,,,,,,,,,,,,,,,,,,,,,,,,,,,,,,,,,,,,,,,,,,,,,,,,,,,,,,,,,,,,,,,,,,,,,,,,,,,
5df6304773d724428a9cff45,2023-11-24_03h34.59.051,kallum_motion_pilot,2023.1.2,Win32,119.8035222,5df6304773d724428a9cff45,656018846682f3df8008bb8f,656019cf810898dd828156ab,1,95,257,132,1,sevenfive,,,,,,,,,,,,,,,,,,,,,,,,,,,,,,,,,,,,,,,,,,,,,,,,,,,,,,,,,,,,,,,,,,,,,,,,,,,,,,,,,,,,,
5df6304773d724428a9cff45,2023-11-24_03h34.59.051,kallum_motion_pilot,2023.1.2,Win32,119.8035222,5df6304773d724428a9cff45,656018846682f3df8008bb8f,656019cf810898dd828156ab,1,96,258,57,1,onethree,,,,,,,,,,,,,,,,,,,,,,,,,,,,,,,,,,,,,,,,,,,,,,,,,,,,,,,,,,,,,,,,,,,,,,,,,,,,,,,,,,,,,
5df6304773d724428a9cff45,2023-11-24_03h34.59.051,kallum_motion_pilot,2023.1.2,Win32,119.8035222,5df6304773d724428a9cff45,656018846682f3df8008bb8f,656019cf810898dd828156ab,1,97,259,54,1,fourtwo,,,,,,,,,,,,,,,,,,,,,,,,,,,,,,,,,,,,,,,,,,,,,,,,,,,,,,,,,,,,,,,,,,,,,,,,,,,,,,,,,,,,,
5df6304773d724428a9cff45,2023-11-24_03h34.59.051,kallum_motion_pilot,2023.1.2,Win32,119.8035222,5df6304773d724428a9cff45,656018846682f3df8008bb8f,656019cf810898dd828156ab,1,98,260,8,1,onetwo,,,,,,,,,,,,,,,,,,,,,,,,,,,,,,,,,,,,,,,,,,,,,,,,,,,,,,,,,,,,,,,,,,,,,,,,,,,,,,,,,,,,,
5df6304773d724428a9cff45,2023-11-24_03h34.59.051,kallum_motion_pilot,2023.1.2,Win32,119.8035222,5df6304773d724428a9cff45,656018846682f3df8008bb8f,656019cf810898dd828156ab,1,99,261,67,1,twofour,,,,,,,,,,,,,,,,,,,,,,,,,,,,,,,,,,,,,,,,,,,,,,,,,,,,,,,,,,,,,,,,,,,,,,,,,,,,,,,,,,,,,
5df6304773d724428a9cff45,2023-11-24_03h34.59.051,kallum_motion_pilot,2023.1.2,Win32,119.8035222,5df6304773d724428a9cff45,656018846682f3df8008bb8f,656019cf810898dd828156ab,1,100,262,44,1,threeone,,,,,,,,,,,,,,,,,,,,,,,,,,,,,,,,,,,,,,,,,,,,,,,,,,,,,,,,,,,,,,,,,,,,,,,,,,,,,,,,,,,,,
5df6304773d724428a9cff45,2023-11-24_03h34.59.051,kallum_motion_pilot,2023.1.2,Win32,119.8035222,5df6304773d724428a9cff45,656018846682f3df8008bb8f,656019cf810898dd828156ab,1,101,263,101,1,seveneight,,,,,,,,,,,,,,,,,,,,,,,,,,,,,,,,,,,,,,,,,,,,,,,,,,,,,,,,,,,,,,,,,,,,,,,,,,,,,,,,,,,,,
5df6304773d724428a9cff45,2023-11-24_03h34.59.051,kallum_motion_pilot,2023.1.2,Win32,119.8035222,5df6304773d724428a9cff45,656018846682f3df8008bb8f,656019cf810898dd828156ab,1,102,264,15,1,fourthree,,,,,,,,,,,,,,,,,,,,,,,,,,,,,,,,,,,,,,,,,,,,,,,,,,,,,,,,,,,,,,,,,,,,,,,,,,,,,,,,,,,,,
5df6304773d724428a9cff45,2023-11-24_03h34.59.051,kallum_motion_pilot,2023.1.2,Win32,119.8035222,5df6304773d724428a9cff45,656018846682f3df8008bb8f,656019cf810898dd828156ab,1,103,265,16,1,onetwo,,,,,,,,,,,,,,,,,,,,,,,,,,,,,,,,,,,,,,,,,,,,,,,,,,,,,,,,,,,,,,,,,,,,,,,,,,,,,,,,,,,,,
5df6304773d724428a9cff45,2023-11-24_03h34.59.051,kallum_motion_pilot,2023.1.2,Win32,119.8035222,5df6304773d724428a9cff45,656018846682f3df8008bb8f,656019cf810898dd828156ab,1,104,266,122,1,sixfive,,,,,,,,,,,,,,,,,,,,,,,,,,,,,,,,,,,,,,,,,,,,,,,,,,,,,,,,,,,,,,,,,,,,,,,,,,,,,,,,,,,,,
5df6304773d724428a9cff45,2023-11-24_03h34.59.051,kallum_motion_pilot,2023.1.2,Win32,119.8035222,5df6304773d724428a9cff45,656018846682f3df8008bb8f,656019cf810898dd828156ab,1,105,267,58,1,twoone,,,,,,,,,,,,,,,,,,,,,,,,,,,,,,,,,,,,,,,,,,,,,,,,,,,,,,,,,,,,,,,,,,,,,,,,,,,,,,,,,,,,,
5df6304773d724428a9cff45,2023-11-24_03h34.59.051,kallum_motion_pilot,2023.1.2,Win32,119.8035222,5df6304773d724428a9cff45,656018846682f3df8008bb8f,656019cf810898dd828156ab,1,106,268,148,1,sevenfive,,,,,,,,,,,,,,,,,,,,,,,,,,,,,,,,,,,,,,,,,,,,,,,,,,,,,,,,,,,,,,,,,,,,,,,,,,,,,,,,,,,,,
5df6304773d724428a9cff45,2023-11-24_03h34.59.051,kallum_motion_pilot,2023.1.2,Win32,119.8035222,5df6304773d724428a9cff45,656018846682f3df8008bb8f,656019cf810898dd828156ab,1,107,269,0,1,onetwo,,,,,,,,,,,,,,,,,,,,,,,,,,,,,,,,,,,,,,,,,,,,,,,,,,,,,,,,,,,,,,,,,,,,,,,,,,,,,,,,,,,,,
5df6304773d724428a9cff45,2023-11-24_03h34.59.051,kallum_motion_pilot,2023.1.2,Win32,119.8035222,5df6304773d724428a9cff45,656018846682f3df8008bb8f,656019cf810898dd828156ab,1,108,270,130,1,sixfive,,,,,,,,,,,,,,,,,,,,,,,,,,,,,,,,,,,,,,,,,,,,,,,,,,,,,,,,,,,,,,,,,,,,,,,,,,,,,,,,,,,,,
5df6304773d724428a9cff45,2023-11-24_03h34.59.051,kallum_motion_pilot,2023.1.2,Win32,119.8035222,5df6304773d724428a9cff45,656018846682f3df8008bb8f,656019cf810898dd828156ab,1,109,271,119,1,eightseven,,,,,,,,,,,,,,,,,,,,,,,,,,,,,,,,,,,,,,,,,,,,,,,,,,,,,,,,,,,,,,,,,,,,,,,,,,,,,,,,,,,,,
5df6304773d724428a9cff45,2023-11-24_03h34.59.051,kallum_motion_pilot,2023.1.2,Win32,119.8035222,5df6304773d724428a9cff45,656018846682f3df8008bb8f,656019cf810898dd828156ab,1,110,272,48,1,onetwo,,,,,,,,,,,,,,,,,,,,,,,,,,,,,,,,,,,,,,,,,,,,,,,,,,,,,,,,,,,,,,,,,,,,,,,,,,,,,,,,,,,,,
5df6304773d724428a9cff45,2023-11-24_03h34.59.051,kallum_motion_pilot,2023.1.2,Win32,119.8035222,5df6304773d724428a9cff45,656018846682f3df8008bb8f,656019cf810898dd828156ab,1,111,273,42,1,twoone,,,,,,,,,,,,,,,,,,,,,,,,,,,,,,,,,,,,,,,,,,,,,,,,,,,,,,,,,,,,,,,,,,,,,,,,,,,,,,,,,,,,,
5df6304773d724428a9cff45,2023-11-24_03h34.59.051,kallum_motion_pilot,2023.1.2,Win32,119.8035222,5df6304773d724428a9cff45,656018846682f3df8008bb8f,656019cf810898dd828156ab,1,112,274,117,1,seveneight,,,,,,,,,,,,,,,,,,,,,,,,,,,,,,,,,,,,,,,,,,,,,,,,,,,,,,,,,,,,,,,,,,,,,,,,,,,,,,,,,,,,,
5df6304773d724428a9cff45,2023-11-24_03h34.59.051,kallum_motion_pilot,2023.1.2,Win32,119.8035222,5df6304773d724428a9cff45,656018846682f3df8008bb8f,656019cf810898dd828156ab,1,113,275,33,1,onethree,,,,,,,,,,,,,,,,,,,,,,,,,,,,,,,,,,,,,,,,,,,,,,,,,,,,,,,,,,,,,,,,,,,,,,,,,,,,,,,,,,,,,
5df6304773d724428a9cff45,2023-11-24_03h34.59.051,kallum_motion_pilot,2023.1.2,Win32,119.8035222,5df6304773d724428a9cff45,656018846682f3df8008bb8f,656019cf810898dd828156ab,1,114,276,59,1,twofour,,,,,,,,,,,,,,,,,,,,,,,,,,,,,,,,,,,,,,,,,,,,,,,,,,,,,,,,,,,,,,,,,,,,,,,,,,,,,,,,,,,,,
5df6304773d724428a9cff45,2023-11-24_03h34.59.051,kallum_motion_pilot,2023.1.2,Win32,119.8035222,5df6304773d724428a9cff45,656018846682f3df8008bb8f,656019cf810898dd828156ab,1,115,277,51,1,twofour,,,,,,,,,,,,,,,,,,,,,,,,,,,,,,,,,,,,,,,,,,,,,,,,,,,,,,,,,,,,,,,,,,,,,,,,,,,,,,,,,,,,,
5df6304773d724428a9cff45,2023-11-24_03h34.59.051,kallum_motion_pilot,2023.1.2,Win32,119.8035222,5df6304773d724428a9cff45,656018846682f3df8008bb8f,656019cf810898dd828156ab,1,116,278,88,1,fivesix,,,,,,,,,,,,,,,,,,,,,,,,,,,,,,,,,,,,,,,,,,,,,,,,,,,,,,,,,,,,,,,,,,,,,,,,,,,,,,,,,,,,,
5df6304773d724428a9cff45,2023-11-24_03h34.59.051,kallum_motion_pilot,2023.1.2,Win32,119.8035222,5df6304773d724428a9cff45,656018846682f3df8008bb8f,656019cf810898dd828156ab,1,117,279,52,1,threeone,,,,,,,,,,,,,,,,,,,,,,,,,,,,,,,,,,,,,,,,,,,,,,,,,,,,,,,,,,,,,,,,,,,,,,,,,,,,,,,,,,,,,
5df6304773d724428a9cff45,2023-11-24_03h34.59.051,kallum_motion_pilot,2023.1.2,Win32,119.8035222,5df6304773d724428a9cff45,656018846682f3df8008bb8f,656019cf810898dd828156ab,1,118,280,123,1,sixeight,,,,,,,,,,,,,,,,,,,,,,,,,,,,,,,,,,,,,,,,,,,,,,,,,,,,,,,,,,,,,,,,,,,,,,,,,,,,,,,,,,,,,
5df6304773d724428a9cff45,2023-11-24_03h34.59.051,kallum_motion_pilot,2023.1.2,Win32,119.8035222,5df6304773d724428a9cff45,656018846682f3df8008bb8f,656019cf810898dd828156ab,1,119,281,110,1,eightsix,,,,,,,,,,,,,,,,,,,,,,,,,,,,,,,,,,,,,,,,,,,,,,,,,,,,,,,,,,,,,,,,,,,,,,,,,,,,,,,,,,,,,
5df6304773d724428a9cff45,2023-11-24_03h34.59.051,kallum_motion_pilot,2023.1.2,Win32,119.8035222,5df6304773d724428a9cff45,656018846682f3df8008bb8f,656019cf810898dd828156ab,1,120,282,133,1,seveneight,,,,,,,,,,,,,,,,,,,,,,,,,,,,,,,,,,,,,,,,,,,,,,,,,,,,,,,,,,,,,,,,,,,,,,,,,,,,,,,,,,,,,
5df6304773d724428a9cff45,2023-11-24_03h34.59.051,kallum_motion_pilot,2023.1.2,Win32,119.8035222,5df6304773d724428a9cff45,656018846682f3df8008bb8f,656019cf810898dd828156ab,1,121,283,144,1,fivesix,,,,,,,,,,,,,,,,,,,,,,,,,,,,,,,,,,,,,,,,,,,,,,,,,,,,,,,,,,,,,,,,,,,,,,,,,,,,,,,,,,,,,
5df6304773d724428a9cff45,2023-11-24_03h34.59.051,kallum_motion_pilot,2023.1.2,Win32,119.8035222,5df6304773d724428a9cff45,656018846682f3df8008bb8f,656019cf810898dd828156ab,1,122,284,91,1,sixeight,,,,,,,,,,,,,,,,,,,,,,,,,,,,,,,,,,,,,,,,,,,,,,,,,,,,,,,,,,,,,,,,,,,,,,,,,,,,,,,,,,,,,
5df6304773d724428a9cff45,2023-11-24_03h34.59.051,kallum_motion_pilot,2023.1.2,Win32,119.8035222,5df6304773d724428a9cff45,656018846682f3df8008bb8f,656019cf810898dd828156ab,1,123,285,156,1,sevenfive,,,,,,,,,,,,,,,,,,,,,,,,,,,,,,,,,,,,,,,,,,,,,,,,,,,,,,,,,,,,,,,,,,,,,,,,,,,,,,,,,,,,,
5df6304773d724428a9cff45,2023-11-24_03h34.59.051,kallum_motion_pilot,2023.1.2,Win32,119.8035222,5df6304773d724428a9cff45,656018846682f3df8008bb8f,656019cf810898dd828156ab,1,124,286,94,1,eightsix,,,,,,,,,,,,,,,,,,,,,,,,,,,,,,,,,,,,,,,,,,,,,,,,,,,,,,,,,,,,,,,,,,,,,,,,,,,,,,,,,,,,,
5df6304773d724428a9cff45,2023-11-24_03h34.59.051,kallum_motion_pilot,2023.1.2,Win32,119.8035222,5df6304773d724428a9cff45,656018846682f3df8008bb8f,656019cf810898dd828156ab,1,125,287,145,1,fiveseven,,,,,,,,,,,,,,,,,,,,,,,,,,,,,,,,,,,,,,,,,,,,,,,,,,,,,,,,,,,,,,,,,,,,,,,,,,,,,,,,,,,,,
5df6304773d724428a9cff45,2023-11-24_03h34.59.051,kallum_motion_pilot,2023.1.2,Win32,119.8035222,5df6304773d724428a9cff45,656018846682f3df8008bb8f,656019cf810898dd828156ab,1,126,288,13,1,threefour,,,,,,,,,,,,,,,,,,,,,,,,,,,,,,,,,,,,,,,,,,,,,,,,,,,,,,,,,,,,,,,,,,,,,,,,,,,,,,,,,,,,,
5df6304773d724428a9cff45,2023-11-24_03h34.59.051,kallum_motion_pilot,2023.1.2,Win32,119.8035222,5df6304773d724428a9cff45,656018846682f3df8008bb8f,656019cf810898dd828156ab,1,127,289,142,1,eightsix,,,,,,,,,,,,,,,,,,,,,,,,,,,,,,,,,,,,,,,,,,,,,,,,,,,,,,,,,,,,,,,,,,,,,,,,,,,,,,,,,,,,,
5df6304773d724428a9cff45,2023-11-24_03h34.59.051,kallum_motion_pilot,2023.1.2,Win32,119.8035222,5df6304773d724428a9cff45,656018846682f3df8008bb8f,656019cf810898dd828156ab,1,128,290,11,1,twofour,,,,,,,,,,,,,,,,,,,,,,,,,,,,,,,,,,,,,,,,,,,,,,,,,,,,,,,,,,,,,,,,,,,,,,,,,,,,,,,,,,,,,
5df6304773d724428a9cff45,2023-11-24_03h34.59.051,kallum_motion_pilot,2023.1.2,Win32,119.8035222,5df6304773d724428a9cff45,656018846682f3df8008bb8f,656019cf810898dd828156ab,1,129,291,31,1,fourthree,,,,,,,,,,,,,,,,,,,,,,,,,,,,,,,,,,,,,,,,,,,,,,,,,,,,,,,,,,,,,,,,,,,,,,,,,,,,,,,,,,,,,
5df6304773d724428a9cff45,2023-11-24_03h34.59.051,kallum_motion_pilot,2023.1.2,Win32,119.8035222,5df6304773d724428a9cff45,656018846682f3df8008bb8f,656019cf810898dd828156ab,1,130,292,147,1,sixeight,,,,,,,,,,,,,,,,,,,,,,,,,,,,,,,,,,,,,,,,,,,,,,,,,,,,,,,,,,,,,,,,,,,,,,,,,,,,,,,,,,,,,
5df6304773d724428a9cff45,2023-11-24_03h34.59.051,kallum_motion_pilot,2023.1.2,Win32,119.8035222,5df6304773d724428a9cff45,656018846682f3df8008bb8f,656019cf810898dd828156ab,1,131,293,155,1,sixeight,,,,,,,,,,,,,,,,,,,,,,,,,,,,,,,,,,,,,,,,,,,,,,,,,,,,,,,,,,,,,,,,,,,,,,,,,,,,,,,,,,,,,
5df6304773d724428a9cff45,2023-11-24_03h34.59.051,kallum_motion_pilot,2023.1.2,Win32,119.8035222,5df6304773d724428a9cff45,656018846682f3df8008bb8f,656019cf810898dd828156ab,1,132,294,70,1,fourtwo,,,,,,,,,,,,,,,,,,,,,,,,,,,,,,,,,,,,,,,,,,,,,,,,,,,,,,,,,,,,,,,,,,,,,,,,,,,,,,,,,,,,,
5df6304773d724428a9cff45,2023-11-24_03h34.59.051,kallum_motion_pilot,2023.1.2,Win32,119.8035222,5df6304773d724428a9cff45,656018846682f3df8008bb8f,656019cf810898dd828156ab,1,133,295,43,1,twofour,,,,,,,,,,,,,,,,,,,,,,,,,,,,,,,,,,,,,,,,,,,,,,,,,,,,,,,,,,,,,,,,,,,,,,,,,,,,,,,,,,,,,
5df6304773d724428a9cff45,2023-11-24_03h34.59.051,kallum_motion_pilot,2023.1.2,Win32,119.8035222,5df6304773d724428a9cff45,656018846682f3df8008bb8f,656019cf810898dd828156ab,1,134,296,97,1,fiveseven,,,,,,,,,,,,,,,,,,,,,,,,,,,,,,,,,,,,,,,,,,,,,,,,,,,,,,,,,,,,,,,,,,,,,,,,,,,,,,,,,,,,,
5df6304773d724428a9cff45,2023-11-24_03h34.59.051,kallum_motion_pilot,2023.1.2,Win32,119.8035222,5df6304773d724428a9cff45,656018846682f3df8008bb8f,656019cf810898dd828156ab,1,135,297,140,1,sevenfive,,,,,,,,,,,,,,,,,,,,,,,,,,,,,,,,,,,,,,,,,,,,,,,,,,,,,,,,,,,,,,,,,,,,,,,,,,,,,,,,,,,,,
5df6304773d724428a9cff45,2023-11-24_03h34.59.051,kallum_motion_pilot,2023.1.2,Win32,119.8035222,5df6304773d724428a9cff45,656018846682f3df8008bb8f,656019cf810898dd828156ab,1,136,298,25,1,onethree,,,,,,,,,,,,,,,,,,,,,,,,,,,,,,,,,,,,,,,,,,,,,,,,,,,,,,,,,,,,,,,,,,,,,,,,,,,,,,,,,,,,,
5df6304773d724428a9cff45,2023-11-24_03h34.59.051,kallum_motion_pilot,2023.1.2,Win32,119.8035222,5df6304773d724428a9cff45,656018846682f3df8008bb8f,656019cf810898dd828156ab,1,137,299,74,1,twoone,,,,,,,,,,,,,,,,,,,,,,,,,,,,,,,,,,,,,,,,,,,,,,,,,,,,,,,,,,,,,,,,,,,,,,,,,,,,,,,,,,,,,
5df6304773d724428a9cff45,2023-11-24_03h34.59.051,kallum_motion_pilot,2023.1.2,Win32,119.8035222,5df6304773d724428a9cff45,656018846682f3df8008bb8f,656019cf810898dd828156ab,1,138,300,113,1,fiveseven,,,,,,,,,,,,,,,,,,,,,,,,,,,,,,,,,,,,,,,,,,,,,,,,,,,,,,,,,,,,,,,,,,,,,,,,,,,,,,,,,,,,,
5df6304773d724428a9cff45,2023-11-24_03h34.59.051,kallum_motion_pilot,2023.1.2,Win32,119.8035222,5df6304773d724428a9cff45,656018846682f3df8008bb8f,656019cf810898dd828156ab,1,139,301,66,1,twoone,,,,,,,,,,,,,,,,,,,,,,,,,,,,,,,,,,,,,,,,,,,,,,,,,,,,,,,,,,,,,,,,,,,,,,,,,,,,,,,,,,,,,
5df6304773d724428a9cff45,2023-11-24_03h34.59.051,kallum_motion_pilot,2023.1.2,Win32,119.8035222,5df6304773d724428a9cff45,656018846682f3df8008bb8f,656019cf810898dd828156ab,1,140,302,73,1,onethree,,,,,,,,,,,,,,,,,,,,,,,,,,,,,,,,,,,,,,,,,,,,,,,,,,,,,,,,,,,,,,,,,,,,,,,,,,,,,,,,,,,,,
5df6304773d724428a9cff45,2023-11-24_03h34.59.051,kallum_motion_pilot,2023.1.2,Win32,119.8035222,5df6304773d724428a9cff45,656018846682f3df8008bb8f,656019cf810898dd828156ab,1,141,303,41,1,onethree,,,,,,,,,,,,,,,,,,,,,,,,,,,,,,,,,,,,,,,,,,,,,,,,,,,,,,,,,,,,,,,,,,,,,,,,,,,,,,,,,,,,,
5df6304773d724428a9cff45,2023-11-24_03h34.59.051,kallum_motion_pilot,2023.1.2,Win32,119.8035222,5df6304773d724428a9cff45,656018846682f3df8008bb8f,656019cf810898dd828156ab,1,142,304,153,1,fiveseven,,,,,,,,,,,,,,,,,,,,,,,,,,,,,,,,,,,,,,,,,,,,,,,,,,,,,,,,,,,,,,,,,,,,,,,,,,,,,,,,,,,,,
5df6304773d724428a9cff45,2023-11-24_03h34.59.051,kallum_motion_pilot,2023.1.2,Win32,119.8035222,5df6304773d724428a9cff45,656018846682f3df8008bb8f,656019cf810898dd828156ab,1,143,305,61,1,threefour,,,,,,,,,,,,,,,,,,,,,,,,,,,,,,,,,,,,,,,,,,,,,,,,,,,,,,,,,,,,,,,,,,,,,,,,,,,,,,,,,,,,,
5df6304773d724428a9cff45,2023-11-24_03h34.59.051,kallum_motion_pilot,2023.1.2,Win32,119.8035222,5df6304773d724428a9cff45,656018846682f3df8008bb8f,656019cf810898dd828156ab,1,144,306,17,1,onethree,,,,,,,,,,,,,,,,,,,,,,,,,,,,,,,,,,,,,,,,,,,,,,,,,,,,,,,,,,,,,,,,,,,,,,,,,,,,,,,,,,,,,
5df6304773d724428a9cff45,2023-11-24_03h34.59.051,kallum_motion_pilot,2023.1.2,Win32,119.8035222,5df6304773d724428a9cff45,656018846682f3df8008bb8f,656019cf810898dd828156ab,1,145,307,103,1,eightseven,,,,,,,,,,,,,,,,,,,,,,,,,,,,,,,,,,,,,,,,,,,,,,,,,,,,,,,,,,,,,,,,,,,,,,,,,,,,,,,,,,,,,
5df6304773d724428a9cff45,2023-11-24_03h34.59.051,kallum_motion_pilot,2023.1.2,Win32,119.8035222,5df6304773d724428a9cff45,656018846682f3df8008bb8f,656019cf810898dd828156ab,1,146,308,4,1,threeone,,,,,,,,,,,,,,,,,,,,,,,,,,,,,,,,,,,,,,,,,,,,,,,,,,,,,,,,,,,,,,,,,,,,,,,,,,,,,,,,,,,,,
5df6304773d724428a9cff45,2023-11-24_03h34.59.051,kallum_motion_pilot,2023.1.2,Win32,119.8035222,5df6304773d724428a9cff45,656018846682f3df8008bb8f,656019cf810898dd828156ab,1,147,309,81,1,fiveseven,,,,,,,,,,,,,,,,,,,,,,,,,,,,,,,,,,,,,,,,,,,,,,,,,,,,,,,,,,,,,,,,,,,,,,,,,,,,,,,,,,,,,
5df6304773d724428a9cff45,2023-11-24_03h34.59.051,kallum_motion_pilot,2023.1.2,Win32,119.8035222,5df6304773d724428a9cff45,656018846682f3df8008bb8f,656019cf810898dd828156ab,1,148,310,6,1,fourtwo,,,,,,,,,,,,,,,,,,,,,,,,,,,,,,,,,,,,,,,,,,,,,,,,,,,,,,,,,,,,,,,,,,,,,,,,,,,,,,,,,,,,,
5df6304773d724428a9cff45,2023-11-24_03h34.59.051,kallum_motion_pilot,2023.1.2,Win32,119.8035222,5df6304773d724428a9cff45,656018846682f3df8008bb8f,656019cf810898dd828156ab,1,149,311,124,1,sevenfive,,,,,,,,,,,,,,,,,,,,,,,,,,,,,,,,,,,,,,,,,,,,,,,,,,,,,,,,,,,,,,,,,,,,,,,,,,,,,,,,,,,,,
5df6304773d724428a9cff45,2023-11-24_03h34.59.051,kallum_motion_pilot,2023.1.2,Win32,119.8035222,5df6304773d724428a9cff45,656018846682f3df8008bb8f,656019cf810898dd828156ab,1,150,312,121,1,fiveseven,,,,,,,,,,,,,,,,,,,,,,,,,,,,,,,,,,,,,,,,,,,,,,,,,,,,,,,,,,,,,,,,,,,,,,,,,,,,,,,,,,,,,
5df6304773d724428a9cff45,2023-11-24_03h34.59.051,kallum_motion_pilot,2023.1.2,Win32,119.8035222,5df6304773d724428a9cff45,656018846682f3df8008bb8f,656019cf810898dd828156ab,1,151,313,118,1,eightsix,,,,,,,,,,,,,,,,,,,,,,,,,,,,,,,,,,,,,,,,,,,,,,,,,,,,,,,,,,,,,,,,,,,,,,,,,,,,,,,,,,,,,
5df6304773d724428a9cff45,2023-11-24_03h34.59.051,kallum_motion_pilot,2023.1.2,Win32,119.8035222,5df6304773d724428a9cff45,656018846682f3df8008bb8f,656019cf810898dd828156ab,1,152,314,114,1,sixfive,,,,,,,,,,,,,,,,,,,,,,,,,,,,,,,,,,,,,,,,,,,,,,,,,,,,,,,,,,,,,,,,,,,,,,,,,,,,,,,,,,,,,
5df6304773d724428a9cff45,2023-11-24_03h34.59.051,kallum_motion_pilot,2023.1.2,Win32,119.8035222,5df6304773d724428a9cff45,656018846682f3df8008bb8f,656019cf810898dd828156ab,1,153,315,116,1,sevenfive,,,,,,,,,,,,,,,,,,,,,,,,,,,,,,,,,,,,,,,,,,,,,,,,,,,,,,,,,,,,,,,,,,,,,,,,,,,,,,,,,,,,,
5df6304773d724428a9cff45,2023-11-24_03h34.59.051,kallum_motion_pilot,2023.1.2,Win32,119.8035222,5df6304773d724428a9cff45,656018846682f3df8008bb8f,656019cf810898dd828156ab,1,154,316,137,1,fiveseven,,,,,,,,,,,,,,,,,,,,,,,,,,,,,,,,,,,,,,,,,,,,,,,,,,,,,,,,,,,,,,,,,,,,,,,,,,,,,,,,,,,,,
5df6304773d724428a9cff45,2023-11-24_03h34.59.051,kallum_motion_pilot,2023.1.2,Win32,119.8035222,5df6304773d724428a9cff45,656018846682f3df8008bb8f,656019cf810898dd828156ab,1,155,317,14,1,fourtwo,,,,,,,,,,,,,,,,,,,,,,,,,,,,,,,,,,,,,,,,,,,,,,,,,,,,,,,,,,,,,,,,,,,,,,,,,,,,,,,,,,,,,
5df6304773d724428a9cff45,2023-11-24_03h34.59.051,kallum_motion_pilot,2023.1.2,Win32,119.8035222,5df6304773d724428a9cff45,656018846682f3df8008bb8f,656019cf810898dd828156ab,1,156,318,127,1,eightseven,,,,,,,,,,,,,,,,,,,,,,,,,,,,,,,,,,,,,,,,,,,,,,,,,,,,,,,,,,,,,,,,,,,,,,,,,,,,,,,,,,,,,
5df6304773d724428a9cff45,2023-11-24_03h34.59.051,kallum_motion_pilot,2023.1.2,Win32,119.8035222,5df6304773d724428a9cff45,656018846682f3df8008bb8f,656019cf810898dd828156ab,1,157,319,90,1,sixfive,,,,,,,,,,,,,,,,,,,,,,,,,,,,,,,,,,,,,,,,,,,,,,,,,,,,,,,,,,,,,,,,,,,,,,,,,,,,,,,,,,,,,
5df6304773d724428a9cff45,2023-11-24_03h34.59.051,kallum_motion_pilot,2023.1.2,Win32,119.8035222,5df6304773d724428a9cff45,656018846682f3df8008bb8f,656019cf810898dd828156ab,1,158,320,108,1,sevenfive,,,,,,,,,,,,,,,,,,,,,,,,,,,,,,,,,,,,,,,,,,,,,,,,,,,,,,,,,,,,,,,,,,,,,,,,,,,,,,,,,,,,,
5df6304773d724428a9cff45,2023-11-24_03h34.59.051,kallum_motion_pilot,2023.1.2,Win32,119.8035222,5df6304773d724428a9cff45,656018846682f3df8008bb8f,656019cf810898dd828156ab,1,159,321,82,1,sixfive,,,,,,,,,,,,,,,,,,,,,,,,,,,,,,,,,,,,,,,,,,,,,,,,,,,,,,,,,,,,,,,,,,,,,,,,,,,,,,,,,,,,,
5df6304773d724428a9cff45,2023-11-24_03h34.59.051,kallum_motion_pilot,2023.1.2,Win32,119.8035222,5df6304773d724428a9cff45,656018846682f3df8008bb8f,656019cf810898dd828156ab,1,160,322,107,1,sixeight,,,,,,,,,,,,,,,,,,,,,,,,,,,,,,,,,,,,,,,,,,,,,,,,,,,,,,,,,,,,,,,,,,,,,,,,,,,,,,,,,,,,,
5df6304773d724428a9cff45,2023-11-24_03h34.59.051,kallum_motion_pilot,2023.1.2,Win32,119.8035222,5df6304773d724428a9cff45,656018846682f3df8008bb8f,656019cf810898dd828156ab,1,161,323,27,1,twofour,,,,,,,,,,,,,,,,,,,,,,,,,,,,,,,,,,,,,,,,,,,,,,,,,,,,,,,,,,,,,,,,,,,,,,,,,,,,,,,,,,,,,
5df6304773d724428a9cff45,2023-11-24_03h34.59.051,kallum_motion_pilot,2023.1.2,Win32,119.8035222,5df6304773d724428a9cff45,656018846682f3df8008bb8f,656019cf810898dd828156ab,2,0,324,32,1,onetwo,,,,,,,,,,,,,,,,,,,,,,,,,,,,,,,,,,,,,,,,,,,,,,,,,,,,,,,,,,,,,,,,,,,,,,,,,,,,,,,,,,,,,
5df6304773d724428a9cff45,2023-11-24_03h34.59.051,kallum_motion_pilot,2023.1.2,Win32,119.8035222,5df6304773d724428a9cff45,656018846682f3df8008bb8f,656019cf810898dd828156ab,2,1,325,136,1,fivesix,,,,,,,,,,,,,,,,,,,,,,,,,,,,,,,,,,,,,,,,,,,,,,,,,,,,,,,,,,,,,,,,,,,,,,,,,,,,,,,,,,,,,
5df6304773d724428a9cff45,2023-11-24_03h34.59.051,kallum_motion_pilot,2023.1.2,Win32,119.8035222,5df6304773d724428a9cff45,656018846682f3df8008bb8f,656019cf810898dd828156ab,2,2,326,44,1,threeone,,,,,,,,,,,,,,,,,,,,,,,,,,,,,,,,,,,,,,,,,,,,,,,,,,,,,,,,,,,,,,,,,,,,,,,,,,,,,,,,,,,,,
5df6304773d724428a9cff45,2023-11-24_03h34.59.051,kallum_motion_pilot,2023.1.2,Win32,119.8035222,5df6304773d724428a9cff45,656018846682f3df8008bb8f,656019cf810898dd828156ab,2,3,327,53,1,threefour,,,,,,,,,,,,,,,,,,,,,,,,,,,,,,,,,,,,,,,,,,,,,,,,,,,,,,,,,,,,,,,,,,,,,,,,,,,,,,,,,,,,,
5df6304773d724428a9cff45,2023-11-24_03h34.59.051,kallum_motion_pilot,2023.1.2,Win32,119.8035222,5df6304773d724428a9cff45,656018846682f3df8008bb8f,656019cf810898dd828156ab,2,4,328,114,1,sixfive,,,,,,,,,,,,,,,,,,,,,,,,,,,,,,,,,,,,,,,,,,,,,,,,,,,,,,,,,,,,,,,,,,,,,,,,,,,,,,,,,,,,,
5df6304773d724428a9cff45,2023-11-24_03h34.59.051,kallum_motion_pilot,2023.1.2,Win32,119.8035222,5df6304773d724428a9cff45,656018846682f3df8008bb8f,656019cf810898dd828156ab,2,5,329,86,1,eightsix,,,,,,,,,,,,,,,,,,,,,,,,,,,,,,,,,,,,,,,,,,,,,,,,,,,,,,,,,,,,,,,,,,,,,,,,,,,,,,,,,,,,,
5df6304773d724428a9cff45,2023-11-24_03h34.59.051,kallum_motion_pilot,2023.1.2,Win32,119.8035222,5df6304773d724428a9cff45,656018846682f3df8008bb8f,656019cf810898dd828156ab,2,6,330,56,1,onetwo,,,,,,,,,,,,,,,,,,,,,,,,,,,,,,,,,,,,,,,,,,,,,,,,,,,,,,,,,,,,,,,,,,,,,,,,,,,,,,,,,,,,,
5df6304773d724428a9cff45,2023-11-24_03h34.59.051,kallum_motion_pilot,2023.1.2,Win32,119.8035222,5df6304773d724428a9cff45,656018846682f3df8008bb8f,656019cf810898dd828156ab,2,7,331,84,1,sevenfive,,,,,,,,,,,,,,,,,,,,,,,,,,,,,,,,,,,,,,,,,,,,,,,,,,,,,,,,,,,,,,,,,,,,,,,,,,,,,,,,,,,,,
5df6304773d724428a9cff45,2023-11-24_03h34.59.051,kallum_motion_pilot,2023.1.2,Win32,119.8035222,5df6304773d724428a9cff45,656018846682f3df8008bb8f,656019cf810898dd828156ab,2,8,332,110,1,eightsix,,,,,,,,,,,,,,,,,,,,,,,,,,,,,,,,,,,,,,,,,,,,,,,,,,,,,,,,,,,,,,,,,,,,,,,,,,,,,,,,,,,,,
5df6304773d724428a9cff45,2023-11-24_03h34.59.051,kallum_motion_pilot,2023.1.2,Win32,119.8035222,5df6304773d724428a9cff45,656018846682f3df8008bb8f,656019cf810898dd828156ab,2,9,333,18,1,twoone,,,,,,,,,,,,,,,,,,,,,,,,,,,,,,,,,,,,,,,,,,,,,,,,,,,,,,,,,,,,,,,,,,,,,,,,,,,,,,,,,,,,,
5df6304773d724428a9cff45,2023-11-24_03h34.59.051,kallum_motion_pilot,2023.1.2,Win32,119.8035222,5df6304773d724428a9cff45,656018846682f3df8008bb8f,656019cf810898dd828156ab,2,10,334,104,1,fivesix,,,,,,,,,,,,,,,,,,,,,,,,,,,,,,,,,,,,,,,,,,,,,,,,,,,,,,,,,,,,,,,,,,,,,,,,,,,,,,,,,,,,,
5df6304773d724428a9cff45,2023-11-24_03h34.59.051,kallum_motion_pilot,2023.1.2,Win32,119.8035222,5df6304773d724428a9cff45,656018846682f3df8008bb8f,656019cf810898dd828156ab,2,11,335,55,1,fourthree,,,,,,,,,,,,,,,,,,,,,,,,,,,,,,,,,,,,,,,,,,,,,,,,,,,,,,,,,,,,,,,,,,,,,,,,,,,,,,,,,,,,,
5df6304773d724428a9cff45,2023-11-24_03h34.59.051,kallum_motion_pilot,2023.1.2,Win32,119.8035222,5df6304773d724428a9cff45,656018846682f3df8008bb8f,656019cf810898dd828156ab,2,12,336,145,1,fiveseven,,,,,,,,,,,,,,,,,,,,,,,,,,,,,,,,,,,,,,,,,,,,,,,,,,,,,,,,,,,,,,,,,,,,,,,,,,,,,,,,,,,,,
5df6304773d724428a9cff45,2023-11-24_03h34.59.051,kallum_motion_pilot,2023.1.2,Win32,119.8035222,5df6304773d724428a9cff45,656018846682f3df8008bb8f,656019cf810898dd828156ab,2,13,337,42,1,twoone,,,,,,,,,,,,,,,,,,,,,,,,,,,,,,,,,,,,,,,,,,,,,,,,,,,,,,,,,,,,,,,,,,,,,,,,,,,,,,,,,,,,,
5df6304773d724428a9cff45,2023-11-24_03h34.59.051,kallum_motion_pilot,2023.1.2,Win32,119.8035222,5df6304773d724428a9cff45,656018846682f3df8008bb8f,656019cf810898dd828156ab,2,14,338,148,1,sevenfive,,,,,,,,,,,,,,,,,,,,,,,,,,,,,,,,,,,,,,,,,,,,,,,,,,,,,,,,,,,,,,,,,,,,,,,,,,,,,,,,,,,,,
5df6304773d724428a9cff45,2023-11-24_03h34.59.051,kallum_motion_pilot,2023.1.2,Win32,119.8035222,5df6304773d724428a9cff45,656018846682f3df8008bb8f,656019cf810898dd828156ab,2,15,339,20,1,threeone,,,,,,,,,,,,,,,,,,,,,,,,,,,,,,,,,,,,,,,,,,,,,,,,,,,,,,,,,,,,,,,,,,,,,,,,,,,,,,,,,,,,,
5df6304773d724428a9cff45,2023-11-24_03h34.59.051,kallum_motion_pilot,2023.1.2,Win32,119.8035222,5df6304773d724428a9cff45,656018846682f3df8008bb8f,656019cf810898dd828156ab,2,16,340,121,1,fiveseven,,,,,,,,,,,,,,,,,,,,,,,,,,,,,,,,,,,,,,,,,,,,,,,,,,,,,,,,,,,,,,,,,,,,,,,,,,,,,,,,,,,,,
5df6304773d724428a9cff45,2023-11-24_03h34.59.051,kallum_motion_pilot,2023.1.2,Win32,119.8035222,5df6304773d724428a9cff45,656018846682f3df8008bb8f,656019cf810898dd828156ab,2,17,341,35,1,twofour,,,,,,,,,,,,,,,,,,,,,,,,,,,,,,,,,,,,,,,,,,,,,,,,,,,,,,,,,,,,,,,,,,,,,,,,,,,,,,,,,,,,,
5df6304773d724428a9cff45,2023-11-24_03h34.59.051,kallum_motion_pilot,2023.1.2,Win32,119.8035222,5df6304773d724428a9cff45,656018846682f3df8008bb8f,656019cf810898dd828156ab,2,18,342,9,1,onethree,,,,,,,,,,,,,,,,,,,,,,,,,,,,,,,,,,,,,,,,,,,,,,,,,,,,,,,,,,,,,,,,,,,,,,,,,,,,,,,,,,,,,
5df6304773d724428a9cff45,2023-11-24_03h34.59.051,kallum_motion_pilot,2023.1.2,Win32,119.8035222,5df6304773d724428a9cff45,656018846682f3df8008bb8f,656019cf810898dd828156ab,2,19,343,120,1,fivesix,,,,,,,,,,,,,,,,,,,,,,,,,,,,,,,,,,,,,,,,,,,,,,,,,,,,,,,,,,,,,,,,,,,,,,,,,,,,,,,,,,,,,
5df6304773d724428a9cff45,2023-11-24_03h34.59.051,kallum_motion_pilot,2023.1.2,Win32,119.8035222,5df6304773d724428a9cff45,656018846682f3df8008bb8f,656019cf810898dd828156ab,2,20,344,91,1,sixeight,,,,,,,,,,,,,,,,,,,,,,,,,,,,,,,,,,,,,,,,,,,,,,,,,,,,,,,,,,,,,,,,,,,,,,,,,,,,,,,,,,,,,
5df6304773d724428a9cff45,2023-11-24_03h34.59.051,kallum_motion_pilot,2023.1.2,Win32,119.8035222,5df6304773d724428a9cff45,656018846682f3df8008bb8f,656019cf810898dd828156ab,2,21,345,34,1,twoone,,,,,,,,,,,,,,,,,,,,,,,,,,,,,,,,,,,,,,,,,,,,,,,,,,,,,,,,,,,,,,,,,,,,,,,,,,,,,,,,,,,,,
5df6304773d724428a9cff45,2023-11-24_03h34.59.051,kallum_motion_pilot,2023.1.2,Win32,119.8035222,5df6304773d724428a9cff45,656018846682f3df8008bb8f,656019cf810898dd828156ab,2,22,346,98,1,sixfive,,,,,,,,,,,,,,,,,,,,,,,,,,,,,,,,,,,,,,,,,,,,,,,,,,,,,,,,,,,,,,,,,,,,,,,,,,,,,,,,,,,,,
5df6304773d724428a9cff45,2023-11-24_03h34.59.051,kallum_motion_pilot,2023.1.2,Win32,119.8035222,5df6304773d724428a9cff45,656018846682f3df8008bb8f,656019cf810898dd828156ab,2,23,347,127,1,eightseven,,,,,,,,,,,,,,,,,,,,,,,,,,,,,,,,,,,,,,,,,,,,,,,,,,,,,,,,,,,,,,,,,,,,,,,,,,,,,,,,,,,,,
5df6304773d724428a9cff45,2023-11-24_03h34.59.051,kallum_motion_pilot,2023.1.2,Win32,119.8035222,5df6304773d724428a9cff45,656018846682f3df8008bb8f,656019cf810898dd828156ab,2,24,348,96,1,fivesix,,,,,,,,,,,,,,,,,,,,,,,,,,,,,,,,,,,,,,,,,,,,,,,,,,,,,,,,,,,,,,,,,,,,,,,,,,,,,,,,,,,,,
5df6304773d724428a9cff45,2023-11-24_03h34.59.051,kallum_motion_pilot,2023.1.2,Win32,119.8035222,5df6304773d724428a9cff45,656018846682f3df8008bb8f,656019cf810898dd828156ab,2,25,349,59,1,twofour,,,,,,,,,,,,,,,,,,,,,,,,,,,,,,,,,,,,,,,,,,,,,,,,,,,,,,,,,,,,,,,,,,,,,,,,,,,,,,,,,,,,,
