Prolific_ID*,date,expName,psychopyVersion,OS,frameRate,PROLIFIC_PID,STUDY_ID,SESSION_ID,hardcoded_stimulus_positions.thisRepN,hardcoded_stimulus_positions.thisTrialN,hardcoded_stimulus_positions.thisN,hardcoded_stimulus_positions.thisIndex,hardcoded_stimulus_positions.ran,StimulusPos,prac_stimorientation_import_loop.thisRepN,prac_stimorientation_import_loop.thisTrialN,prac_stimorientation_import_loop.thisN,prac_stimorientation_import_loop.thisIndex,prac_stimorientation_import_loop.ran,Stimorientation,key_resp.keys,key_resp.rt,key_resp_20.keys,key_resp_20.rt,key_resp_19.keys,key_resp_19.rt,key_resp_15.keys,key_resp_15.rt,key_resp_9.keys,key_resp_9.rt,key_resp_10.keys,key_resp_10.rt,Ecc,Circle1_ori,Circle2_ori,similarity,response_time,mouse_5.x,mouse_5.y,mouse_5.leftButton,mouse_5.midButton,mouse_5.rightButton,mouse_5.clicked_name,mouse_6.x,mouse_6.y,mouse_6.leftButton,mouse_6.midButton,mouse_6.rightButton,mouse_6.clicked_name,duringprac.thisRepN,duringprac.thisTrialN,duringprac.thisN,duringprac.thisIndex,duringprac.ran,key_resp_22.keys,key_resp_22.rt,circle1_ori,circle2_ori,mouse.x,mouse.y,mouse.leftButton,mouse.midButton,mouse.rightButton,mouse.clicked_name,mouse_2.x,mouse_2.y,mouse_2.leftButton,mouse_2.midButton,mouse_2.rightButton,mouse_2.clicked_name,mouse_3.x,mouse_3.y,mouse_3.leftButton,mouse_3.midButton,mouse_3.rightButton,catchresponse,catchnumber,response_time_catch,Catch,mouse_11.x,mouse_11.y,mouse_11.leftButton,mouse_11.midButton,mouse_11.rightButton,main_trial.thisRepN,main_trial.thisTrialN,main_trial.thisN,main_trial.thisIndex,main_trial.ran,Orientationtrialno,xcircle1_ori,xcircle2_ori,double_pass.thisRepN,double_pass.thisTrialN,double_pass.thisN,double_pass.thisIndex,double_pass.ran,key_resp_3.keys,key_resp_3.rt
5dec6a96da522335df62a1b5,2023-11-23_22h35.32.484,kallum_motion_pilot,2023.1.2,Win32,145.1800232,5dec6a96da522335df62a1b5,656018846682f3df8008bb8f,656019cb9d4ce51e6dabe364,,,,,,,,,,,,,,,,,,,,,,,,,,,,,,,,,,,,,,,,,,,,,,,,,,,,,,,,,,,,,,,,,,,,,,,,,,,,,,,,,,,,,,,,,,,
5dec6a96da522335df62a1b5,2023-11-23_22h35.32.484,kallum_motion_pilot,2023.1.2,Win32,145.1800232,5dec6a96da522335df62a1b5,656018846682f3df8008bb8f,656019cb9d4ce51e6dabe364,0,0,0,62,1,fourtwo,,,,,,,,,,,,,,,,,,,,,,,,,,,,,,,,,,,,,,,,,,,,,,,,,,,,,,,,,,,,,,,,,,,,,,,,,,,,,,,,,,,,,
5dec6a96da522335df62a1b5,2023-11-23_22h35.32.484,kallum_motion_pilot,2023.1.2,Win32,145.1800232,5dec6a96da522335df62a1b5,656018846682f3df8008bb8f,656019cb9d4ce51e6dabe364,0,1,1,160,1,fivesix,,,,,,,,,,,,,,,,,,,,,,,,,,,,,,,,,,,,,,,,,,,,,,,,,,,,,,,,,,,,,,,,,,,,,,,,,,,,,,,,,,,,,
5dec6a96da522335df62a1b5,2023-11-23_22h35.32.484,kallum_motion_pilot,2023.1.2,Win32,145.1800232,5dec6a96da522335df62a1b5,656018846682f3df8008bb8f,656019cb9d4ce51e6dabe364,0,2,2,88,1,fivesix,,,,,,,,,,,,,,,,,,,,,,,,,,,,,,,,,,,,,,,,,,,,,,,,,,,,,,,,,,,,,,,,,,,,,,,,,,,,,,,,,,,,,
5dec6a96da522335df62a1b5,2023-11-23_22h35.32.484,kallum_motion_pilot,2023.1.2,Win32,145.1800232,5dec6a96da522335df62a1b5,656018846682f3df8008bb8f,656019cb9d4ce51e6dabe364,0,3,3,4,1,threeone,,,,,,,,,,,,,,,,,,,,,,,,,,,,,,,,,,,,,,,,,,,,,,,,,,,,,,,,,,,,,,,,,,,,,,,,,,,,,,,,,,,,,
5dec6a96da522335df62a1b5,2023-11-23_22h35.32.484,kallum_motion_pilot,2023.1.2,Win32,145.1800232,5dec6a96da522335df62a1b5,656018846682f3df8008bb8f,656019cb9d4ce51e6dabe364,0,4,4,64,1,onetwo,,,,,,,,,,,,,,,,,,,,,,,,,,,,,,,,,,,,,,,,,,,,,,,,,,,,,,,,,,,,,,,,,,,,,,,,,,,,,,,,,,,,,
5dec6a96da522335df62a1b5,2023-11-23_22h35.32.484,kallum_motion_pilot,2023.1.2,Win32,145.1800232,5dec6a96da522335df62a1b5,656018846682f3df8008bb8f,656019cb9d4ce51e6dabe364,0,5,5,7,1,fourthree,,,,,,,,,,,,,,,,,,,,,,,,,,,,,,,,,,,,,,,,,,,,,,,,,,,,,,,,,,,,,,,,,,,,,,,,,,,,,,,,,,,,,
5dec6a96da522335df62a1b5,2023-11-23_22h35.32.484,kallum_motion_pilot,2023.1.2,Win32,145.1800232,5dec6a96da522335df62a1b5,656018846682f3df8008bb8f,656019cb9d4ce51e6dabe364,0,6,6,148,1,sevenfive,,,,,,,,,,,,,,,,,,,,,,,,,,,,,,,,,,,,,,,,,,,,,,,,,,,,,,,,,,,,,,,,,,,,,,,,,,,,,,,,,,,,,
5dec6a96da522335df62a1b5,2023-11-23_22h35.32.484,kallum_motion_pilot,2023.1.2,Win32,145.1800232,5dec6a96da522335df62a1b5,656018846682f3df8008bb8f,656019cb9d4ce51e6dabe364,0,7,7,79,1,eightseven,,,,,,,,,,,,,,,,,,,,,,,,,,,,,,,,,,,,,,,,,,,,,,,,,,,,,,,,,,,,,,,,,,,,,,,,,,,,,,,,,,,,,
5dec6a96da522335df62a1b5,2023-11-23_22h35.32.484,kallum_motion_pilot,2023.1.2,Win32,145.1800232,5dec6a96da522335df62a1b5,656018846682f3df8008bb8f,656019cb9d4ce51e6dabe364,0,8,8,150,1,eightsix,,,,,,,,,,,,,,,,,,,,,,,,,,,,,,,,,,,,,,,,,,,,,,,,,,,,,,,,,,,,,,,,,,,,,,,,,,,,,,,,,,,,,
5dec6a96da522335df62a1b5,2023-11-23_22h35.32.484,kallum_motion_pilot,2023.1.2,Win32,145.1800232,5dec6a96da522335df62a1b5,656018846682f3df8008bb8f,656019cb9d4ce51e6dabe364,0,9,9,10,1,twoone,,,,,,,,,,,,,,,,,,,,,,,,,,,,,,,,,,,,,,,,,,,,,,,,,,,,,,,,,,,,,,,,,,,,,,,,,,,,,,,,,,,,,
5dec6a96da522335df62a1b5,2023-11-23_22h35.32.484,kallum_motion_pilot,2023.1.2,Win32,145.1800232,5dec6a96da522335df62a1b5,656018846682f3df8008bb8f,656019cb9d4ce51e6dabe364,0,10,10,41,1,onethree,,,,,,,,,,,,,,,,,,,,,,,,,,,,,,,,,,,,,,,,,,,,,,,,,,,,,,,,,,,,,,,,,,,,,,,,,,,,,,,,,,,,,
5dec6a96da522335df62a1b5,2023-11-23_22h35.32.484,kallum_motion_pilot,2023.1.2,Win32,145.1800232,5dec6a96da522335df62a1b5,656018846682f3df8008bb8f,656019cb9d4ce51e6dabe364,0,11,11,21,1,threefour,,,,,,,,,,,,,,,,,,,,,,,,,,,,,,,,,,,,,,,,,,,,,,,,,,,,,,,,,,,,,,,,,,,,,,,,,,,,,,,,,,,,,
5dec6a96da522335df62a1b5,2023-11-23_22h35.32.484,kallum_motion_pilot,2023.1.2,Win32,145.1800232,5dec6a96da522335df62a1b5,656018846682f3df8008bb8f,656019cb9d4ce51e6dabe364,0,12,12,60,1,threeone,,,,,,,,,,,,,,,,,,,,,,,,,,,,,,,,,,,,,,,,,,,,,,,,,,,,,,,,,,,,,,,,,,,,,,,,,,,,,,,,,,,,,
5dec6a96da522335df62a1b5,2023-11-23_22h35.32.484,kallum_motion_pilot,2023.1.2,Win32,145.1800232,5dec6a96da522335df62a1b5,656018846682f3df8008bb8f,656019cb9d4ce51e6dabe364,0,13,13,36,1,threeone,,,,,,,,,,,,,,,,,,,,,,,,,,,,,,,,,,,,,,,,,,,,,,,,,,,,,,,,,,,,,,,,,,,,,,,,,,,,,,,,,,,,,
5dec6a96da522335df62a1b5,2023-11-23_22h35.32.484,kallum_motion_pilot,2023.1.2,Win32,145.1800232,5dec6a96da522335df62a1b5,656018846682f3df8008bb8f,656019cb9d4ce51e6dabe364,0,14,14,83,1,sixeight,,,,,,,,,,,,,,,,,,,,,,,,,,,,,,,,,,,,,,,,,,,,,,,,,,,,,,,,,,,,,,,,,,,,,,,,,,,,,,,,,,,,,
5dec6a96da522335df62a1b5,2023-11-23_22h35.32.484,kallum_motion_pilot,2023.1.2,Win32,145.1800232,5dec6a96da522335df62a1b5,656018846682f3df8008bb8f,656019cb9d4ce51e6dabe364,0,15,15,86,1,eightsix,,,,,,,,,,,,,,,,,,,,,,,,,,,,,,,,,,,,,,,,,,,,,,,,,,,,,,,,,,,,,,,,,,,,,,,,,,,,,,,,,,,,,
5dec6a96da522335df62a1b5,2023-11-23_22h35.32.484,kallum_motion_pilot,2023.1.2,Win32,145.1800232,5dec6a96da522335df62a1b5,656018846682f3df8008bb8f,656019cb9d4ce51e6dabe364,0,16,16,69,1,threefour,,,,,,,,,,,,,,,,,,,,,,,,,,,,,,,,,,,,,,,,,,,,,,,,,,,,,,,,,,,,,,,,,,,,,,,,,,,,,,,,,,,,,
5dec6a96da522335df62a1b5,2023-11-23_22h35.32.484,kallum_motion_pilot,2023.1.2,Win32,145.1800232,5dec6a96da522335df62a1b5,656018846682f3df8008bb8f,656019cb9d4ce51e6dabe364,0,17,17,8,1,onetwo,,,,,,,,,,,,,,,,,,,,,,,,,,,,,,,,,,,,,,,,,,,,,,,,,,,,,,,,,,,,,,,,,,,,,,,,,,,,,,,,,,,,,
5dec6a96da522335df62a1b5,2023-11-23_22h35.32.484,kallum_motion_pilot,2023.1.2,Win32,145.1800232,5dec6a96da522335df62a1b5,656018846682f3df8008bb8f,656019cb9d4ce51e6dabe364,0,18,18,57,1,onethree,,,,,,,,,,,,,,,,,,,,,,,,,,,,,,,,,,,,,,,,,,,,,,,,,,,,,,,,,,,,,,,,,,,,,,,,,,,,,,,,,,,,,
5dec6a96da522335df62a1b5,2023-11-23_22h35.32.484,kallum_motion_pilot,2023.1.2,Win32,145.1800232,5dec6a96da522335df62a1b5,656018846682f3df8008bb8f,656019cb9d4ce51e6dabe364,0,19,19,158,1,eightsix,,,,,,,,,,,,,,,,,,,,,,,,,,,,,,,,,,,,,,,,,,,,,,,,,,,,,,,,,,,,,,,,,,,,,,,,,,,,,,,,,,,,,
5dec6a96da522335df62a1b5,2023-11-23_22h35.32.484,kallum_motion_pilot,2023.1.2,Win32,145.1800232,5dec6a96da522335df62a1b5,656018846682f3df8008bb8f,656019cb9d4ce51e6dabe364,0,20,20,30,1,fourtwo,,,,,,,,,,,,,,,,,,,,,,,,,,,,,,,,,,,,,,,,,,,,,,,,,,,,,,,,,,,,,,,,,,,,,,,,,,,,,,,,,,,,,
5dec6a96da522335df62a1b5,2023-11-23_22h35.32.484,kallum_motion_pilot,2023.1.2,Win32,145.1800232,5dec6a96da522335df62a1b5,656018846682f3df8008bb8f,656019cb9d4ce51e6dabe364,0,21,21,2,1,twoone,,,,,,,,,,,,,,,,,,,,,,,,,,,,,,,,,,,,,,,,,,,,,,,,,,,,,,,,,,,,,,,,,,,,,,,,,,,,,,,,,,,,,
5dec6a96da522335df62a1b5,2023-11-23_22h35.32.484,kallum_motion_pilot,2023.1.2,Win32,145.1800232,5dec6a96da522335df62a1b5,656018846682f3df8008bb8f,656019cb9d4ce51e6dabe364,0,22,22,34,1,twoone,,,,,,,,,,,,,,,,,,,,,,,,,,,,,,,,,,,,,,,,,,,,,,,,,,,,,,,,,,,,,,,,,,,,,,,,,,,,,,,,,,,,,
5dec6a96da522335df62a1b5,2023-11-23_22h35.32.484,kallum_motion_pilot,2023.1.2,Win32,145.1800232,5dec6a96da522335df62a1b5,656018846682f3df8008bb8f,656019cb9d4ce51e6dabe364,0,23,23,71,1,fourthree,,,,,,,,,,,,,,,,,,,,,,,,,,,,,,,,,,,,,,,,,,,,,,,,,,,,,,,,,,,,,,,,,,,,,,,,,,,,,,,,,,,,,
5dec6a96da522335df62a1b5,2023-11-23_22h35.32.484,kallum_motion_pilot,2023.1.2,Win32,145.1800232,5dec6a96da522335df62a1b5,656018846682f3df8008bb8f,656019cb9d4ce51e6dabe364,0,24,24,156,1,sevenfive,,,,,,,,,,,,,,,,,,,,,,,,,,,,,,,,,,,,,,,,,,,,,,,,,,,,,,,,,,,,,,,,,,,,,,,,,,,,,,,,,,,,,
5dec6a96da522335df62a1b5,2023-11-23_22h35.32.484,kallum_motion_pilot,2023.1.2,Win32,145.1800232,5dec6a96da522335df62a1b5,656018846682f3df8008bb8f,656019cb9d4ce51e6dabe364,0,25,25,140,1,sevenfive,,,,,,,,,,,,,,,,,,,,,,,,,,,,,,,,,,,,,,,,,,,,,,,,,,,,,,,,,,,,,,,,,,,,,,,,,,,,,,,,,,,,,
5dec6a96da522335df62a1b5,2023-11-23_22h35.32.484,kallum_motion_pilot,2023.1.2,Win32,145.1800232,5dec6a96da522335df62a1b5,656018846682f3df8008bb8f,656019cb9d4ce51e6dabe364,0,26,26,146,1,sixfive,,,,,,,,,,,,,,,,,,,,,,,,,,,,,,,,,,,,,,,,,,,,,,,,,,,,,,,,,,,,,,,,,,,,,,,,,,,,,,,,,,,,,
5dec6a96da522335df62a1b5,2023-11-23_22h35.32.484,kallum_motion_pilot,2023.1.2,Win32,145.1800232,5dec6a96da522335df62a1b5,656018846682f3df8008bb8f,656019cb9d4ce51e6dabe364,0,27,27,111,1,eightseven,,,,,,,,,,,,,,,,,,,,,,,,,,,,,,,,,,,,,,,,,,,,,,,,,,,,,,,,,,,,,,,,,,,,,,,,,,,,,,,,,,,,,
5dec6a96da522335df62a1b5,2023-11-23_22h35.32.484,kallum_motion_pilot,2023.1.2,Win32,145.1800232,5dec6a96da522335df62a1b5,656018846682f3df8008bb8f,656019cb9d4ce51e6dabe364,0,28,28,5,1,threefour,,,,,,,,,,,,,,,,,,,,,,,,,,,,,,,,,,,,,,,,,,,,,,,,,,,,,,,,,,,,,,,,,,,,,,,,,,,,,,,,,,,,,
5dec6a96da522335df62a1b5,2023-11-23_22h35.32.484,kallum_motion_pilot,2023.1.2,Win32,145.1800232,5dec6a96da522335df62a1b5,656018846682f3df8008bb8f,656019cb9d4ce51e6dabe364,0,29,29,151,1,eightseven,,,,,,,,,,,,,,,,,,,,,,,,,,,,,,,,,,,,,,,,,,,,,,,,,,,,,,,,,,,,,,,,,,,,,,,,,,,,,,,,,,,,,
5dec6a96da522335df62a1b5,2023-11-23_22h35.32.484,kallum_motion_pilot,2023.1.2,Win32,145.1800232,5dec6a96da522335df62a1b5,656018846682f3df8008bb8f,656019cb9d4ce51e6dabe364,0,30,30,153,1,fiveseven,,,,,,,,,,,,,,,,,,,,,,,,,,,,,,,,,,,,,,,,,,,,,,,,,,,,,,,,,,,,,,,,,,,,,,,,,,,,,,,,,,,,,
5dec6a96da522335df62a1b5,2023-11-23_22h35.32.484,kallum_motion_pilot,2023.1.2,Win32,145.1800232,5dec6a96da522335df62a1b5,656018846682f3df8008bb8f,656019cb9d4ce51e6dabe364,0,31,31,14,1,fourtwo,,,,,,,,,,,,,,,,,,,,,,,,,,,,,,,,,,,,,,,,,,,,,,,,,,,,,,,,,,,,,,,,,,,,,,,,,,,,,,,,,,,,,
5dec6a96da522335df62a1b5,2023-11-23_22h35.32.484,kallum_motion_pilot,2023.1.2,Win32,145.1800232,5dec6a96da522335df62a1b5,656018846682f3df8008bb8f,656019cb9d4ce51e6dabe364,0,32,32,136,1,fivesix,,,,,,,,,,,,,,,,,,,,,,,,,,,,,,,,,,,,,,,,,,,,,,,,,,,,,,,,,,,,,,,,,,,,,,,,,,,,,,,,,,,,,
5dec6a96da522335df62a1b5,2023-11-23_22h35.32.484,kallum_motion_pilot,2023.1.2,Win32,145.1800232,5dec6a96da522335df62a1b5,656018846682f3df8008bb8f,656019cb9d4ce51e6dabe364,0,33,33,157,1,seveneight,,,,,,,,,,,,,,,,,,,,,,,,,,,,,,,,,,,,,,,,,,,,,,,,,,,,,,,,,,,,,,,,,,,,,,,,,,,,,,,,,,,,,
5dec6a96da522335df62a1b5,2023-11-23_22h35.32.484,kallum_motion_pilot,2023.1.2,Win32,145.1800232,5dec6a96da522335df62a1b5,656018846682f3df8008bb8f,656019cb9d4ce51e6dabe364,0,34,34,123,1,sixeight,,,,,,,,,,,,,,,,,,,,,,,,,,,,,,,,,,,,,,,,,,,,,,,,,,,,,,,,,,,,,,,,,,,,,,,,,,,,,,,,,,,,,
5dec6a96da522335df62a1b5,2023-11-23_22h35.32.484,kallum_motion_pilot,2023.1.2,Win32,145.1800232,5dec6a96da522335df62a1b5,656018846682f3df8008bb8f,656019cb9d4ce51e6dabe364,0,35,35,42,1,twoone,,,,,,,,,,,,,,,,,,,,,,,,,,,,,,,,,,,,,,,,,,,,,,,,,,,,,,,,,,,,,,,,,,,,,,,,,,,,,,,,,,,,,
5dec6a96da522335df62a1b5,2023-11-23_22h35.32.484,kallum_motion_pilot,2023.1.2,Win32,145.1800232,5dec6a96da522335df62a1b5,656018846682f3df8008bb8f,656019cb9d4ce51e6dabe364,0,36,36,96,1,fivesix,,,,,,,,,,,,,,,,,,,,,,,,,,,,,,,,,,,,,,,,,,,,,,,,,,,,,,,,,,,,,,,,,,,,,,,,,,,,,,,,,,,,,
5dec6a96da522335df62a1b5,2023-11-23_22h35.32.484,kallum_motion_pilot,2023.1.2,Win32,145.1800232,5dec6a96da522335df62a1b5,656018846682f3df8008bb8f,656019cb9d4ce51e6dabe364,0,37,37,66,1,twoone,,,,,,,,,,,,,,,,,,,,,,,,,,,,,,,,,,,,,,,,,,,,,,,,,,,,,,,,,,,,,,,,,,,,,,,,,,,,,,,,,,,,,
5dec6a96da522335df62a1b5,2023-11-23_22h35.32.484,kallum_motion_pilot,2023.1.2,Win32,145.1800232,5dec6a96da522335df62a1b5,656018846682f3df8008bb8f,656019cb9d4ce51e6dabe364,0,38,38,141,1,seveneight,,,,,,,,,,,,,,,,,,,,,,,,,,,,,,,,,,,,,,,,,,,,,,,,,,,,,,,,,,,,,,,,,,,,,,,,,,,,,,,,,,,,,
5dec6a96da522335df62a1b5,2023-11-23_22h35.32.484,kallum_motion_pilot,2023.1.2,Win32,145.1800232,5dec6a96da522335df62a1b5,656018846682f3df8008bb8f,656019cb9d4ce51e6dabe364,0,39,39,129,1,fiveseven,,,,,,,,,,,,,,,,,,,,,,,,,,,,,,,,,,,,,,,,,,,,,,,,,,,,,,,,,,,,,,,,,,,,,,,,,,,,,,,,,,,,,
5dec6a96da522335df62a1b5,2023-11-23_22h35.32.484,kallum_motion_pilot,2023.1.2,Win32,145.1800232,5dec6a96da522335df62a1b5,656018846682f3df8008bb8f,656019cb9d4ce51e6dabe364,0,40,40,159,1,eightseven,,,,,,,,,,,,,,,,,,,,,,,,,,,,,,,,,,,,,,,,,,,,,,,,,,,,,,,,,,,,,,,,,,,,,,,,,,,,,,,,,,,,,
5dec6a96da522335df62a1b5,2023-11-23_22h35.32.484,kallum_motion_pilot,2023.1.2,Win32,145.1800232,5dec6a96da522335df62a1b5,656018846682f3df8008bb8f,656019cb9d4ce51e6dabe364,0,41,41,87,1,eightseven,,,,,,,,,,,,,,,,,,,,,,,,,,,,,,,,,,,,,,,,,,,,,,,,,,,,,,,,,,,,,,,,,,,,,,,,,,,,,,,,,,,,,
5dec6a96da522335df62a1b5,2023-11-23_22h35.32.484,kallum_motion_pilot,2023.1.2,Win32,145.1800232,5dec6a96da522335df62a1b5,656018846682f3df8008bb8f,656019cb9d4ce51e6dabe364,0,42,42,43,1,twofour,,,,,,,,,,,,,,,,,,,,,,,,,,,,,,,,,,,,,,,,,,,,,,,,,,,,,,,,,,,,,,,,,,,,,,,,,,,,,,,,,,,,,
5dec6a96da522335df62a1b5,2023-11-23_22h35.32.484,kallum_motion_pilot,2023.1.2,Win32,145.1800232,5dec6a96da522335df62a1b5,656018846682f3df8008bb8f,656019cb9d4ce51e6dabe364,0,43,43,104,1,fivesix,,,,,,,,,,,,,,,,,,,,,,,,,,,,,,,,,,,,,,,,,,,,,,,,,,,,,,,,,,,,,,,,,,,,,,,,,,,,,,,,,,,,,
5dec6a96da522335df62a1b5,2023-11-23_22h35.32.484,kallum_motion_pilot,2023.1.2,Win32,145.1800232,5dec6a96da522335df62a1b5,656018846682f3df8008bb8f,656019cb9d4ce51e6dabe364,0,44,44,25,1,onethree,,,,,,,,,,,,,,,,,,,,,,,,,,,,,,,,,,,,,,,,,,,,,,,,,,,,,,,,,,,,,,,,,,,,,,,,,,,,,,,,,,,,,
5dec6a96da522335df62a1b5,2023-11-23_22h35.32.484,kallum_motion_pilot,2023.1.2,Win32,145.1800232,5dec6a96da522335df62a1b5,656018846682f3df8008bb8f,656019cb9d4ce51e6dabe364,0,45,45,18,1,twoone,,,,,,,,,,,,,,,,,,,,,,,,,,,,,,,,,,,,,,,,,,,,,,,,,,,,,,,,,,,,,,,,,,,,,,,,,,,,,,,,,,,,,
5dec6a96da522335df62a1b5,2023-11-23_22h35.32.484,kallum_motion_pilot,2023.1.2,Win32,145.1800232,5dec6a96da522335df62a1b5,656018846682f3df8008bb8f,656019cb9d4ce51e6dabe364,0,46,46,3,1,twofour,,,,,,,,,,,,,,,,,,,,,,,,,,,,,,,,,,,,,,,,,,,,,,,,,,,,,,,,,,,,,,,,,,,,,,,,,,,,,,,,,,,,,
5dec6a96da522335df62a1b5,2023-11-23_22h35.32.484,kallum_motion_pilot,2023.1.2,Win32,145.1800232,5dec6a96da522335df62a1b5,656018846682f3df8008bb8f,656019cb9d4ce51e6dabe364,0,47,47,85,1,seveneight,,,,,,,,,,,,,,,,,,,,,,,,,,,,,,,,,,,,,,,,,,,,,,,,,,,,,,,,,,,,,,,,,,,,,,,,,,,,,,,,,,,,,
5dec6a96da522335df62a1b5,2023-11-23_22h35.32.484,kallum_motion_pilot,2023.1.2,Win32,145.1800232,5dec6a96da522335df62a1b5,656018846682f3df8008bb8f,656019cb9d4ce51e6dabe364,0,48,48,132,1,sevenfive,,,,,,,,,,,,,,,,,,,,,,,,,,,,,,,,,,,,,,,,,,,,,,,,,,,,,,,,,,,,,,,,,,,,,,,,,,,,,,,,,,,,,
5dec6a96da522335df62a1b5,2023-11-23_22h35.32.484,kallum_motion_pilot,2023.1.2,Win32,145.1800232,5dec6a96da522335df62a1b5,656018846682f3df8008bb8f,656019cb9d4ce51e6dabe364,0,49,49,145,1,fiveseven,,,,,,,,,,,,,,,,,,,,,,,,,,,,,,,,,,,,,,,,,,,,,,,,,,,,,,,,,,,,,,,,,,,,,,,,,,,,,,,,,,,,,
5dec6a96da522335df62a1b5,2023-11-23_22h35.32.484,kallum_motion_pilot,2023.1.2,Win32,145.1800232,5dec6a96da522335df62a1b5,656018846682f3df8008bb8f,656019cb9d4ce51e6dabe364,0,50,50,67,1,twofour,,,,,,,,,,,,,,,,,,,,,,,,,,,,,,,,,,,,,,,,,,,,,,,,,,,,,,,,,,,,,,,,,,,,,,,,,,,,,,,,,,,,,
5dec6a96da522335df62a1b5,2023-11-23_22h35.32.484,kallum_motion_pilot,2023.1.2,Win32,145.1800232,5dec6a96da522335df62a1b5,656018846682f3df8008bb8f,656019cb9d4ce51e6dabe364,0,51,51,65,1,onethree,,,,,,,,,,,,,,,,,,,,,,,,,,,,,,,,,,,,,,,,,,,,,,,,,,,,,,,,,,,,,,,,,,,,,,,,,,,,,,,,,,,,,
5dec6a96da522335df62a1b5,2023-11-23_22h35.32.484,kallum_motion_pilot,2023.1.2,Win32,145.1800232,5dec6a96da522335df62a1b5,656018846682f3df8008bb8f,656019cb9d4ce51e6dabe364,0,52,52,29,1,threefour,,,,,,,,,,,,,,,,,,,,,,,,,,,,,,,,,,,,,,,,,,,,,,,,,,,,,,,,,,,,,,,,,,,,,,,,,,,,,,,,,,,,,
5dec6a96da522335df62a1b5,2023-11-23_22h35.32.484,kallum_motion_pilot,2023.1.2,Win32,145.1800232,5dec6a96da522335df62a1b5,656018846682f3df8008bb8f,656019cb9d4ce51e6dabe364,0,53,53,77,1,threefour,,,,,,,,,,,,,,,,,,,,,,,,,,,,,,,,,,,,,,,,,,,,,,,,,,,,,,,,,,,,,,,,,,,,,,,,,,,,,,,,,,,,,
5dec6a96da522335df62a1b5,2023-11-23_22h35.32.484,kallum_motion_pilot,2023.1.2,Win32,145.1800232,5dec6a96da522335df62a1b5,656018846682f3df8008bb8f,656019cb9d4ce51e6dabe364,0,54,54,114,1,sixfive,,,,,,,,,,,,,,,,,,,,,,,,,,,,,,,,,,,,,,,,,,,,,,,,,,,,,,,,,,,,,,,,,,,,,,,,,,,,,,,,,,,,,
5dec6a96da522335df62a1b5,2023-11-23_22h35.32.484,kallum_motion_pilot,2023.1.2,Win32,145.1800232,5dec6a96da522335df62a1b5,656018846682f3df8008bb8f,656019cb9d4ce51e6dabe364,0,55,55,17,1,onethree,,,,,,,,,,,,,,,,,,,,,,,,,,,,,,,,,,,,,,,,,,,,,,,,,,,,,,,,,,,,,,,,,,,,,,,,,,,,,,,,,,,,,
5dec6a96da522335df62a1b5,2023-11-23_22h35.32.484,kallum_motion_pilot,2023.1.2,Win32,145.1800232,5dec6a96da522335df62a1b5,656018846682f3df8008bb8f,656019cb9d4ce51e6dabe364,0,56,56,72,1,onetwo,,,,,,,,,,,,,,,,,,,,,,,,,,,,,,,,,,,,,,,,,,,,,,,,,,,,,,,,,,,,,,,,,,,,,,,,,,,,,,,,,,,,,
5dec6a96da522335df62a1b5,2023-11-23_22h35.32.484,kallum_motion_pilot,2023.1.2,Win32,145.1800232,5dec6a96da522335df62a1b5,656018846682f3df8008bb8f,656019cb9d4ce51e6dabe364,0,57,57,154,1,sixfive,,,,,,,,,,,,,,,,,,,,,,,,,,,,,,,,,,,,,,,,,,,,,,,,,,,,,,,,,,,,,,,,,,,,,,,,,,,,,,,,,,,,,
5dec6a96da522335df62a1b5,2023-11-23_22h35.32.484,kallum_motion_pilot,2023.1.2,Win32,145.1800232,5dec6a96da522335df62a1b5,656018846682f3df8008bb8f,656019cb9d4ce51e6dabe364,0,58,58,109,1,seveneight,,,,,,,,,,,,,,,,,,,,,,,,,,,,,,,,,,,,,,,,,,,,,,,,,,,,,,,,,,,,,,,,,,,,,,,,,,,,,,,,,,,,,
5dec6a96da522335df62a1b5,2023-11-23_22h35.32.484,kallum_motion_pilot,2023.1.2,Win32,145.1800232,5dec6a96da522335df62a1b5,656018846682f3df8008bb8f,656019cb9d4ce51e6dabe364,0,59,59,126,1,eightsix,,,,,,,,,,,,,,,,,,,,,,,,,,,,,,,,,,,,,,,,,,,,,,,,,,,,,,,,,,,,,,,,,,,,,,,,,,,,,,,,,,,,,
5dec6a96da522335df62a1b5,2023-11-23_22h35.32.484,kallum_motion_pilot,2023.1.2,Win32,145.1800232,5dec6a96da522335df62a1b5,656018846682f3df8008bb8f,656019cb9d4ce51e6dabe364,0,60,60,47,1,fourthree,,,,,,,,,,,,,,,,,,,,,,,,,,,,,,,,,,,,,,,,,,,,,,,,,,,,,,,,,,,,,,,,,,,,,,,,,,,,,,,,,,,,,
5dec6a96da522335df62a1b5,2023-11-23_22h35.32.484,kallum_motion_pilot,2023.1.2,Win32,145.1800232,5dec6a96da522335df62a1b5,656018846682f3df8008bb8f,656019cb9d4ce51e6dabe364,0,61,61,55,1,fourthree,,,,,,,,,,,,,,,,,,,,,,,,,,,,,,,,,,,,,,,,,,,,,,,,,,,,,,,,,,,,,,,,,,,,,,,,,,,,,,,,,,,,,
5dec6a96da522335df62a1b5,2023-11-23_22h35.32.484,kallum_motion_pilot,2023.1.2,Win32,145.1800232,5dec6a96da522335df62a1b5,656018846682f3df8008bb8f,656019cb9d4ce51e6dabe364,0,62,62,143,1,eightseven,,,,,,,,,,,,,,,,,,,,,,,,,,,,,,,,,,,,,,,,,,,,,,,,,,,,,,,,,,,,,,,,,,,,,,,,,,,,,,,,,,,,,
5dec6a96da522335df62a1b5,2023-11-23_22h35.32.484,kallum_motion_pilot,2023.1.2,Win32,145.1800232,5dec6a96da522335df62a1b5,656018846682f3df8008bb8f,656019cb9d4ce51e6dabe364,0,63,63,142,1,eightsix,,,,,,,,,,,,,,,,,,,,,,,,,,,,,,,,,,,,,,,,,,,,,,,,,,,,,,,,,,,,,,,,,,,,,,,,,,,,,,,,,,,,,
5dec6a96da522335df62a1b5,2023-11-23_22h35.32.484,kallum_motion_pilot,2023.1.2,Win32,145.1800232,5dec6a96da522335df62a1b5,656018846682f3df8008bb8f,656019cb9d4ce51e6dabe364,0,64,64,102,1,eightsix,,,,,,,,,,,,,,,,,,,,,,,,,,,,,,,,,,,,,,,,,,,,,,,,,,,,,,,,,,,,,,,,,,,,,,,,,,,,,,,,,,,,,
5dec6a96da522335df62a1b5,2023-11-23_22h35.32.484,kallum_motion_pilot,2023.1.2,Win32,145.1800232,5dec6a96da522335df62a1b5,656018846682f3df8008bb8f,656019cb9d4ce51e6dabe364,0,65,65,93,1,seveneight,,,,,,,,,,,,,,,,,,,,,,,,,,,,,,,,,,,,,,,,,,,,,,,,,,,,,,,,,,,,,,,,,,,,,,,,,,,,,,,,,,,,,
5dec6a96da522335df62a1b5,2023-11-23_22h35.32.484,kallum_motion_pilot,2023.1.2,Win32,145.1800232,5dec6a96da522335df62a1b5,656018846682f3df8008bb8f,656019cb9d4ce51e6dabe364,0,66,66,9,1,onethree,,,,,,,,,,,,,,,,,,,,,,,,,,,,,,,,,,,,,,,,,,,,,,,,,,,,,,,,,,,,,,,,,,,,,,,,,,,,,,,,,,,,,
5dec6a96da522335df62a1b5,2023-11-23_22h35.32.484,kallum_motion_pilot,2023.1.2,Win32,145.1800232,5dec6a96da522335df62a1b5,656018846682f3df8008bb8f,656019cb9d4ce51e6dabe364,0,67,67,26,1,twoone,,,,,,,,,,,,,,,,,,,,,,,,,,,,,,,,,,,,,,,,,,,,,,,,,,,,,,,,,,,,,,,,,,,,,,,,,,,,,,,,,,,,,
5dec6a96da522335df62a1b5,2023-11-23_22h35.32.484,kallum_motion_pilot,2023.1.2,Win32,145.1800232,5dec6a96da522335df62a1b5,656018846682f3df8008bb8f,656019cb9d4ce51e6dabe364,0,68,68,20,1,threeone,,,,,,,,,,,,,,,,,,,,,,,,,,,,,,,,,,,,,,,,,,,,,,,,,,,,,,,,,,,,,,,,,,,,,,,,,,,,,,,,,,,,,
5dec6a96da522335df62a1b5,2023-11-23_22h35.32.484,kallum_motion_pilot,2023.1.2,Win32,145.1800232,5dec6a96da522335df62a1b5,656018846682f3df8008bb8f,656019cb9d4ce51e6dabe364,0,69,69,139,1,sixeight,,,,,,,,,,,,,,,,,,,,,,,,,,,,,,,,,,,,,,,,,,,,,,,,,,,,,,,,,,,,,,,,,,,,,,,,,,,,,,,,,,,,,
5dec6a96da522335df62a1b5,2023-11-23_22h35.32.484,kallum_motion_pilot,2023.1.2,Win32,145.1800232,5dec6a96da522335df62a1b5,656018846682f3df8008bb8f,656019cb9d4ce51e6dabe364,0,70,70,155,1,sixeight,,,,,,,,,,,,,,,,,,,,,,,,,,,,,,,,,,,,,,,,,,,,,,,,,,,,,,,,,,,,,,,,,,,,,,,,,,,,,,,,,,,,,
5dec6a96da522335df62a1b5,2023-11-23_22h35.32.484,kallum_motion_pilot,2023.1.2,Win32,145.1800232,5dec6a96da522335df62a1b5,656018846682f3df8008bb8f,656019cb9d4ce51e6dabe364,0,71,71,134,1,eightsix,,,,,,,,,,,,,,,,,,,,,,,,,,,,,,,,,,,,,,,,,,,,,,,,,,,,,,,,,,,,,,,,,,,,,,,,,,,,,,,,,,,,,
5dec6a96da522335df62a1b5,2023-11-23_22h35.32.484,kallum_motion_pilot,2023.1.2,Win32,145.1800232,5dec6a96da522335df62a1b5,656018846682f3df8008bb8f,656019cb9d4ce51e6dabe364,0,72,72,51,1,twofour,,,,,,,,,,,,,,,,,,,,,,,,,,,,,,,,,,,,,,,,,,,,,,,,,,,,,,,,,,,,,,,,,,,,,,,,,,,,,,,,,,,,,
5dec6a96da522335df62a1b5,2023-11-23_22h35.32.484,kallum_motion_pilot,2023.1.2,Win32,145.1800232,5dec6a96da522335df62a1b5,656018846682f3df8008bb8f,656019cb9d4ce51e6dabe364,0,73,73,22,1,fourtwo,,,,,,,,,,,,,,,,,,,,,,,,,,,,,,,,,,,,,,,,,,,,,,,,,,,,,,,,,,,,,,,,,,,,,,,,,,,,,,,,,,,,,
5dec6a96da522335df62a1b5,2023-11-23_22h35.32.484,kallum_motion_pilot,2023.1.2,Win32,145.1800232,5dec6a96da522335df62a1b5,656018846682f3df8008bb8f,656019cb9d4ce51e6dabe364,0,74,74,112,1,fivesix,,,,,,,,,,,,,,,,,,,,,,,,,,,,,,,,,,,,,,,,,,,,,,,,,,,,,,,,,,,,,,,,,,,,,,,,,,,,,,,,,,,,,
5dec6a96da522335df62a1b5,2023-11-23_22h35.32.484,kallum_motion_pilot,2023.1.2,Win32,145.1800232,5dec6a96da522335df62a1b5,656018846682f3df8008bb8f,656019cb9d4ce51e6dabe364,0,75,75,103,1,eightseven,,,,,,,,,,,,,,,,,,,,,,,,,,,,,,,,,,,,,,,,,,,,,,,,,,,,,,,,,,,,,,,,,,,,,,,,,,,,,,,,,,,,,
5dec6a96da522335df62a1b5,2023-11-23_22h35.32.484,kallum_motion_pilot,2023.1.2,Win32,145.1800232,5dec6a96da522335df62a1b5,656018846682f3df8008bb8f,656019cb9d4ce51e6dabe364,0,76,76,119,1,eightseven,,,,,,,,,,,,,,,,,,,,,,,,,,,,,,,,,,,,,,,,,,,,,,,,,,,,,,,,,,,,,,,,,,,,,,,,,,,,,,,,,,,,,
5dec6a96da522335df62a1b5,2023-11-23_22h35.32.484,kallum_motion_pilot,2023.1.2,Win32,145.1800232,5dec6a96da522335df62a1b5,656018846682f3df8008bb8f,656019cb9d4ce51e6dabe364,0,77,77,106,1,sixfive,,,,,,,,,,,,,,,,,,,,,,,,,,,,,,,,,,,,,,,,,,,,,,,,,,,,,,,,,,,,,,,,,,,,,,,,,,,,,,,,,,,,,
5dec6a96da522335df62a1b5,2023-11-23_22h35.32.484,kallum_motion_pilot,2023.1.2,Win32,145.1800232,5dec6a96da522335df62a1b5,656018846682f3df8008bb8f,656019cb9d4ce51e6dabe364,0,78,78,12,1,threeone,,,,,,,,,,,,,,,,,,,,,,,,,,,,,,,,,,,,,,,,,,,,,,,,,,,,,,,,,,,,,,,,,,,,,,,,,,,,,,,,,,,,,
5dec6a96da522335df62a1b5,2023-11-23_22h35.32.484,kallum_motion_pilot,2023.1.2,Win32,145.1800232,5dec6a96da522335df62a1b5,656018846682f3df8008bb8f,656019cb9d4ce51e6dabe364,0,79,79,23,1,fourthree,,,,,,,,,,,,,,,,,,,,,,,,,,,,,,,,,,,,,,,,,,,,,,,,,,,,,,,,,,,,,,,,,,,,,,,,,,,,,,,,,,,,,
5dec6a96da522335df62a1b5,2023-11-23_22h35.32.484,kallum_motion_pilot,2023.1.2,Win32,145.1800232,5dec6a96da522335df62a1b5,656018846682f3df8008bb8f,656019cb9d4ce51e6dabe364,0,80,80,95,1,eightseven,,,,,,,,,,,,,,,,,,,,,,,,,,,,,,,,,,,,,,,,,,,,,,,,,,,,,,,,,,,,,,,,,,,,,,,,,,,,,,,,,,,,,
5dec6a96da522335df62a1b5,2023-11-23_22h35.32.484,kallum_motion_pilot,2023.1.2,Win32,145.1800232,5dec6a96da522335df62a1b5,656018846682f3df8008bb8f,656019cb9d4ce51e6dabe364,0,81,81,44,1,threeone,,,,,,,,,,,,,,,,,,,,,,,,,,,,,,,,,,,,,,,,,,,,,,,,,,,,,,,,,,,,,,,,,,,,,,,,,,,,,,,,,,,,,
5dec6a96da522335df62a1b5,2023-11-23_22h35.32.484,kallum_motion_pilot,2023.1.2,Win32,145.1800232,5dec6a96da522335df62a1b5,656018846682f3df8008bb8f,656019cb9d4ce51e6dabe364,0,82,82,27,1,twofour,,,,,,,,,,,,,,,,,,,,,,,,,,,,,,,,,,,,,,,,,,,,,,,,,,,,,,,,,,,,,,,,,,,,,,,,,,,,,,,,,,,,,
5dec6a96da522335df62a1b5,2023-11-23_22h35.32.484,kallum_motion_pilot,2023.1.2,Win32,145.1800232,5dec6a96da522335df62a1b5,656018846682f3df8008bb8f,656019cb9d4ce51e6dabe364,0,83,83,45,1,threefour,,,,,,,,,,,,,,,,,,,,,,,,,,,,,,,,,,,,,,,,,,,,,,,,,,,,,,,,,,,,,,,,,,,,,,,,,,,,,,,,,,,,,
5dec6a96da522335df62a1b5,2023-11-23_22h35.32.484,kallum_motion_pilot,2023.1.2,Win32,145.1800232,5dec6a96da522335df62a1b5,656018846682f3df8008bb8f,656019cb9d4ce51e6dabe364,0,84,84,94,1,eightsix,,,,,,,,,,,,,,,,,,,,,,,,,,,,,,,,,,,,,,,,,,,,,,,,,,,,,,,,,,,,,,,,,,,,,,,,,,,,,,,,,,,,,
5dec6a96da522335df62a1b5,2023-11-23_22h35.32.484,kallum_motion_pilot,2023.1.2,Win32,145.1800232,5dec6a96da522335df62a1b5,656018846682f3df8008bb8f,656019cb9d4ce51e6dabe364,0,85,85,133,1,seveneight,,,,,,,,,,,,,,,,,,,,,,,,,,,,,,,,,,,,,,,,,,,,,,,,,,,,,,,,,,,,,,,,,,,,,,,,,,,,,,,,,,,,,
5dec6a96da522335df62a1b5,2023-11-23_22h35.32.484,kallum_motion_pilot,2023.1.2,Win32,145.1800232,5dec6a96da522335df62a1b5,656018846682f3df8008bb8f,656019cb9d4ce51e6dabe364,0,86,86,0,1,onetwo,,,,,,,,,,,,,,,,,,,,,,,,,,,,,,,,,,,,,,,,,,,,,,,,,,,,,,,,,,,,,,,,,,,,,,,,,,,,,,,,,,,,,
5dec6a96da522335df62a1b5,2023-11-23_22h35.32.484,kallum_motion_pilot,2023.1.2,Win32,145.1800232,5dec6a96da522335df62a1b5,656018846682f3df8008bb8f,656019cb9d4ce51e6dabe364,0,87,87,81,1,fiveseven,,,,,,,,,,,,,,,,,,,,,,,,,,,,,,,,,,,,,,,,,,,,,,,,,,,,,,,,,,,,,,,,,,,,,,,,,,,,,,,,,,,,,
5dec6a96da522335df62a1b5,2023-11-23_22h35.32.484,kallum_motion_pilot,2023.1.2,Win32,145.1800232,5dec6a96da522335df62a1b5,656018846682f3df8008bb8f,656019cb9d4ce51e6dabe364,0,88,88,131,1,sixeight,,,,,,,,,,,,,,,,,,,,,,,,,,,,,,,,,,,,,,,,,,,,,,,,,,,,,,,,,,,,,,,,,,,,,,,,,,,,,,,,,,,,,
5dec6a96da522335df62a1b5,2023-11-23_22h35.32.484,kallum_motion_pilot,2023.1.2,Win32,145.1800232,5dec6a96da522335df62a1b5,656018846682f3df8008bb8f,656019cb9d4ce51e6dabe364,0,89,89,84,1,sevenfive,,,,,,,,,,,,,,,,,,,,,,,,,,,,,,,,,,,,,,,,,,,,,,,,,,,,,,,,,,,,,,,,,,,,,,,,,,,,,,,,,,,,,
5dec6a96da522335df62a1b5,2023-11-23_22h35.32.484,kallum_motion_pilot,2023.1.2,Win32,145.1800232,5dec6a96da522335df62a1b5,656018846682f3df8008bb8f,656019cb9d4ce51e6dabe364,0,90,90,11,1,twofour,,,,,,,,,,,,,,,,,,,,,,,,,,,,,,,,,,,,,,,,,,,,,,,,,,,,,,,,,,,,,,,,,,,,,,,,,,,,,,,,,,,,,
5dec6a96da522335df62a1b5,2023-11-23_22h35.32.484,kallum_motion_pilot,2023.1.2,Win32,145.1800232,5dec6a96da522335df62a1b5,656018846682f3df8008bb8f,656019cb9d4ce51e6dabe364,0,91,91,92,1,sevenfive,,,,,,,,,,,,,,,,,,,,,,,,,,,,,,,,,,,,,,,,,,,,,,,,,,,,,,,,,,,,,,,,,,,,,,,,,,,,,,,,,,,,,
5dec6a96da522335df62a1b5,2023-11-23_22h35.32.484,kallum_motion_pilot,2023.1.2,Win32,145.1800232,5dec6a96da522335df62a1b5,656018846682f3df8008bb8f,656019cb9d4ce51e6dabe364,0,92,92,46,1,fourtwo,,,,,,,,,,,,,,,,,,,,,,,,,,,,,,,,,,,,,,,,,,,,,,,,,,,,,,,,,,,,,,,,,,,,,,,,,,,,,,,,,,,,,
5dec6a96da522335df62a1b5,2023-11-23_22h35.32.484,kallum_motion_pilot,2023.1.2,Win32,145.1800232,5dec6a96da522335df62a1b5,656018846682f3df8008bb8f,656019cb9d4ce51e6dabe364,0,93,93,121,1,fiveseven,,,,,,,,,,,,,,,,,,,,,,,,,,,,,,,,,,,,,,,,,,,,,,,,,,,,,,,,,,,,,,,,,,,,,,,,,,,,,,,,,,,,,
5dec6a96da522335df62a1b5,2023-11-23_22h35.32.484,kallum_motion_pilot,2023.1.2,Win32,145.1800232,5dec6a96da522335df62a1b5,656018846682f3df8008bb8f,656019cb9d4ce51e6dabe364,0,94,94,108,1,sevenfive,,,,,,,,,,,,,,,,,,,,,,,,,,,,,,,,,,,,,,,,,,,,,,,,,,,,,,,,,,,,,,,,,,,,,,,,,,,,,,,,,,,,,
5dec6a96da522335df62a1b5,2023-11-23_22h35.32.484,kallum_motion_pilot,2023.1.2,Win32,145.1800232,5dec6a96da522335df62a1b5,656018846682f3df8008bb8f,656019cb9d4ce51e6dabe364,0,95,95,125,1,seveneight,,,,,,,,,,,,,,,,,,,,,,,,,,,,,,,,,,,,,,,,,,,,,,,,,,,,,,,,,,,,,,,,,,,,,,,,,,,,,,,,,,,,,
5dec6a96da522335df62a1b5,2023-11-23_22h35.32.484,kallum_motion_pilot,2023.1.2,Win32,145.1800232,5dec6a96da522335df62a1b5,656018846682f3df8008bb8f,656019cb9d4ce51e6dabe364,0,96,96,68,1,threeone,,,,,,,,,,,,,,,,,,,,,,,,,,,,,,,,,,,,,,,,,,,,,,,,,,,,,,,,,,,,,,,,,,,,,,,,,,,,,,,,,,,,,
5dec6a96da522335df62a1b5,2023-11-23_22h35.32.484,kallum_motion_pilot,2023.1.2,Win32,145.1800232,5dec6a96da522335df62a1b5,656018846682f3df8008bb8f,656019cb9d4ce51e6dabe364,0,97,97,138,1,sixfive,,,,,,,,,,,,,,,,,,,,,,,,,,,,,,,,,,,,,,,,,,,,,,,,,,,,,,,,,,,,,,,,,,,,,,,,,,,,,,,,,,,,,
5dec6a96da522335df62a1b5,2023-11-23_22h35.32.484,kallum_motion_pilot,2023.1.2,Win32,145.1800232,5dec6a96da522335df62a1b5,656018846682f3df8008bb8f,656019cb9d4ce51e6dabe364,0,98,98,117,1,seveneight,,,,,,,,,,,,,,,,,,,,,,,,,,,,,,,,,,,,,,,,,,,,,,,,,,,,,,,,,,,,,,,,,,,,,,,,,,,,,,,,,,,,,
5dec6a96da522335df62a1b5,2023-11-23_22h35.32.484,kallum_motion_pilot,2023.1.2,Win32,145.1800232,5dec6a96da522335df62a1b5,656018846682f3df8008bb8f,656019cb9d4ce51e6dabe364,0,99,99,124,1,sevenfive,,,,,,,,,,,,,,,,,,,,,,,,,,,,,,,,,,,,,,,,,,,,,,,,,,,,,,,,,,,,,,,,,,,,,,,,,,,,,,,,,,,,,
5dec6a96da522335df62a1b5,2023-11-23_22h35.32.484,kallum_motion_pilot,2023.1.2,Win32,145.1800232,5dec6a96da522335df62a1b5,656018846682f3df8008bb8f,656019cb9d4ce51e6dabe364,0,100,100,33,1,onethree,,,,,,,,,,,,,,,,,,,,,,,,,,,,,,,,,,,,,,,,,,,,,,,,,,,,,,,,,,,,,,,,,,,,,,,,,,,,,,,,,,,,,
5dec6a96da522335df62a1b5,2023-11-23_22h35.32.484,kallum_motion_pilot,2023.1.2,Win32,145.1800232,5dec6a96da522335df62a1b5,656018846682f3df8008bb8f,656019cb9d4ce51e6dabe364,0,101,101,149,1,seveneight,,,,,,,,,,,,,,,,,,,,,,,,,,,,,,,,,,,,,,,,,,,,,,,,,,,,,,,,,,,,,,,,,,,,,,,,,,,,,,,,,,,,,
5dec6a96da522335df62a1b5,2023-11-23_22h35.32.484,kallum_motion_pilot,2023.1.2,Win32,145.1800232,5dec6a96da522335df62a1b5,656018846682f3df8008bb8f,656019cb9d4ce51e6dabe364,0,102,102,74,1,twoone,,,,,,,,,,,,,,,,,,,,,,,,,,,,,,,,,,,,,,,,,,,,,,,,,,,,,,,,,,,,,,,,,,,,,,,,,,,,,,,,,,,,,
5dec6a96da522335df62a1b5,2023-11-23_22h35.32.484,kallum_motion_pilot,2023.1.2,Win32,145.1800232,5dec6a96da522335df62a1b5,656018846682f3df8008bb8f,656019cb9d4ce51e6dabe364,0,103,103,122,1,sixfive,,,,,,,,,,,,,,,,,,,,,,,,,,,,,,,,,,,,,,,,,,,,,,,,,,,,,,,,,,,,,,,,,,,,,,,,,,,,,,,,,,,,,
5dec6a96da522335df62a1b5,2023-11-23_22h35.32.484,kallum_motion_pilot,2023.1.2,Win32,145.1800232,5dec6a96da522335df62a1b5,656018846682f3df8008bb8f,656019cb9d4ce51e6dabe364,0,104,104,110,1,eightsix,,,,,,,,,,,,,,,,,,,,,,,,,,,,,,,,,,,,,,,,,,,,,,,,,,,,,,,,,,,,,,,,,,,,,,,,,,,,,,,,,,,,,
5dec6a96da522335df62a1b5,2023-11-23_22h35.32.484,kallum_motion_pilot,2023.1.2,Win32,145.1800232,5dec6a96da522335df62a1b5,656018846682f3df8008bb8f,656019cb9d4ce51e6dabe364,0,105,105,99,1,sixeight,,,,,,,,,,,,,,,,,,,,,,,,,,,,,,,,,,,,,,,,,,,,,,,,,,,,,,,,,,,,,,,,,,,,,,,,,,,,,,,,,,,,,
5dec6a96da522335df62a1b5,2023-11-23_22h35.32.484,kallum_motion_pilot,2023.1.2,Win32,145.1800232,5dec6a96da522335df62a1b5,656018846682f3df8008bb8f,656019cb9d4ce51e6dabe364,0,106,106,101,1,seveneight,,,,,,,,,,,,,,,,,,,,,,,,,,,,,,,,,,,,,,,,,,,,,,,,,,,,,,,,,,,,,,,,,,,,,,,,,,,,,,,,,,,,,
5dec6a96da522335df62a1b5,2023-11-23_22h35.32.484,kallum_motion_pilot,2023.1.2,Win32,145.1800232,5dec6a96da522335df62a1b5,656018846682f3df8008bb8f,656019cb9d4ce51e6dabe364,0,107,107,89,1,fiveseven,,,,,,,,,,,,,,,,,,,,,,,,,,,,,,,,,,,,,,,,,,,,,,,,,,,,,,,,,,,,,,,,,,,,,,,,,,,,,,,,,,,,,
5dec6a96da522335df62a1b5,2023-11-23_22h35.32.484,kallum_motion_pilot,2023.1.2,Win32,145.1800232,5dec6a96da522335df62a1b5,656018846682f3df8008bb8f,656019cb9d4ce51e6dabe364,0,108,108,48,1,onetwo,,,,,,,,,,,,,,,,,,,,,,,,,,,,,,,,,,,,,,,,,,,,,,,,,,,,,,,,,,,,,,,,,,,,,,,,,,,,,,,,,,,,,
5dec6a96da522335df62a1b5,2023-11-23_22h35.32.484,kallum_motion_pilot,2023.1.2,Win32,145.1800232,5dec6a96da522335df62a1b5,656018846682f3df8008bb8f,656019cb9d4ce51e6dabe364,0,109,109,13,1,threefour,,,,,,,,,,,,,,,,,,,,,,,,,,,,,,,,,,,,,,,,,,,,,,,,,,,,,,,,,,,,,,,,,,,,,,,,,,,,,,,,,,,,,
5dec6a96da522335df62a1b5,2023-11-23_22h35.32.484,kallum_motion_pilot,2023.1.2,Win32,145.1800232,5dec6a96da522335df62a1b5,656018846682f3df8008bb8f,656019cb9d4ce51e6dabe364,0,110,110,61,1,threefour,,,,,,,,,,,,,,,,,,,,,,,,,,,,,,,,,,,,,,,,,,,,,,,,,,,,,,,,,,,,,,,,,,,,,,,,,,,,,,,,,,,,,
5dec6a96da522335df62a1b5,2023-11-23_22h35.32.484,kallum_motion_pilot,2023.1.2,Win32,145.1800232,5dec6a96da522335df62a1b5,656018846682f3df8008bb8f,656019cb9d4ce51e6dabe364,0,111,111,128,1,fivesix,,,,,,,,,,,,,,,,,,,,,,,,,,,,,,,,,,,,,,,,,,,,,,,,,,,,,,,,,,,,,,,,,,,,,,,,,,,,,,,,,,,,,
5dec6a96da522335df62a1b5,2023-11-23_22h35.32.484,kallum_motion_pilot,2023.1.2,Win32,145.1800232,5dec6a96da522335df62a1b5,656018846682f3df8008bb8f,656019cb9d4ce51e6dabe364,0,112,112,120,1,fivesix,,,,,,,,,,,,,,,,,,,,,,,,,,,,,,,,,,,,,,,,,,,,,,,,,,,,,,,,,,,,,,,,,,,,,,,,,,,,,,,,,,,,,
5dec6a96da522335df62a1b5,2023-11-23_22h35.32.484,kallum_motion_pilot,2023.1.2,Win32,145.1800232,5dec6a96da522335df62a1b5,656018846682f3df8008bb8f,656019cb9d4ce51e6dabe364,0,113,113,100,1,sevenfive,,,,,,,,,,,,,,,,,,,,,,,,,,,,,,,,,,,,,,,,,,,,,,,,,,,,,,,,,,,,,,,,,,,,,,,,,,,,,,,,,,,,,
5dec6a96da522335df62a1b5,2023-11-23_22h35.32.484,kallum_motion_pilot,2023.1.2,Win32,145.1800232,5dec6a96da522335df62a1b5,656018846682f3df8008bb8f,656019cb9d4ce51e6dabe364,0,114,114,56,1,onetwo,,,,,,,,,,,,,,,,,,,,,,,,,,,,,,,,,,,,,,,,,,,,,,,,,,,,,,,,,,,,,,,,,,,,,,,,,,,,,,,,,,,,,
5dec6a96da522335df62a1b5,2023-11-23_22h35.32.484,kallum_motion_pilot,2023.1.2,Win32,145.1800232,5dec6a96da522335df62a1b5,656018846682f3df8008bb8f,656019cb9d4ce51e6dabe364,0,115,115,38,1,fourtwo,,,,,,,,,,,,,,,,,,,,,,,,,,,,,,,,,,,,,,,,,,,,,,,,,,,,,,,,,,,,,,,,,,,,,,,,,,,,,,,,,,,,,
5dec6a96da522335df62a1b5,2023-11-23_22h35.32.484,kallum_motion_pilot,2023.1.2,Win32,145.1800232,5dec6a96da522335df62a1b5,656018846682f3df8008bb8f,656019cb9d4ce51e6dabe364,0,116,116,16,1,onetwo,,,,,,,,,,,,,,,,,,,,,,,,,,,,,,,,,,,,,,,,,,,,,,,,,,,,,,,,,,,,,,,,,,,,,,,,,,,,,,,,,,,,,
5dec6a96da522335df62a1b5,2023-11-23_22h35.32.484,kallum_motion_pilot,2023.1.2,Win32,145.1800232,5dec6a96da522335df62a1b5,656018846682f3df8008bb8f,656019cb9d4ce51e6dabe364,0,117,117,78,1,fourtwo,,,,,,,,,,,,,,,,,,,,,,,,,,,,,,,,,,,,,,,,,,,,,,,,,,,,,,,,,,,,,,,,,,,,,,,,,,,,,,,,,,,,,
5dec6a96da522335df62a1b5,2023-11-23_22h35.32.484,kallum_motion_pilot,2023.1.2,Win32,145.1800232,5dec6a96da522335df62a1b5,656018846682f3df8008bb8f,656019cb9d4ce51e6dabe364,0,118,118,52,1,threeone,,,,,,,,,,,,,,,,,,,,,,,,,,,,,,,,,,,,,,,,,,,,,,,,,,,,,,,,,,,,,,,,,,,,,,,,,,,,,,,,,,,,,
5dec6a96da522335df62a1b5,2023-11-23_22h35.32.484,kallum_motion_pilot,2023.1.2,Win32,145.1800232,5dec6a96da522335df62a1b5,656018846682f3df8008bb8f,656019cb9d4ce51e6dabe364,0,119,119,35,1,twofour,,,,,,,,,,,,,,,,,,,,,,,,,,,,,,,,,,,,,,,,,,,,,,,,,,,,,,,,,,,,,,,,,,,,,,,,,,,,,,,,,,,,,
5dec6a96da522335df62a1b5,2023-11-23_22h35.32.484,kallum_motion_pilot,2023.1.2,Win32,145.1800232,5dec6a96da522335df62a1b5,656018846682f3df8008bb8f,656019cb9d4ce51e6dabe364,0,120,120,161,1,fiveseven,,,,,,,,,,,,,,,,,,,,,,,,,,,,,,,,,,,,,,,,,,,,,,,,,,,,,,,,,,,,,,,,,,,,,,,,,,,,,,,,,,,,,
5dec6a96da522335df62a1b5,2023-11-23_22h35.32.484,kallum_motion_pilot,2023.1.2,Win32,145.1800232,5dec6a96da522335df62a1b5,656018846682f3df8008bb8f,656019cb9d4ce51e6dabe364,0,121,121,113,1,fiveseven,,,,,,,,,,,,,,,,,,,,,,,,,,,,,,,,,,,,,,,,,,,,,,,,,,,,,,,,,,,,,,,,,,,,,,,,,,,,,,,,,,,,,
5dec6a96da522335df62a1b5,2023-11-23_22h35.32.484,kallum_motion_pilot,2023.1.2,Win32,145.1800232,5dec6a96da522335df62a1b5,656018846682f3df8008bb8f,656019cb9d4ce51e6dabe364,0,122,122,115,1,sixeight,,,,,,,,,,,,,,,,,,,,,,,,,,,,,,,,,,,,,,,,,,,,,,,,,,,,,,,,,,,,,,,,,,,,,,,,,,,,,,,,,,,,,
5dec6a96da522335df62a1b5,2023-11-23_22h35.32.484,kallum_motion_pilot,2023.1.2,Win32,145.1800232,5dec6a96da522335df62a1b5,656018846682f3df8008bb8f,656019cb9d4ce51e6dabe364,0,123,123,147,1,sixeight,,,,,,,,,,,,,,,,,,,,,,,,,,,,,,,,,,,,,,,,,,,,,,,,,,,,,,,,,,,,,,,,,,,,,,,,,,,,,,,,,,,,,
5dec6a96da522335df62a1b5,2023-11-23_22h35.32.484,kallum_motion_pilot,2023.1.2,Win32,145.1800232,5dec6a96da522335df62a1b5,656018846682f3df8008bb8f,656019cb9d4ce51e6dabe364,0,124,124,59,1,twofour,,,,,,,,,,,,,,,,,,,,,,,,,,,,,,,,,,,,,,,,,,,,,,,,,,,,,,,,,,,,,,,,,,,,,,,,,,,,,,,,,,,,,
5dec6a96da522335df62a1b5,2023-11-23_22h35.32.484,kallum_motion_pilot,2023.1.2,Win32,145.1800232,5dec6a96da522335df62a1b5,656018846682f3df8008bb8f,656019cb9d4ce51e6dabe364,0,125,125,82,1,sixfive,,,,,,,,,,,,,,,,,,,,,,,,,,,,,,,,,,,,,,,,,,,,,,,,,,,,,,,,,,,,,,,,,,,,,,,,,,,,,,,,,,,,,
5dec6a96da522335df62a1b5,2023-11-23_22h35.32.484,kallum_motion_pilot,2023.1.2,Win32,145.1800232,5dec6a96da522335df62a1b5,656018846682f3df8008bb8f,656019cb9d4ce51e6dabe364,0,126,126,31,1,fourthree,,,,,,,,,,,,,,,,,,,,,,,,,,,,,,,,,,,,,,,,,,,,,,,,,,,,,,,,,,,,,,,,,,,,,,,,,,,,,,,,,,,,,
5dec6a96da522335df62a1b5,2023-11-23_22h35.32.484,kallum_motion_pilot,2023.1.2,Win32,145.1800232,5dec6a96da522335df62a1b5,656018846682f3df8008bb8f,656019cb9d4ce51e6dabe364,0,127,127,118,1,eightsix,,,,,,,,,,,,,,,,,,,,,,,,,,,,,,,,,,,,,,,,,,,,,,,,,,,,,,,,,,,,,,,,,,,,,,,,,,,,,,,,,,,,,
5dec6a96da522335df62a1b5,2023-11-23_22h35.32.484,kallum_motion_pilot,2023.1.2,Win32,145.1800232,5dec6a96da522335df62a1b5,656018846682f3df8008bb8f,656019cb9d4ce51e6dabe364,0,128,128,75,1,twofour,,,,,,,,,,,,,,,,,,,,,,,,,,,,,,,,,,,,,,,,,,,,,,,,,,,,,,,,,,,,,,,,,,,,,,,,,,,,,,,,,,,,,
5dec6a96da522335df62a1b5,2023-11-23_22h35.32.484,kallum_motion_pilot,2023.1.2,Win32,145.1800232,5dec6a96da522335df62a1b5,656018846682f3df8008bb8f,656019cb9d4ce51e6dabe364,0,129,129,40,1,onetwo,,,,,,,,,,,,,,,,,,,,,,,,,,,,,,,,,,,,,,,,,,,,,,,,,,,,,,,,,,,,,,,,,,,,,,,,,,,,,,,,,,,,,
5dec6a96da522335df62a1b5,2023-11-23_22h35.32.484,kallum_motion_pilot,2023.1.2,Win32,145.1800232,5dec6a96da522335df62a1b5,656018846682f3df8008bb8f,656019cb9d4ce51e6dabe364,0,130,130,98,1,sixfive,,,,,,,,,,,,,,,,,,,,,,,,,,,,,,,,,,,,,,,,,,,,,,,,,,,,,,,,,,,,,,,,,,,,,,,,,,,,,,,,,,,,,
5dec6a96da522335df62a1b5,2023-11-23_22h35.32.484,kallum_motion_pilot,2023.1.2,Win32,145.1800232,5dec6a96da522335df62a1b5,656018846682f3df8008bb8f,656019cb9d4ce51e6dabe364,0,131,131,97,1,fiveseven,,,,,,,,,,,,,,,,,,,,,,,,,,,,,,,,,,,,,,,,,,,,,,,,,,,,,,,,,,,,,,,,,,,,,,,,,,,,,,,,,,,,,
5dec6a96da522335df62a1b5,2023-11-23_22h35.32.484,kallum_motion_pilot,2023.1.2,Win32,145.1800232,5dec6a96da522335df62a1b5,656018846682f3df8008bb8f,656019cb9d4ce51e6dabe364,0,132,132,39,1,fourthree,,,,,,,,,,,,,,,,,,,,,,,,,,,,,,,,,,,,,,,,,,,,,,,,,,,,,,,,,,,,,,,,,,,,,,,,,,,,,,,,,,,,,
5dec6a96da522335df62a1b5,2023-11-23_22h35.32.484,kallum_motion_pilot,2023.1.2,Win32,145.1800232,5dec6a96da522335df62a1b5,656018846682f3df8008bb8f,656019cb9d4ce51e6dabe364,0,133,133,90,1,sixfive,,,,,,,,,,,,,,,,,,,,,,,,,,,,,,,,,,,,,,,,,,,,,,,,,,,,,,,,,,,,,,,,,,,,,,,,,,,,,,,,,,,,,
5dec6a96da522335df62a1b5,2023-11-23_22h35.32.484,kallum_motion_pilot,2023.1.2,Win32,145.1800232,5dec6a96da522335df62a1b5,656018846682f3df8008bb8f,656019cb9d4ce51e6dabe364,0,134,134,6,1,fourtwo,,,,,,,,,,,,,,,,,,,,,,,,,,,,,,,,,,,,,,,,,,,,,,,,,,,,,,,,,,,,,,,,,,,,,,,,,,,,,,,,,,,,,
5dec6a96da522335df62a1b5,2023-11-23_22h35.32.484,kallum_motion_pilot,2023.1.2,Win32,145.1800232,5dec6a96da522335df62a1b5,656018846682f3df8008bb8f,656019cb9d4ce51e6dabe364,0,135,135,130,1,sixfive,,,,,,,,,,,,,,,,,,,,,,,,,,,,,,,,,,,,,,,,,,,,,,,,,,,,,,,,,,,,,,,,,,,,,,,,,,,,,,,,,,,,,
5dec6a96da522335df62a1b5,2023-11-23_22h35.32.484,kallum_motion_pilot,2023.1.2,Win32,145.1800232,5dec6a96da522335df62a1b5,656018846682f3df8008bb8f,656019cb9d4ce51e6dabe364,0,136,136,116,1,sevenfive,,,,,,,,,,,,,,,,,,,,,,,,,,,,,,,,,,,,,,,,,,,,,,,,,,,,,,,,,,,,,,,,,,,,,,,,,,,,,,,,,,,,,
5dec6a96da522335df62a1b5,2023-11-23_22h35.32.484,kallum_motion_pilot,2023.1.2,Win32,145.1800232,5dec6a96da522335df62a1b5,656018846682f3df8008bb8f,656019cb9d4ce51e6dabe364,0,137,137,24,1,onetwo,,,,,,,,,,,,,,,,,,,,,,,,,,,,,,,,,,,,,,,,,,,,,,,,,,,,,,,,,,,,,,,,,,,,,,,,,,,,,,,,,,,,,
5dec6a96da522335df62a1b5,2023-11-23_22h35.32.484,kallum_motion_pilot,2023.1.2,Win32,145.1800232,5dec6a96da522335df62a1b5,656018846682f3df8008bb8f,656019cb9d4ce51e6dabe364,0,138,138,1,1,onethree,,,,,,,,,,,,,,,,,,,,,,,,,,,,,,,,,,,,,,,,,,,,,,,,,,,,,,,,,,,,,,,,,,,,,,,,,,,,,,,,,,,,,
5dec6a96da522335df62a1b5,2023-11-23_22h35.32.484,kallum_motion_pilot,2023.1.2,Win32,145.1800232,5dec6a96da522335df62a1b5,656018846682f3df8008bb8f,656019cb9d4ce51e6dabe364,0,139,139,70,1,fourtwo,,,,,,,,,,,,,,,,,,,,,,,,,,,,,,,,,,,,,,,,,,,,,,,,,,,,,,,,,,,,,,,,,,,,,,,,,,,,,,,,,,,,,
5dec6a96da522335df62a1b5,2023-11-23_22h35.32.484,kallum_motion_pilot,2023.1.2,Win32,145.1800232,5dec6a96da522335df62a1b5,656018846682f3df8008bb8f,656019cb9d4ce51e6dabe364,0,140,140,50,1,twoone,,,,,,,,,,,,,,,,,,,,,,,,,,,,,,,,,,,,,,,,,,,,,,,,,,,,,,,,,,,,,,,,,,,,,,,,,,,,,,,,,,,,,
5dec6a96da522335df62a1b5,2023-11-23_22h35.32.484,kallum_motion_pilot,2023.1.2,Win32,145.1800232,5dec6a96da522335df62a1b5,656018846682f3df8008bb8f,656019cb9d4ce51e6dabe364,0,141,141,15,1,fourthree,,,,,,,,,,,,,,,,,,,,,,,,,,,,,,,,,,,,,,,,,,,,,,,,,,,,,,,,,,,,,,,,,,,,,,,,,,,,,,,,,,,,,
5dec6a96da522335df62a1b5,2023-11-23_22h35.32.484,kallum_motion_pilot,2023.1.2,Win32,145.1800232,5dec6a96da522335df62a1b5,656018846682f3df8008bb8f,656019cb9d4ce51e6dabe364,0,142,142,19,1,twofour,,,,,,,,,,,,,,,,,,,,,,,,,,,,,,,,,,,,,,,,,,,,,,,,,,,,,,,,,,,,,,,,,,,,,,,,,,,,,,,,,,,,,
5dec6a96da522335df62a1b5,2023-11-23_22h35.32.484,kallum_motion_pilot,2023.1.2,Win32,145.1800232,5dec6a96da522335df62a1b5,656018846682f3df8008bb8f,656019cb9d4ce51e6dabe364,0,143,143,80,1,fivesix,,,,,,,,,,,,,,,,,,,,,,,,,,,,,,,,,,,,,,,,,,,,,,,,,,,,,,,,,,,,,,,,,,,,,,,,,,,,,,,,,,,,,
5dec6a96da522335df62a1b5,2023-11-23_22h35.32.484,kallum_motion_pilot,2023.1.2,Win32,145.1800232,5dec6a96da522335df62a1b5,656018846682f3df8008bb8f,656019cb9d4ce51e6dabe364,0,144,144,135,1,eightseven,,,,,,,,,,,,,,,,,,,,,,,,,,,,,,,,,,,,,,,,,,,,,,,,,,,,,,,,,,,,,,,,,,,,,,,,,,,,,,,,,,,,,
5dec6a96da522335df62a1b5,2023-11-23_22h35.32.484,kallum_motion_pilot,2023.1.2,Win32,145.1800232,5dec6a96da522335df62a1b5,656018846682f3df8008bb8f,656019cb9d4ce51e6dabe364,0,145,145,91,1,sixeight,,,,,,,,,,,,,,,,,,,,,,,,,,,,,,,,,,,,,,,,,,,,,,,,,,,,,,,,,,,,,,,,,,,,,,,,,,,,,,,,,,,,,
5dec6a96da522335df62a1b5,2023-11-23_22h35.32.484,kallum_motion_pilot,2023.1.2,Win32,145.1800232,5dec6a96da522335df62a1b5,656018846682f3df8008bb8f,656019cb9d4ce51e6dabe364,0,146,146,28,1,threeone,,,,,,,,,,,,,,,,,,,,,,,,,,,,,,,,,,,,,,,,,,,,,,,,,,,,,,,,,,,,,,,,,,,,,,,,,,,,,,,,,,,,,
5dec6a96da522335df62a1b5,2023-11-23_22h35.32.484,kallum_motion_pilot,2023.1.2,Win32,145.1800232,5dec6a96da522335df62a1b5,656018846682f3df8008bb8f,656019cb9d4ce51e6dabe364,0,147,147,37,1,threefour,,,,,,,,,,,,,,,,,,,,,,,,,,,,,,,,,,,,,,,,,,,,,,,,,,,,,,,,,,,,,,,,,,,,,,,,,,,,,,,,,,,,,
5dec6a96da522335df62a1b5,2023-11-23_22h35.32.484,kallum_motion_pilot,2023.1.2,Win32,145.1800232,5dec6a96da522335df62a1b5,656018846682f3df8008bb8f,656019cb9d4ce51e6dabe364,0,148,148,127,1,eightseven,,,,,,,,,,,,,,,,,,,,,,,,,,,,,,,,,,,,,,,,,,,,,,,,,,,,,,,,,,,,,,,,,,,,,,,,,,,,,,,,,,,,,
5dec6a96da522335df62a1b5,2023-11-23_22h35.32.484,kallum_motion_pilot,2023.1.2,Win32,145.1800232,5dec6a96da522335df62a1b5,656018846682f3df8008bb8f,656019cb9d4ce51e6dabe364,0,149,149,105,1,fiveseven,,,,,,,,,,,,,,,,,,,,,,,,,,,,,,,,,,,,,,,,,,,,,,,,,,,,,,,,,,,,,,,,,,,,,,,,,,,,,,,,,,,,,
5dec6a96da522335df62a1b5,2023-11-23_22h35.32.484,kallum_motion_pilot,2023.1.2,Win32,145.1800232,5dec6a96da522335df62a1b5,656018846682f3df8008bb8f,656019cb9d4ce51e6dabe364,0,150,150,32,1,onetwo,,,,,,,,,,,,,,,,,,,,,,,,,,,,,,,,,,,,,,,,,,,,,,,,,,,,,,,,,,,,,,,,,,,,,,,,,,,,,,,,,,,,,
5dec6a96da522335df62a1b5,2023-11-23_22h35.32.484,kallum_motion_pilot,2023.1.2,Win32,145.1800232,5dec6a96da522335df62a1b5,656018846682f3df8008bb8f,656019cb9d4ce51e6dabe364,0,151,151,53,1,threefour,,,,,,,,,,,,,,,,,,,,,,,,,,,,,,,,,,,,,,,,,,,,,,,,,,,,,,,,,,,,,,,,,,,,,,,,,,,,,,,,,,,,,
5dec6a96da522335df62a1b5,2023-11-23_22h35.32.484,kallum_motion_pilot,2023.1.2,Win32,145.1800232,5dec6a96da522335df62a1b5,656018846682f3df8008bb8f,656019cb9d4ce51e6dabe364,0,152,152,49,1,onethree,,,,,,,,,,,,,,,,,,,,,,,,,,,,,,,,,,,,,,,,,,,,,,,,,,,,,,,,,,,,,,,,,,,,,,,,,,,,,,,,,,,,,
5dec6a96da522335df62a1b5,2023-11-23_22h35.32.484,kallum_motion_pilot,2023.1.2,Win32,145.1800232,5dec6a96da522335df62a1b5,656018846682f3df8008bb8f,656019cb9d4ce51e6dabe364,0,153,153,152,1,fivesix,,,,,,,,,,,,,,,,,,,,,,,,,,,,,,,,,,,,,,,,,,,,,,,,,,,,,,,,,,,,,,,,,,,,,,,,,,,,,,,,,,,,,
5dec6a96da522335df62a1b5,2023-11-23_22h35.32.484,kallum_motion_pilot,2023.1.2,Win32,145.1800232,5dec6a96da522335df62a1b5,656018846682f3df8008bb8f,656019cb9d4ce51e6dabe364,0,154,154,54,1,fourtwo,,,,,,,,,,,,,,,,,,,,,,,,,,,,,,,,,,,,,,,,,,,,,,,,,,,,,,,,,,,,,,,,,,,,,,,,,,,,,,,,,,,,,
5dec6a96da522335df62a1b5,2023-11-23_22h35.32.484,kallum_motion_pilot,2023.1.2,Win32,145.1800232,5dec6a96da522335df62a1b5,656018846682f3df8008bb8f,656019cb9d4ce51e6dabe364,0,155,155,137,1,fiveseven,,,,,,,,,,,,,,,,,,,,,,,,,,,,,,,,,,,,,,,,,,,,,,,,,,,,,,,,,,,,,,,,,,,,,,,,,,,,,,,,,,,,,
5dec6a96da522335df62a1b5,2023-11-23_22h35.32.484,kallum_motion_pilot,2023.1.2,Win32,145.1800232,5dec6a96da522335df62a1b5,656018846682f3df8008bb8f,656019cb9d4ce51e6dabe364,0,156,156,76,1,threeone,,,,,,,,,,,,,,,,,,,,,,,,,,,,,,,,,,,,,,,,,,,,,,,,,,,,,,,,,,,,,,,,,,,,,,,,,,,,,,,,,,,,,
5dec6a96da522335df62a1b5,2023-11-23_22h35.32.484,kallum_motion_pilot,2023.1.2,Win32,145.1800232,5dec6a96da522335df62a1b5,656018846682f3df8008bb8f,656019cb9d4ce51e6dabe364,0,157,157,107,1,sixeight,,,,,,,,,,,,,,,,,,,,,,,,,,,,,,,,,,,,,,,,,,,,,,,,,,,,,,,,,,,,,,,,,,,,,,,,,,,,,,,,,,,,,
5dec6a96da522335df62a1b5,2023-11-23_22h35.32.484,kallum_motion_pilot,2023.1.2,Win32,145.1800232,5dec6a96da522335df62a1b5,656018846682f3df8008bb8f,656019cb9d4ce51e6dabe364,0,158,158,144,1,fivesix,,,,,,,,,,,,,,,,,,,,,,,,,,,,,,,,,,,,,,,,,,,,,,,,,,,,,,,,,,,,,,,,,,,,,,,,,,,,,,,,,,,,,
5dec6a96da522335df62a1b5,2023-11-23_22h35.32.484,kallum_motion_pilot,2023.1.2,Win32,145.1800232,5dec6a96da522335df62a1b5,656018846682f3df8008bb8f,656019cb9d4ce51e6dabe364,0,159,159,63,1,fourthree,,,,,,,,,,,,,,,,,,,,,,,,,,,,,,,,,,,,,,,,,,,,,,,,,,,,,,,,,,,,,,,,,,,,,,,,,,,,,,,,,,,,,
5dec6a96da522335df62a1b5,2023-11-23_22h35.32.484,kallum_motion_pilot,2023.1.2,Win32,145.1800232,5dec6a96da522335df62a1b5,656018846682f3df8008bb8f,656019cb9d4ce51e6dabe364,0,160,160,58,1,twoone,,,,,,,,,,,,,,,,,,,,,,,,,,,,,,,,,,,,,,,,,,,,,,,,,,,,,,,,,,,,,,,,,,,,,,,,,,,,,,,,,,,,,
5dec6a96da522335df62a1b5,2023-11-23_22h35.32.484,kallum_motion_pilot,2023.1.2,Win32,145.1800232,5dec6a96da522335df62a1b5,656018846682f3df8008bb8f,656019cb9d4ce51e6dabe364,0,161,161,73,1,onethree,,,,,,,,,,,,,,,,,,,,,,,,,,,,,,,,,,,,,,,,,,,,,,,,,,,,,,,,,,,,,,,,,,,,,,,,,,,,,,,,,,,,,
5dec6a96da522335df62a1b5,2023-11-23_22h35.32.484,kallum_motion_pilot,2023.1.2,Win32,145.1800232,5dec6a96da522335df62a1b5,656018846682f3df8008bb8f,656019cb9d4ce51e6dabe364,1,0,162,137,1,fiveseven,,,,,,,,,,,,,,,,,,,,,,,,,,,,,,,,,,,,,,,,,,,,,,,,,,,,,,,,,,,,,,,,,,,,,,,,,,,,,,,,,,,,,
5dec6a96da522335df62a1b5,2023-11-23_22h35.32.484,kallum_motion_pilot,2023.1.2,Win32,145.1800232,5dec6a96da522335df62a1b5,656018846682f3df8008bb8f,656019cb9d4ce51e6dabe364,1,1,163,67,1,twofour,,,,,,,,,,,,,,,,,,,,,,,,,,,,,,,,,,,,,,,,,,,,,,,,,,,,,,,,,,,,,,,,,,,,,,,,,,,,,,,,,,,,,
5dec6a96da522335df62a1b5,2023-11-23_22h35.32.484,kallum_motion_pilot,2023.1.2,Win32,145.1800232,5dec6a96da522335df62a1b5,656018846682f3df8008bb8f,656019cb9d4ce51e6dabe364,1,2,164,44,1,threeone,,,,,,,,,,,,,,,,,,,,,,,,,,,,,,,,,,,,,,,,,,,,,,,,,,,,,,,,,,,,,,,,,,,,,,,,,,,,,,,,,,,,,
5dec6a96da522335df62a1b5,2023-11-23_22h35.32.484,kallum_motion_pilot,2023.1.2,Win32,145.1800232,5dec6a96da522335df62a1b5,656018846682f3df8008bb8f,656019cb9d4ce51e6dabe364,1,3,165,152,1,fivesix,,,,,,,,,,,,,,,,,,,,,,,,,,,,,,,,,,,,,,,,,,,,,,,,,,,,,,,,,,,,,,,,,,,,,,,,,,,,,,,,,,,,,
5dec6a96da522335df62a1b5,2023-11-23_22h35.32.484,kallum_motion_pilot,2023.1.2,Win32,145.1800232,5dec6a96da522335df62a1b5,656018846682f3df8008bb8f,656019cb9d4ce51e6dabe364,1,4,166,94,1,eightsix,,,,,,,,,,,,,,,,,,,,,,,,,,,,,,,,,,,,,,,,,,,,,,,,,,,,,,,,,,,,,,,,,,,,,,,,,,,,,,,,,,,,,
5dec6a96da522335df62a1b5,2023-11-23_22h35.32.484,kallum_motion_pilot,2023.1.2,Win32,145.1800232,5dec6a96da522335df62a1b5,656018846682f3df8008bb8f,656019cb9d4ce51e6dabe364,1,5,167,97,1,fiveseven,,,,,,,,,,,,,,,,,,,,,,,,,,,,,,,,,,,,,,,,,,,,,,,,,,,,,,,,,,,,,,,,,,,,,,,,,,,,,,,,,,,,,
5dec6a96da522335df62a1b5,2023-11-23_22h35.32.484,kallum_motion_pilot,2023.1.2,Win32,145.1800232,5dec6a96da522335df62a1b5,656018846682f3df8008bb8f,656019cb9d4ce51e6dabe364,1,6,168,106,1,sixfive,,,,,,,,,,,,,,,,,,,,,,,,,,,,,,,,,,,,,,,,,,,,,,,,,,,,,,,,,,,,,,,,,,,,,,,,,,,,,,,,,,,,,
5dec6a96da522335df62a1b5,2023-11-23_22h35.32.484,kallum_motion_pilot,2023.1.2,Win32,145.1800232,5dec6a96da522335df62a1b5,656018846682f3df8008bb8f,656019cb9d4ce51e6dabe364,1,7,169,155,1,sixeight,,,,,,,,,,,,,,,,,,,,,,,,,,,,,,,,,,,,,,,,,,,,,,,,,,,,,,,,,,,,,,,,,,,,,,,,,,,,,,,,,,,,,
5dec6a96da522335df62a1b5,2023-11-23_22h35.32.484,kallum_motion_pilot,2023.1.2,Win32,145.1800232,5dec6a96da522335df62a1b5,656018846682f3df8008bb8f,656019cb9d4ce51e6dabe364,1,8,170,43,1,twofour,,,,,,,,,,,,,,,,,,,,,,,,,,,,,,,,,,,,,,,,,,,,,,,,,,,,,,,,,,,,,,,,,,,,,,,,,,,,,,,,,,,,,
5dec6a96da522335df62a1b5,2023-11-23_22h35.32.484,kallum_motion_pilot,2023.1.2,Win32,145.1800232,5dec6a96da522335df62a1b5,656018846682f3df8008bb8f,656019cb9d4ce51e6dabe364,1,9,171,82,1,sixfive,,,,,,,,,,,,,,,,,,,,,,,,,,,,,,,,,,,,,,,,,,,,,,,,,,,,,,,,,,,,,,,,,,,,,,,,,,,,,,,,,,,,,
5dec6a96da522335df62a1b5,2023-11-23_22h35.32.484,kallum_motion_pilot,2023.1.2,Win32,145.1800232,5dec6a96da522335df62a1b5,656018846682f3df8008bb8f,656019cb9d4ce51e6dabe364,1,10,172,46,1,fourtwo,,,,,,,,,,,,,,,,,,,,,,,,,,,,,,,,,,,,,,,,,,,,,,,,,,,,,,,,,,,,,,,,,,,,,,,,,,,,,,,,,,,,,
5dec6a96da522335df62a1b5,2023-11-23_22h35.32.484,kallum_motion_pilot,2023.1.2,Win32,145.1800232,5dec6a96da522335df62a1b5,656018846682f3df8008bb8f,656019cb9d4ce51e6dabe364,1,11,173,61,1,threefour,,,,,,,,,,,,,,,,,,,,,,,,,,,,,,,,,,,,,,,,,,,,,,,,,,,,,,,,,,,,,,,,,,,,,,,,,,,,,,,,,,,,,
5dec6a96da522335df62a1b5,2023-11-23_22h35.32.484,kallum_motion_pilot,2023.1.2,Win32,145.1800232,5dec6a96da522335df62a1b5,656018846682f3df8008bb8f,656019cb9d4ce51e6dabe364,1,12,174,18,1,twoone,,,,,,,,,,,,,,,,,,,,,,,,,,,,,,,,,,,,,,,,,,,,,,,,,,,,,,,,,,,,,,,,,,,,,,,,,,,,,,,,,,,,,
5dec6a96da522335df62a1b5,2023-11-23_22h35.32.484,kallum_motion_pilot,2023.1.2,Win32,145.1800232,5dec6a96da522335df62a1b5,656018846682f3df8008bb8f,656019cb9d4ce51e6dabe364,1,13,175,60,1,threeone,,,,,,,,,,,,,,,,,,,,,,,,,,,,,,,,,,,,,,,,,,,,,,,,,,,,,,,,,,,,,,,,,,,,,,,,,,,,,,,,,,,,,
5dec6a96da522335df62a1b5,2023-11-23_22h35.32.484,kallum_motion_pilot,2023.1.2,Win32,145.1800232,5dec6a96da522335df62a1b5,656018846682f3df8008bb8f,656019cb9d4ce51e6dabe364,1,14,176,74,1,twoone,,,,,,,,,,,,,,,,,,,,,,,,,,,,,,,,,,,,,,,,,,,,,,,,,,,,,,,,,,,,,,,,,,,,,,,,,,,,,,,,,,,,,
5dec6a96da522335df62a1b5,2023-11-23_22h35.32.484,kallum_motion_pilot,2023.1.2,Win32,145.1800232,5dec6a96da522335df62a1b5,656018846682f3df8008bb8f,656019cb9d4ce51e6dabe364,1,15,177,21,1,threefour,,,,,,,,,,,,,,,,,,,,,,,,,,,,,,,,,,,,,,,,,,,,,,,,,,,,,,,,,,,,,,,,,,,,,,,,,,,,,,,,,,,,,
5dec6a96da522335df62a1b5,2023-11-23_22h35.32.484,kallum_motion_pilot,2023.1.2,Win32,145.1800232,5dec6a96da522335df62a1b5,656018846682f3df8008bb8f,656019cb9d4ce51e6dabe364,1,16,178,20,1,threeone,,,,,,,,,,,,,,,,,,,,,,,,,,,,,,,,,,,,,,,,,,,,,,,,,,,,,,,,,,,,,,,,,,,,,,,,,,,,,,,,,,,,,
5dec6a96da522335df62a1b5,2023-11-23_22h35.32.484,kallum_motion_pilot,2023.1.2,Win32,145.1800232,5dec6a96da522335df62a1b5,656018846682f3df8008bb8f,656019cb9d4ce51e6dabe364,1,17,179,24,1,onetwo,,,,,,,,,,,,,,,,,,,,,,,,,,,,,,,,,,,,,,,,,,,,,,,,,,,,,,,,,,,,,,,,,,,,,,,,,,,,,,,,,,,,,
5dec6a96da522335df62a1b5,2023-11-23_22h35.32.484,kallum_motion_pilot,2023.1.2,Win32,145.1800232,5dec6a96da522335df62a1b5,656018846682f3df8008bb8f,656019cb9d4ce51e6dabe364,1,18,180,129,1,fiveseven,,,,,,,,,,,,,,,,,,,,,,,,,,,,,,,,,,,,,,,,,,,,,,,,,,,,,,,,,,,,,,,,,,,,,,,,,,,,,,,,,,,,,
5dec6a96da522335df62a1b5,2023-11-23_22h35.32.484,kallum_motion_pilot,2023.1.2,Win32,145.1800232,5dec6a96da522335df62a1b5,656018846682f3df8008bb8f,656019cb9d4ce51e6dabe364,1,19,181,151,1,eightseven,,,,,,,,,,,,,,,,,,,,,,,,,,,,,,,,,,,,,,,,,,,,,,,,,,,,,,,,,,,,,,,,,,,,,,,,,,,,,,,,,,,,,
5dec6a96da522335df62a1b5,2023-11-23_22h35.32.484,kallum_motion_pilot,2023.1.2,Win32,145.1800232,5dec6a96da522335df62a1b5,656018846682f3df8008bb8f,656019cb9d4ce51e6dabe364,1,20,182,2,1,twoone,,,,,,,,,,,,,,,,,,,,,,,,,,,,,,,,,,,,,,,,,,,,,,,,,,,,,,,,,,,,,,,,,,,,,,,,,,,,,,,,,,,,,
5dec6a96da522335df62a1b5,2023-11-23_22h35.32.484,kallum_motion_pilot,2023.1.2,Win32,145.1800232,5dec6a96da522335df62a1b5,656018846682f3df8008bb8f,656019cb9d4ce51e6dabe364,1,21,183,15,1,fourthree,,,,,,,,,,,,,,,,,,,,,,,,,,,,,,,,,,,,,,,,,,,,,,,,,,,,,,,,,,,,,,,,,,,,,,,,,,,,,,,,,,,,,
5dec6a96da522335df62a1b5,2023-11-23_22h35.32.484,kallum_motion_pilot,2023.1.2,Win32,145.1800232,5dec6a96da522335df62a1b5,656018846682f3df8008bb8f,656019cb9d4ce51e6dabe364,1,22,184,93,1,seveneight,,,,,,,,,,,,,,,,,,,,,,,,,,,,,,,,,,,,,,,,,,,,,,,,,,,,,,,,,,,,,,,,,,,,,,,,,,,,,,,,,,,,,
5dec6a96da522335df62a1b5,2023-11-23_22h35.32.484,kallum_motion_pilot,2023.1.2,Win32,145.1800232,5dec6a96da522335df62a1b5,656018846682f3df8008bb8f,656019cb9d4ce51e6dabe364,1,23,185,51,1,twofour,,,,,,,,,,,,,,,,,,,,,,,,,,,,,,,,,,,,,,,,,,,,,,,,,,,,,,,,,,,,,,,,,,,,,,,,,,,,,,,,,,,,,
5dec6a96da522335df62a1b5,2023-11-23_22h35.32.484,kallum_motion_pilot,2023.1.2,Win32,145.1800232,5dec6a96da522335df62a1b5,656018846682f3df8008bb8f,656019cb9d4ce51e6dabe364,1,24,186,7,1,fourthree,,,,,,,,,,,,,,,,,,,,,,,,,,,,,,,,,,,,,,,,,,,,,,,,,,,,,,,,,,,,,,,,,,,,,,,,,,,,,,,,,,,,,
5dec6a96da522335df62a1b5,2023-11-23_22h35.32.484,kallum_motion_pilot,2023.1.2,Win32,145.1800232,5dec6a96da522335df62a1b5,656018846682f3df8008bb8f,656019cb9d4ce51e6dabe364,1,25,187,136,1,fivesix,,,,,,,,,,,,,,,,,,,,,,,,,,,,,,,,,,,,,,,,,,,,,,,,,,,,,,,,,,,,,,,,,,,,,,,,,,,,,,,,,,,,,
5dec6a96da522335df62a1b5,2023-11-23_22h35.32.484,kallum_motion_pilot,2023.1.2,Win32,145.1800232,5dec6a96da522335df62a1b5,656018846682f3df8008bb8f,656019cb9d4ce51e6dabe364,1,26,188,130,1,sixfive,,,,,,,,,,,,,,,,,,,,,,,,,,,,,,,,,,,,,,,,,,,,,,,,,,,,,,,,,,,,,,,,,,,,,,,,,,,,,,,,,,,,,
5dec6a96da522335df62a1b5,2023-11-23_22h35.32.484,kallum_motion_pilot,2023.1.2,Win32,145.1800232,5dec6a96da522335df62a1b5,656018846682f3df8008bb8f,656019cb9d4ce51e6dabe364,1,27,189,98,1,sixfive,,,,,,,,,,,,,,,,,,,,,,,,,,,,,,,,,,,,,,,,,,,,,,,,,,,,,,,,,,,,,,,,,,,,,,,,,,,,,,,,,,,,,
5dec6a96da522335df62a1b5,2023-11-23_22h35.32.484,kallum_motion_pilot,2023.1.2,Win32,145.1800232,5dec6a96da522335df62a1b5,656018846682f3df8008bb8f,656019cb9d4ce51e6dabe364,1,28,190,89,1,fiveseven,,,,,,,,,,,,,,,,,,,,,,,,,,,,,,,,,,,,,,,,,,,,,,,,,,,,,,,,,,,,,,,,,,,,,,,,,,,,,,,,,,,,,
5dec6a96da522335df62a1b5,2023-11-23_22h35.32.484,kallum_motion_pilot,2023.1.2,Win32,145.1800232,5dec6a96da522335df62a1b5,656018846682f3df8008bb8f,656019cb9d4ce51e6dabe364,1,29,191,55,1,fourthree,,,,,,,,,,,,,,,,,,,,,,,,,,,,,,,,,,,,,,,,,,,,,,,,,,,,,,,,,,,,,,,,,,,,,,,,,,,,,,,,,,,,,
5dec6a96da522335df62a1b5,2023-11-23_22h35.32.484,kallum_motion_pilot,2023.1.2,Win32,145.1800232,5dec6a96da522335df62a1b5,656018846682f3df8008bb8f,656019cb9d4ce51e6dabe364,1,30,192,141,1,seveneight,,,,,,,,,,,,,,,,,,,,,,,,,,,,,,,,,,,,,,,,,,,,,,,,,,,,,,,,,,,,,,,,,,,,,,,,,,,,,,,,,,,,,
5dec6a96da522335df62a1b5,2023-11-23_22h35.32.484,kallum_motion_pilot,2023.1.2,Win32,145.1800232,5dec6a96da522335df62a1b5,656018846682f3df8008bb8f,656019cb9d4ce51e6dabe364,1,31,193,95,1,eightseven,,,,,,,,,,,,,,,,,,,,,,,,,,,,,,,,,,,,,,,,,,,,,,,,,,,,,,,,,,,,,,,,,,,,,,,,,,,,,,,,,,,,,
5dec6a96da522335df62a1b5,2023-11-23_22h35.32.484,kallum_motion_pilot,2023.1.2,Win32,145.1800232,5dec6a96da522335df62a1b5,656018846682f3df8008bb8f,656019cb9d4ce51e6dabe364,1,32,194,115,1,sixeight,,,,,,,,,,,,,,,,,,,,,,,,,,,,,,,,,,,,,,,,,,,,,,,,,,,,,,,,,,,,,,,,,,,,,,,,,,,,,,,,,,,,,
5dec6a96da522335df62a1b5,2023-11-23_22h35.32.484,kallum_motion_pilot,2023.1.2,Win32,145.1800232,5dec6a96da522335df62a1b5,656018846682f3df8008bb8f,656019cb9d4ce51e6dabe364,1,33,195,4,1,threeone,,,,,,,,,,,,,,,,,,,,,,,,,,,,,,,,,,,,,,,,,,,,,,,,,,,,,,,,,,,,,,,,,,,,,,,,,,,,,,,,,,,,,
5dec6a96da522335df62a1b5,2023-11-23_22h35.32.484,kallum_motion_pilot,2023.1.2,Win32,145.1800232,5dec6a96da522335df62a1b5,656018846682f3df8008bb8f,656019cb9d4ce51e6dabe364,1,34,196,158,1,eightsix,,,,,,,,,,,,,,,,,,,,,,,,,,,,,,,,,,,,,,,,,,,,,,,,,,,,,,,,,,,,,,,,,,,,,,,,,,,,,,,,,,,,,
5dec6a96da522335df62a1b5,2023-11-23_22h35.32.484,kallum_motion_pilot,2023.1.2,Win32,145.1800232,5dec6a96da522335df62a1b5,656018846682f3df8008bb8f,656019cb9d4ce51e6dabe364,1,35,197,109,1,seveneight,,,,,,,,,,,,,,,,,,,,,,,,,,,,,,,,,,,,,,,,,,,,,,,,,,,,,,,,,,,,,,,,,,,,,,,,,,,,,,,,,,,,,
5dec6a96da522335df62a1b5,2023-11-23_22h35.32.484,kallum_motion_pilot,2023.1.2,Win32,145.1800232,5dec6a96da522335df62a1b5,656018846682f3df8008bb8f,656019cb9d4ce51e6dabe364,1,36,198,91,1,sixeight,,,,,,,,,,,,,,,,,,,,,,,,,,,,,,,,,,,,,,,,,,,,,,,,,,,,,,,,,,,,,,,,,,,,,,,,,,,,,,,,,,,,,
5dec6a96da522335df62a1b5,2023-11-23_22h35.32.484,kallum_motion_pilot,2023.1.2,Win32,145.1800232,5dec6a96da522335df62a1b5,656018846682f3df8008bb8f,656019cb9d4ce51e6dabe364,1,37,199,9,1,onethree,,,,,,,,,,,,,,,,,,,,,,,,,,,,,,,,,,,,,,,,,,,,,,,,,,,,,,,,,,,,,,,,,,,,,,,,,,,,,,,,,,,,,
5dec6a96da522335df62a1b5,2023-11-23_22h35.32.484,kallum_motion_pilot,2023.1.2,Win32,145.1800232,5dec6a96da522335df62a1b5,656018846682f3df8008bb8f,656019cb9d4ce51e6dabe364,1,38,200,69,1,threefour,,,,,,,,,,,,,,,,,,,,,,,,,,,,,,,,,,,,,,,,,,,,,,,,,,,,,,,,,,,,,,,,,,,,,,,,,,,,,,,,,,,,,
5dec6a96da522335df62a1b5,2023-11-23_22h35.32.484,kallum_motion_pilot,2023.1.2,Win32,145.1800232,5dec6a96da522335df62a1b5,656018846682f3df8008bb8f,656019cb9d4ce51e6dabe364,1,39,201,78,1,fourtwo,,,,,,,,,,,,,,,,,,,,,,,,,,,,,,,,,,,,,,,,,,,,,,,,,,,,,,,,,,,,,,,,,,,,,,,,,,,,,,,,,,,,,
5dec6a96da522335df62a1b5,2023-11-23_22h35.32.484,kallum_motion_pilot,2023.1.2,Win32,145.1800232,5dec6a96da522335df62a1b5,656018846682f3df8008bb8f,656019cb9d4ce51e6dabe364,1,40,202,26,1,twoone,,,,,,,,,,,,,,,,,,,,,,,,,,,,,,,,,,,,,,,,,,,,,,,,,,,,,,,,,,,,,,,,,,,,,,,,,,,,,,,,,,,,,
5dec6a96da522335df62a1b5,2023-11-23_22h35.32.484,kallum_motion_pilot,2023.1.2,Win32,145.1800232,5dec6a96da522335df62a1b5,656018846682f3df8008bb8f,656019cb9d4ce51e6dabe364,1,41,203,13,1,threefour,,,,,,,,,,,,,,,,,,,,,,,,,,,,,,,,,,,,,,,,,,,,,,,,,,,,,,,,,,,,,,,,,,,,,,,,,,,,,,,,,,,,,
5dec6a96da522335df62a1b5,2023-11-23_22h35.32.484,kallum_motion_pilot,2023.1.2,Win32,145.1800232,5dec6a96da522335df62a1b5,656018846682f3df8008bb8f,656019cb9d4ce51e6dabe364,1,42,204,143,1,eightseven,,,,,,,,,,,,,,,,,,,,,,,,,,,,,,,,,,,,,,,,,,,,,,,,,,,,,,,,,,,,,,,,,,,,,,,,,,,,,,,,,,,,,
5dec6a96da522335df62a1b5,2023-11-23_22h35.32.484,kallum_motion_pilot,2023.1.2,Win32,145.1800232,5dec6a96da522335df62a1b5,656018846682f3df8008bb8f,656019cb9d4ce51e6dabe364,1,43,205,62,1,fourtwo,,,,,,,,,,,,,,,,,,,,,,,,,,,,,,,,,,,,,,,,,,,,,,,,,,,,,,,,,,,,,,,,,,,,,,,,,,,,,,,,,,,,,
5dec6a96da522335df62a1b5,2023-11-23_22h35.32.484,kallum_motion_pilot,2023.1.2,Win32,145.1800232,5dec6a96da522335df62a1b5,656018846682f3df8008bb8f,656019cb9d4ce51e6dabe364,1,44,206,57,1,onethree,,,,,,,,,,,,,,,,,,,,,,,,,,,,,,,,,,,,,,,,,,,,,,,,,,,,,,,,,,,,,,,,,,,,,,,,,,,,,,,,,,,,,
5dec6a96da522335df62a1b5,2023-11-23_22h35.32.484,kallum_motion_pilot,2023.1.2,Win32,145.1800232,5dec6a96da522335df62a1b5,656018846682f3df8008bb8f,656019cb9d4ce51e6dabe364,1,45,207,10,1,twoone,,,,,,,,,,,,,,,,,,,,,,,,,,,,,,,,,,,,,,,,,,,,,,,,,,,,,,,,,,,,,,,,,,,,,,,,,,,,,,,,,,,,,
5dec6a96da522335df62a1b5,2023-11-23_22h35.32.484,kallum_motion_pilot,2023.1.2,Win32,145.1800232,5dec6a96da522335df62a1b5,656018846682f3df8008bb8f,656019cb9d4ce51e6dabe364,1,46,208,85,1,seveneight,,,,,,,,,,,,,,,,,,,,,,,,,,,,,,,,,,,,,,,,,,,,,,,,,,,,,,,,,,,,,,,,,,,,,,,,,,,,,,,,,,,,,
5dec6a96da522335df62a1b5,2023-11-23_22h35.32.484,kallum_motion_pilot,2023.1.2,Win32,145.1800232,5dec6a96da522335df62a1b5,656018846682f3df8008bb8f,656019cb9d4ce51e6dabe364,1,47,209,64,1,onetwo,,,,,,,,,,,,,,,,,,,,,,,,,,,,,,,,,,,,,,,,,,,,,,,,,,,,,,,,,,,,,,,,,,,,,,,,,,,,,,,,,,,,,
5dec6a96da522335df62a1b5,2023-11-23_22h35.32.484,kallum_motion_pilot,2023.1.2,Win32,145.1800232,5dec6a96da522335df62a1b5,656018846682f3df8008bb8f,656019cb9d4ce51e6dabe364,1,48,210,103,1,eightseven,,,,,,,,,,,,,,,,,,,,,,,,,,,,,,,,,,,,,,,,,,,,,,,,,,,,,,,,,,,,,,,,,,,,,,,,,,,,,,,,,,,,,
5dec6a96da522335df62a1b5,2023-11-23_22h35.32.484,kallum_motion_pilot,2023.1.2,Win32,145.1800232,5dec6a96da522335df62a1b5,656018846682f3df8008bb8f,656019cb9d4ce51e6dabe364,1,49,211,146,1,sixfive,,,,,,,,,,,,,,,,,,,,,,,,,,,,,,,,,,,,,,,,,,,,,,,,,,,,,,,,,,,,,,,,,,,,,,,,,,,,,,,,,,,,,
5dec6a96da522335df62a1b5,2023-11-23_22h35.32.484,kallum_motion_pilot,2023.1.2,Win32,145.1800232,5dec6a96da522335df62a1b5,656018846682f3df8008bb8f,656019cb9d4ce51e6dabe364,1,50,212,107,1,sixeight,,,,,,,,,,,,,,,,,,,,,,,,,,,,,,,,,,,,,,,,,,,,,,,,,,,,,,,,,,,,,,,,,,,,,,,,,,,,,,,,,,,,,
5dec6a96da522335df62a1b5,2023-11-23_22h35.32.484,kallum_motion_pilot,2023.1.2,Win32,145.1800232,5dec6a96da522335df62a1b5,656018846682f3df8008bb8f,656019cb9d4ce51e6dabe364,1,51,213,0,1,onetwo,,,,,,,,,,,,,,,,,,,,,,,,,,,,,,,,,,,,,,,,,,,,,,,,,,,,,,,,,,,,,,,,,,,,,,,,,,,,,,,,,,,,,
5dec6a96da522335df62a1b5,2023-11-23_22h35.32.484,kallum_motion_pilot,2023.1.2,Win32,145.1800232,5dec6a96da522335df62a1b5,656018846682f3df8008bb8f,656019cb9d4ce51e6dabe364,1,52,214,99,1,sixeight,,,,,,,,,,,,,,,,,,,,,,,,,,,,,,,,,,,,,,,,,,,,,,,,,,,,,,,,,,,,,,,,,,,,,,,,,,,,,,,,,,,,,
5dec6a96da522335df62a1b5,2023-11-23_22h35.32.484,kallum_motion_pilot,2023.1.2,Win32,145.1800232,5dec6a96da522335df62a1b5,656018846682f3df8008bb8f,656019cb9d4ce51e6dabe364,1,53,215,161,1,fiveseven,,,,,,,,,,,,,,,,,,,,,,,,,,,,,,,,,,,,,,,,,,,,,,,,,,,,,,,,,,,,,,,,,,,,,,,,,,,,,,,,,,,,,
5dec6a96da522335df62a1b5,2023-11-23_22h35.32.484,kallum_motion_pilot,2023.1.2,Win32,145.1800232,5dec6a96da522335df62a1b5,656018846682f3df8008bb8f,656019cb9d4ce51e6dabe364,1,54,216,8,1,onetwo,,,,,,,,,,,,,,,,,,,,,,,,,,,,,,,,,,,,,,,,,,,,,,,,,,,,,,,,,,,,,,,,,,,,,,,,,,,,,,,,,,,,,
5dec6a96da522335df62a1b5,2023-11-23_22h35.32.484,kallum_motion_pilot,2023.1.2,Win32,145.1800232,5dec6a96da522335df62a1b5,656018846682f3df8008bb8f,656019cb9d4ce51e6dabe364,1,55,217,159,1,eightseven,,,,,,,,,,,,,,,,,,,,,,,,,,,,,,,,,,,,,,,,,,,,,,,,,,,,,,,,,,,,,,,,,,,,,,,,,,,,,,,,,,,,,
5dec6a96da522335df62a1b5,2023-11-23_22h35.32.484,kallum_motion_pilot,2023.1.2,Win32,145.1800232,5dec6a96da522335df62a1b5,656018846682f3df8008bb8f,656019cb9d4ce51e6dabe364,1,56,218,111,1,eightseven,,,,,,,,,,,,,,,,,,,,,,,,,,,,,,,,,,,,,,,,,,,,,,,,,,,,,,,,,,,,,,,,,,,,,,,,,,,,,,,,,,,,,
5dec6a96da522335df62a1b5,2023-11-23_22h35.32.484,kallum_motion_pilot,2023.1.2,Win32,145.1800232,5dec6a96da522335df62a1b5,656018846682f3df8008bb8f,656019cb9d4ce51e6dabe364,1,57,219,11,1,twofour,,,,,,,,,,,,,,,,,,,,,,,,,,,,,,,,,,,,,,,,,,,,,,,,,,,,,,,,,,,,,,,,,,,,,,,,,,,,,,,,,,,,,
5dec6a96da522335df62a1b5,2023-11-23_22h35.32.484,kallum_motion_pilot,2023.1.2,Win32,145.1800232,5dec6a96da522335df62a1b5,656018846682f3df8008bb8f,656019cb9d4ce51e6dabe364,1,58,220,135,1,eightseven,,,,,,,,,,,,,,,,,,,,,,,,,,,,,,,,,,,,,,,,,,,,,,,,,,,,,,,,,,,,,,,,,,,,,,,,,,,,,,,,,,,,,
5dec6a96da522335df62a1b5,2023-11-23_22h35.32.484,kallum_motion_pilot,2023.1.2,Win32,145.1800232,5dec6a96da522335df62a1b5,656018846682f3df8008bb8f,656019cb9d4ce51e6dabe364,1,59,221,110,1,eightsix,,,,,,,,,,,,,,,,,,,,,,,,,,,,,,,,,,,,,,,,,,,,,,,,,,,,,,,,,,,,,,,,,,,,,,,,,,,,,,,,,,,,,
5dec6a96da522335df62a1b5,2023-11-23_22h35.32.484,kallum_motion_pilot,2023.1.2,Win32,145.1800232,5dec6a96da522335df62a1b5,656018846682f3df8008bb8f,656019cb9d4ce51e6dabe364,1,60,222,54,1,fourtwo,,,,,,,,,,,,,,,,,,,,,,,,,,,,,,,,,,,,,,,,,,,,,,,,,,,,,,,,,,,,,,,,,,,,,,,,,,,,,,,,,,,,,
5dec6a96da522335df62a1b5,2023-11-23_22h35.32.484,kallum_motion_pilot,2023.1.2,Win32,145.1800232,5dec6a96da522335df62a1b5,656018846682f3df8008bb8f,656019cb9d4ce51e6dabe364,1,61,223,35,1,twofour,,,,,,,,,,,,,,,,,,,,,,,,,,,,,,,,,,,,,,,,,,,,,,,,,,,,,,,,,,,,,,,,,,,,,,,,,,,,,,,,,,,,,
5dec6a96da522335df62a1b5,2023-11-23_22h35.32.484,kallum_motion_pilot,2023.1.2,Win32,145.1800232,5dec6a96da522335df62a1b5,656018846682f3df8008bb8f,656019cb9d4ce51e6dabe364,1,62,224,53,1,threefour,,,,,,,,,,,,,,,,,,,,,,,,,,,,,,,,,,,,,,,,,,,,,,,,,,,,,,,,,,,,,,,,,,,,,,,,,,,,,,,,,,,,,
5dec6a96da522335df62a1b5,2023-11-23_22h35.32.484,kallum_motion_pilot,2023.1.2,Win32,145.1800232,5dec6a96da522335df62a1b5,656018846682f3df8008bb8f,656019cb9d4ce51e6dabe364,1,63,225,32,1,onetwo,,,,,,,,,,,,,,,,,,,,,,,,,,,,,,,,,,,,,,,,,,,,,,,,,,,,,,,,,,,,,,,,,,,,,,,,,,,,,,,,,,,,,
5dec6a96da522335df62a1b5,2023-11-23_22h35.32.484,kallum_motion_pilot,2023.1.2,Win32,145.1800232,5dec6a96da522335df62a1b5,656018846682f3df8008bb8f,656019cb9d4ce51e6dabe364,1,64,226,45,1,threefour,,,,,,,,,,,,,,,,,,,,,,,,,,,,,,,,,,,,,,,,,,,,,,,,,,,,,,,,,,,,,,,,,,,,,,,,,,,,,,,,,,,,,
5dec6a96da522335df62a1b5,2023-11-23_22h35.32.484,kallum_motion_pilot,2023.1.2,Win32,145.1800232,5dec6a96da522335df62a1b5,656018846682f3df8008bb8f,656019cb9d4ce51e6dabe364,1,65,227,138,1,sixfive,,,,,,,,,,,,,,,,,,,,,,,,,,,,,,,,,,,,,,,,,,,,,,,,,,,,,,,,,,,,,,,,,,,,,,,,,,,,,,,,,,,,,
5dec6a96da522335df62a1b5,2023-11-23_22h35.32.484,kallum_motion_pilot,2023.1.2,Win32,145.1800232,5dec6a96da522335df62a1b5,656018846682f3df8008bb8f,656019cb9d4ce51e6dabe364,1,66,228,72,1,onetwo,,,,,,,,,,,,,,,,,,,,,,,,,,,,,,,,,,,,,,,,,,,,,,,,,,,,,,,,,,,,,,,,,,,,,,,,,,,,,,,,,,,,,
5dec6a96da522335df62a1b5,2023-11-23_22h35.32.484,kallum_motion_pilot,2023.1.2,Win32,145.1800232,5dec6a96da522335df62a1b5,656018846682f3df8008bb8f,656019cb9d4ce51e6dabe364,1,67,229,37,1,threefour,,,,,,,,,,,,,,,,,,,,,,,,,,,,,,,,,,,,,,,,,,,,,,,,,,,,,,,,,,,,,,,,,,,,,,,,,,,,,,,,,,,,,
5dec6a96da522335df62a1b5,2023-11-23_22h35.32.484,kallum_motion_pilot,2023.1.2,Win32,145.1800232,5dec6a96da522335df62a1b5,656018846682f3df8008bb8f,656019cb9d4ce51e6dabe364,1,68,230,28,1,threeone,,,,,,,,,,,,,,,,,,,,,,,,,,,,,,,,,,,,,,,,,,,,,,,,,,,,,,,,,,,,,,,,,,,,,,,,,,,,,,,,,,,,,
5dec6a96da522335df62a1b5,2023-11-23_22h35.32.484,kallum_motion_pilot,2023.1.2,Win32,145.1800232,5dec6a96da522335df62a1b5,656018846682f3df8008bb8f,656019cb9d4ce51e6dabe364,1,69,231,34,1,twoone,,,,,,,,,,,,,,,,,,,,,,,,,,,,,,,,,,,,,,,,,,,,,,,,,,,,,,,,,,,,,,,,,,,,,,,,,,,,,,,,,,,,,
5dec6a96da522335df62a1b5,2023-11-23_22h35.32.484,kallum_motion_pilot,2023.1.2,Win32,145.1800232,5dec6a96da522335df62a1b5,656018846682f3df8008bb8f,656019cb9d4ce51e6dabe364,1,70,232,92,1,sevenfive,,,,,,,,,,,,,,,,,,,,,,,,,,,,,,,,,,,,,,,,,,,,,,,,,,,,,,,,,,,,,,,,,,,,,,,,,,,,,,,,,,,,,
5dec6a96da522335df62a1b5,2023-11-23_22h35.32.484,kallum_motion_pilot,2023.1.2,Win32,145.1800232,5dec6a96da522335df62a1b5,656018846682f3df8008bb8f,656019cb9d4ce51e6dabe364,1,71,233,104,1,fivesix,,,,,,,,,,,,,,,,,,,,,,,,,,,,,,,,,,,,,,,,,,,,,,,,,,,,,,,,,,,,,,,,,,,,,,,,,,,,,,,,,,,,,
5dec6a96da522335df62a1b5,2023-11-23_22h35.32.484,kallum_motion_pilot,2023.1.2,Win32,145.1800232,5dec6a96da522335df62a1b5,656018846682f3df8008bb8f,656019cb9d4ce51e6dabe364,1,72,234,56,1,onetwo,,,,,,,,,,,,,,,,,,,,,,,,,,,,,,,,,,,,,,,,,,,,,,,,,,,,,,,,,,,,,,,,,,,,,,,,,,,,,,,,,,,,,
5dec6a96da522335df62a1b5,2023-11-23_22h35.32.484,kallum_motion_pilot,2023.1.2,Win32,145.1800232,5dec6a96da522335df62a1b5,656018846682f3df8008bb8f,656019cb9d4ce51e6dabe364,1,73,235,157,1,seveneight,,,,,,,,,,,,,,,,,,,,,,,,,,,,,,,,,,,,,,,,,,,,,,,,,,,,,,,,,,,,,,,,,,,,,,,,,,,,,,,,,,,,,
5dec6a96da522335df62a1b5,2023-11-23_22h35.32.484,kallum_motion_pilot,2023.1.2,Win32,145.1800232,5dec6a96da522335df62a1b5,656018846682f3df8008bb8f,656019cb9d4ce51e6dabe364,1,74,236,30,1,fourtwo,,,,,,,,,,,,,,,,,,,,,,,,,,,,,,,,,,,,,,,,,,,,,,,,,,,,,,,,,,,,,,,,,,,,,,,,,,,,,,,,,,,,,
5dec6a96da522335df62a1b5,2023-11-23_22h35.32.484,kallum_motion_pilot,2023.1.2,Win32,145.1800232,5dec6a96da522335df62a1b5,656018846682f3df8008bb8f,656019cb9d4ce51e6dabe364,1,75,237,31,1,fourthree,,,,,,,,,,,,,,,,,,,,,,,,,,,,,,,,,,,,,,,,,,,,,,,,,,,,,,,,,,,,,,,,,,,,,,,,,,,,,,,,,,,,,
5dec6a96da522335df62a1b5,2023-11-23_22h35.32.484,kallum_motion_pilot,2023.1.2,Win32,145.1800232,5dec6a96da522335df62a1b5,656018846682f3df8008bb8f,656019cb9d4ce51e6dabe364,1,76,238,156,1,sevenfive,,,,,,,,,,,,,,,,,,,,,,,,,,,,,,,,,,,,,,,,,,,,,,,,,,,,,,,,,,,,,,,,,,,,,,,,,,,,,,,,,,,,,
5dec6a96da522335df62a1b5,2023-11-23_22h35.32.484,kallum_motion_pilot,2023.1.2,Win32,145.1800232,5dec6a96da522335df62a1b5,656018846682f3df8008bb8f,656019cb9d4ce51e6dabe364,1,77,239,65,1,onethree,,,,,,,,,,,,,,,,,,,,,,,,,,,,,,,,,,,,,,,,,,,,,,,,,,,,,,,,,,,,,,,,,,,,,,,,,,,,,,,,,,,,,
5dec6a96da522335df62a1b5,2023-11-23_22h35.32.484,kallum_motion_pilot,2023.1.2,Win32,145.1800232,5dec6a96da522335df62a1b5,656018846682f3df8008bb8f,656019cb9d4ce51e6dabe364,1,78,240,122,1,sixfive,,,,,,,,,,,,,,,,,,,,,,,,,,,,,,,,,,,,,,,,,,,,,,,,,,,,,,,,,,,,,,,,,,,,,,,,,,,,,,,,,,,,,
5dec6a96da522335df62a1b5,2023-11-23_22h35.32.484,kallum_motion_pilot,2023.1.2,Win32,145.1800232,5dec6a96da522335df62a1b5,656018846682f3df8008bb8f,656019cb9d4ce51e6dabe364,1,79,241,39,1,fourthree,,,,,,,,,,,,,,,,,,,,,,,,,,,,,,,,,,,,,,,,,,,,,,,,,,,,,,,,,,,,,,,,,,,,,,,,,,,,,,,,,,,,,
5dec6a96da522335df62a1b5,2023-11-23_22h35.32.484,kallum_motion_pilot,2023.1.2,Win32,145.1800232,5dec6a96da522335df62a1b5,656018846682f3df8008bb8f,656019cb9d4ce51e6dabe364,1,80,242,14,1,fourtwo,,,,,,,,,,,,,,,,,,,,,,,,,,,,,,,,,,,,,,,,,,,,,,,,,,,,,,,,,,,,,,,,,,,,,,,,,,,,,,,,,,,,,
5dec6a96da522335df62a1b5,2023-11-23_22h35.32.484,kallum_motion_pilot,2023.1.2,Win32,145.1800232,5dec6a96da522335df62a1b5,656018846682f3df8008bb8f,656019cb9d4ce51e6dabe364,1,81,243,101,1,seveneight,,,,,,,,,,,,,,,,,,,,,,,,,,,,,,,,,,,,,,,,,,,,,,,,,,,,,,,,,,,,,,,,,,,,,,,,,,,,,,,,,,,,,
5dec6a96da522335df62a1b5,2023-11-23_22h35.32.484,kallum_motion_pilot,2023.1.2,Win32,145.1800232,5dec6a96da522335df62a1b5,656018846682f3df8008bb8f,656019cb9d4ce51e6dabe364,1,82,244,6,1,fourtwo,,,,,,,,,,,,,,,,,,,,,,,,,,,,,,,,,,,,,,,,,,,,,,,,,,,,,,,,,,,,,,,,,,,,,,,,,,,,,,,,,,,,,
5dec6a96da522335df62a1b5,2023-11-23_22h35.32.484,kallum_motion_pilot,2023.1.2,Win32,145.1800232,5dec6a96da522335df62a1b5,656018846682f3df8008bb8f,656019cb9d4ce51e6dabe364,1,83,245,128,1,fivesix,,,,,,,,,,,,,,,,,,,,,,,,,,,,,,,,,,,,,,,,,,,,,,,,,,,,,,,,,,,,,,,,,,,,,,,,,,,,,,,,,,,,,
5dec6a96da522335df62a1b5,2023-11-23_22h35.32.484,kallum_motion_pilot,2023.1.2,Win32,145.1800232,5dec6a96da522335df62a1b5,656018846682f3df8008bb8f,656019cb9d4ce51e6dabe364,1,84,246,59,1,twofour,,,,,,,,,,,,,,,,,,,,,,,,,,,,,,,,,,,,,,,,,,,,,,,,,,,,,,,,,,,,,,,,,,,,,,,,,,,,,,,,,,,,,
5dec6a96da522335df62a1b5,2023-11-23_22h35.32.484,kallum_motion_pilot,2023.1.2,Win32,145.1800232,5dec6a96da522335df62a1b5,656018846682f3df8008bb8f,656019cb9d4ce51e6dabe364,1,85,247,83,1,sixeight,,,,,,,,,,,,,,,,,,,,,,,,,,,,,,,,,,,,,,,,,,,,,,,,,,,,,,,,,,,,,,,,,,,,,,,,,,,,,,,,,,,,,
5dec6a96da522335df62a1b5,2023-11-23_22h35.32.484,kallum_motion_pilot,2023.1.2,Win32,145.1800232,5dec6a96da522335df62a1b5,656018846682f3df8008bb8f,656019cb9d4ce51e6dabe364,1,86,248,134,1,eightsix,,,,,,,,,,,,,,,,,,,,,,,,,,,,,,,,,,,,,,,,,,,,,,,,,,,,,,,,,,,,,,,,,,,,,,,,,,,,,,,,,,,,,
5dec6a96da522335df62a1b5,2023-11-23_22h35.32.484,kallum_motion_pilot,2023.1.2,Win32,145.1800232,5dec6a96da522335df62a1b5,656018846682f3df8008bb8f,656019cb9d4ce51e6dabe364,1,87,249,86,1,eightsix,,,,,,,,,,,,,,,,,,,,,,,,,,,,,,,,,,,,,,,,,,,,,,,,,,,,,,,,,,,,,,,,,,,,,,,,,,,,,,,,,,,,,
5dec6a96da522335df62a1b5,2023-11-23_22h35.32.484,kallum_motion_pilot,2023.1.2,Win32,145.1800232,5dec6a96da522335df62a1b5,656018846682f3df8008bb8f,656019cb9d4ce51e6dabe364,1,88,250,121,1,fiveseven,,,,,,,,,,,,,,,,,,,,,,,,,,,,,,,,,,,,,,,,,,,,,,,,,,,,,,,,,,,,,,,,,,,,,,,,,,,,,,,,,,,,,
5dec6a96da522335df62a1b5,2023-11-23_22h35.32.484,kallum_motion_pilot,2023.1.2,Win32,145.1800232,5dec6a96da522335df62a1b5,656018846682f3df8008bb8f,656019cb9d4ce51e6dabe364,1,89,251,139,1,sixeight,,,,,,,,,,,,,,,,,,,,,,,,,,,,,,,,,,,,,,,,,,,,,,,,,,,,,,,,,,,,,,,,,,,,,,,,,,,,,,,,,,,,,
5dec6a96da522335df62a1b5,2023-11-23_22h35.32.484,kallum_motion_pilot,2023.1.2,Win32,145.1800232,5dec6a96da522335df62a1b5,656018846682f3df8008bb8f,656019cb9d4ce51e6dabe364,1,90,252,76,1,threeone,,,,,,,,,,,,,,,,,,,,,,,,,,,,,,,,,,,,,,,,,,,,,,,,,,,,,,,,,,,,,,,,,,,,,,,,,,,,,,,,,,,,,
5dec6a96da522335df62a1b5,2023-11-23_22h35.32.484,kallum_motion_pilot,2023.1.2,Win32,145.1800232,5dec6a96da522335df62a1b5,656018846682f3df8008bb8f,656019cb9d4ce51e6dabe364,1,91,253,113,1,fiveseven,,,,,,,,,,,,,,,,,,,,,,,,,,,,,,,,,,,,,,,,,,,,,,,,,,,,,,,,,,,,,,,,,,,,,,,,,,,,,,,,,,,,,
5dec6a96da522335df62a1b5,2023-11-23_22h35.32.484,kallum_motion_pilot,2023.1.2,Win32,145.1800232,5dec6a96da522335df62a1b5,656018846682f3df8008bb8f,656019cb9d4ce51e6dabe364,1,92,254,16,1,onetwo,,,,,,,,,,,,,,,,,,,,,,,,,,,,,,,,,,,,,,,,,,,,,,,,,,,,,,,,,,,,,,,,,,,,,,,,,,,,,,,,,,,,,
5dec6a96da522335df62a1b5,2023-11-23_22h35.32.484,kallum_motion_pilot,2023.1.2,Win32,145.1800232,5dec6a96da522335df62a1b5,656018846682f3df8008bb8f,656019cb9d4ce51e6dabe364,1,93,255,1,1,onethree,,,,,,,,,,,,,,,,,,,,,,,,,,,,,,,,,,,,,,,,,,,,,,,,,,,,,,,,,,,,,,,,,,,,,,,,,,,,,,,,,,,,,
5dec6a96da522335df62a1b5,2023-11-23_22h35.32.484,kallum_motion_pilot,2023.1.2,Win32,145.1800232,5dec6a96da522335df62a1b5,656018846682f3df8008bb8f,656019cb9d4ce51e6dabe364,1,94,256,112,1,fivesix,,,,,,,,,,,,,,,,,,,,,,,,,,,,,,,,,,,,,,,,,,,,,,,,,,,,,,,,,,,,,,,,,,,,,,,,,,,,,,,,,,,,,
5dec6a96da522335df62a1b5,2023-11-23_22h35.32.484,kallum_motion_pilot,2023.1.2,Win32,145.1800232,5dec6a96da522335df62a1b5,656018846682f3df8008bb8f,656019cb9d4ce51e6dabe364,1,95,257,49,1,onethree,,,,,,,,,,,,,,,,,,,,,,,,,,,,,,,,,,,,,,,,,,,,,,,,,,,,,,,,,,,,,,,,,,,,,,,,,,,,,,,,,,,,,
5dec6a96da522335df62a1b5,2023-11-23_22h35.32.484,kallum_motion_pilot,2023.1.2,Win32,145.1800232,5dec6a96da522335df62a1b5,656018846682f3df8008bb8f,656019cb9d4ce51e6dabe364,1,96,258,87,1,eightseven,,,,,,,,,,,,,,,,,,,,,,,,,,,,,,,,,,,,,,,,,,,,,,,,,,,,,,,,,,,,,,,,,,,,,,,,,,,,,,,,,,,,,
5dec6a96da522335df62a1b5,2023-11-23_22h35.32.484,kallum_motion_pilot,2023.1.2,Win32,145.1800232,5dec6a96da522335df62a1b5,656018846682f3df8008bb8f,656019cb9d4ce51e6dabe364,1,97,259,133,1,seveneight,,,,,,,,,,,,,,,,,,,,,,,,,,,,,,,,,,,,,,,,,,,,,,,,,,,,,,,,,,,,,,,,,,,,,,,,,,,,,,,,,,,,,
5dec6a96da522335df62a1b5,2023-11-23_22h35.32.484,kallum_motion_pilot,2023.1.2,Win32,145.1800232,5dec6a96da522335df62a1b5,656018846682f3df8008bb8f,656019cb9d4ce51e6dabe364,1,98,260,68,1,threeone,,,,,,,,,,,,,,,,,,,,,,,,,,,,,,,,,,,,,,,,,,,,,,,,,,,,,,,,,,,,,,,,,,,,,,,,,,,,,,,,,,,,,
5dec6a96da522335df62a1b5,2023-11-23_22h35.32.484,kallum_motion_pilot,2023.1.2,Win32,145.1800232,5dec6a96da522335df62a1b5,656018846682f3df8008bb8f,656019cb9d4ce51e6dabe364,1,99,261,58,1,twoone,,,,,,,,,,,,,,,,,,,,,,,,,,,,,,,,,,,,,,,,,,,,,,,,,,,,,,,,,,,,,,,,,,,,,,,,,,,,,,,,,,,,,
5dec6a96da522335df62a1b5,2023-11-23_22h35.32.484,kallum_motion_pilot,2023.1.2,Win32,145.1800232,5dec6a96da522335df62a1b5,656018846682f3df8008bb8f,656019cb9d4ce51e6dabe364,1,100,262,114,1,sixfive,,,,,,,,,,,,,,,,,,,,,,,,,,,,,,,,,,,,,,,,,,,,,,,,,,,,,,,,,,,,,,,,,,,,,,,,,,,,,,,,,,,,,
5dec6a96da522335df62a1b5,2023-11-23_22h35.32.484,kallum_motion_pilot,2023.1.2,Win32,145.1800232,5dec6a96da522335df62a1b5,656018846682f3df8008bb8f,656019cb9d4ce51e6dabe364,1,101,263,127,1,eightseven,,,,,,,,,,,,,,,,,,,,,,,,,,,,,,,,,,,,,,,,,,,,,,,,,,,,,,,,,,,,,,,,,,,,,,,,,,,,,,,,,,,,,
5dec6a96da522335df62a1b5,2023-11-23_22h35.32.484,kallum_motion_pilot,2023.1.2,Win32,145.1800232,5dec6a96da522335df62a1b5,656018846682f3df8008bb8f,656019cb9d4ce51e6dabe364,1,102,264,132,1,sevenfive,,,,,,,,,,,,,,,,,,,,,,,,,,,,,,,,,,,,,,,,,,,,,,,,,,,,,,,,,,,,,,,,,,,,,,,,,,,,,,,,,,,,,
5dec6a96da522335df62a1b5,2023-11-23_22h35.32.484,kallum_motion_pilot,2023.1.2,Win32,145.1800232,5dec6a96da522335df62a1b5,656018846682f3df8008bb8f,656019cb9d4ce51e6dabe364,1,103,265,88,1,fivesix,,,,,,,,,,,,,,,,,,,,,,,,,,,,,,,,,,,,,,,,,,,,,,,,,,,,,,,,,,,,,,,,,,,,,,,,,,,,,,,,,,,,,
5dec6a96da522335df62a1b5,2023-11-23_22h35.32.484,kallum_motion_pilot,2023.1.2,Win32,145.1800232,5dec6a96da522335df62a1b5,656018846682f3df8008bb8f,656019cb9d4ce51e6dabe364,1,104,266,33,1,onethree,,,,,,,,,,,,,,,,,,,,,,,,,,,,,,,,,,,,,,,,,,,,,,,,,,,,,,,,,,,,,,,,,,,,,,,,,,,,,,,,,,,,,
5dec6a96da522335df62a1b5,2023-11-23_22h35.32.484,kallum_motion_pilot,2023.1.2,Win32,145.1800232,5dec6a96da522335df62a1b5,656018846682f3df8008bb8f,656019cb9d4ce51e6dabe364,1,105,267,96,1,fivesix,,,,,,,,,,,,,,,,,,,,,,,,,,,,,,,,,,,,,,,,,,,,,,,,,,,,,,,,,,,,,,,,,,,,,,,,,,,,,,,,,,,,,
5dec6a96da522335df62a1b5,2023-11-23_22h35.32.484,kallum_motion_pilot,2023.1.2,Win32,145.1800232,5dec6a96da522335df62a1b5,656018846682f3df8008bb8f,656019cb9d4ce51e6dabe364,1,106,268,123,1,sixeight,,,,,,,,,,,,,,,,,,,,,,,,,,,,,,,,,,,,,,,,,,,,,,,,,,,,,,,,,,,,,,,,,,,,,,,,,,,,,,,,,,,,,
5dec6a96da522335df62a1b5,2023-11-23_22h35.32.484,kallum_motion_pilot,2023.1.2,Win32,145.1800232,5dec6a96da522335df62a1b5,656018846682f3df8008bb8f,656019cb9d4ce51e6dabe364,1,107,269,36,1,threeone,,,,,,,,,,,,,,,,,,,,,,,,,,,,,,,,,,,,,,,,,,,,,,,,,,,,,,,,,,,,,,,,,,,,,,,,,,,,,,,,,,,,,
5dec6a96da522335df62a1b5,2023-11-23_22h35.32.484,kallum_motion_pilot,2023.1.2,Win32,145.1800232,5dec6a96da522335df62a1b5,656018846682f3df8008bb8f,656019cb9d4ce51e6dabe364,1,108,270,131,1,sixeight,,,,,,,,,,,,,,,,,,,,,,,,,,,,,,,,,,,,,,,,,,,,,,,,,,,,,,,,,,,,,,,,,,,,,,,,,,,,,,,,,,,,,
5dec6a96da522335df62a1b5,2023-11-23_22h35.32.484,kallum_motion_pilot,2023.1.2,Win32,145.1800232,5dec6a96da522335df62a1b5,656018846682f3df8008bb8f,656019cb9d4ce51e6dabe364,1,109,271,3,1,twofour,,,,,,,,,,,,,,,,,,,,,,,,,,,,,,,,,,,,,,,,,,,,,,,,,,,,,,,,,,,,,,,,,,,,,,,,,,,,,,,,,,,,,
5dec6a96da522335df62a1b5,2023-11-23_22h35.32.484,kallum_motion_pilot,2023.1.2,Win32,145.1800232,5dec6a96da522335df62a1b5,656018846682f3df8008bb8f,656019cb9d4ce51e6dabe364,1,110,272,63,1,fourthree,,,,,,,,,,,,,,,,,,,,,,,,,,,,,,,,,,,,,,,,,,,,,,,,,,,,,,,,,,,,,,,,,,,,,,,,,,,,,,,,,,,,,
5dec6a96da522335df62a1b5,2023-11-23_22h35.32.484,kallum_motion_pilot,2023.1.2,Win32,145.1800232,5dec6a96da522335df62a1b5,656018846682f3df8008bb8f,656019cb9d4ce51e6dabe364,1,111,273,50,1,twoone,,,,,,,,,,,,,,,,,,,,,,,,,,,,,,,,,,,,,,,,,,,,,,,,,,,,,,,,,,,,,,,,,,,,,,,,,,,,,,,,,,,,,
5dec6a96da522335df62a1b5,2023-11-23_22h35.32.484,kallum_motion_pilot,2023.1.2,Win32,145.1800232,5dec6a96da522335df62a1b5,656018846682f3df8008bb8f,656019cb9d4ce51e6dabe364,1,112,274,75,1,twofour,,,,,,,,,,,,,,,,,,,,,,,,,,,,,,,,,,,,,,,,,,,,,,,,,,,,,,,,,,,,,,,,,,,,,,,,,,,,,,,,,,,,,
5dec6a96da522335df62a1b5,2023-11-23_22h35.32.484,kallum_motion_pilot,2023.1.2,Win32,145.1800232,5dec6a96da522335df62a1b5,656018846682f3df8008bb8f,656019cb9d4ce51e6dabe364,1,113,275,71,1,fourthree,,,,,,,,,,,,,,,,,,,,,,,,,,,,,,,,,,,,,,,,,,,,,,,,,,,,,,,,,,,,,,,,,,,,,,,,,,,,,,,,,,,,,
5dec6a96da522335df62a1b5,2023-11-23_22h35.32.484,kallum_motion_pilot,2023.1.2,Win32,145.1800232,5dec6a96da522335df62a1b5,656018846682f3df8008bb8f,656019cb9d4ce51e6dabe364,1,114,276,73,1,onethree,,,,,,,,,,,,,,,,,,,,,,,,,,,,,,,,,,,,,,,,,,,,,,,,,,,,,,,,,,,,,,,,,,,,,,,,,,,,,,,,,,,,,
5dec6a96da522335df62a1b5,2023-11-23_22h35.32.484,kallum_motion_pilot,2023.1.2,Win32,145.1800232,5dec6a96da522335df62a1b5,656018846682f3df8008bb8f,656019cb9d4ce51e6dabe364,1,115,277,149,1,seveneight,,,,,,,,,,,,,,,,,,,,,,,,,,,,,,,,,,,,,,,,,,,,,,,,,,,,,,,,,,,,,,,,,,,,,,,,,,,,,,,,,,,,,
5dec6a96da522335df62a1b5,2023-11-23_22h35.32.484,kallum_motion_pilot,2023.1.2,Win32,145.1800232,5dec6a96da522335df62a1b5,656018846682f3df8008bb8f,656019cb9d4ce51e6dabe364,1,116,278,117,1,seveneight,,,,,,,,,,,,,,,,,,,,,,,,,,,,,,,,,,,,,,,,,,,,,,,,,,,,,,,,,,,,,,,,,,,,,,,,,,,,,,,,,,,,,
5dec6a96da522335df62a1b5,2023-11-23_22h35.32.484,kallum_motion_pilot,2023.1.2,Win32,145.1800232,5dec6a96da522335df62a1b5,656018846682f3df8008bb8f,656019cb9d4ce51e6dabe364,1,117,279,22,1,fourtwo,,,,,,,,,,,,,,,,,,,,,,,,,,,,,,,,,,,,,,,,,,,,,,,,,,,,,,,,,,,,,,,,,,,,,,,,,,,,,,,,,,,,,
5dec6a96da522335df62a1b5,2023-11-23_22h35.32.484,kallum_motion_pilot,2023.1.2,Win32,145.1800232,5dec6a96da522335df62a1b5,656018846682f3df8008bb8f,656019cb9d4ce51e6dabe364,1,118,280,120,1,fivesix,,,,,,,,,,,,,,,,,,,,,,,,,,,,,,,,,,,,,,,,,,,,,,,,,,,,,,,,,,,,,,,,,,,,,,,,,,,,,,,,,,,,,
5dec6a96da522335df62a1b5,2023-11-23_22h35.32.484,kallum_motion_pilot,2023.1.2,Win32,145.1800232,5dec6a96da522335df62a1b5,656018846682f3df8008bb8f,656019cb9d4ce51e6dabe364,1,119,281,41,1,onethree,,,,,,,,,,,,,,,,,,,,,,,,,,,,,,,,,,,,,,,,,,,,,,,,,,,,,,,,,,,,,,,,,,,,,,,,,,,,,,,,,,,,,
5dec6a96da522335df62a1b5,2023-11-23_22h35.32.484,kallum_motion_pilot,2023.1.2,Win32,145.1800232,5dec6a96da522335df62a1b5,656018846682f3df8008bb8f,656019cb9d4ce51e6dabe364,1,120,282,5,1,threefour,,,,,,,,,,,,,,,,,,,,,,,,,,,,,,,,,,,,,,,,,,,,,,,,,,,,,,,,,,,,,,,,,,,,,,,,,,,,,,,,,,,,,
5dec6a96da522335df62a1b5,2023-11-23_22h35.32.484,kallum_motion_pilot,2023.1.2,Win32,145.1800232,5dec6a96da522335df62a1b5,656018846682f3df8008bb8f,656019cb9d4ce51e6dabe364,1,121,283,116,1,sevenfive,,,,,,,,,,,,,,,,,,,,,,,,,,,,,,,,,,,,,,,,,,,,,,,,,,,,,,,,,,,,,,,,,,,,,,,,,,,,,,,,,,,,,
5dec6a96da522335df62a1b5,2023-11-23_22h35.32.484,kallum_motion_pilot,2023.1.2,Win32,145.1800232,5dec6a96da522335df62a1b5,656018846682f3df8008bb8f,656019cb9d4ce51e6dabe364,1,122,284,70,1,fourtwo,,,,,,,,,,,,,,,,,,,,,,,,,,,,,,,,,,,,,,,,,,,,,,,,,,,,,,,,,,,,,,,,,,,,,,,,,,,,,,,,,,,,,
5dec6a96da522335df62a1b5,2023-11-23_22h35.32.484,kallum_motion_pilot,2023.1.2,Win32,145.1800232,5dec6a96da522335df62a1b5,656018846682f3df8008bb8f,656019cb9d4ce51e6dabe364,1,123,285,29,1,threefour,,,,,,,,,,,,,,,,,,,,,,,,,,,,,,,,,,,,,,,,,,,,,,,,,,,,,,,,,,,,,,,,,,,,,,,,,,,,,,,,,,,,,
5dec6a96da522335df62a1b5,2023-11-23_22h35.32.484,kallum_motion_pilot,2023.1.2,Win32,145.1800232,5dec6a96da522335df62a1b5,656018846682f3df8008bb8f,656019cb9d4ce51e6dabe364,1,124,286,124,1,sevenfive,,,,,,,,,,,,,,,,,,,,,,,,,,,,,,,,,,,,,,,,,,,,,,,,,,,,,,,,,,,,,,,,,,,,,,,,,,,,,,,,,,,,,
5dec6a96da522335df62a1b5,2023-11-23_22h35.32.484,kallum_motion_pilot,2023.1.2,Win32,145.1800232,5dec6a96da522335df62a1b5,656018846682f3df8008bb8f,656019cb9d4ce51e6dabe364,1,125,287,47,1,fourthree,,,,,,,,,,,,,,,,,,,,,,,,,,,,,,,,,,,,,,,,,,,,,,,,,,,,,,,,,,,,,,,,,,,,,,,,,,,,,,,,,,,,,
5dec6a96da522335df62a1b5,2023-11-23_22h35.32.484,kallum_motion_pilot,2023.1.2,Win32,145.1800232,5dec6a96da522335df62a1b5,656018846682f3df8008bb8f,656019cb9d4ce51e6dabe364,1,126,288,77,1,threefour,,,,,,,,,,,,,,,,,,,,,,,,,,,,,,,,,,,,,,,,,,,,,,,,,,,,,,,,,,,,,,,,,,,,,,,,,,,,,,,,,,,,,
5dec6a96da522335df62a1b5,2023-11-23_22h35.32.484,kallum_motion_pilot,2023.1.2,Win32,145.1800232,5dec6a96da522335df62a1b5,656018846682f3df8008bb8f,656019cb9d4ce51e6dabe364,1,127,289,145,1,fiveseven,,,,,,,,,,,,,,,,,,,,,,,,,,,,,,,,,,,,,,,,,,,,,,,,,,,,,,,,,,,,,,,,,,,,,,,,,,,,,,,,,,,,,
5dec6a96da522335df62a1b5,2023-11-23_22h35.32.484,kallum_motion_pilot,2023.1.2,Win32,145.1800232,5dec6a96da522335df62a1b5,656018846682f3df8008bb8f,656019cb9d4ce51e6dabe364,1,128,290,17,1,onethree,,,,,,,,,,,,,,,,,,,,,,,,,,,,,,,,,,,,,,,,,,,,,,,,,,,,,,,,,,,,,,,,,,,,,,,,,,,,,,,,,,,,,
5dec6a96da522335df62a1b5,2023-11-23_22h35.32.484,kallum_motion_pilot,2023.1.2,Win32,145.1800232,5dec6a96da522335df62a1b5,656018846682f3df8008bb8f,656019cb9d4ce51e6dabe364,1,129,291,48,1,onetwo,,,,,,,,,,,,,,,,,,,,,,,,,,,,,,,,,,,,,,,,,,,,,,,,,,,,,,,,,,,,,,,,,,,,,,,,,,,,,,,,,,,,,
5dec6a96da522335df62a1b5,2023-11-23_22h35.32.484,kallum_motion_pilot,2023.1.2,Win32,145.1800232,5dec6a96da522335df62a1b5,656018846682f3df8008bb8f,656019cb9d4ce51e6dabe364,1,130,292,154,1,sixfive,,,,,,,,,,,,,,,,,,,,,,,,,,,,,,,,,,,,,,,,,,,,,,,,,,,,,,,,,,,,,,,,,,,,,,,,,,,,,,,,,,,,,
5dec6a96da522335df62a1b5,2023-11-23_22h35.32.484,kallum_motion_pilot,2023.1.2,Win32,145.1800232,5dec6a96da522335df62a1b5,656018846682f3df8008bb8f,656019cb9d4ce51e6dabe364,1,131,293,119,1,eightseven,,,,,,,,,,,,,,,,,,,,,,,,,,,,,,,,,,,,,,,,,,,,,,,,,,,,,,,,,,,,,,,,,,,,,,,,,,,,,,,,,,,,,
5dec6a96da522335df62a1b5,2023-11-23_22h35.32.484,kallum_motion_pilot,2023.1.2,Win32,145.1800232,5dec6a96da522335df62a1b5,656018846682f3df8008bb8f,656019cb9d4ce51e6dabe364,1,132,294,147,1,sixeight,,,,,,,,,,,,,,,,,,,,,,,,,,,,,,,,,,,,,,,,,,,,,,,,,,,,,,,,,,,,,,,,,,,,,,,,,,,,,,,,,,,,,
5dec6a96da522335df62a1b5,2023-11-23_22h35.32.484,kallum_motion_pilot,2023.1.2,Win32,145.1800232,5dec6a96da522335df62a1b5,656018846682f3df8008bb8f,656019cb9d4ce51e6dabe364,1,133,295,90,1,sixfive,,,,,,,,,,,,,,,,,,,,,,,,,,,,,,,,,,,,,,,,,,,,,,,,,,,,,,,,,,,,,,,,,,,,,,,,,,,,,,,,,,,,,
5dec6a96da522335df62a1b5,2023-11-23_22h35.32.484,kallum_motion_pilot,2023.1.2,Win32,145.1800232,5dec6a96da522335df62a1b5,656018846682f3df8008bb8f,656019cb9d4ce51e6dabe364,1,134,296,66,1,twoone,,,,,,,,,,,,,,,,,,,,,,,,,,,,,,,,,,,,,,,,,,,,,,,,,,,,,,,,,,,,,,,,,,,,,,,,,,,,,,,,,,,,,
5dec6a96da522335df62a1b5,2023-11-23_22h35.32.484,kallum_motion_pilot,2023.1.2,Win32,145.1800232,5dec6a96da522335df62a1b5,656018846682f3df8008bb8f,656019cb9d4ce51e6dabe364,1,135,297,40,1,onetwo,,,,,,,,,,,,,,,,,,,,,,,,,,,,,,,,,,,,,,,,,,,,,,,,,,,,,,,,,,,,,,,,,,,,,,,,,,,,,,,,,,,,,
5dec6a96da522335df62a1b5,2023-11-23_22h35.32.484,kallum_motion_pilot,2023.1.2,Win32,145.1800232,5dec6a96da522335df62a1b5,656018846682f3df8008bb8f,656019cb9d4ce51e6dabe364,1,136,298,19,1,twofour,,,,,,,,,,,,,,,,,,,,,,,,,,,,,,,,,,,,,,,,,,,,,,,,,,,,,,,,,,,,,,,,,,,,,,,,,,,,,,,,,,,,,
5dec6a96da522335df62a1b5,2023-11-23_22h35.32.484,kallum_motion_pilot,2023.1.2,Win32,145.1800232,5dec6a96da522335df62a1b5,656018846682f3df8008bb8f,656019cb9d4ce51e6dabe364,1,137,299,52,1,threeone,,,,,,,,,,,,,,,,,,,,,,,,,,,,,,,,,,,,,,,,,,,,,,,,,,,,,,,,,,,,,,,,,,,,,,,,,,,,,,,,,,,,,
5dec6a96da522335df62a1b5,2023-11-23_22h35.32.484,kallum_motion_pilot,2023.1.2,Win32,145.1800232,5dec6a96da522335df62a1b5,656018846682f3df8008bb8f,656019cb9d4ce51e6dabe364,1,138,300,38,1,fourtwo,,,,,,,,,,,,,,,,,,,,,,,,,,,,,,,,,,,,,,,,,,,,,,,,,,,,,,,,,,,,,,,,,,,,,,,,,,,,,,,,,,,,,
5dec6a96da522335df62a1b5,2023-11-23_22h35.32.484,kallum_motion_pilot,2023.1.2,Win32,145.1800232,5dec6a96da522335df62a1b5,656018846682f3df8008bb8f,656019cb9d4ce51e6dabe364,1,139,301,12,1,threeone,,,,,,,,,,,,,,,,,,,,,,,,,,,,,,,,,,,,,,,,,,,,,,,,,,,,,,,,,,,,,,,,,,,,,,,,,,,,,,,,,,,,,
5dec6a96da522335df62a1b5,2023-11-23_22h35.32.484,kallum_motion_pilot,2023.1.2,Win32,145.1800232,5dec6a96da522335df62a1b5,656018846682f3df8008bb8f,656019cb9d4ce51e6dabe364,1,140,302,102,1,eightsix,,,,,,,,,,,,,,,,,,,,,,,,,,,,,,,,,,,,,,,,,,,,,,,,,,,,,,,,,,,,,,,,,,,,,,,,,,,,,,,,,,,,,
5dec6a96da522335df62a1b5,2023-11-23_22h35.32.484,kallum_motion_pilot,2023.1.2,Win32,145.1800232,5dec6a96da522335df62a1b5,656018846682f3df8008bb8f,656019cb9d4ce51e6dabe364,1,141,303,153,1,fiveseven,,,,,,,,,,,,,,,,,,,,,,,,,,,,,,,,,,,,,,,,,,,,,,,,,,,,,,,,,,,,,,,,,,,,,,,,,,,,,,,,,,,,,
5dec6a96da522335df62a1b5,2023-11-23_22h35.32.484,kallum_motion_pilot,2023.1.2,Win32,145.1800232,5dec6a96da522335df62a1b5,656018846682f3df8008bb8f,656019cb9d4ce51e6dabe364,1,142,304,140,1,sevenfive,,,,,,,,,,,,,,,,,,,,,,,,,,,,,,,,,,,,,,,,,,,,,,,,,,,,,,,,,,,,,,,,,,,,,,,,,,,,,,,,,,,,,
5dec6a96da522335df62a1b5,2023-11-23_22h35.32.484,kallum_motion_pilot,2023.1.2,Win32,145.1800232,5dec6a96da522335df62a1b5,656018846682f3df8008bb8f,656019cb9d4ce51e6dabe364,1,143,305,80,1,fivesix,,,,,,,,,,,,,,,,,,,,,,,,,,,,,,,,,,,,,,,,,,,,,,,,,,,,,,,,,,,,,,,,,,,,,,,,,,,,,,,,,,,,,
5dec6a96da522335df62a1b5,2023-11-23_22h35.32.484,kallum_motion_pilot,2023.1.2,Win32,145.1800232,5dec6a96da522335df62a1b5,656018846682f3df8008bb8f,656019cb9d4ce51e6dabe364,1,144,306,100,1,sevenfive,,,,,,,,,,,,,,,,,,,,,,,,,,,,,,,,,,,,,,,,,,,,,,,,,,,,,,,,,,,,,,,,,,,,,,,,,,,,,,,,,,,,,
5dec6a96da522335df62a1b5,2023-11-23_22h35.32.484,kallum_motion_pilot,2023.1.2,Win32,145.1800232,5dec6a96da522335df62a1b5,656018846682f3df8008bb8f,656019cb9d4ce51e6dabe364,1,145,307,150,1,eightsix,,,,,,,,,,,,,,,,,,,,,,,,,,,,,,,,,,,,,,,,,,,,,,,,,,,,,,,,,,,,,,,,,,,,,,,,,,,,,,,,,,,,,
5dec6a96da522335df62a1b5,2023-11-23_22h35.32.484,kallum_motion_pilot,2023.1.2,Win32,145.1800232,5dec6a96da522335df62a1b5,656018846682f3df8008bb8f,656019cb9d4ce51e6dabe364,1,146,308,148,1,sevenfive,,,,,,,,,,,,,,,,,,,,,,,,,,,,,,,,,,,,,,,,,,,,,,,,,,,,,,,,,,,,,,,,,,,,,,,,,,,,,,,,,,,,,
5dec6a96da522335df62a1b5,2023-11-23_22h35.32.484,kallum_motion_pilot,2023.1.2,Win32,145.1800232,5dec6a96da522335df62a1b5,656018846682f3df8008bb8f,656019cb9d4ce51e6dabe364,1,147,309,126,1,eightsix,,,,,,,,,,,,,,,,,,,,,,,,,,,,,,,,,,,,,,,,,,,,,,,,,,,,,,,,,,,,,,,,,,,,,,,,,,,,,,,,,,,,,
5dec6a96da522335df62a1b5,2023-11-23_22h35.32.484,kallum_motion_pilot,2023.1.2,Win32,145.1800232,5dec6a96da522335df62a1b5,656018846682f3df8008bb8f,656019cb9d4ce51e6dabe364,1,148,310,118,1,eightsix,,,,,,,,,,,,,,,,,,,,,,,,,,,,,,,,,,,,,,,,,,,,,,,,,,,,,,,,,,,,,,,,,,,,,,,,,,,,,,,,,,,,,
5dec6a96da522335df62a1b5,2023-11-23_22h35.32.484,kallum_motion_pilot,2023.1.2,Win32,145.1800232,5dec6a96da522335df62a1b5,656018846682f3df8008bb8f,656019cb9d4ce51e6dabe364,1,149,311,25,1,onethree,,,,,,,,,,,,,,,,,,,,,,,,,,,,,,,,,,,,,,,,,,,,,,,,,,,,,,,,,,,,,,,,,,,,,,,,,,,,,,,,,,,,,
5dec6a96da522335df62a1b5,2023-11-23_22h35.32.484,kallum_motion_pilot,2023.1.2,Win32,145.1800232,5dec6a96da522335df62a1b5,656018846682f3df8008bb8f,656019cb9d4ce51e6dabe364,1,150,312,23,1,fourthree,,,,,,,,,,,,,,,,,,,,,,,,,,,,,,,,,,,,,,,,,,,,,,,,,,,,,,,,,,,,,,,,,,,,,,,,,,,,,,,,,,,,,
5dec6a96da522335df62a1b5,2023-11-23_22h35.32.484,kallum_motion_pilot,2023.1.2,Win32,145.1800232,5dec6a96da522335df62a1b5,656018846682f3df8008bb8f,656019cb9d4ce51e6dabe364,1,151,313,144,1,fivesix,,,,,,,,,,,,,,,,,,,,,,,,,,,,,,,,,,,,,,,,,,,,,,,,,,,,,,,,,,,,,,,,,,,,,,,,,,,,,,,,,,,,,
5dec6a96da522335df62a1b5,2023-11-23_22h35.32.484,kallum_motion_pilot,2023.1.2,Win32,145.1800232,5dec6a96da522335df62a1b5,656018846682f3df8008bb8f,656019cb9d4ce51e6dabe364,1,152,314,84,1,sevenfive,,,,,,,,,,,,,,,,,,,,,,,,,,,,,,,,,,,,,,,,,,,,,,,,,,,,,,,,,,,,,,,,,,,,,,,,,,,,,,,,,,,,,
5dec6a96da522335df62a1b5,2023-11-23_22h35.32.484,kallum_motion_pilot,2023.1.2,Win32,145.1800232,5dec6a96da522335df62a1b5,656018846682f3df8008bb8f,656019cb9d4ce51e6dabe364,1,153,315,142,1,eightsix,,,,,,,,,,,,,,,,,,,,,,,,,,,,,,,,,,,,,,,,,,,,,,,,,,,,,,,,,,,,,,,,,,,,,,,,,,,,,,,,,,,,,
5dec6a96da522335df62a1b5,2023-11-23_22h35.32.484,kallum_motion_pilot,2023.1.2,Win32,145.1800232,5dec6a96da522335df62a1b5,656018846682f3df8008bb8f,656019cb9d4ce51e6dabe364,1,154,316,42,1,twoone,,,,,,,,,,,,,,,,,,,,,,,,,,,,,,,,,,,,,,,,,,,,,,,,,,,,,,,,,,,,,,,,,,,,,,,,,,,,,,,,,,,,,
5dec6a96da522335df62a1b5,2023-11-23_22h35.32.484,kallum_motion_pilot,2023.1.2,Win32,145.1800232,5dec6a96da522335df62a1b5,656018846682f3df8008bb8f,656019cb9d4ce51e6dabe364,1,155,317,79,1,eightseven,,,,,,,,,,,,,,,,,,,,,,,,,,,,,,,,,,,,,,,,,,,,,,,,,,,,,,,,,,,,,,,,,,,,,,,,,,,,,,,,,,,,,
5dec6a96da522335df62a1b5,2023-11-23_22h35.32.484,kallum_motion_pilot,2023.1.2,Win32,145.1800232,5dec6a96da522335df62a1b5,656018846682f3df8008bb8f,656019cb9d4ce51e6dabe364,1,156,318,108,1,sevenfive,,,,,,,,,,,,,,,,,,,,,,,,,,,,,,,,,,,,,,,,,,,,,,,,,,,,,,,,,,,,,,,,,,,,,,,,,,,,,,,,,,,,,
5dec6a96da522335df62a1b5,2023-11-23_22h35.32.484,kallum_motion_pilot,2023.1.2,Win32,145.1800232,5dec6a96da522335df62a1b5,656018846682f3df8008bb8f,656019cb9d4ce51e6dabe364,1,157,319,125,1,seveneight,,,,,,,,,,,,,,,,,,,,,,,,,,,,,,,,,,,,,,,,,,,,,,,,,,,,,,,,,,,,,,,,,,,,,,,,,,,,,,,,,,,,,
5dec6a96da522335df62a1b5,2023-11-23_22h35.32.484,kallum_motion_pilot,2023.1.2,Win32,145.1800232,5dec6a96da522335df62a1b5,656018846682f3df8008bb8f,656019cb9d4ce51e6dabe364,1,158,320,81,1,fiveseven,,,,,,,,,,,,,,,,,,,,,,,,,,,,,,,,,,,,,,,,,,,,,,,,,,,,,,,,,,,,,,,,,,,,,,,,,,,,,,,,,,,,,
5dec6a96da522335df62a1b5,2023-11-23_22h35.32.484,kallum_motion_pilot,2023.1.2,Win32,145.1800232,5dec6a96da522335df62a1b5,656018846682f3df8008bb8f,656019cb9d4ce51e6dabe364,1,159,321,105,1,fiveseven,,,,,,,,,,,,,,,,,,,,,,,,,,,,,,,,,,,,,,,,,,,,,,,,,,,,,,,,,,,,,,,,,,,,,,,,,,,,,,,,,,,,,
5dec6a96da522335df62a1b5,2023-11-23_22h35.32.484,kallum_motion_pilot,2023.1.2,Win32,145.1800232,5dec6a96da522335df62a1b5,656018846682f3df8008bb8f,656019cb9d4ce51e6dabe364,1,160,322,27,1,twofour,,,,,,,,,,,,,,,,,,,,,,,,,,,,,,,,,,,,,,,,,,,,,,,,,,,,,,,,,,,,,,,,,,,,,,,,,,,,,,,,,,,,,
5dec6a96da522335df62a1b5,2023-11-23_22h35.32.484,kallum_motion_pilot,2023.1.2,Win32,145.1800232,5dec6a96da522335df62a1b5,656018846682f3df8008bb8f,656019cb9d4ce51e6dabe364,1,161,323,160,1,fivesix,,,,,,,,,,,,,,,,,,,,,,,,,,,,,,,,,,,,,,,,,,,,,,,,,,,,,,,,,,,,,,,,,,,,,,,,,,,,,,,,,,,,,
5dec6a96da522335df62a1b5,2023-11-23_22h35.32.484,kallum_motion_pilot,2023.1.2,Win32,145.1800232,5dec6a96da522335df62a1b5,656018846682f3df8008bb8f,656019cb9d4ce51e6dabe364,2,0,324,104,1,fivesix,,,,,,,,,,,,,,,,,,,,,,,,,,,,,,,,,,,,,,,,,,,,,,,,,,,,,,,,,,,,,,,,,,,,,,,,,,,,,,,,,,,,,
5dec6a96da522335df62a1b5,2023-11-23_22h35.32.484,kallum_motion_pilot,2023.1.2,Win32,145.1800232,5dec6a96da522335df62a1b5,656018846682f3df8008bb8f,656019cb9d4ce51e6dabe364,2,1,325,46,1,fourtwo,,,,,,,,,,,,,,,,,,,,,,,,,,,,,,,,,,,,,,,,,,,,,,,,,,,,,,,,,,,,,,,,,,,,,,,,,,,,,,,,,,,,,
5dec6a96da522335df62a1b5,2023-11-23_22h35.32.484,kallum_motion_pilot,2023.1.2,Win32,145.1800232,5dec6a96da522335df62a1b5,656018846682f3df8008bb8f,656019cb9d4ce51e6dabe364,2,2,326,73,1,onethree,,,,,,,,,,,,,,,,,,,,,,,,,,,,,,,,,,,,,,,,,,,,,,,,,,,,,,,,,,,,,,,,,,,,,,,,,,,,,,,,,,,,,
5dec6a96da522335df62a1b5,2023-11-23_22h35.32.484,kallum_motion_pilot,2023.1.2,Win32,145.1800232,5dec6a96da522335df62a1b5,656018846682f3df8008bb8f,656019cb9d4ce51e6dabe364,2,3,327,55,1,fourthree,,,,,,,,,,,,,,,,,,,,,,,,,,,,,,,,,,,,,,,,,,,,,,,,,,,,,,,,,,,,,,,,,,,,,,,,,,,,,,,,,,,,,
5dec6a96da522335df62a1b5,2023-11-23_22h35.32.484,kallum_motion_pilot,2023.1.2,Win32,145.1800232,5dec6a96da522335df62a1b5,656018846682f3df8008bb8f,656019cb9d4ce51e6dabe364,2,4,328,94,1,eightsix,,,,,,,,,,,,,,,,,,,,,,,,,,,,,,,,,,,,,,,,,,,,,,,,,,,,,,,,,,,,,,,,,,,,,,,,,,,,,,,,,,,,,
5dec6a96da522335df62a1b5,2023-11-23_22h35.32.484,kallum_motion_pilot,2023.1.2,Win32,145.1800232,5dec6a96da522335df62a1b5,656018846682f3df8008bb8f,656019cb9d4ce51e6dabe364,2,5,329,74,1,twoone,,,,,,,,,,,,,,,,,,,,,,,,,,,,,,,,,,,,,,,,,,,,,,,,,,,,,,,,,,,,,,,,,,,,,,,,,,,,,,,,,,,,,
5dec6a96da522335df62a1b5,2023-11-23_22h35.32.484,kallum_motion_pilot,2023.1.2,Win32,145.1800232,5dec6a96da522335df62a1b5,656018846682f3df8008bb8f,656019cb9d4ce51e6dabe364,2,6,330,126,1,eightsix,,,,,,,,,,,,,,,,,,,,,,,,,,,,,,,,,,,,,,,,,,,,,,,,,,,,,,,,,,,,,,,,,,,,,,,,,,,,,,,,,,,,,
5dec6a96da522335df62a1b5,2023-11-23_22h35.32.484,kallum_motion_pilot,2023.1.2,Win32,145.1800232,5dec6a96da522335df62a1b5,656018846682f3df8008bb8f,656019cb9d4ce51e6dabe364,2,7,331,64,1,onetwo,,,,,,,,,,,,,,,,,,,,,,,,,,,,,,,,,,,,,,,,,,,,,,,,,,,,,,,,,,,,,,,,,,,,,,,,,,,,,,,,,,,,,
5dec6a96da522335df62a1b5,2023-11-23_22h35.32.484,kallum_motion_pilot,2023.1.2,Win32,145.1800232,5dec6a96da522335df62a1b5,656018846682f3df8008bb8f,656019cb9d4ce51e6dabe364,2,8,332,147,1,sixeight,,,,,,,,,,,,,,,,,,,,,,,,,,,,,,,,,,,,,,,,,,,,,,,,,,,,,,,,,,,,,,,,,,,,,,,,,,,,,,,,,,,,,
5dec6a96da522335df62a1b5,2023-11-23_22h35.32.484,kallum_motion_pilot,2023.1.2,Win32,145.1800232,5dec6a96da522335df62a1b5,656018846682f3df8008bb8f,656019cb9d4ce51e6dabe364,2,9,333,70,1,fourtwo,,,,,,,,,,,,,,,,,,,,,,,,,,,,,,,,,,,,,,,,,,,,,,,,,,,,,,,,,,,,,,,,,,,,,,,,,,,,,,,,,,,,,
5dec6a96da522335df62a1b5,2023-11-23_22h35.32.484,kallum_motion_pilot,2023.1.2,Win32,145.1800232,5dec6a96da522335df62a1b5,656018846682f3df8008bb8f,656019cb9d4ce51e6dabe364,2,10,334,42,1,twoone,,,,,,,,,,,,,,,,,,,,,,,,,,,,,,,,,,,,,,,,,,,,,,,,,,,,,,,,,,,,,,,,,,,,,,,,,,,,,,,,,,,,,
5dec6a96da522335df62a1b5,2023-11-23_22h35.32.484,kallum_motion_pilot,2023.1.2,Win32,145.1800232,5dec6a96da522335df62a1b5,656018846682f3df8008bb8f,656019cb9d4ce51e6dabe364,2,11,335,155,1,sixeight,,,,,,,,,,,,,,,,,,,,,,,,,,,,,,,,,,,,,,,,,,,,,,,,,,,,,,,,,,,,,,,,,,,,,,,,,,,,,,,,,,,,,
5dec6a96da522335df62a1b5,2023-11-23_22h35.32.484,kallum_motion_pilot,2023.1.2,Win32,145.1800232,5dec6a96da522335df62a1b5,656018846682f3df8008bb8f,656019cb9d4ce51e6dabe364,2,12,336,34,1,twoone,,,,,,,,,,,,,,,,,,,,,,,,,,,,,,,,,,,,,,,,,,,,,,,,,,,,,,,,,,,,,,,,,,,,,,,,,,,,,,,,,,,,,
5dec6a96da522335df62a1b5,2023-11-23_22h35.32.484,kallum_motion_pilot,2023.1.2,Win32,145.1800232,5dec6a96da522335df62a1b5,656018846682f3df8008bb8f,656019cb9d4ce51e6dabe364,2,13,337,159,1,eightseven,,,,,,,,,,,,,,,,,,,,,,,,,,,,,,,,,,,,,,,,,,,,,,,,,,,,,,,,,,,,,,,,,,,,,,,,,,,,,,,,,,,,,
5dec6a96da522335df62a1b5,2023-11-23_22h35.32.484,kallum_motion_pilot,2023.1.2,Win32,145.1800232,5dec6a96da522335df62a1b5,656018846682f3df8008bb8f,656019cb9d4ce51e6dabe364,2,14,338,7,1,fourthree,,,,,,,,,,,,,,,,,,,,,,,,,,,,,,,,,,,,,,,,,,,,,,,,,,,,,,,,,,,,,,,,,,,,,,,,,,,,,,,,,,,,,
5dec6a96da522335df62a1b5,2023-11-23_22h35.32.484,kallum_motion_pilot,2023.1.2,Win32,145.1800232,5dec6a96da522335df62a1b5,656018846682f3df8008bb8f,656019cb9d4ce51e6dabe364,2,15,339,101,1,seveneight,,,,,,,,,,,,,,,,,,,,,,,,,,,,,,,,,,,,,,,,,,,,,,,,,,,,,,,,,,,,,,,,,,,,,,,,,,,,,,,,,,,,,
5dec6a96da522335df62a1b5,2023-11-23_22h35.32.484,kallum_motion_pilot,2023.1.2,Win32,145.1800232,5dec6a96da522335df62a1b5,656018846682f3df8008bb8f,656019cb9d4ce51e6dabe364,2,16,340,19,1,twofour,,,,,,,,,,,,,,,,,,,,,,,,,,,,,,,,,,,,,,,,,,,,,,,,,,,,,,,,,,,,,,,,,,,,,,,,,,,,,,,,,,,,,
5dec6a96da522335df62a1b5,2023-11-23_22h35.32.484,kallum_motion_pilot,2023.1.2,Win32,145.1800232,5dec6a96da522335df62a1b5,656018846682f3df8008bb8f,656019cb9d4ce51e6dabe364,2,17,341,52,1,threeone,,,,,,,,,,,,,,,,,,,,,,,,,,,,,,,,,,,,,,,,,,,,,,,,,,,,,,,,,,,,,,,,,,,,,,,,,,,,,,,,,,,,,
5dec6a96da522335df62a1b5,2023-11-23_22h35.32.484,kallum_motion_pilot,2023.1.2,Win32,145.1800232,5dec6a96da522335df62a1b5,656018846682f3df8008bb8f,656019cb9d4ce51e6dabe364,2,18,342,33,1,onethree,,,,,,,,,,,,,,,,,,,,,,,,,,,,,,,,,,,,,,,,,,,,,,,,,,,,,,,,,,,,,,,,,,,,,,,,,,,,,,,,,,,,,
5dec6a96da522335df62a1b5,2023-11-23_22h35.32.484,kallum_motion_pilot,2023.1.2,Win32,145.1800232,5dec6a96da522335df62a1b5,656018846682f3df8008bb8f,656019cb9d4ce51e6dabe364,2,19,343,123,1,sixeight,,,,,,,,,,,,,,,,,,,,,,,,,,,,,,,,,,,,,,,,,,,,,,,,,,,,,,,,,,,,,,,,,,,,,,,,,,,,,,,,,,,,,
5dec6a96da522335df62a1b5,2023-11-23_22h35.32.484,kallum_motion_pilot,2023.1.2,Win32,145.1800232,5dec6a96da522335df62a1b5,656018846682f3df8008bb8f,656019cb9d4ce51e6dabe364,2,20,344,8,1,onetwo,,,,,,,,,,,,,,,,,,,,,,,,,,,,,,,,,,,,,,,,,,,,,,,,,,,,,,,,,,,,,,,,,,,,,,,,,,,,,,,,,,,,,
5dec6a96da522335df62a1b5,2023-11-23_22h35.32.484,kallum_motion_pilot,2023.1.2,Win32,145.1800232,5dec6a96da522335df62a1b5,656018846682f3df8008bb8f,656019cb9d4ce51e6dabe364,2,21,345,131,1,sixeight,,,,,,,,,,,,,,,,,,,,,,,,,,,,,,,,,,,,,,,,,,,,,,,,,,,,,,,,,,,,,,,,,,,,,,,,,,,,,,,,,,,,,
5dec6a96da522335df62a1b5,2023-11-23_22h35.32.484,kallum_motion_pilot,2023.1.2,Win32,145.1800232,5dec6a96da522335df62a1b5,656018846682f3df8008bb8f,656019cb9d4ce51e6dabe364,2,22,346,14,1,fourtwo,,,,,,,,,,,,,,,,,,,,,,,,,,,,,,,,,,,,,,,,,,,,,,,,,,,,,,,,,,,,,,,,,,,,,,,,,,,,,,,,,,,,,
5dec6a96da522335df62a1b5,2023-11-23_22h35.32.484,kallum_motion_pilot,2023.1.2,Win32,145.1800232,5dec6a96da522335df62a1b5,656018846682f3df8008bb8f,656019cb9d4ce51e6dabe364,2,23,347,134,1,eightsix,,,,,,,,,,,,,,,,,,,,,,,,,,,,,,,,,,,,,,,,,,,,,,,,,,,,,,,,,,,,,,,,,,,,,,,,,,,,,,,,,,,,,
5dec6a96da522335df62a1b5,2023-11-23_22h35.32.484,kallum_motion_pilot,2023.1.2,Win32,145.1800232,5dec6a96da522335df62a1b5,656018846682f3df8008bb8f,656019cb9d4ce51e6dabe364,2,24,348,81,1,fiveseven,,,,,,,,,,,,,,,,,,,,,,,,,,,,,,,,,,,,,,,,,,,,,,,,,,,,,,,,,,,,,,,,,,,,,,,,,,,,,,,,,,,,,
5dec6a96da522335df62a1b5,2023-11-23_22h35.32.484,kallum_motion_pilot,2023.1.2,Win32,145.1800232,5dec6a96da522335df62a1b5,656018846682f3df8008bb8f,656019cb9d4ce51e6dabe364,2,25,349,113,1,fiveseven,,,,,,,,,,,,,,,,,,,,,,,,,,,,,,,,,,,,,,,,,,,,,,,,,,,,,,,,,,,,,,,,,,,,,,,,,,,,,,,,,,,,,
