Prolific_ID*,date,expName,psychopyVersion,OS,frameRate,PROLIFIC_PID,STUDY_ID,SESSION_ID,hardcoded_stimulus_positions.thisRepN,hardcoded_stimulus_positions.thisTrialN,hardcoded_stimulus_positions.thisN,hardcoded_stimulus_positions.thisIndex,hardcoded_stimulus_positions.ran,StimulusPos,prac_stimorientation_import_loop.thisRepN,prac_stimorientation_import_loop.thisTrialN,prac_stimorientation_import_loop.thisN,prac_stimorientation_import_loop.thisIndex,prac_stimorientation_import_loop.ran,Stimorientation,key_resp.keys,key_resp.rt,key_resp_20.keys,key_resp_20.rt,key_resp_19.keys,key_resp_19.rt,key_resp_15.keys,key_resp_15.rt,key_resp_9.keys,key_resp_9.rt,key_resp_10.keys,key_resp_10.rt,Ecc,Circle1_ori,Circle2_ori,similarity,response_time,mouse_5.x,mouse_5.y,mouse_5.leftButton,mouse_5.midButton,mouse_5.rightButton,mouse_5.clicked_name,mouse_6.x,mouse_6.y,mouse_6.leftButton,mouse_6.midButton,mouse_6.rightButton,mouse_6.clicked_name,duringprac.thisRepN,duringprac.thisTrialN,duringprac.thisN,duringprac.thisIndex,duringprac.ran,key_resp_22.keys,key_resp_22.rt,circle1_ori,circle2_ori,mouse.x,mouse.y,mouse.leftButton,mouse.midButton,mouse.rightButton,mouse.clicked_name,mouse_2.x,mouse_2.y,mouse_2.leftButton,mouse_2.midButton,mouse_2.rightButton,mouse_2.clicked_name,mouse_3.x,mouse_3.y,mouse_3.leftButton,mouse_3.midButton,mouse_3.rightButton,catchresponse,catchnumber,response_time_catch,Catch,mouse_11.x,mouse_11.y,mouse_11.leftButton,mouse_11.midButton,mouse_11.rightButton,main_trial.thisRepN,main_trial.thisTrialN,main_trial.thisN,main_trial.thisIndex,main_trial.ran,Orientationtrialno,xcircle1_ori,xcircle2_ori,double_pass.thisRepN,double_pass.thisTrialN,double_pass.thisN,double_pass.thisIndex,double_pass.ran,key_resp_3.keys,key_resp_3.rt
5fff0b0bcbc37a5f5928ed26,2023-11-24_04h38.08.890,kallum_motion_pilot,2023.1.2,Win32,59.90176111,5fff0b0bcbc37a5f5928ed26,656018846682f3df8008bb8f,65601a8ab6541fd121ba53b1,,,,,,,,,,,,,,,,,,,,,,,,,,,,,,,,,,,,,,,,,,,,,,,,,,,,,,,,,,,,,,,,,,,,,,,,,,,,,,,,,,,,,,,,,,,
5fff0b0bcbc37a5f5928ed26,2023-11-24_04h38.08.890,kallum_motion_pilot,2023.1.2,Win32,59.90176111,5fff0b0bcbc37a5f5928ed26,656018846682f3df8008bb8f,65601a8ab6541fd121ba53b1,0,0,0,14,1,fourtwo,,,,,,,,,,,,,,,,,,,,,,,,,,,,,,,,,,,,,,,,,,,,,,,,,,,,,,,,,,,,,,,,,,,,,,,,,,,,,,,,,,,,,
5fff0b0bcbc37a5f5928ed26,2023-11-24_04h38.08.890,kallum_motion_pilot,2023.1.2,Win32,59.90176111,5fff0b0bcbc37a5f5928ed26,656018846682f3df8008bb8f,65601a8ab6541fd121ba53b1,0,1,1,68,1,threeone,,,,,,,,,,,,,,,,,,,,,,,,,,,,,,,,,,,,,,,,,,,,,,,,,,,,,,,,,,,,,,,,,,,,,,,,,,,,,,,,,,,,,
5fff0b0bcbc37a5f5928ed26,2023-11-24_04h38.08.890,kallum_motion_pilot,2023.1.2,Win32,59.90176111,5fff0b0bcbc37a5f5928ed26,656018846682f3df8008bb8f,65601a8ab6541fd121ba53b1,0,2,2,9,1,onethree,,,,,,,,,,,,,,,,,,,,,,,,,,,,,,,,,,,,,,,,,,,,,,,,,,,,,,,,,,,,,,,,,,,,,,,,,,,,,,,,,,,,,
5fff0b0bcbc37a5f5928ed26,2023-11-24_04h38.08.890,kallum_motion_pilot,2023.1.2,Win32,59.90176111,5fff0b0bcbc37a5f5928ed26,656018846682f3df8008bb8f,65601a8ab6541fd121ba53b1,0,3,3,75,1,twofour,,,,,,,,,,,,,,,,,,,,,,,,,,,,,,,,,,,,,,,,,,,,,,,,,,,,,,,,,,,,,,,,,,,,,,,,,,,,,,,,,,,,,
5fff0b0bcbc37a5f5928ed26,2023-11-24_04h38.08.890,kallum_motion_pilot,2023.1.2,Win32,59.90176111,5fff0b0bcbc37a5f5928ed26,656018846682f3df8008bb8f,65601a8ab6541fd121ba53b1,0,4,4,81,1,fiveseven,,,,,,,,,,,,,,,,,,,,,,,,,,,,,,,,,,,,,,,,,,,,,,,,,,,,,,,,,,,,,,,,,,,,,,,,,,,,,,,,,,,,,
5fff0b0bcbc37a5f5928ed26,2023-11-24_04h38.08.890,kallum_motion_pilot,2023.1.2,Win32,59.90176111,5fff0b0bcbc37a5f5928ed26,656018846682f3df8008bb8f,65601a8ab6541fd121ba53b1,0,5,5,61,1,threefour,,,,,,,,,,,,,,,,,,,,,,,,,,,,,,,,,,,,,,,,,,,,,,,,,,,,,,,,,,,,,,,,,,,,,,,,,,,,,,,,,,,,,
5fff0b0bcbc37a5f5928ed26,2023-11-24_04h38.08.890,kallum_motion_pilot,2023.1.2,Win32,59.90176111,5fff0b0bcbc37a5f5928ed26,656018846682f3df8008bb8f,65601a8ab6541fd121ba53b1,0,6,6,91,1,sixeight,,,,,,,,,,,,,,,,,,,,,,,,,,,,,,,,,,,,,,,,,,,,,,,,,,,,,,,,,,,,,,,,,,,,,,,,,,,,,,,,,,,,,
5fff0b0bcbc37a5f5928ed26,2023-11-24_04h38.08.890,kallum_motion_pilot,2023.1.2,Win32,59.90176111,5fff0b0bcbc37a5f5928ed26,656018846682f3df8008bb8f,65601a8ab6541fd121ba53b1,0,7,7,60,1,threeone,,,,,,,,,,,,,,,,,,,,,,,,,,,,,,,,,,,,,,,,,,,,,,,,,,,,,,,,,,,,,,,,,,,,,,,,,,,,,,,,,,,,,
5fff0b0bcbc37a5f5928ed26,2023-11-24_04h38.08.890,kallum_motion_pilot,2023.1.2,Win32,59.90176111,5fff0b0bcbc37a5f5928ed26,656018846682f3df8008bb8f,65601a8ab6541fd121ba53b1,0,8,8,20,1,threeone,,,,,,,,,,,,,,,,,,,,,,,,,,,,,,,,,,,,,,,,,,,,,,,,,,,,,,,,,,,,,,,,,,,,,,,,,,,,,,,,,,,,,
5fff0b0bcbc37a5f5928ed26,2023-11-24_04h38.08.890,kallum_motion_pilot,2023.1.2,Win32,59.90176111,5fff0b0bcbc37a5f5928ed26,656018846682f3df8008bb8f,65601a8ab6541fd121ba53b1,0,9,9,48,1,onetwo,,,,,,,,,,,,,,,,,,,,,,,,,,,,,,,,,,,,,,,,,,,,,,,,,,,,,,,,,,,,,,,,,,,,,,,,,,,,,,,,,,,,,
5fff0b0bcbc37a5f5928ed26,2023-11-24_04h38.08.890,kallum_motion_pilot,2023.1.2,Win32,59.90176111,5fff0b0bcbc37a5f5928ed26,656018846682f3df8008bb8f,65601a8ab6541fd121ba53b1,0,10,10,149,1,seveneight,,,,,,,,,,,,,,,,,,,,,,,,,,,,,,,,,,,,,,,,,,,,,,,,,,,,,,,,,,,,,,,,,,,,,,,,,,,,,,,,,,,,,
5fff0b0bcbc37a5f5928ed26,2023-11-24_04h38.08.890,kallum_motion_pilot,2023.1.2,Win32,59.90176111,5fff0b0bcbc37a5f5928ed26,656018846682f3df8008bb8f,65601a8ab6541fd121ba53b1,0,11,11,78,1,fourtwo,,,,,,,,,,,,,,,,,,,,,,,,,,,,,,,,,,,,,,,,,,,,,,,,,,,,,,,,,,,,,,,,,,,,,,,,,,,,,,,,,,,,,
5fff0b0bcbc37a5f5928ed26,2023-11-24_04h38.08.890,kallum_motion_pilot,2023.1.2,Win32,59.90176111,5fff0b0bcbc37a5f5928ed26,656018846682f3df8008bb8f,65601a8ab6541fd121ba53b1,0,12,12,96,1,fivesix,,,,,,,,,,,,,,,,,,,,,,,,,,,,,,,,,,,,,,,,,,,,,,,,,,,,,,,,,,,,,,,,,,,,,,,,,,,,,,,,,,,,,
5fff0b0bcbc37a5f5928ed26,2023-11-24_04h38.08.890,kallum_motion_pilot,2023.1.2,Win32,59.90176111,5fff0b0bcbc37a5f5928ed26,656018846682f3df8008bb8f,65601a8ab6541fd121ba53b1,0,13,13,157,1,seveneight,,,,,,,,,,,,,,,,,,,,,,,,,,,,,,,,,,,,,,,,,,,,,,,,,,,,,,,,,,,,,,,,,,,,,,,,,,,,,,,,,,,,,
5fff0b0bcbc37a5f5928ed26,2023-11-24_04h38.08.890,kallum_motion_pilot,2023.1.2,Win32,59.90176111,5fff0b0bcbc37a5f5928ed26,656018846682f3df8008bb8f,65601a8ab6541fd121ba53b1,0,14,14,30,1,fourtwo,,,,,,,,,,,,,,,,,,,,,,,,,,,,,,,,,,,,,,,,,,,,,,,,,,,,,,,,,,,,,,,,,,,,,,,,,,,,,,,,,,,,,
5fff0b0bcbc37a5f5928ed26,2023-11-24_04h38.08.890,kallum_motion_pilot,2023.1.2,Win32,59.90176111,5fff0b0bcbc37a5f5928ed26,656018846682f3df8008bb8f,65601a8ab6541fd121ba53b1,0,15,15,151,1,eightseven,,,,,,,,,,,,,,,,,,,,,,,,,,,,,,,,,,,,,,,,,,,,,,,,,,,,,,,,,,,,,,,,,,,,,,,,,,,,,,,,,,,,,
5fff0b0bcbc37a5f5928ed26,2023-11-24_04h38.08.890,kallum_motion_pilot,2023.1.2,Win32,59.90176111,5fff0b0bcbc37a5f5928ed26,656018846682f3df8008bb8f,65601a8ab6541fd121ba53b1,0,16,16,108,1,sevenfive,,,,,,,,,,,,,,,,,,,,,,,,,,,,,,,,,,,,,,,,,,,,,,,,,,,,,,,,,,,,,,,,,,,,,,,,,,,,,,,,,,,,,
5fff0b0bcbc37a5f5928ed26,2023-11-24_04h38.08.890,kallum_motion_pilot,2023.1.2,Win32,59.90176111,5fff0b0bcbc37a5f5928ed26,656018846682f3df8008bb8f,65601a8ab6541fd121ba53b1,0,17,17,131,1,sixeight,,,,,,,,,,,,,,,,,,,,,,,,,,,,,,,,,,,,,,,,,,,,,,,,,,,,,,,,,,,,,,,,,,,,,,,,,,,,,,,,,,,,,
5fff0b0bcbc37a5f5928ed26,2023-11-24_04h38.08.890,kallum_motion_pilot,2023.1.2,Win32,59.90176111,5fff0b0bcbc37a5f5928ed26,656018846682f3df8008bb8f,65601a8ab6541fd121ba53b1,0,18,18,7,1,fourthree,,,,,,,,,,,,,,,,,,,,,,,,,,,,,,,,,,,,,,,,,,,,,,,,,,,,,,,,,,,,,,,,,,,,,,,,,,,,,,,,,,,,,
5fff0b0bcbc37a5f5928ed26,2023-11-24_04h38.08.890,kallum_motion_pilot,2023.1.2,Win32,59.90176111,5fff0b0bcbc37a5f5928ed26,656018846682f3df8008bb8f,65601a8ab6541fd121ba53b1,0,19,19,26,1,twoone,,,,,,,,,,,,,,,,,,,,,,,,,,,,,,,,,,,,,,,,,,,,,,,,,,,,,,,,,,,,,,,,,,,,,,,,,,,,,,,,,,,,,
5fff0b0bcbc37a5f5928ed26,2023-11-24_04h38.08.890,kallum_motion_pilot,2023.1.2,Win32,59.90176111,5fff0b0bcbc37a5f5928ed26,656018846682f3df8008bb8f,65601a8ab6541fd121ba53b1,0,20,20,50,1,twoone,,,,,,,,,,,,,,,,,,,,,,,,,,,,,,,,,,,,,,,,,,,,,,,,,,,,,,,,,,,,,,,,,,,,,,,,,,,,,,,,,,,,,
5fff0b0bcbc37a5f5928ed26,2023-11-24_04h38.08.890,kallum_motion_pilot,2023.1.2,Win32,59.90176111,5fff0b0bcbc37a5f5928ed26,656018846682f3df8008bb8f,65601a8ab6541fd121ba53b1,0,21,21,154,1,sixfive,,,,,,,,,,,,,,,,,,,,,,,,,,,,,,,,,,,,,,,,,,,,,,,,,,,,,,,,,,,,,,,,,,,,,,,,,,,,,,,,,,,,,
5fff0b0bcbc37a5f5928ed26,2023-11-24_04h38.08.890,kallum_motion_pilot,2023.1.2,Win32,59.90176111,5fff0b0bcbc37a5f5928ed26,656018846682f3df8008bb8f,65601a8ab6541fd121ba53b1,0,22,22,139,1,sixeight,,,,,,,,,,,,,,,,,,,,,,,,,,,,,,,,,,,,,,,,,,,,,,,,,,,,,,,,,,,,,,,,,,,,,,,,,,,,,,,,,,,,,
5fff0b0bcbc37a5f5928ed26,2023-11-24_04h38.08.890,kallum_motion_pilot,2023.1.2,Win32,59.90176111,5fff0b0bcbc37a5f5928ed26,656018846682f3df8008bb8f,65601a8ab6541fd121ba53b1,0,23,23,112,1,fivesix,,,,,,,,,,,,,,,,,,,,,,,,,,,,,,,,,,,,,,,,,,,,,,,,,,,,,,,,,,,,,,,,,,,,,,,,,,,,,,,,,,,,,
5fff0b0bcbc37a5f5928ed26,2023-11-24_04h38.08.890,kallum_motion_pilot,2023.1.2,Win32,59.90176111,5fff0b0bcbc37a5f5928ed26,656018846682f3df8008bb8f,65601a8ab6541fd121ba53b1,0,24,24,53,1,threefour,,,,,,,,,,,,,,,,,,,,,,,,,,,,,,,,,,,,,,,,,,,,,,,,,,,,,,,,,,,,,,,,,,,,,,,,,,,,,,,,,,,,,
5fff0b0bcbc37a5f5928ed26,2023-11-24_04h38.08.890,kallum_motion_pilot,2023.1.2,Win32,59.90176111,5fff0b0bcbc37a5f5928ed26,656018846682f3df8008bb8f,65601a8ab6541fd121ba53b1,0,25,25,158,1,eightsix,,,,,,,,,,,,,,,,,,,,,,,,,,,,,,,,,,,,,,,,,,,,,,,,,,,,,,,,,,,,,,,,,,,,,,,,,,,,,,,,,,,,,
5fff0b0bcbc37a5f5928ed26,2023-11-24_04h38.08.890,kallum_motion_pilot,2023.1.2,Win32,59.90176111,5fff0b0bcbc37a5f5928ed26,656018846682f3df8008bb8f,65601a8ab6541fd121ba53b1,0,26,26,89,1,fiveseven,,,,,,,,,,,,,,,,,,,,,,,,,,,,,,,,,,,,,,,,,,,,,,,,,,,,,,,,,,,,,,,,,,,,,,,,,,,,,,,,,,,,,
5fff0b0bcbc37a5f5928ed26,2023-11-24_04h38.08.890,kallum_motion_pilot,2023.1.2,Win32,59.90176111,5fff0b0bcbc37a5f5928ed26,656018846682f3df8008bb8f,65601a8ab6541fd121ba53b1,0,27,27,29,1,threefour,,,,,,,,,,,,,,,,,,,,,,,,,,,,,,,,,,,,,,,,,,,,,,,,,,,,,,,,,,,,,,,,,,,,,,,,,,,,,,,,,,,,,
5fff0b0bcbc37a5f5928ed26,2023-11-24_04h38.08.890,kallum_motion_pilot,2023.1.2,Win32,59.90176111,5fff0b0bcbc37a5f5928ed26,656018846682f3df8008bb8f,65601a8ab6541fd121ba53b1,0,28,28,119,1,eightseven,,,,,,,,,,,,,,,,,,,,,,,,,,,,,,,,,,,,,,,,,,,,,,,,,,,,,,,,,,,,,,,,,,,,,,,,,,,,,,,,,,,,,
5fff0b0bcbc37a5f5928ed26,2023-11-24_04h38.08.890,kallum_motion_pilot,2023.1.2,Win32,59.90176111,5fff0b0bcbc37a5f5928ed26,656018846682f3df8008bb8f,65601a8ab6541fd121ba53b1,0,29,29,145,1,fiveseven,,,,,,,,,,,,,,,,,,,,,,,,,,,,,,,,,,,,,,,,,,,,,,,,,,,,,,,,,,,,,,,,,,,,,,,,,,,,,,,,,,,,,
5fff0b0bcbc37a5f5928ed26,2023-11-24_04h38.08.890,kallum_motion_pilot,2023.1.2,Win32,59.90176111,5fff0b0bcbc37a5f5928ed26,656018846682f3df8008bb8f,65601a8ab6541fd121ba53b1,0,30,30,56,1,onetwo,,,,,,,,,,,,,,,,,,,,,,,,,,,,,,,,,,,,,,,,,,,,,,,,,,,,,,,,,,,,,,,,,,,,,,,,,,,,,,,,,,,,,
5fff0b0bcbc37a5f5928ed26,2023-11-24_04h38.08.890,kallum_motion_pilot,2023.1.2,Win32,59.90176111,5fff0b0bcbc37a5f5928ed26,656018846682f3df8008bb8f,65601a8ab6541fd121ba53b1,0,31,31,67,1,twofour,,,,,,,,,,,,,,,,,,,,,,,,,,,,,,,,,,,,,,,,,,,,,,,,,,,,,,,,,,,,,,,,,,,,,,,,,,,,,,,,,,,,,
5fff0b0bcbc37a5f5928ed26,2023-11-24_04h38.08.890,kallum_motion_pilot,2023.1.2,Win32,59.90176111,5fff0b0bcbc37a5f5928ed26,656018846682f3df8008bb8f,65601a8ab6541fd121ba53b1,0,32,32,22,1,fourtwo,,,,,,,,,,,,,,,,,,,,,,,,,,,,,,,,,,,,,,,,,,,,,,,,,,,,,,,,,,,,,,,,,,,,,,,,,,,,,,,,,,,,,
5fff0b0bcbc37a5f5928ed26,2023-11-24_04h38.08.890,kallum_motion_pilot,2023.1.2,Win32,59.90176111,5fff0b0bcbc37a5f5928ed26,656018846682f3df8008bb8f,65601a8ab6541fd121ba53b1,0,33,33,150,1,eightsix,,,,,,,,,,,,,,,,,,,,,,,,,,,,,,,,,,,,,,,,,,,,,,,,,,,,,,,,,,,,,,,,,,,,,,,,,,,,,,,,,,,,,
5fff0b0bcbc37a5f5928ed26,2023-11-24_04h38.08.890,kallum_motion_pilot,2023.1.2,Win32,59.90176111,5fff0b0bcbc37a5f5928ed26,656018846682f3df8008bb8f,65601a8ab6541fd121ba53b1,0,34,34,4,1,threeone,,,,,,,,,,,,,,,,,,,,,,,,,,,,,,,,,,,,,,,,,,,,,,,,,,,,,,,,,,,,,,,,,,,,,,,,,,,,,,,,,,,,,
5fff0b0bcbc37a5f5928ed26,2023-11-24_04h38.08.890,kallum_motion_pilot,2023.1.2,Win32,59.90176111,5fff0b0bcbc37a5f5928ed26,656018846682f3df8008bb8f,65601a8ab6541fd121ba53b1,0,35,35,64,1,onetwo,,,,,,,,,,,,,,,,,,,,,,,,,,,,,,,,,,,,,,,,,,,,,,,,,,,,,,,,,,,,,,,,,,,,,,,,,,,,,,,,,,,,,
5fff0b0bcbc37a5f5928ed26,2023-11-24_04h38.08.890,kallum_motion_pilot,2023.1.2,Win32,59.90176111,5fff0b0bcbc37a5f5928ed26,656018846682f3df8008bb8f,65601a8ab6541fd121ba53b1,0,36,36,10,1,twoone,,,,,,,,,,,,,,,,,,,,,,,,,,,,,,,,,,,,,,,,,,,,,,,,,,,,,,,,,,,,,,,,,,,,,,,,,,,,,,,,,,,,,
5fff0b0bcbc37a5f5928ed26,2023-11-24_04h38.08.890,kallum_motion_pilot,2023.1.2,Win32,59.90176111,5fff0b0bcbc37a5f5928ed26,656018846682f3df8008bb8f,65601a8ab6541fd121ba53b1,0,37,37,21,1,threefour,,,,,,,,,,,,,,,,,,,,,,,,,,,,,,,,,,,,,,,,,,,,,,,,,,,,,,,,,,,,,,,,,,,,,,,,,,,,,,,,,,,,,
5fff0b0bcbc37a5f5928ed26,2023-11-24_04h38.08.890,kallum_motion_pilot,2023.1.2,Win32,59.90176111,5fff0b0bcbc37a5f5928ed26,656018846682f3df8008bb8f,65601a8ab6541fd121ba53b1,0,38,38,6,1,fourtwo,,,,,,,,,,,,,,,,,,,,,,,,,,,,,,,,,,,,,,,,,,,,,,,,,,,,,,,,,,,,,,,,,,,,,,,,,,,,,,,,,,,,,
5fff0b0bcbc37a5f5928ed26,2023-11-24_04h38.08.890,kallum_motion_pilot,2023.1.2,Win32,59.90176111,5fff0b0bcbc37a5f5928ed26,656018846682f3df8008bb8f,65601a8ab6541fd121ba53b1,0,39,39,35,1,twofour,,,,,,,,,,,,,,,,,,,,,,,,,,,,,,,,,,,,,,,,,,,,,,,,,,,,,,,,,,,,,,,,,,,,,,,,,,,,,,,,,,,,,
5fff0b0bcbc37a5f5928ed26,2023-11-24_04h38.08.890,kallum_motion_pilot,2023.1.2,Win32,59.90176111,5fff0b0bcbc37a5f5928ed26,656018846682f3df8008bb8f,65601a8ab6541fd121ba53b1,0,40,40,140,1,sevenfive,,,,,,,,,,,,,,,,,,,,,,,,,,,,,,,,,,,,,,,,,,,,,,,,,,,,,,,,,,,,,,,,,,,,,,,,,,,,,,,,,,,,,
5fff0b0bcbc37a5f5928ed26,2023-11-24_04h38.08.890,kallum_motion_pilot,2023.1.2,Win32,59.90176111,5fff0b0bcbc37a5f5928ed26,656018846682f3df8008bb8f,65601a8ab6541fd121ba53b1,0,41,41,110,1,eightsix,,,,,,,,,,,,,,,,,,,,,,,,,,,,,,,,,,,,,,,,,,,,,,,,,,,,,,,,,,,,,,,,,,,,,,,,,,,,,,,,,,,,,
5fff0b0bcbc37a5f5928ed26,2023-11-24_04h38.08.890,kallum_motion_pilot,2023.1.2,Win32,59.90176111,5fff0b0bcbc37a5f5928ed26,656018846682f3df8008bb8f,65601a8ab6541fd121ba53b1,0,42,42,33,1,onethree,,,,,,,,,,,,,,,,,,,,,,,,,,,,,,,,,,,,,,,,,,,,,,,,,,,,,,,,,,,,,,,,,,,,,,,,,,,,,,,,,,,,,
5fff0b0bcbc37a5f5928ed26,2023-11-24_04h38.08.890,kallum_motion_pilot,2023.1.2,Win32,59.90176111,5fff0b0bcbc37a5f5928ed26,656018846682f3df8008bb8f,65601a8ab6541fd121ba53b1,0,43,43,0,1,onetwo,,,,,,,,,,,,,,,,,,,,,,,,,,,,,,,,,,,,,,,,,,,,,,,,,,,,,,,,,,,,,,,,,,,,,,,,,,,,,,,,,,,,,
5fff0b0bcbc37a5f5928ed26,2023-11-24_04h38.08.890,kallum_motion_pilot,2023.1.2,Win32,59.90176111,5fff0b0bcbc37a5f5928ed26,656018846682f3df8008bb8f,65601a8ab6541fd121ba53b1,0,44,44,86,1,eightsix,,,,,,,,,,,,,,,,,,,,,,,,,,,,,,,,,,,,,,,,,,,,,,,,,,,,,,,,,,,,,,,,,,,,,,,,,,,,,,,,,,,,,
5fff0b0bcbc37a5f5928ed26,2023-11-24_04h38.08.890,kallum_motion_pilot,2023.1.2,Win32,59.90176111,5fff0b0bcbc37a5f5928ed26,656018846682f3df8008bb8f,65601a8ab6541fd121ba53b1,0,45,45,100,1,sevenfive,,,,,,,,,,,,,,,,,,,,,,,,,,,,,,,,,,,,,,,,,,,,,,,,,,,,,,,,,,,,,,,,,,,,,,,,,,,,,,,,,,,,,
5fff0b0bcbc37a5f5928ed26,2023-11-24_04h38.08.890,kallum_motion_pilot,2023.1.2,Win32,59.90176111,5fff0b0bcbc37a5f5928ed26,656018846682f3df8008bb8f,65601a8ab6541fd121ba53b1,0,46,46,104,1,fivesix,,,,,,,,,,,,,,,,,,,,,,,,,,,,,,,,,,,,,,,,,,,,,,,,,,,,,,,,,,,,,,,,,,,,,,,,,,,,,,,,,,,,,
5fff0b0bcbc37a5f5928ed26,2023-11-24_04h38.08.890,kallum_motion_pilot,2023.1.2,Win32,59.90176111,5fff0b0bcbc37a5f5928ed26,656018846682f3df8008bb8f,65601a8ab6541fd121ba53b1,0,47,47,152,1,fivesix,,,,,,,,,,,,,,,,,,,,,,,,,,,,,,,,,,,,,,,,,,,,,,,,,,,,,,,,,,,,,,,,,,,,,,,,,,,,,,,,,,,,,
5fff0b0bcbc37a5f5928ed26,2023-11-24_04h38.08.890,kallum_motion_pilot,2023.1.2,Win32,59.90176111,5fff0b0bcbc37a5f5928ed26,656018846682f3df8008bb8f,65601a8ab6541fd121ba53b1,0,48,48,125,1,seveneight,,,,,,,,,,,,,,,,,,,,,,,,,,,,,,,,,,,,,,,,,,,,,,,,,,,,,,,,,,,,,,,,,,,,,,,,,,,,,,,,,,,,,
5fff0b0bcbc37a5f5928ed26,2023-11-24_04h38.08.890,kallum_motion_pilot,2023.1.2,Win32,59.90176111,5fff0b0bcbc37a5f5928ed26,656018846682f3df8008bb8f,65601a8ab6541fd121ba53b1,0,49,49,101,1,seveneight,,,,,,,,,,,,,,,,,,,,,,,,,,,,,,,,,,,,,,,,,,,,,,,,,,,,,,,,,,,,,,,,,,,,,,,,,,,,,,,,,,,,,
5fff0b0bcbc37a5f5928ed26,2023-11-24_04h38.08.890,kallum_motion_pilot,2023.1.2,Win32,59.90176111,5fff0b0bcbc37a5f5928ed26,656018846682f3df8008bb8f,65601a8ab6541fd121ba53b1,0,50,50,45,1,threefour,,,,,,,,,,,,,,,,,,,,,,,,,,,,,,,,,,,,,,,,,,,,,,,,,,,,,,,,,,,,,,,,,,,,,,,,,,,,,,,,,,,,,
5fff0b0bcbc37a5f5928ed26,2023-11-24_04h38.08.890,kallum_motion_pilot,2023.1.2,Win32,59.90176111,5fff0b0bcbc37a5f5928ed26,656018846682f3df8008bb8f,65601a8ab6541fd121ba53b1,0,51,51,38,1,fourtwo,,,,,,,,,,,,,,,,,,,,,,,,,,,,,,,,,,,,,,,,,,,,,,,,,,,,,,,,,,,,,,,,,,,,,,,,,,,,,,,,,,,,,
5fff0b0bcbc37a5f5928ed26,2023-11-24_04h38.08.890,kallum_motion_pilot,2023.1.2,Win32,59.90176111,5fff0b0bcbc37a5f5928ed26,656018846682f3df8008bb8f,65601a8ab6541fd121ba53b1,0,52,52,43,1,twofour,,,,,,,,,,,,,,,,,,,,,,,,,,,,,,,,,,,,,,,,,,,,,,,,,,,,,,,,,,,,,,,,,,,,,,,,,,,,,,,,,,,,,
5fff0b0bcbc37a5f5928ed26,2023-11-24_04h38.08.890,kallum_motion_pilot,2023.1.2,Win32,59.90176111,5fff0b0bcbc37a5f5928ed26,656018846682f3df8008bb8f,65601a8ab6541fd121ba53b1,0,53,53,111,1,eightseven,,,,,,,,,,,,,,,,,,,,,,,,,,,,,,,,,,,,,,,,,,,,,,,,,,,,,,,,,,,,,,,,,,,,,,,,,,,,,,,,,,,,,
5fff0b0bcbc37a5f5928ed26,2023-11-24_04h38.08.890,kallum_motion_pilot,2023.1.2,Win32,59.90176111,5fff0b0bcbc37a5f5928ed26,656018846682f3df8008bb8f,65601a8ab6541fd121ba53b1,0,54,54,27,1,twofour,,,,,,,,,,,,,,,,,,,,,,,,,,,,,,,,,,,,,,,,,,,,,,,,,,,,,,,,,,,,,,,,,,,,,,,,,,,,,,,,,,,,,
5fff0b0bcbc37a5f5928ed26,2023-11-24_04h38.08.890,kallum_motion_pilot,2023.1.2,Win32,59.90176111,5fff0b0bcbc37a5f5928ed26,656018846682f3df8008bb8f,65601a8ab6541fd121ba53b1,0,55,55,5,1,threefour,,,,,,,,,,,,,,,,,,,,,,,,,,,,,,,,,,,,,,,,,,,,,,,,,,,,,,,,,,,,,,,,,,,,,,,,,,,,,,,,,,,,,
5fff0b0bcbc37a5f5928ed26,2023-11-24_04h38.08.890,kallum_motion_pilot,2023.1.2,Win32,59.90176111,5fff0b0bcbc37a5f5928ed26,656018846682f3df8008bb8f,65601a8ab6541fd121ba53b1,0,56,56,118,1,eightsix,,,,,,,,,,,,,,,,,,,,,,,,,,,,,,,,,,,,,,,,,,,,,,,,,,,,,,,,,,,,,,,,,,,,,,,,,,,,,,,,,,,,,
5fff0b0bcbc37a5f5928ed26,2023-11-24_04h38.08.890,kallum_motion_pilot,2023.1.2,Win32,59.90176111,5fff0b0bcbc37a5f5928ed26,656018846682f3df8008bb8f,65601a8ab6541fd121ba53b1,0,57,57,74,1,twoone,,,,,,,,,,,,,,,,,,,,,,,,,,,,,,,,,,,,,,,,,,,,,,,,,,,,,,,,,,,,,,,,,,,,,,,,,,,,,,,,,,,,,
5fff0b0bcbc37a5f5928ed26,2023-11-24_04h38.08.890,kallum_motion_pilot,2023.1.2,Win32,59.90176111,5fff0b0bcbc37a5f5928ed26,656018846682f3df8008bb8f,65601a8ab6541fd121ba53b1,0,58,58,161,1,fiveseven,,,,,,,,,,,,,,,,,,,,,,,,,,,,,,,,,,,,,,,,,,,,,,,,,,,,,,,,,,,,,,,,,,,,,,,,,,,,,,,,,,,,,
5fff0b0bcbc37a5f5928ed26,2023-11-24_04h38.08.890,kallum_motion_pilot,2023.1.2,Win32,59.90176111,5fff0b0bcbc37a5f5928ed26,656018846682f3df8008bb8f,65601a8ab6541fd121ba53b1,0,59,59,102,1,eightsix,,,,,,,,,,,,,,,,,,,,,,,,,,,,,,,,,,,,,,,,,,,,,,,,,,,,,,,,,,,,,,,,,,,,,,,,,,,,,,,,,,,,,
5fff0b0bcbc37a5f5928ed26,2023-11-24_04h38.08.890,kallum_motion_pilot,2023.1.2,Win32,59.90176111,5fff0b0bcbc37a5f5928ed26,656018846682f3df8008bb8f,65601a8ab6541fd121ba53b1,0,60,60,59,1,twofour,,,,,,,,,,,,,,,,,,,,,,,,,,,,,,,,,,,,,,,,,,,,,,,,,,,,,,,,,,,,,,,,,,,,,,,,,,,,,,,,,,,,,
5fff0b0bcbc37a5f5928ed26,2023-11-24_04h38.08.890,kallum_motion_pilot,2023.1.2,Win32,59.90176111,5fff0b0bcbc37a5f5928ed26,656018846682f3df8008bb8f,65601a8ab6541fd121ba53b1,0,61,61,132,1,sevenfive,,,,,,,,,,,,,,,,,,,,,,,,,,,,,,,,,,,,,,,,,,,,,,,,,,,,,,,,,,,,,,,,,,,,,,,,,,,,,,,,,,,,,
5fff0b0bcbc37a5f5928ed26,2023-11-24_04h38.08.890,kallum_motion_pilot,2023.1.2,Win32,59.90176111,5fff0b0bcbc37a5f5928ed26,656018846682f3df8008bb8f,65601a8ab6541fd121ba53b1,0,62,62,117,1,seveneight,,,,,,,,,,,,,,,,,,,,,,,,,,,,,,,,,,,,,,,,,,,,,,,,,,,,,,,,,,,,,,,,,,,,,,,,,,,,,,,,,,,,,
5fff0b0bcbc37a5f5928ed26,2023-11-24_04h38.08.890,kallum_motion_pilot,2023.1.2,Win32,59.90176111,5fff0b0bcbc37a5f5928ed26,656018846682f3df8008bb8f,65601a8ab6541fd121ba53b1,0,63,63,39,1,fourthree,,,,,,,,,,,,,,,,,,,,,,,,,,,,,,,,,,,,,,,,,,,,,,,,,,,,,,,,,,,,,,,,,,,,,,,,,,,,,,,,,,,,,
5fff0b0bcbc37a5f5928ed26,2023-11-24_04h38.08.890,kallum_motion_pilot,2023.1.2,Win32,59.90176111,5fff0b0bcbc37a5f5928ed26,656018846682f3df8008bb8f,65601a8ab6541fd121ba53b1,0,64,64,62,1,fourtwo,,,,,,,,,,,,,,,,,,,,,,,,,,,,,,,,,,,,,,,,,,,,,,,,,,,,,,,,,,,,,,,,,,,,,,,,,,,,,,,,,,,,,
5fff0b0bcbc37a5f5928ed26,2023-11-24_04h38.08.890,kallum_motion_pilot,2023.1.2,Win32,59.90176111,5fff0b0bcbc37a5f5928ed26,656018846682f3df8008bb8f,65601a8ab6541fd121ba53b1,0,65,65,107,1,sixeight,,,,,,,,,,,,,,,,,,,,,,,,,,,,,,,,,,,,,,,,,,,,,,,,,,,,,,,,,,,,,,,,,,,,,,,,,,,,,,,,,,,,,
5fff0b0bcbc37a5f5928ed26,2023-11-24_04h38.08.890,kallum_motion_pilot,2023.1.2,Win32,59.90176111,5fff0b0bcbc37a5f5928ed26,656018846682f3df8008bb8f,65601a8ab6541fd121ba53b1,0,66,66,130,1,sixfive,,,,,,,,,,,,,,,,,,,,,,,,,,,,,,,,,,,,,,,,,,,,,,,,,,,,,,,,,,,,,,,,,,,,,,,,,,,,,,,,,,,,,
5fff0b0bcbc37a5f5928ed26,2023-11-24_04h38.08.890,kallum_motion_pilot,2023.1.2,Win32,59.90176111,5fff0b0bcbc37a5f5928ed26,656018846682f3df8008bb8f,65601a8ab6541fd121ba53b1,0,67,67,144,1,fivesix,,,,,,,,,,,,,,,,,,,,,,,,,,,,,,,,,,,,,,,,,,,,,,,,,,,,,,,,,,,,,,,,,,,,,,,,,,,,,,,,,,,,,
5fff0b0bcbc37a5f5928ed26,2023-11-24_04h38.08.890,kallum_motion_pilot,2023.1.2,Win32,59.90176111,5fff0b0bcbc37a5f5928ed26,656018846682f3df8008bb8f,65601a8ab6541fd121ba53b1,0,68,68,3,1,twofour,,,,,,,,,,,,,,,,,,,,,,,,,,,,,,,,,,,,,,,,,,,,,,,,,,,,,,,,,,,,,,,,,,,,,,,,,,,,,,,,,,,,,
5fff0b0bcbc37a5f5928ed26,2023-11-24_04h38.08.890,kallum_motion_pilot,2023.1.2,Win32,59.90176111,5fff0b0bcbc37a5f5928ed26,656018846682f3df8008bb8f,65601a8ab6541fd121ba53b1,0,69,69,134,1,eightsix,,,,,,,,,,,,,,,,,,,,,,,,,,,,,,,,,,,,,,,,,,,,,,,,,,,,,,,,,,,,,,,,,,,,,,,,,,,,,,,,,,,,,
5fff0b0bcbc37a5f5928ed26,2023-11-24_04h38.08.890,kallum_motion_pilot,2023.1.2,Win32,59.90176111,5fff0b0bcbc37a5f5928ed26,656018846682f3df8008bb8f,65601a8ab6541fd121ba53b1,0,70,70,113,1,fiveseven,,,,,,,,,,,,,,,,,,,,,,,,,,,,,,,,,,,,,,,,,,,,,,,,,,,,,,,,,,,,,,,,,,,,,,,,,,,,,,,,,,,,,
5fff0b0bcbc37a5f5928ed26,2023-11-24_04h38.08.890,kallum_motion_pilot,2023.1.2,Win32,59.90176111,5fff0b0bcbc37a5f5928ed26,656018846682f3df8008bb8f,65601a8ab6541fd121ba53b1,0,71,71,95,1,eightseven,,,,,,,,,,,,,,,,,,,,,,,,,,,,,,,,,,,,,,,,,,,,,,,,,,,,,,,,,,,,,,,,,,,,,,,,,,,,,,,,,,,,,
5fff0b0bcbc37a5f5928ed26,2023-11-24_04h38.08.890,kallum_motion_pilot,2023.1.2,Win32,59.90176111,5fff0b0bcbc37a5f5928ed26,656018846682f3df8008bb8f,65601a8ab6541fd121ba53b1,0,72,72,124,1,sevenfive,,,,,,,,,,,,,,,,,,,,,,,,,,,,,,,,,,,,,,,,,,,,,,,,,,,,,,,,,,,,,,,,,,,,,,,,,,,,,,,,,,,,,
5fff0b0bcbc37a5f5928ed26,2023-11-24_04h38.08.890,kallum_motion_pilot,2023.1.2,Win32,59.90176111,5fff0b0bcbc37a5f5928ed26,656018846682f3df8008bb8f,65601a8ab6541fd121ba53b1,0,73,73,36,1,threeone,,,,,,,,,,,,,,,,,,,,,,,,,,,,,,,,,,,,,,,,,,,,,,,,,,,,,,,,,,,,,,,,,,,,,,,,,,,,,,,,,,,,,
5fff0b0bcbc37a5f5928ed26,2023-11-24_04h38.08.890,kallum_motion_pilot,2023.1.2,Win32,59.90176111,5fff0b0bcbc37a5f5928ed26,656018846682f3df8008bb8f,65601a8ab6541fd121ba53b1,0,74,74,55,1,fourthree,,,,,,,,,,,,,,,,,,,,,,,,,,,,,,,,,,,,,,,,,,,,,,,,,,,,,,,,,,,,,,,,,,,,,,,,,,,,,,,,,,,,,
5fff0b0bcbc37a5f5928ed26,2023-11-24_04h38.08.890,kallum_motion_pilot,2023.1.2,Win32,59.90176111,5fff0b0bcbc37a5f5928ed26,656018846682f3df8008bb8f,65601a8ab6541fd121ba53b1,0,75,75,103,1,eightseven,,,,,,,,,,,,,,,,,,,,,,,,,,,,,,,,,,,,,,,,,,,,,,,,,,,,,,,,,,,,,,,,,,,,,,,,,,,,,,,,,,,,,
5fff0b0bcbc37a5f5928ed26,2023-11-24_04h38.08.890,kallum_motion_pilot,2023.1.2,Win32,59.90176111,5fff0b0bcbc37a5f5928ed26,656018846682f3df8008bb8f,65601a8ab6541fd121ba53b1,0,76,76,19,1,twofour,,,,,,,,,,,,,,,,,,,,,,,,,,,,,,,,,,,,,,,,,,,,,,,,,,,,,,,,,,,,,,,,,,,,,,,,,,,,,,,,,,,,,
5fff0b0bcbc37a5f5928ed26,2023-11-24_04h38.08.890,kallum_motion_pilot,2023.1.2,Win32,59.90176111,5fff0b0bcbc37a5f5928ed26,656018846682f3df8008bb8f,65601a8ab6541fd121ba53b1,0,77,77,153,1,fiveseven,,,,,,,,,,,,,,,,,,,,,,,,,,,,,,,,,,,,,,,,,,,,,,,,,,,,,,,,,,,,,,,,,,,,,,,,,,,,,,,,,,,,,
5fff0b0bcbc37a5f5928ed26,2023-11-24_04h38.08.890,kallum_motion_pilot,2023.1.2,Win32,59.90176111,5fff0b0bcbc37a5f5928ed26,656018846682f3df8008bb8f,65601a8ab6541fd121ba53b1,0,78,78,24,1,onetwo,,,,,,,,,,,,,,,,,,,,,,,,,,,,,,,,,,,,,,,,,,,,,,,,,,,,,,,,,,,,,,,,,,,,,,,,,,,,,,,,,,,,,
5fff0b0bcbc37a5f5928ed26,2023-11-24_04h38.08.890,kallum_motion_pilot,2023.1.2,Win32,59.90176111,5fff0b0bcbc37a5f5928ed26,656018846682f3df8008bb8f,65601a8ab6541fd121ba53b1,0,79,79,85,1,seveneight,,,,,,,,,,,,,,,,,,,,,,,,,,,,,,,,,,,,,,,,,,,,,,,,,,,,,,,,,,,,,,,,,,,,,,,,,,,,,,,,,,,,,
5fff0b0bcbc37a5f5928ed26,2023-11-24_04h38.08.890,kallum_motion_pilot,2023.1.2,Win32,59.90176111,5fff0b0bcbc37a5f5928ed26,656018846682f3df8008bb8f,65601a8ab6541fd121ba53b1,0,80,80,122,1,sixfive,,,,,,,,,,,,,,,,,,,,,,,,,,,,,,,,,,,,,,,,,,,,,,,,,,,,,,,,,,,,,,,,,,,,,,,,,,,,,,,,,,,,,
5fff0b0bcbc37a5f5928ed26,2023-11-24_04h38.08.890,kallum_motion_pilot,2023.1.2,Win32,59.90176111,5fff0b0bcbc37a5f5928ed26,656018846682f3df8008bb8f,65601a8ab6541fd121ba53b1,0,81,81,84,1,sevenfive,,,,,,,,,,,,,,,,,,,,,,,,,,,,,,,,,,,,,,,,,,,,,,,,,,,,,,,,,,,,,,,,,,,,,,,,,,,,,,,,,,,,,
5fff0b0bcbc37a5f5928ed26,2023-11-24_04h38.08.890,kallum_motion_pilot,2023.1.2,Win32,59.90176111,5fff0b0bcbc37a5f5928ed26,656018846682f3df8008bb8f,65601a8ab6541fd121ba53b1,0,82,82,12,1,threeone,,,,,,,,,,,,,,,,,,,,,,,,,,,,,,,,,,,,,,,,,,,,,,,,,,,,,,,,,,,,,,,,,,,,,,,,,,,,,,,,,,,,,
5fff0b0bcbc37a5f5928ed26,2023-11-24_04h38.08.890,kallum_motion_pilot,2023.1.2,Win32,59.90176111,5fff0b0bcbc37a5f5928ed26,656018846682f3df8008bb8f,65601a8ab6541fd121ba53b1,0,83,83,73,1,onethree,,,,,,,,,,,,,,,,,,,,,,,,,,,,,,,,,,,,,,,,,,,,,,,,,,,,,,,,,,,,,,,,,,,,,,,,,,,,,,,,,,,,,
5fff0b0bcbc37a5f5928ed26,2023-11-24_04h38.08.890,kallum_motion_pilot,2023.1.2,Win32,59.90176111,5fff0b0bcbc37a5f5928ed26,656018846682f3df8008bb8f,65601a8ab6541fd121ba53b1,0,84,84,90,1,sixfive,,,,,,,,,,,,,,,,,,,,,,,,,,,,,,,,,,,,,,,,,,,,,,,,,,,,,,,,,,,,,,,,,,,,,,,,,,,,,,,,,,,,,
5fff0b0bcbc37a5f5928ed26,2023-11-24_04h38.08.890,kallum_motion_pilot,2023.1.2,Win32,59.90176111,5fff0b0bcbc37a5f5928ed26,656018846682f3df8008bb8f,65601a8ab6541fd121ba53b1,0,85,85,1,1,onethree,,,,,,,,,,,,,,,,,,,,,,,,,,,,,,,,,,,,,,,,,,,,,,,,,,,,,,,,,,,,,,,,,,,,,,,,,,,,,,,,,,,,,
5fff0b0bcbc37a5f5928ed26,2023-11-24_04h38.08.890,kallum_motion_pilot,2023.1.2,Win32,59.90176111,5fff0b0bcbc37a5f5928ed26,656018846682f3df8008bb8f,65601a8ab6541fd121ba53b1,0,86,86,94,1,eightsix,,,,,,,,,,,,,,,,,,,,,,,,,,,,,,,,,,,,,,,,,,,,,,,,,,,,,,,,,,,,,,,,,,,,,,,,,,,,,,,,,,,,,
5fff0b0bcbc37a5f5928ed26,2023-11-24_04h38.08.890,kallum_motion_pilot,2023.1.2,Win32,59.90176111,5fff0b0bcbc37a5f5928ed26,656018846682f3df8008bb8f,65601a8ab6541fd121ba53b1,0,87,87,42,1,twoone,,,,,,,,,,,,,,,,,,,,,,,,,,,,,,,,,,,,,,,,,,,,,,,,,,,,,,,,,,,,,,,,,,,,,,,,,,,,,,,,,,,,,
5fff0b0bcbc37a5f5928ed26,2023-11-24_04h38.08.890,kallum_motion_pilot,2023.1.2,Win32,59.90176111,5fff0b0bcbc37a5f5928ed26,656018846682f3df8008bb8f,65601a8ab6541fd121ba53b1,0,88,88,106,1,sixfive,,,,,,,,,,,,,,,,,,,,,,,,,,,,,,,,,,,,,,,,,,,,,,,,,,,,,,,,,,,,,,,,,,,,,,,,,,,,,,,,,,,,,
5fff0b0bcbc37a5f5928ed26,2023-11-24_04h38.08.890,kallum_motion_pilot,2023.1.2,Win32,59.90176111,5fff0b0bcbc37a5f5928ed26,656018846682f3df8008bb8f,65601a8ab6541fd121ba53b1,0,89,89,160,1,fivesix,,,,,,,,,,,,,,,,,,,,,,,,,,,,,,,,,,,,,,,,,,,,,,,,,,,,,,,,,,,,,,,,,,,,,,,,,,,,,,,,,,,,,
5fff0b0bcbc37a5f5928ed26,2023-11-24_04h38.08.890,kallum_motion_pilot,2023.1.2,Win32,59.90176111,5fff0b0bcbc37a5f5928ed26,656018846682f3df8008bb8f,65601a8ab6541fd121ba53b1,0,90,90,17,1,onethree,,,,,,,,,,,,,,,,,,,,,,,,,,,,,,,,,,,,,,,,,,,,,,,,,,,,,,,,,,,,,,,,,,,,,,,,,,,,,,,,,,,,,
5fff0b0bcbc37a5f5928ed26,2023-11-24_04h38.08.890,kallum_motion_pilot,2023.1.2,Win32,59.90176111,5fff0b0bcbc37a5f5928ed26,656018846682f3df8008bb8f,65601a8ab6541fd121ba53b1,0,91,91,126,1,eightsix,,,,,,,,,,,,,,,,,,,,,,,,,,,,,,,,,,,,,,,,,,,,,,,,,,,,,,,,,,,,,,,,,,,,,,,,,,,,,,,,,,,,,
5fff0b0bcbc37a5f5928ed26,2023-11-24_04h38.08.890,kallum_motion_pilot,2023.1.2,Win32,59.90176111,5fff0b0bcbc37a5f5928ed26,656018846682f3df8008bb8f,65601a8ab6541fd121ba53b1,0,92,92,71,1,fourthree,,,,,,,,,,,,,,,,,,,,,,,,,,,,,,,,,,,,,,,,,,,,,,,,,,,,,,,,,,,,,,,,,,,,,,,,,,,,,,,,,,,,,
5fff0b0bcbc37a5f5928ed26,2023-11-24_04h38.08.890,kallum_motion_pilot,2023.1.2,Win32,59.90176111,5fff0b0bcbc37a5f5928ed26,656018846682f3df8008bb8f,65601a8ab6541fd121ba53b1,0,93,93,15,1,fourthree,,,,,,,,,,,,,,,,,,,,,,,,,,,,,,,,,,,,,,,,,,,,,,,,,,,,,,,,,,,,,,,,,,,,,,,,,,,,,,,,,,,,,
5fff0b0bcbc37a5f5928ed26,2023-11-24_04h38.08.890,kallum_motion_pilot,2023.1.2,Win32,59.90176111,5fff0b0bcbc37a5f5928ed26,656018846682f3df8008bb8f,65601a8ab6541fd121ba53b1,0,94,94,147,1,sixeight,,,,,,,,,,,,,,,,,,,,,,,,,,,,,,,,,,,,,,,,,,,,,,,,,,,,,,,,,,,,,,,,,,,,,,,,,,,,,,,,,,,,,
5fff0b0bcbc37a5f5928ed26,2023-11-24_04h38.08.890,kallum_motion_pilot,2023.1.2,Win32,59.90176111,5fff0b0bcbc37a5f5928ed26,656018846682f3df8008bb8f,65601a8ab6541fd121ba53b1,0,95,95,137,1,fiveseven,,,,,,,,,,,,,,,,,,,,,,,,,,,,,,,,,,,,,,,,,,,,,,,,,,,,,,,,,,,,,,,,,,,,,,,,,,,,,,,,,,,,,
5fff0b0bcbc37a5f5928ed26,2023-11-24_04h38.08.890,kallum_motion_pilot,2023.1.2,Win32,59.90176111,5fff0b0bcbc37a5f5928ed26,656018846682f3df8008bb8f,65601a8ab6541fd121ba53b1,0,96,96,25,1,onethree,,,,,,,,,,,,,,,,,,,,,,,,,,,,,,,,,,,,,,,,,,,,,,,,,,,,,,,,,,,,,,,,,,,,,,,,,,,,,,,,,,,,,
5fff0b0bcbc37a5f5928ed26,2023-11-24_04h38.08.890,kallum_motion_pilot,2023.1.2,Win32,59.90176111,5fff0b0bcbc37a5f5928ed26,656018846682f3df8008bb8f,65601a8ab6541fd121ba53b1,0,97,97,57,1,onethree,,,,,,,,,,,,,,,,,,,,,,,,,,,,,,,,,,,,,,,,,,,,,,,,,,,,,,,,,,,,,,,,,,,,,,,,,,,,,,,,,,,,,
5fff0b0bcbc37a5f5928ed26,2023-11-24_04h38.08.890,kallum_motion_pilot,2023.1.2,Win32,59.90176111,5fff0b0bcbc37a5f5928ed26,656018846682f3df8008bb8f,65601a8ab6541fd121ba53b1,0,98,98,83,1,sixeight,,,,,,,,,,,,,,,,,,,,,,,,,,,,,,,,,,,,,,,,,,,,,,,,,,,,,,,,,,,,,,,,,,,,,,,,,,,,,,,,,,,,,
5fff0b0bcbc37a5f5928ed26,2023-11-24_04h38.08.890,kallum_motion_pilot,2023.1.2,Win32,59.90176111,5fff0b0bcbc37a5f5928ed26,656018846682f3df8008bb8f,65601a8ab6541fd121ba53b1,0,99,99,54,1,fourtwo,,,,,,,,,,,,,,,,,,,,,,,,,,,,,,,,,,,,,,,,,,,,,,,,,,,,,,,,,,,,,,,,,,,,,,,,,,,,,,,,,,,,,
5fff0b0bcbc37a5f5928ed26,2023-11-24_04h38.08.890,kallum_motion_pilot,2023.1.2,Win32,59.90176111,5fff0b0bcbc37a5f5928ed26,656018846682f3df8008bb8f,65601a8ab6541fd121ba53b1,0,100,100,13,1,threefour,,,,,,,,,,,,,,,,,,,,,,,,,,,,,,,,,,,,,,,,,,,,,,,,,,,,,,,,,,,,,,,,,,,,,,,,,,,,,,,,,,,,,
5fff0b0bcbc37a5f5928ed26,2023-11-24_04h38.08.890,kallum_motion_pilot,2023.1.2,Win32,59.90176111,5fff0b0bcbc37a5f5928ed26,656018846682f3df8008bb8f,65601a8ab6541fd121ba53b1,0,101,101,98,1,sixfive,,,,,,,,,,,,,,,,,,,,,,,,,,,,,,,,,,,,,,,,,,,,,,,,,,,,,,,,,,,,,,,,,,,,,,,,,,,,,,,,,,,,,
5fff0b0bcbc37a5f5928ed26,2023-11-24_04h38.08.890,kallum_motion_pilot,2023.1.2,Win32,59.90176111,5fff0b0bcbc37a5f5928ed26,656018846682f3df8008bb8f,65601a8ab6541fd121ba53b1,0,102,102,34,1,twoone,,,,,,,,,,,,,,,,,,,,,,,,,,,,,,,,,,,,,,,,,,,,,,,,,,,,,,,,,,,,,,,,,,,,,,,,,,,,,,,,,,,,,
5fff0b0bcbc37a5f5928ed26,2023-11-24_04h38.08.890,kallum_motion_pilot,2023.1.2,Win32,59.90176111,5fff0b0bcbc37a5f5928ed26,656018846682f3df8008bb8f,65601a8ab6541fd121ba53b1,0,103,103,44,1,threeone,,,,,,,,,,,,,,,,,,,,,,,,,,,,,,,,,,,,,,,,,,,,,,,,,,,,,,,,,,,,,,,,,,,,,,,,,,,,,,,,,,,,,
5fff0b0bcbc37a5f5928ed26,2023-11-24_04h38.08.890,kallum_motion_pilot,2023.1.2,Win32,59.90176111,5fff0b0bcbc37a5f5928ed26,656018846682f3df8008bb8f,65601a8ab6541fd121ba53b1,0,104,104,159,1,eightseven,,,,,,,,,,,,,,,,,,,,,,,,,,,,,,,,,,,,,,,,,,,,,,,,,,,,,,,,,,,,,,,,,,,,,,,,,,,,,,,,,,,,,
5fff0b0bcbc37a5f5928ed26,2023-11-24_04h38.08.890,kallum_motion_pilot,2023.1.2,Win32,59.90176111,5fff0b0bcbc37a5f5928ed26,656018846682f3df8008bb8f,65601a8ab6541fd121ba53b1,0,105,105,128,1,fivesix,,,,,,,,,,,,,,,,,,,,,,,,,,,,,,,,,,,,,,,,,,,,,,,,,,,,,,,,,,,,,,,,,,,,,,,,,,,,,,,,,,,,,
5fff0b0bcbc37a5f5928ed26,2023-11-24_04h38.08.890,kallum_motion_pilot,2023.1.2,Win32,59.90176111,5fff0b0bcbc37a5f5928ed26,656018846682f3df8008bb8f,65601a8ab6541fd121ba53b1,0,106,106,41,1,onethree,,,,,,,,,,,,,,,,,,,,,,,,,,,,,,,,,,,,,,,,,,,,,,,,,,,,,,,,,,,,,,,,,,,,,,,,,,,,,,,,,,,,,
5fff0b0bcbc37a5f5928ed26,2023-11-24_04h38.08.890,kallum_motion_pilot,2023.1.2,Win32,59.90176111,5fff0b0bcbc37a5f5928ed26,656018846682f3df8008bb8f,65601a8ab6541fd121ba53b1,0,107,107,16,1,onetwo,,,,,,,,,,,,,,,,,,,,,,,,,,,,,,,,,,,,,,,,,,,,,,,,,,,,,,,,,,,,,,,,,,,,,,,,,,,,,,,,,,,,,
5fff0b0bcbc37a5f5928ed26,2023-11-24_04h38.08.890,kallum_motion_pilot,2023.1.2,Win32,59.90176111,5fff0b0bcbc37a5f5928ed26,656018846682f3df8008bb8f,65601a8ab6541fd121ba53b1,0,108,108,49,1,onethree,,,,,,,,,,,,,,,,,,,,,,,,,,,,,,,,,,,,,,,,,,,,,,,,,,,,,,,,,,,,,,,,,,,,,,,,,,,,,,,,,,,,,
5fff0b0bcbc37a5f5928ed26,2023-11-24_04h38.08.890,kallum_motion_pilot,2023.1.2,Win32,59.90176111,5fff0b0bcbc37a5f5928ed26,656018846682f3df8008bb8f,65601a8ab6541fd121ba53b1,0,109,109,87,1,eightseven,,,,,,,,,,,,,,,,,,,,,,,,,,,,,,,,,,,,,,,,,,,,,,,,,,,,,,,,,,,,,,,,,,,,,,,,,,,,,,,,,,,,,
5fff0b0bcbc37a5f5928ed26,2023-11-24_04h38.08.890,kallum_motion_pilot,2023.1.2,Win32,59.90176111,5fff0b0bcbc37a5f5928ed26,656018846682f3df8008bb8f,65601a8ab6541fd121ba53b1,0,110,110,2,1,twoone,,,,,,,,,,,,,,,,,,,,,,,,,,,,,,,,,,,,,,,,,,,,,,,,,,,,,,,,,,,,,,,,,,,,,,,,,,,,,,,,,,,,,
5fff0b0bcbc37a5f5928ed26,2023-11-24_04h38.08.890,kallum_motion_pilot,2023.1.2,Win32,59.90176111,5fff0b0bcbc37a5f5928ed26,656018846682f3df8008bb8f,65601a8ab6541fd121ba53b1,0,111,111,37,1,threefour,,,,,,,,,,,,,,,,,,,,,,,,,,,,,,,,,,,,,,,,,,,,,,,,,,,,,,,,,,,,,,,,,,,,,,,,,,,,,,,,,,,,,
5fff0b0bcbc37a5f5928ed26,2023-11-24_04h38.08.890,kallum_motion_pilot,2023.1.2,Win32,59.90176111,5fff0b0bcbc37a5f5928ed26,656018846682f3df8008bb8f,65601a8ab6541fd121ba53b1,0,112,112,127,1,eightseven,,,,,,,,,,,,,,,,,,,,,,,,,,,,,,,,,,,,,,,,,,,,,,,,,,,,,,,,,,,,,,,,,,,,,,,,,,,,,,,,,,,,,
5fff0b0bcbc37a5f5928ed26,2023-11-24_04h38.08.890,kallum_motion_pilot,2023.1.2,Win32,59.90176111,5fff0b0bcbc37a5f5928ed26,656018846682f3df8008bb8f,65601a8ab6541fd121ba53b1,0,113,113,148,1,sevenfive,,,,,,,,,,,,,,,,,,,,,,,,,,,,,,,,,,,,,,,,,,,,,,,,,,,,,,,,,,,,,,,,,,,,,,,,,,,,,,,,,,,,,
5fff0b0bcbc37a5f5928ed26,2023-11-24_04h38.08.890,kallum_motion_pilot,2023.1.2,Win32,59.90176111,5fff0b0bcbc37a5f5928ed26,656018846682f3df8008bb8f,65601a8ab6541fd121ba53b1,0,114,114,18,1,twoone,,,,,,,,,,,,,,,,,,,,,,,,,,,,,,,,,,,,,,,,,,,,,,,,,,,,,,,,,,,,,,,,,,,,,,,,,,,,,,,,,,,,,
5fff0b0bcbc37a5f5928ed26,2023-11-24_04h38.08.890,kallum_motion_pilot,2023.1.2,Win32,59.90176111,5fff0b0bcbc37a5f5928ed26,656018846682f3df8008bb8f,65601a8ab6541fd121ba53b1,0,115,115,11,1,twofour,,,,,,,,,,,,,,,,,,,,,,,,,,,,,,,,,,,,,,,,,,,,,,,,,,,,,,,,,,,,,,,,,,,,,,,,,,,,,,,,,,,,,
5fff0b0bcbc37a5f5928ed26,2023-11-24_04h38.08.890,kallum_motion_pilot,2023.1.2,Win32,59.90176111,5fff0b0bcbc37a5f5928ed26,656018846682f3df8008bb8f,65601a8ab6541fd121ba53b1,0,116,116,46,1,fourtwo,,,,,,,,,,,,,,,,,,,,,,,,,,,,,,,,,,,,,,,,,,,,,,,,,,,,,,,,,,,,,,,,,,,,,,,,,,,,,,,,,,,,,
5fff0b0bcbc37a5f5928ed26,2023-11-24_04h38.08.890,kallum_motion_pilot,2023.1.2,Win32,59.90176111,5fff0b0bcbc37a5f5928ed26,656018846682f3df8008bb8f,65601a8ab6541fd121ba53b1,0,117,117,121,1,fiveseven,,,,,,,,,,,,,,,,,,,,,,,,,,,,,,,,,,,,,,,,,,,,,,,,,,,,,,,,,,,,,,,,,,,,,,,,,,,,,,,,,,,,,
5fff0b0bcbc37a5f5928ed26,2023-11-24_04h38.08.890,kallum_motion_pilot,2023.1.2,Win32,59.90176111,5fff0b0bcbc37a5f5928ed26,656018846682f3df8008bb8f,65601a8ab6541fd121ba53b1,0,118,118,116,1,sevenfive,,,,,,,,,,,,,,,,,,,,,,,,,,,,,,,,,,,,,,,,,,,,,,,,,,,,,,,,,,,,,,,,,,,,,,,,,,,,,,,,,,,,,
5fff0b0bcbc37a5f5928ed26,2023-11-24_04h38.08.890,kallum_motion_pilot,2023.1.2,Win32,59.90176111,5fff0b0bcbc37a5f5928ed26,656018846682f3df8008bb8f,65601a8ab6541fd121ba53b1,0,119,119,142,1,eightsix,,,,,,,,,,,,,,,,,,,,,,,,,,,,,,,,,,,,,,,,,,,,,,,,,,,,,,,,,,,,,,,,,,,,,,,,,,,,,,,,,,,,,
5fff0b0bcbc37a5f5928ed26,2023-11-24_04h38.08.890,kallum_motion_pilot,2023.1.2,Win32,59.90176111,5fff0b0bcbc37a5f5928ed26,656018846682f3df8008bb8f,65601a8ab6541fd121ba53b1,0,120,120,70,1,fourtwo,,,,,,,,,,,,,,,,,,,,,,,,,,,,,,,,,,,,,,,,,,,,,,,,,,,,,,,,,,,,,,,,,,,,,,,,,,,,,,,,,,,,,
5fff0b0bcbc37a5f5928ed26,2023-11-24_04h38.08.890,kallum_motion_pilot,2023.1.2,Win32,59.90176111,5fff0b0bcbc37a5f5928ed26,656018846682f3df8008bb8f,65601a8ab6541fd121ba53b1,0,121,121,28,1,threeone,,,,,,,,,,,,,,,,,,,,,,,,,,,,,,,,,,,,,,,,,,,,,,,,,,,,,,,,,,,,,,,,,,,,,,,,,,,,,,,,,,,,,
5fff0b0bcbc37a5f5928ed26,2023-11-24_04h38.08.890,kallum_motion_pilot,2023.1.2,Win32,59.90176111,5fff0b0bcbc37a5f5928ed26,656018846682f3df8008bb8f,65601a8ab6541fd121ba53b1,0,122,122,69,1,threefour,,,,,,,,,,,,,,,,,,,,,,,,,,,,,,,,,,,,,,,,,,,,,,,,,,,,,,,,,,,,,,,,,,,,,,,,,,,,,,,,,,,,,
5fff0b0bcbc37a5f5928ed26,2023-11-24_04h38.08.890,kallum_motion_pilot,2023.1.2,Win32,59.90176111,5fff0b0bcbc37a5f5928ed26,656018846682f3df8008bb8f,65601a8ab6541fd121ba53b1,0,123,123,146,1,sixfive,,,,,,,,,,,,,,,,,,,,,,,,,,,,,,,,,,,,,,,,,,,,,,,,,,,,,,,,,,,,,,,,,,,,,,,,,,,,,,,,,,,,,
5fff0b0bcbc37a5f5928ed26,2023-11-24_04h38.08.890,kallum_motion_pilot,2023.1.2,Win32,59.90176111,5fff0b0bcbc37a5f5928ed26,656018846682f3df8008bb8f,65601a8ab6541fd121ba53b1,0,124,124,31,1,fourthree,,,,,,,,,,,,,,,,,,,,,,,,,,,,,,,,,,,,,,,,,,,,,,,,,,,,,,,,,,,,,,,,,,,,,,,,,,,,,,,,,,,,,
5fff0b0bcbc37a5f5928ed26,2023-11-24_04h38.08.890,kallum_motion_pilot,2023.1.2,Win32,59.90176111,5fff0b0bcbc37a5f5928ed26,656018846682f3df8008bb8f,65601a8ab6541fd121ba53b1,0,125,125,135,1,eightseven,,,,,,,,,,,,,,,,,,,,,,,,,,,,,,,,,,,,,,,,,,,,,,,,,,,,,,,,,,,,,,,,,,,,,,,,,,,,,,,,,,,,,
5fff0b0bcbc37a5f5928ed26,2023-11-24_04h38.08.890,kallum_motion_pilot,2023.1.2,Win32,59.90176111,5fff0b0bcbc37a5f5928ed26,656018846682f3df8008bb8f,65601a8ab6541fd121ba53b1,0,126,126,66,1,twoone,,,,,,,,,,,,,,,,,,,,,,,,,,,,,,,,,,,,,,,,,,,,,,,,,,,,,,,,,,,,,,,,,,,,,,,,,,,,,,,,,,,,,
5fff0b0bcbc37a5f5928ed26,2023-11-24_04h38.08.890,kallum_motion_pilot,2023.1.2,Win32,59.90176111,5fff0b0bcbc37a5f5928ed26,656018846682f3df8008bb8f,65601a8ab6541fd121ba53b1,0,127,127,58,1,twoone,,,,,,,,,,,,,,,,,,,,,,,,,,,,,,,,,,,,,,,,,,,,,,,,,,,,,,,,,,,,,,,,,,,,,,,,,,,,,,,,,,,,,
5fff0b0bcbc37a5f5928ed26,2023-11-24_04h38.08.890,kallum_motion_pilot,2023.1.2,Win32,59.90176111,5fff0b0bcbc37a5f5928ed26,656018846682f3df8008bb8f,65601a8ab6541fd121ba53b1,0,128,128,88,1,fivesix,,,,,,,,,,,,,,,,,,,,,,,,,,,,,,,,,,,,,,,,,,,,,,,,,,,,,,,,,,,,,,,,,,,,,,,,,,,,,,,,,,,,,
5fff0b0bcbc37a5f5928ed26,2023-11-24_04h38.08.890,kallum_motion_pilot,2023.1.2,Win32,59.90176111,5fff0b0bcbc37a5f5928ed26,656018846682f3df8008bb8f,65601a8ab6541fd121ba53b1,0,129,129,156,1,sevenfive,,,,,,,,,,,,,,,,,,,,,,,,,,,,,,,,,,,,,,,,,,,,,,,,,,,,,,,,,,,,,,,,,,,,,,,,,,,,,,,,,,,,,
5fff0b0bcbc37a5f5928ed26,2023-11-24_04h38.08.890,kallum_motion_pilot,2023.1.2,Win32,59.90176111,5fff0b0bcbc37a5f5928ed26,656018846682f3df8008bb8f,65601a8ab6541fd121ba53b1,0,130,130,82,1,sixfive,,,,,,,,,,,,,,,,,,,,,,,,,,,,,,,,,,,,,,,,,,,,,,,,,,,,,,,,,,,,,,,,,,,,,,,,,,,,,,,,,,,,,
5fff0b0bcbc37a5f5928ed26,2023-11-24_04h38.08.890,kallum_motion_pilot,2023.1.2,Win32,59.90176111,5fff0b0bcbc37a5f5928ed26,656018846682f3df8008bb8f,65601a8ab6541fd121ba53b1,0,131,131,136,1,fivesix,,,,,,,,,,,,,,,,,,,,,,,,,,,,,,,,,,,,,,,,,,,,,,,,,,,,,,,,,,,,,,,,,,,,,,,,,,,,,,,,,,,,,
5fff0b0bcbc37a5f5928ed26,2023-11-24_04h38.08.890,kallum_motion_pilot,2023.1.2,Win32,59.90176111,5fff0b0bcbc37a5f5928ed26,656018846682f3df8008bb8f,65601a8ab6541fd121ba53b1,0,132,132,109,1,seveneight,,,,,,,,,,,,,,,,,,,,,,,,,,,,,,,,,,,,,,,,,,,,,,,,,,,,,,,,,,,,,,,,,,,,,,,,,,,,,,,,,,,,,
5fff0b0bcbc37a5f5928ed26,2023-11-24_04h38.08.890,kallum_motion_pilot,2023.1.2,Win32,59.90176111,5fff0b0bcbc37a5f5928ed26,656018846682f3df8008bb8f,65601a8ab6541fd121ba53b1,0,133,133,32,1,onetwo,,,,,,,,,,,,,,,,,,,,,,,,,,,,,,,,,,,,,,,,,,,,,,,,,,,,,,,,,,,,,,,,,,,,,,,,,,,,,,,,,,,,,
5fff0b0bcbc37a5f5928ed26,2023-11-24_04h38.08.890,kallum_motion_pilot,2023.1.2,Win32,59.90176111,5fff0b0bcbc37a5f5928ed26,656018846682f3df8008bb8f,65601a8ab6541fd121ba53b1,0,134,134,105,1,fiveseven,,,,,,,,,,,,,,,,,,,,,,,,,,,,,,,,,,,,,,,,,,,,,,,,,,,,,,,,,,,,,,,,,,,,,,,,,,,,,,,,,,,,,
5fff0b0bcbc37a5f5928ed26,2023-11-24_04h38.08.890,kallum_motion_pilot,2023.1.2,Win32,59.90176111,5fff0b0bcbc37a5f5928ed26,656018846682f3df8008bb8f,65601a8ab6541fd121ba53b1,0,135,135,8,1,onetwo,,,,,,,,,,,,,,,,,,,,,,,,,,,,,,,,,,,,,,,,,,,,,,,,,,,,,,,,,,,,,,,,,,,,,,,,,,,,,,,,,,,,,
5fff0b0bcbc37a5f5928ed26,2023-11-24_04h38.08.890,kallum_motion_pilot,2023.1.2,Win32,59.90176111,5fff0b0bcbc37a5f5928ed26,656018846682f3df8008bb8f,65601a8ab6541fd121ba53b1,0,136,136,23,1,fourthree,,,,,,,,,,,,,,,,,,,,,,,,,,,,,,,,,,,,,,,,,,,,,,,,,,,,,,,,,,,,,,,,,,,,,,,,,,,,,,,,,,,,,
5fff0b0bcbc37a5f5928ed26,2023-11-24_04h38.08.890,kallum_motion_pilot,2023.1.2,Win32,59.90176111,5fff0b0bcbc37a5f5928ed26,656018846682f3df8008bb8f,65601a8ab6541fd121ba53b1,0,137,137,97,1,fiveseven,,,,,,,,,,,,,,,,,,,,,,,,,,,,,,,,,,,,,,,,,,,,,,,,,,,,,,,,,,,,,,,,,,,,,,,,,,,,,,,,,,,,,
5fff0b0bcbc37a5f5928ed26,2023-11-24_04h38.08.890,kallum_motion_pilot,2023.1.2,Win32,59.90176111,5fff0b0bcbc37a5f5928ed26,656018846682f3df8008bb8f,65601a8ab6541fd121ba53b1,0,138,138,141,1,seveneight,,,,,,,,,,,,,,,,,,,,,,,,,,,,,,,,,,,,,,,,,,,,,,,,,,,,,,,,,,,,,,,,,,,,,,,,,,,,,,,,,,,,,
5fff0b0bcbc37a5f5928ed26,2023-11-24_04h38.08.890,kallum_motion_pilot,2023.1.2,Win32,59.90176111,5fff0b0bcbc37a5f5928ed26,656018846682f3df8008bb8f,65601a8ab6541fd121ba53b1,0,139,139,51,1,twofour,,,,,,,,,,,,,,,,,,,,,,,,,,,,,,,,,,,,,,,,,,,,,,,,,,,,,,,,,,,,,,,,,,,,,,,,,,,,,,,,,,,,,
5fff0b0bcbc37a5f5928ed26,2023-11-24_04h38.08.890,kallum_motion_pilot,2023.1.2,Win32,59.90176111,5fff0b0bcbc37a5f5928ed26,656018846682f3df8008bb8f,65601a8ab6541fd121ba53b1,0,140,140,99,1,sixeight,,,,,,,,,,,,,,,,,,,,,,,,,,,,,,,,,,,,,,,,,,,,,,,,,,,,,,,,,,,,,,,,,,,,,,,,,,,,,,,,,,,,,
5fff0b0bcbc37a5f5928ed26,2023-11-24_04h38.08.890,kallum_motion_pilot,2023.1.2,Win32,59.90176111,5fff0b0bcbc37a5f5928ed26,656018846682f3df8008bb8f,65601a8ab6541fd121ba53b1,0,141,141,138,1,sixfive,,,,,,,,,,,,,,,,,,,,,,,,,,,,,,,,,,,,,,,,,,,,,,,,,,,,,,,,,,,,,,,,,,,,,,,,,,,,,,,,,,,,,
5fff0b0bcbc37a5f5928ed26,2023-11-24_04h38.08.890,kallum_motion_pilot,2023.1.2,Win32,59.90176111,5fff0b0bcbc37a5f5928ed26,656018846682f3df8008bb8f,65601a8ab6541fd121ba53b1,0,142,142,123,1,sixeight,,,,,,,,,,,,,,,,,,,,,,,,,,,,,,,,,,,,,,,,,,,,,,,,,,,,,,,,,,,,,,,,,,,,,,,,,,,,,,,,,,,,,
5fff0b0bcbc37a5f5928ed26,2023-11-24_04h38.08.890,kallum_motion_pilot,2023.1.2,Win32,59.90176111,5fff0b0bcbc37a5f5928ed26,656018846682f3df8008bb8f,65601a8ab6541fd121ba53b1,0,143,143,52,1,threeone,,,,,,,,,,,,,,,,,,,,,,,,,,,,,,,,,,,,,,,,,,,,,,,,,,,,,,,,,,,,,,,,,,,,,,,,,,,,,,,,,,,,,
5fff0b0bcbc37a5f5928ed26,2023-11-24_04h38.08.890,kallum_motion_pilot,2023.1.2,Win32,59.90176111,5fff0b0bcbc37a5f5928ed26,656018846682f3df8008bb8f,65601a8ab6541fd121ba53b1,0,144,144,47,1,fourthree,,,,,,,,,,,,,,,,,,,,,,,,,,,,,,,,,,,,,,,,,,,,,,,,,,,,,,,,,,,,,,,,,,,,,,,,,,,,,,,,,,,,,
5fff0b0bcbc37a5f5928ed26,2023-11-24_04h38.08.890,kallum_motion_pilot,2023.1.2,Win32,59.90176111,5fff0b0bcbc37a5f5928ed26,656018846682f3df8008bb8f,65601a8ab6541fd121ba53b1,0,145,145,92,1,sevenfive,,,,,,,,,,,,,,,,,,,,,,,,,,,,,,,,,,,,,,,,,,,,,,,,,,,,,,,,,,,,,,,,,,,,,,,,,,,,,,,,,,,,,
5fff0b0bcbc37a5f5928ed26,2023-11-24_04h38.08.890,kallum_motion_pilot,2023.1.2,Win32,59.90176111,5fff0b0bcbc37a5f5928ed26,656018846682f3df8008bb8f,65601a8ab6541fd121ba53b1,0,146,146,133,1,seveneight,,,,,,,,,,,,,,,,,,,,,,,,,,,,,,,,,,,,,,,,,,,,,,,,,,,,,,,,,,,,,,,,,,,,,,,,,,,,,,,,,,,,,
5fff0b0bcbc37a5f5928ed26,2023-11-24_04h38.08.890,kallum_motion_pilot,2023.1.2,Win32,59.90176111,5fff0b0bcbc37a5f5928ed26,656018846682f3df8008bb8f,65601a8ab6541fd121ba53b1,0,147,147,129,1,fiveseven,,,,,,,,,,,,,,,,,,,,,,,,,,,,,,,,,,,,,,,,,,,,,,,,,,,,,,,,,,,,,,,,,,,,,,,,,,,,,,,,,,,,,
5fff0b0bcbc37a5f5928ed26,2023-11-24_04h38.08.890,kallum_motion_pilot,2023.1.2,Win32,59.90176111,5fff0b0bcbc37a5f5928ed26,656018846682f3df8008bb8f,65601a8ab6541fd121ba53b1,0,148,148,76,1,threeone,,,,,,,,,,,,,,,,,,,,,,,,,,,,,,,,,,,,,,,,,,,,,,,,,,,,,,,,,,,,,,,,,,,,,,,,,,,,,,,,,,,,,
5fff0b0bcbc37a5f5928ed26,2023-11-24_04h38.08.890,kallum_motion_pilot,2023.1.2,Win32,59.90176111,5fff0b0bcbc37a5f5928ed26,656018846682f3df8008bb8f,65601a8ab6541fd121ba53b1,0,149,149,115,1,sixeight,,,,,,,,,,,,,,,,,,,,,,,,,,,,,,,,,,,,,,,,,,,,,,,,,,,,,,,,,,,,,,,,,,,,,,,,,,,,,,,,,,,,,
5fff0b0bcbc37a5f5928ed26,2023-11-24_04h38.08.890,kallum_motion_pilot,2023.1.2,Win32,59.90176111,5fff0b0bcbc37a5f5928ed26,656018846682f3df8008bb8f,65601a8ab6541fd121ba53b1,0,150,150,80,1,fivesix,,,,,,,,,,,,,,,,,,,,,,,,,,,,,,,,,,,,,,,,,,,,,,,,,,,,,,,,,,,,,,,,,,,,,,,,,,,,,,,,,,,,,
5fff0b0bcbc37a5f5928ed26,2023-11-24_04h38.08.890,kallum_motion_pilot,2023.1.2,Win32,59.90176111,5fff0b0bcbc37a5f5928ed26,656018846682f3df8008bb8f,65601a8ab6541fd121ba53b1,0,151,151,114,1,sixfive,,,,,,,,,,,,,,,,,,,,,,,,,,,,,,,,,,,,,,,,,,,,,,,,,,,,,,,,,,,,,,,,,,,,,,,,,,,,,,,,,,,,,
5fff0b0bcbc37a5f5928ed26,2023-11-24_04h38.08.890,kallum_motion_pilot,2023.1.2,Win32,59.90176111,5fff0b0bcbc37a5f5928ed26,656018846682f3df8008bb8f,65601a8ab6541fd121ba53b1,0,152,152,40,1,onetwo,,,,,,,,,,,,,,,,,,,,,,,,,,,,,,,,,,,,,,,,,,,,,,,,,,,,,,,,,,,,,,,,,,,,,,,,,,,,,,,,,,,,,
5fff0b0bcbc37a5f5928ed26,2023-11-24_04h38.08.890,kallum_motion_pilot,2023.1.2,Win32,59.90176111,5fff0b0bcbc37a5f5928ed26,656018846682f3df8008bb8f,65601a8ab6541fd121ba53b1,0,153,153,77,1,threefour,,,,,,,,,,,,,,,,,,,,,,,,,,,,,,,,,,,,,,,,,,,,,,,,,,,,,,,,,,,,,,,,,,,,,,,,,,,,,,,,,,,,,
5fff0b0bcbc37a5f5928ed26,2023-11-24_04h38.08.890,kallum_motion_pilot,2023.1.2,Win32,59.90176111,5fff0b0bcbc37a5f5928ed26,656018846682f3df8008bb8f,65601a8ab6541fd121ba53b1,0,154,154,120,1,fivesix,,,,,,,,,,,,,,,,,,,,,,,,,,,,,,,,,,,,,,,,,,,,,,,,,,,,,,,,,,,,,,,,,,,,,,,,,,,,,,,,,,,,,
5fff0b0bcbc37a5f5928ed26,2023-11-24_04h38.08.890,kallum_motion_pilot,2023.1.2,Win32,59.90176111,5fff0b0bcbc37a5f5928ed26,656018846682f3df8008bb8f,65601a8ab6541fd121ba53b1,0,155,155,65,1,onethree,,,,,,,,,,,,,,,,,,,,,,,,,,,,,,,,,,,,,,,,,,,,,,,,,,,,,,,,,,,,,,,,,,,,,,,,,,,,,,,,,,,,,
5fff0b0bcbc37a5f5928ed26,2023-11-24_04h38.08.890,kallum_motion_pilot,2023.1.2,Win32,59.90176111,5fff0b0bcbc37a5f5928ed26,656018846682f3df8008bb8f,65601a8ab6541fd121ba53b1,0,156,156,63,1,fourthree,,,,,,,,,,,,,,,,,,,,,,,,,,,,,,,,,,,,,,,,,,,,,,,,,,,,,,,,,,,,,,,,,,,,,,,,,,,,,,,,,,,,,
5fff0b0bcbc37a5f5928ed26,2023-11-24_04h38.08.890,kallum_motion_pilot,2023.1.2,Win32,59.90176111,5fff0b0bcbc37a5f5928ed26,656018846682f3df8008bb8f,65601a8ab6541fd121ba53b1,0,157,157,72,1,onetwo,,,,,,,,,,,,,,,,,,,,,,,,,,,,,,,,,,,,,,,,,,,,,,,,,,,,,,,,,,,,,,,,,,,,,,,,,,,,,,,,,,,,,
5fff0b0bcbc37a5f5928ed26,2023-11-24_04h38.08.890,kallum_motion_pilot,2023.1.2,Win32,59.90176111,5fff0b0bcbc37a5f5928ed26,656018846682f3df8008bb8f,65601a8ab6541fd121ba53b1,0,158,158,143,1,eightseven,,,,,,,,,,,,,,,,,,,,,,,,,,,,,,,,,,,,,,,,,,,,,,,,,,,,,,,,,,,,,,,,,,,,,,,,,,,,,,,,,,,,,
5fff0b0bcbc37a5f5928ed26,2023-11-24_04h38.08.890,kallum_motion_pilot,2023.1.2,Win32,59.90176111,5fff0b0bcbc37a5f5928ed26,656018846682f3df8008bb8f,65601a8ab6541fd121ba53b1,0,159,159,93,1,seveneight,,,,,,,,,,,,,,,,,,,,,,,,,,,,,,,,,,,,,,,,,,,,,,,,,,,,,,,,,,,,,,,,,,,,,,,,,,,,,,,,,,,,,
5fff0b0bcbc37a5f5928ed26,2023-11-24_04h38.08.890,kallum_motion_pilot,2023.1.2,Win32,59.90176111,5fff0b0bcbc37a5f5928ed26,656018846682f3df8008bb8f,65601a8ab6541fd121ba53b1,0,160,160,79,1,eightseven,,,,,,,,,,,,,,,,,,,,,,,,,,,,,,,,,,,,,,,,,,,,,,,,,,,,,,,,,,,,,,,,,,,,,,,,,,,,,,,,,,,,,
5fff0b0bcbc37a5f5928ed26,2023-11-24_04h38.08.890,kallum_motion_pilot,2023.1.2,Win32,59.90176111,5fff0b0bcbc37a5f5928ed26,656018846682f3df8008bb8f,65601a8ab6541fd121ba53b1,0,161,161,155,1,sixeight,,,,,,,,,,,,,,,,,,,,,,,,,,,,,,,,,,,,,,,,,,,,,,,,,,,,,,,,,,,,,,,,,,,,,,,,,,,,,,,,,,,,,
5fff0b0bcbc37a5f5928ed26,2023-11-24_04h38.08.890,kallum_motion_pilot,2023.1.2,Win32,59.90176111,5fff0b0bcbc37a5f5928ed26,656018846682f3df8008bb8f,65601a8ab6541fd121ba53b1,1,0,162,9,1,onethree,,,,,,,,,,,,,,,,,,,,,,,,,,,,,,,,,,,,,,,,,,,,,,,,,,,,,,,,,,,,,,,,,,,,,,,,,,,,,,,,,,,,,
5fff0b0bcbc37a5f5928ed26,2023-11-24_04h38.08.890,kallum_motion_pilot,2023.1.2,Win32,59.90176111,5fff0b0bcbc37a5f5928ed26,656018846682f3df8008bb8f,65601a8ab6541fd121ba53b1,1,1,163,25,1,onethree,,,,,,,,,,,,,,,,,,,,,,,,,,,,,,,,,,,,,,,,,,,,,,,,,,,,,,,,,,,,,,,,,,,,,,,,,,,,,,,,,,,,,
5fff0b0bcbc37a5f5928ed26,2023-11-24_04h38.08.890,kallum_motion_pilot,2023.1.2,Win32,59.90176111,5fff0b0bcbc37a5f5928ed26,656018846682f3df8008bb8f,65601a8ab6541fd121ba53b1,1,2,164,14,1,fourtwo,,,,,,,,,,,,,,,,,,,,,,,,,,,,,,,,,,,,,,,,,,,,,,,,,,,,,,,,,,,,,,,,,,,,,,,,,,,,,,,,,,,,,
5fff0b0bcbc37a5f5928ed26,2023-11-24_04h38.08.890,kallum_motion_pilot,2023.1.2,Win32,59.90176111,5fff0b0bcbc37a5f5928ed26,656018846682f3df8008bb8f,65601a8ab6541fd121ba53b1,1,3,165,29,1,threefour,,,,,,,,,,,,,,,,,,,,,,,,,,,,,,,,,,,,,,,,,,,,,,,,,,,,,,,,,,,,,,,,,,,,,,,,,,,,,,,,,,,,,
5fff0b0bcbc37a5f5928ed26,2023-11-24_04h38.08.890,kallum_motion_pilot,2023.1.2,Win32,59.90176111,5fff0b0bcbc37a5f5928ed26,656018846682f3df8008bb8f,65601a8ab6541fd121ba53b1,1,4,166,101,1,seveneight,,,,,,,,,,,,,,,,,,,,,,,,,,,,,,,,,,,,,,,,,,,,,,,,,,,,,,,,,,,,,,,,,,,,,,,,,,,,,,,,,,,,,
5fff0b0bcbc37a5f5928ed26,2023-11-24_04h38.08.890,kallum_motion_pilot,2023.1.2,Win32,59.90176111,5fff0b0bcbc37a5f5928ed26,656018846682f3df8008bb8f,65601a8ab6541fd121ba53b1,1,5,167,115,1,sixeight,,,,,,,,,,,,,,,,,,,,,,,,,,,,,,,,,,,,,,,,,,,,,,,,,,,,,,,,,,,,,,,,,,,,,,,,,,,,,,,,,,,,,
5fff0b0bcbc37a5f5928ed26,2023-11-24_04h38.08.890,kallum_motion_pilot,2023.1.2,Win32,59.90176111,5fff0b0bcbc37a5f5928ed26,656018846682f3df8008bb8f,65601a8ab6541fd121ba53b1,1,6,168,112,1,fivesix,,,,,,,,,,,,,,,,,,,,,,,,,,,,,,,,,,,,,,,,,,,,,,,,,,,,,,,,,,,,,,,,,,,,,,,,,,,,,,,,,,,,,
5fff0b0bcbc37a5f5928ed26,2023-11-24_04h38.08.890,kallum_motion_pilot,2023.1.2,Win32,59.90176111,5fff0b0bcbc37a5f5928ed26,656018846682f3df8008bb8f,65601a8ab6541fd121ba53b1,1,7,169,130,1,sixfive,,,,,,,,,,,,,,,,,,,,,,,,,,,,,,,,,,,,,,,,,,,,,,,,,,,,,,,,,,,,,,,,,,,,,,,,,,,,,,,,,,,,,
5fff0b0bcbc37a5f5928ed26,2023-11-24_04h38.08.890,kallum_motion_pilot,2023.1.2,Win32,59.90176111,5fff0b0bcbc37a5f5928ed26,656018846682f3df8008bb8f,65601a8ab6541fd121ba53b1,1,8,170,107,1,sixeight,,,,,,,,,,,,,,,,,,,,,,,,,,,,,,,,,,,,,,,,,,,,,,,,,,,,,,,,,,,,,,,,,,,,,,,,,,,,,,,,,,,,,
5fff0b0bcbc37a5f5928ed26,2023-11-24_04h38.08.890,kallum_motion_pilot,2023.1.2,Win32,59.90176111,5fff0b0bcbc37a5f5928ed26,656018846682f3df8008bb8f,65601a8ab6541fd121ba53b1,1,9,171,146,1,sixfive,,,,,,,,,,,,,,,,,,,,,,,,,,,,,,,,,,,,,,,,,,,,,,,,,,,,,,,,,,,,,,,,,,,,,,,,,,,,,,,,,,,,,
5fff0b0bcbc37a5f5928ed26,2023-11-24_04h38.08.890,kallum_motion_pilot,2023.1.2,Win32,59.90176111,5fff0b0bcbc37a5f5928ed26,656018846682f3df8008bb8f,65601a8ab6541fd121ba53b1,1,10,172,79,1,eightseven,,,,,,,,,,,,,,,,,,,,,,,,,,,,,,,,,,,,,,,,,,,,,,,,,,,,,,,,,,,,,,,,,,,,,,,,,,,,,,,,,,,,,
5fff0b0bcbc37a5f5928ed26,2023-11-24_04h38.08.890,kallum_motion_pilot,2023.1.2,Win32,59.90176111,5fff0b0bcbc37a5f5928ed26,656018846682f3df8008bb8f,65601a8ab6541fd121ba53b1,1,11,173,17,1,onethree,,,,,,,,,,,,,,,,,,,,,,,,,,,,,,,,,,,,,,,,,,,,,,,,,,,,,,,,,,,,,,,,,,,,,,,,,,,,,,,,,,,,,
5fff0b0bcbc37a5f5928ed26,2023-11-24_04h38.08.890,kallum_motion_pilot,2023.1.2,Win32,59.90176111,5fff0b0bcbc37a5f5928ed26,656018846682f3df8008bb8f,65601a8ab6541fd121ba53b1,1,12,174,96,1,fivesix,,,,,,,,,,,,,,,,,,,,,,,,,,,,,,,,,,,,,,,,,,,,,,,,,,,,,,,,,,,,,,,,,,,,,,,,,,,,,,,,,,,,,
5fff0b0bcbc37a5f5928ed26,2023-11-24_04h38.08.890,kallum_motion_pilot,2023.1.2,Win32,59.90176111,5fff0b0bcbc37a5f5928ed26,656018846682f3df8008bb8f,65601a8ab6541fd121ba53b1,1,13,175,152,1,fivesix,,,,,,,,,,,,,,,,,,,,,,,,,,,,,,,,,,,,,,,,,,,,,,,,,,,,,,,,,,,,,,,,,,,,,,,,,,,,,,,,,,,,,
5fff0b0bcbc37a5f5928ed26,2023-11-24_04h38.08.890,kallum_motion_pilot,2023.1.2,Win32,59.90176111,5fff0b0bcbc37a5f5928ed26,656018846682f3df8008bb8f,65601a8ab6541fd121ba53b1,1,14,176,86,1,eightsix,,,,,,,,,,,,,,,,,,,,,,,,,,,,,,,,,,,,,,,,,,,,,,,,,,,,,,,,,,,,,,,,,,,,,,,,,,,,,,,,,,,,,
5fff0b0bcbc37a5f5928ed26,2023-11-24_04h38.08.890,kallum_motion_pilot,2023.1.2,Win32,59.90176111,5fff0b0bcbc37a5f5928ed26,656018846682f3df8008bb8f,65601a8ab6541fd121ba53b1,1,15,177,1,1,onethree,,,,,,,,,,,,,,,,,,,,,,,,,,,,,,,,,,,,,,,,,,,,,,,,,,,,,,,,,,,,,,,,,,,,,,,,,,,,,,,,,,,,,
5fff0b0bcbc37a5f5928ed26,2023-11-24_04h38.08.890,kallum_motion_pilot,2023.1.2,Win32,59.90176111,5fff0b0bcbc37a5f5928ed26,656018846682f3df8008bb8f,65601a8ab6541fd121ba53b1,1,16,178,145,1,fiveseven,,,,,,,,,,,,,,,,,,,,,,,,,,,,,,,,,,,,,,,,,,,,,,,,,,,,,,,,,,,,,,,,,,,,,,,,,,,,,,,,,,,,,
5fff0b0bcbc37a5f5928ed26,2023-11-24_04h38.08.890,kallum_motion_pilot,2023.1.2,Win32,59.90176111,5fff0b0bcbc37a5f5928ed26,656018846682f3df8008bb8f,65601a8ab6541fd121ba53b1,1,17,179,135,1,eightseven,,,,,,,,,,,,,,,,,,,,,,,,,,,,,,,,,,,,,,,,,,,,,,,,,,,,,,,,,,,,,,,,,,,,,,,,,,,,,,,,,,,,,
5fff0b0bcbc37a5f5928ed26,2023-11-24_04h38.08.890,kallum_motion_pilot,2023.1.2,Win32,59.90176111,5fff0b0bcbc37a5f5928ed26,656018846682f3df8008bb8f,65601a8ab6541fd121ba53b1,1,18,180,122,1,sixfive,,,,,,,,,,,,,,,,,,,,,,,,,,,,,,,,,,,,,,,,,,,,,,,,,,,,,,,,,,,,,,,,,,,,,,,,,,,,,,,,,,,,,
5fff0b0bcbc37a5f5928ed26,2023-11-24_04h38.08.890,kallum_motion_pilot,2023.1.2,Win32,59.90176111,5fff0b0bcbc37a5f5928ed26,656018846682f3df8008bb8f,65601a8ab6541fd121ba53b1,1,19,181,156,1,sevenfive,,,,,,,,,,,,,,,,,,,,,,,,,,,,,,,,,,,,,,,,,,,,,,,,,,,,,,,,,,,,,,,,,,,,,,,,,,,,,,,,,,,,,
5fff0b0bcbc37a5f5928ed26,2023-11-24_04h38.08.890,kallum_motion_pilot,2023.1.2,Win32,59.90176111,5fff0b0bcbc37a5f5928ed26,656018846682f3df8008bb8f,65601a8ab6541fd121ba53b1,1,20,182,72,1,onetwo,,,,,,,,,,,,,,,,,,,,,,,,,,,,,,,,,,,,,,,,,,,,,,,,,,,,,,,,,,,,,,,,,,,,,,,,,,,,,,,,,,,,,
5fff0b0bcbc37a5f5928ed26,2023-11-24_04h38.08.890,kallum_motion_pilot,2023.1.2,Win32,59.90176111,5fff0b0bcbc37a5f5928ed26,656018846682f3df8008bb8f,65601a8ab6541fd121ba53b1,1,21,183,74,1,twoone,,,,,,,,,,,,,,,,,,,,,,,,,,,,,,,,,,,,,,,,,,,,,,,,,,,,,,,,,,,,,,,,,,,,,,,,,,,,,,,,,,,,,
5fff0b0bcbc37a5f5928ed26,2023-11-24_04h38.08.890,kallum_motion_pilot,2023.1.2,Win32,59.90176111,5fff0b0bcbc37a5f5928ed26,656018846682f3df8008bb8f,65601a8ab6541fd121ba53b1,1,22,184,154,1,sixfive,,,,,,,,,,,,,,,,,,,,,,,,,,,,,,,,,,,,,,,,,,,,,,,,,,,,,,,,,,,,,,,,,,,,,,,,,,,,,,,,,,,,,
5fff0b0bcbc37a5f5928ed26,2023-11-24_04h38.08.890,kallum_motion_pilot,2023.1.2,Win32,59.90176111,5fff0b0bcbc37a5f5928ed26,656018846682f3df8008bb8f,65601a8ab6541fd121ba53b1,1,23,185,24,1,onetwo,,,,,,,,,,,,,,,,,,,,,,,,,,,,,,,,,,,,,,,,,,,,,,,,,,,,,,,,,,,,,,,,,,,,,,,,,,,,,,,,,,,,,
5fff0b0bcbc37a5f5928ed26,2023-11-24_04h38.08.890,kallum_motion_pilot,2023.1.2,Win32,59.90176111,5fff0b0bcbc37a5f5928ed26,656018846682f3df8008bb8f,65601a8ab6541fd121ba53b1,1,24,186,137,1,fiveseven,,,,,,,,,,,,,,,,,,,,,,,,,,,,,,,,,,,,,,,,,,,,,,,,,,,,,,,,,,,,,,,,,,,,,,,,,,,,,,,,,,,,,
5fff0b0bcbc37a5f5928ed26,2023-11-24_04h38.08.890,kallum_motion_pilot,2023.1.2,Win32,59.90176111,5fff0b0bcbc37a5f5928ed26,656018846682f3df8008bb8f,65601a8ab6541fd121ba53b1,1,25,187,88,1,fivesix,,,,,,,,,,,,,,,,,,,,,,,,,,,,,,,,,,,,,,,,,,,,,,,,,,,,,,,,,,,,,,,,,,,,,,,,,,,,,,,,,,,,,
5fff0b0bcbc37a5f5928ed26,2023-11-24_04h38.08.890,kallum_motion_pilot,2023.1.2,Win32,59.90176111,5fff0b0bcbc37a5f5928ed26,656018846682f3df8008bb8f,65601a8ab6541fd121ba53b1,1,26,188,62,1,fourtwo,,,,,,,,,,,,,,,,,,,,,,,,,,,,,,,,,,,,,,,,,,,,,,,,,,,,,,,,,,,,,,,,,,,,,,,,,,,,,,,,,,,,,
5fff0b0bcbc37a5f5928ed26,2023-11-24_04h38.08.890,kallum_motion_pilot,2023.1.2,Win32,59.90176111,5fff0b0bcbc37a5f5928ed26,656018846682f3df8008bb8f,65601a8ab6541fd121ba53b1,1,27,189,48,1,onetwo,,,,,,,,,,,,,,,,,,,,,,,,,,,,,,,,,,,,,,,,,,,,,,,,,,,,,,,,,,,,,,,,,,,,,,,,,,,,,,,,,,,,,
5fff0b0bcbc37a5f5928ed26,2023-11-24_04h38.08.890,kallum_motion_pilot,2023.1.2,Win32,59.90176111,5fff0b0bcbc37a5f5928ed26,656018846682f3df8008bb8f,65601a8ab6541fd121ba53b1,1,28,190,118,1,eightsix,,,,,,,,,,,,,,,,,,,,,,,,,,,,,,,,,,,,,,,,,,,,,,,,,,,,,,,,,,,,,,,,,,,,,,,,,,,,,,,,,,,,,
5fff0b0bcbc37a5f5928ed26,2023-11-24_04h38.08.890,kallum_motion_pilot,2023.1.2,Win32,59.90176111,5fff0b0bcbc37a5f5928ed26,656018846682f3df8008bb8f,65601a8ab6541fd121ba53b1,1,29,191,2,1,twoone,,,,,,,,,,,,,,,,,,,,,,,,,,,,,,,,,,,,,,,,,,,,,,,,,,,,,,,,,,,,,,,,,,,,,,,,,,,,,,,,,,,,,
5fff0b0bcbc37a5f5928ed26,2023-11-24_04h38.08.890,kallum_motion_pilot,2023.1.2,Win32,59.90176111,5fff0b0bcbc37a5f5928ed26,656018846682f3df8008bb8f,65601a8ab6541fd121ba53b1,1,30,192,8,1,onetwo,,,,,,,,,,,,,,,,,,,,,,,,,,,,,,,,,,,,,,,,,,,,,,,,,,,,,,,,,,,,,,,,,,,,,,,,,,,,,,,,,,,,,
5fff0b0bcbc37a5f5928ed26,2023-11-24_04h38.08.890,kallum_motion_pilot,2023.1.2,Win32,59.90176111,5fff0b0bcbc37a5f5928ed26,656018846682f3df8008bb8f,65601a8ab6541fd121ba53b1,1,31,193,18,1,twoone,,,,,,,,,,,,,,,,,,,,,,,,,,,,,,,,,,,,,,,,,,,,,,,,,,,,,,,,,,,,,,,,,,,,,,,,,,,,,,,,,,,,,
5fff0b0bcbc37a5f5928ed26,2023-11-24_04h38.08.890,kallum_motion_pilot,2023.1.2,Win32,59.90176111,5fff0b0bcbc37a5f5928ed26,656018846682f3df8008bb8f,65601a8ab6541fd121ba53b1,1,32,194,121,1,fiveseven,,,,,,,,,,,,,,,,,,,,,,,,,,,,,,,,,,,,,,,,,,,,,,,,,,,,,,,,,,,,,,,,,,,,,,,,,,,,,,,,,,,,,
5fff0b0bcbc37a5f5928ed26,2023-11-24_04h38.08.890,kallum_motion_pilot,2023.1.2,Win32,59.90176111,5fff0b0bcbc37a5f5928ed26,656018846682f3df8008bb8f,65601a8ab6541fd121ba53b1,1,33,195,23,1,fourthree,,,,,,,,,,,,,,,,,,,,,,,,,,,,,,,,,,,,,,,,,,,,,,,,,,,,,,,,,,,,,,,,,,,,,,,,,,,,,,,,,,,,,
5fff0b0bcbc37a5f5928ed26,2023-11-24_04h38.08.890,kallum_motion_pilot,2023.1.2,Win32,59.90176111,5fff0b0bcbc37a5f5928ed26,656018846682f3df8008bb8f,65601a8ab6541fd121ba53b1,1,34,196,109,1,seveneight,,,,,,,,,,,,,,,,,,,,,,,,,,,,,,,,,,,,,,,,,,,,,,,,,,,,,,,,,,,,,,,,,,,,,,,,,,,,,,,,,,,,,
5fff0b0bcbc37a5f5928ed26,2023-11-24_04h38.08.890,kallum_motion_pilot,2023.1.2,Win32,59.90176111,5fff0b0bcbc37a5f5928ed26,656018846682f3df8008bb8f,65601a8ab6541fd121ba53b1,1,35,197,142,1,eightsix,,,,,,,,,,,,,,,,,,,,,,,,,,,,,,,,,,,,,,,,,,,,,,,,,,,,,,,,,,,,,,,,,,,,,,,,,,,,,,,,,,,,,
5fff0b0bcbc37a5f5928ed26,2023-11-24_04h38.08.890,kallum_motion_pilot,2023.1.2,Win32,59.90176111,5fff0b0bcbc37a5f5928ed26,656018846682f3df8008bb8f,65601a8ab6541fd121ba53b1,1,36,198,111,1,eightseven,,,,,,,,,,,,,,,,,,,,,,,,,,,,,,,,,,,,,,,,,,,,,,,,,,,,,,,,,,,,,,,,,,,,,,,,,,,,,,,,,,,,,
5fff0b0bcbc37a5f5928ed26,2023-11-24_04h38.08.890,kallum_motion_pilot,2023.1.2,Win32,59.90176111,5fff0b0bcbc37a5f5928ed26,656018846682f3df8008bb8f,65601a8ab6541fd121ba53b1,1,37,199,27,1,twofour,,,,,,,,,,,,,,,,,,,,,,,,,,,,,,,,,,,,,,,,,,,,,,,,,,,,,,,,,,,,,,,,,,,,,,,,,,,,,,,,,,,,,
5fff0b0bcbc37a5f5928ed26,2023-11-24_04h38.08.890,kallum_motion_pilot,2023.1.2,Win32,59.90176111,5fff0b0bcbc37a5f5928ed26,656018846682f3df8008bb8f,65601a8ab6541fd121ba53b1,1,38,200,102,1,eightsix,,,,,,,,,,,,,,,,,,,,,,,,,,,,,,,,,,,,,,,,,,,,,,,,,,,,,,,,,,,,,,,,,,,,,,,,,,,,,,,,,,,,,
5fff0b0bcbc37a5f5928ed26,2023-11-24_04h38.08.890,kallum_motion_pilot,2023.1.2,Win32,59.90176111,5fff0b0bcbc37a5f5928ed26,656018846682f3df8008bb8f,65601a8ab6541fd121ba53b1,1,39,201,93,1,seveneight,,,,,,,,,,,,,,,,,,,,,,,,,,,,,,,,,,,,,,,,,,,,,,,,,,,,,,,,,,,,,,,,,,,,,,,,,,,,,,,,,,,,,
5fff0b0bcbc37a5f5928ed26,2023-11-24_04h38.08.890,kallum_motion_pilot,2023.1.2,Win32,59.90176111,5fff0b0bcbc37a5f5928ed26,656018846682f3df8008bb8f,65601a8ab6541fd121ba53b1,1,40,202,136,1,fivesix,,,,,,,,,,,,,,,,,,,,,,,,,,,,,,,,,,,,,,,,,,,,,,,,,,,,,,,,,,,,,,,,,,,,,,,,,,,,,,,,,,,,,
5fff0b0bcbc37a5f5928ed26,2023-11-24_04h38.08.890,kallum_motion_pilot,2023.1.2,Win32,59.90176111,5fff0b0bcbc37a5f5928ed26,656018846682f3df8008bb8f,65601a8ab6541fd121ba53b1,1,41,203,85,1,seveneight,,,,,,,,,,,,,,,,,,,,,,,,,,,,,,,,,,,,,,,,,,,,,,,,,,,,,,,,,,,,,,,,,,,,,,,,,,,,,,,,,,,,,
5fff0b0bcbc37a5f5928ed26,2023-11-24_04h38.08.890,kallum_motion_pilot,2023.1.2,Win32,59.90176111,5fff0b0bcbc37a5f5928ed26,656018846682f3df8008bb8f,65601a8ab6541fd121ba53b1,1,42,204,34,1,twoone,,,,,,,,,,,,,,,,,,,,,,,,,,,,,,,,,,,,,,,,,,,,,,,,,,,,,,,,,,,,,,,,,,,,,,,,,,,,,,,,,,,,,
5fff0b0bcbc37a5f5928ed26,2023-11-24_04h38.08.890,kallum_motion_pilot,2023.1.2,Win32,59.90176111,5fff0b0bcbc37a5f5928ed26,656018846682f3df8008bb8f,65601a8ab6541fd121ba53b1,1,43,205,153,1,fiveseven,,,,,,,,,,,,,,,,,,,,,,,,,,,,,,,,,,,,,,,,,,,,,,,,,,,,,,,,,,,,,,,,,,,,,,,,,,,,,,,,,,,,,
5fff0b0bcbc37a5f5928ed26,2023-11-24_04h38.08.890,kallum_motion_pilot,2023.1.2,Win32,59.90176111,5fff0b0bcbc37a5f5928ed26,656018846682f3df8008bb8f,65601a8ab6541fd121ba53b1,1,44,206,161,1,fiveseven,,,,,,,,,,,,,,,,,,,,,,,,,,,,,,,,,,,,,,,,,,,,,,,,,,,,,,,,,,,,,,,,,,,,,,,,,,,,,,,,,,,,,
5fff0b0bcbc37a5f5928ed26,2023-11-24_04h38.08.890,kallum_motion_pilot,2023.1.2,Win32,59.90176111,5fff0b0bcbc37a5f5928ed26,656018846682f3df8008bb8f,65601a8ab6541fd121ba53b1,1,45,207,49,1,onethree,,,,,,,,,,,,,,,,,,,,,,,,,,,,,,,,,,,,,,,,,,,,,,,,,,,,,,,,,,,,,,,,,,,,,,,,,,,,,,,,,,,,,
5fff0b0bcbc37a5f5928ed26,2023-11-24_04h38.08.890,kallum_motion_pilot,2023.1.2,Win32,59.90176111,5fff0b0bcbc37a5f5928ed26,656018846682f3df8008bb8f,65601a8ab6541fd121ba53b1,1,46,208,53,1,threefour,,,,,,,,,,,,,,,,,,,,,,,,,,,,,,,,,,,,,,,,,,,,,,,,,,,,,,,,,,,,,,,,,,,,,,,,,,,,,,,,,,,,,
5fff0b0bcbc37a5f5928ed26,2023-11-24_04h38.08.890,kallum_motion_pilot,2023.1.2,Win32,59.90176111,5fff0b0bcbc37a5f5928ed26,656018846682f3df8008bb8f,65601a8ab6541fd121ba53b1,1,47,209,134,1,eightsix,,,,,,,,,,,,,,,,,,,,,,,,,,,,,,,,,,,,,,,,,,,,,,,,,,,,,,,,,,,,,,,,,,,,,,,,,,,,,,,,,,,,,
5fff0b0bcbc37a5f5928ed26,2023-11-24_04h38.08.890,kallum_motion_pilot,2023.1.2,Win32,59.90176111,5fff0b0bcbc37a5f5928ed26,656018846682f3df8008bb8f,65601a8ab6541fd121ba53b1,1,48,210,106,1,sixfive,,,,,,,,,,,,,,,,,,,,,,,,,,,,,,,,,,,,,,,,,,,,,,,,,,,,,,,,,,,,,,,,,,,,,,,,,,,,,,,,,,,,,
5fff0b0bcbc37a5f5928ed26,2023-11-24_04h38.08.890,kallum_motion_pilot,2023.1.2,Win32,59.90176111,5fff0b0bcbc37a5f5928ed26,656018846682f3df8008bb8f,65601a8ab6541fd121ba53b1,1,49,211,151,1,eightseven,,,,,,,,,,,,,,,,,,,,,,,,,,,,,,,,,,,,,,,,,,,,,,,,,,,,,,,,,,,,,,,,,,,,,,,,,,,,,,,,,,,,,
5fff0b0bcbc37a5f5928ed26,2023-11-24_04h38.08.890,kallum_motion_pilot,2023.1.2,Win32,59.90176111,5fff0b0bcbc37a5f5928ed26,656018846682f3df8008bb8f,65601a8ab6541fd121ba53b1,1,50,212,90,1,sixfive,,,,,,,,,,,,,,,,,,,,,,,,,,,,,,,,,,,,,,,,,,,,,,,,,,,,,,,,,,,,,,,,,,,,,,,,,,,,,,,,,,,,,
5fff0b0bcbc37a5f5928ed26,2023-11-24_04h38.08.890,kallum_motion_pilot,2023.1.2,Win32,59.90176111,5fff0b0bcbc37a5f5928ed26,656018846682f3df8008bb8f,65601a8ab6541fd121ba53b1,1,51,213,132,1,sevenfive,,,,,,,,,,,,,,,,,,,,,,,,,,,,,,,,,,,,,,,,,,,,,,,,,,,,,,,,,,,,,,,,,,,,,,,,,,,,,,,,,,,,,
5fff0b0bcbc37a5f5928ed26,2023-11-24_04h38.08.890,kallum_motion_pilot,2023.1.2,Win32,59.90176111,5fff0b0bcbc37a5f5928ed26,656018846682f3df8008bb8f,65601a8ab6541fd121ba53b1,1,52,214,20,1,threeone,,,,,,,,,,,,,,,,,,,,,,,,,,,,,,,,,,,,,,,,,,,,,,,,,,,,,,,,,,,,,,,,,,,,,,,,,,,,,,,,,,,,,
5fff0b0bcbc37a5f5928ed26,2023-11-24_04h38.08.890,kallum_motion_pilot,2023.1.2,Win32,59.90176111,5fff0b0bcbc37a5f5928ed26,656018846682f3df8008bb8f,65601a8ab6541fd121ba53b1,1,53,215,125,1,seveneight,,,,,,,,,,,,,,,,,,,,,,,,,,,,,,,,,,,,,,,,,,,,,,,,,,,,,,,,,,,,,,,,,,,,,,,,,,,,,,,,,,,,,
5fff0b0bcbc37a5f5928ed26,2023-11-24_04h38.08.890,kallum_motion_pilot,2023.1.2,Win32,59.90176111,5fff0b0bcbc37a5f5928ed26,656018846682f3df8008bb8f,65601a8ab6541fd121ba53b1,1,54,216,143,1,eightseven,,,,,,,,,,,,,,,,,,,,,,,,,,,,,,,,,,,,,,,,,,,,,,,,,,,,,,,,,,,,,,,,,,,,,,,,,,,,,,,,,,,,,
5fff0b0bcbc37a5f5928ed26,2023-11-24_04h38.08.890,kallum_motion_pilot,2023.1.2,Win32,59.90176111,5fff0b0bcbc37a5f5928ed26,656018846682f3df8008bb8f,65601a8ab6541fd121ba53b1,1,55,217,41,1,onethree,,,,,,,,,,,,,,,,,,,,,,,,,,,,,,,,,,,,,,,,,,,,,,,,,,,,,,,,,,,,,,,,,,,,,,,,,,,,,,,,,,,,,
5fff0b0bcbc37a5f5928ed26,2023-11-24_04h38.08.890,kallum_motion_pilot,2023.1.2,Win32,59.90176111,5fff0b0bcbc37a5f5928ed26,656018846682f3df8008bb8f,65601a8ab6541fd121ba53b1,1,56,218,97,1,fiveseven,,,,,,,,,,,,,,,,,,,,,,,,,,,,,,,,,,,,,,,,,,,,,,,,,,,,,,,,,,,,,,,,,,,,,,,,,,,,,,,,,,,,,
5fff0b0bcbc37a5f5928ed26,2023-11-24_04h38.08.890,kallum_motion_pilot,2023.1.2,Win32,59.90176111,5fff0b0bcbc37a5f5928ed26,656018846682f3df8008bb8f,65601a8ab6541fd121ba53b1,1,57,219,64,1,onetwo,,,,,,,,,,,,,,,,,,,,,,,,,,,,,,,,,,,,,,,,,,,,,,,,,,,,,,,,,,,,,,,,,,,,,,,,,,,,,,,,,,,,,
5fff0b0bcbc37a5f5928ed26,2023-11-24_04h38.08.890,kallum_motion_pilot,2023.1.2,Win32,59.90176111,5fff0b0bcbc37a5f5928ed26,656018846682f3df8008bb8f,65601a8ab6541fd121ba53b1,1,58,220,133,1,seveneight,,,,,,,,,,,,,,,,,,,,,,,,,,,,,,,,,,,,,,,,,,,,,,,,,,,,,,,,,,,,,,,,,,,,,,,,,,,,,,,,,,,,,
5fff0b0bcbc37a5f5928ed26,2023-11-24_04h38.08.890,kallum_motion_pilot,2023.1.2,Win32,59.90176111,5fff0b0bcbc37a5f5928ed26,656018846682f3df8008bb8f,65601a8ab6541fd121ba53b1,1,59,221,100,1,sevenfive,,,,,,,,,,,,,,,,,,,,,,,,,,,,,,,,,,,,,,,,,,,,,,,,,,,,,,,,,,,,,,,,,,,,,,,,,,,,,,,,,,,,,
5fff0b0bcbc37a5f5928ed26,2023-11-24_04h38.08.890,kallum_motion_pilot,2023.1.2,Win32,59.90176111,5fff0b0bcbc37a5f5928ed26,656018846682f3df8008bb8f,65601a8ab6541fd121ba53b1,1,60,222,21,1,threefour,,,,,,,,,,,,,,,,,,,,,,,,,,,,,,,,,,,,,,,,,,,,,,,,,,,,,,,,,,,,,,,,,,,,,,,,,,,,,,,,,,,,,
5fff0b0bcbc37a5f5928ed26,2023-11-24_04h38.08.890,kallum_motion_pilot,2023.1.2,Win32,59.90176111,5fff0b0bcbc37a5f5928ed26,656018846682f3df8008bb8f,65601a8ab6541fd121ba53b1,1,61,223,46,1,fourtwo,,,,,,,,,,,,,,,,,,,,,,,,,,,,,,,,,,,,,,,,,,,,,,,,,,,,,,,,,,,,,,,,,,,,,,,,,,,,,,,,,,,,,
5fff0b0bcbc37a5f5928ed26,2023-11-24_04h38.08.890,kallum_motion_pilot,2023.1.2,Win32,59.90176111,5fff0b0bcbc37a5f5928ed26,656018846682f3df8008bb8f,65601a8ab6541fd121ba53b1,1,62,224,116,1,sevenfive,,,,,,,,,,,,,,,,,,,,,,,,,,,,,,,,,,,,,,,,,,,,,,,,,,,,,,,,,,,,,,,,,,,,,,,,,,,,,,,,,,,,,
5fff0b0bcbc37a5f5928ed26,2023-11-24_04h38.08.890,kallum_motion_pilot,2023.1.2,Win32,59.90176111,5fff0b0bcbc37a5f5928ed26,656018846682f3df8008bb8f,65601a8ab6541fd121ba53b1,1,63,225,10,1,twoone,,,,,,,,,,,,,,,,,,,,,,,,,,,,,,,,,,,,,,,,,,,,,,,,,,,,,,,,,,,,,,,,,,,,,,,,,,,,,,,,,,,,,
5fff0b0bcbc37a5f5928ed26,2023-11-24_04h38.08.890,kallum_motion_pilot,2023.1.2,Win32,59.90176111,5fff0b0bcbc37a5f5928ed26,656018846682f3df8008bb8f,65601a8ab6541fd121ba53b1,1,64,226,67,1,twofour,,,,,,,,,,,,,,,,,,,,,,,,,,,,,,,,,,,,,,,,,,,,,,,,,,,,,,,,,,,,,,,,,,,,,,,,,,,,,,,,,,,,,
5fff0b0bcbc37a5f5928ed26,2023-11-24_04h38.08.890,kallum_motion_pilot,2023.1.2,Win32,59.90176111,5fff0b0bcbc37a5f5928ed26,656018846682f3df8008bb8f,65601a8ab6541fd121ba53b1,1,65,227,150,1,eightsix,,,,,,,,,,,,,,,,,,,,,,,,,,,,,,,,,,,,,,,,,,,,,,,,,,,,,,,,,,,,,,,,,,,,,,,,,,,,,,,,,,,,,
5fff0b0bcbc37a5f5928ed26,2023-11-24_04h38.08.890,kallum_motion_pilot,2023.1.2,Win32,59.90176111,5fff0b0bcbc37a5f5928ed26,656018846682f3df8008bb8f,65601a8ab6541fd121ba53b1,1,66,228,126,1,eightsix,,,,,,,,,,,,,,,,,,,,,,,,,,,,,,,,,,,,,,,,,,,,,,,,,,,,,,,,,,,,,,,,,,,,,,,,,,,,,,,,,,,,,
5fff0b0bcbc37a5f5928ed26,2023-11-24_04h38.08.890,kallum_motion_pilot,2023.1.2,Win32,59.90176111,5fff0b0bcbc37a5f5928ed26,656018846682f3df8008bb8f,65601a8ab6541fd121ba53b1,1,67,229,68,1,threeone,,,,,,,,,,,,,,,,,,,,,,,,,,,,,,,,,,,,,,,,,,,,,,,,,,,,,,,,,,,,,,,,,,,,,,,,,,,,,,,,,,,,,
5fff0b0bcbc37a5f5928ed26,2023-11-24_04h38.08.890,kallum_motion_pilot,2023.1.2,Win32,59.90176111,5fff0b0bcbc37a5f5928ed26,656018846682f3df8008bb8f,65601a8ab6541fd121ba53b1,1,68,230,129,1,fiveseven,,,,,,,,,,,,,,,,,,,,,,,,,,,,,,,,,,,,,,,,,,,,,,,,,,,,,,,,,,,,,,,,,,,,,,,,,,,,,,,,,,,,,
5fff0b0bcbc37a5f5928ed26,2023-11-24_04h38.08.890,kallum_motion_pilot,2023.1.2,Win32,59.90176111,5fff0b0bcbc37a5f5928ed26,656018846682f3df8008bb8f,65601a8ab6541fd121ba53b1,1,69,231,6,1,fourtwo,,,,,,,,,,,,,,,,,,,,,,,,,,,,,,,,,,,,,,,,,,,,,,,,,,,,,,,,,,,,,,,,,,,,,,,,,,,,,,,,,,,,,
5fff0b0bcbc37a5f5928ed26,2023-11-24_04h38.08.890,kallum_motion_pilot,2023.1.2,Win32,59.90176111,5fff0b0bcbc37a5f5928ed26,656018846682f3df8008bb8f,65601a8ab6541fd121ba53b1,1,70,232,65,1,onethree,,,,,,,,,,,,,,,,,,,,,,,,,,,,,,,,,,,,,,,,,,,,,,,,,,,,,,,,,,,,,,,,,,,,,,,,,,,,,,,,,,,,,
5fff0b0bcbc37a5f5928ed26,2023-11-24_04h38.08.890,kallum_motion_pilot,2023.1.2,Win32,59.90176111,5fff0b0bcbc37a5f5928ed26,656018846682f3df8008bb8f,65601a8ab6541fd121ba53b1,1,71,233,95,1,eightseven,,,,,,,,,,,,,,,,,,,,,,,,,,,,,,,,,,,,,,,,,,,,,,,,,,,,,,,,,,,,,,,,,,,,,,,,,,,,,,,,,,,,,
5fff0b0bcbc37a5f5928ed26,2023-11-24_04h38.08.890,kallum_motion_pilot,2023.1.2,Win32,59.90176111,5fff0b0bcbc37a5f5928ed26,656018846682f3df8008bb8f,65601a8ab6541fd121ba53b1,1,72,234,110,1,eightsix,,,,,,,,,,,,,,,,,,,,,,,,,,,,,,,,,,,,,,,,,,,,,,,,,,,,,,,,,,,,,,,,,,,,,,,,,,,,,,,,,,,,,
5fff0b0bcbc37a5f5928ed26,2023-11-24_04h38.08.890,kallum_motion_pilot,2023.1.2,Win32,59.90176111,5fff0b0bcbc37a5f5928ed26,656018846682f3df8008bb8f,65601a8ab6541fd121ba53b1,1,73,235,4,1,threeone,,,,,,,,,,,,,,,,,,,,,,,,,,,,,,,,,,,,,,,,,,,,,,,,,,,,,,,,,,,,,,,,,,,,,,,,,,,,,,,,,,,,,
5fff0b0bcbc37a5f5928ed26,2023-11-24_04h38.08.890,kallum_motion_pilot,2023.1.2,Win32,59.90176111,5fff0b0bcbc37a5f5928ed26,656018846682f3df8008bb8f,65601a8ab6541fd121ba53b1,1,74,236,59,1,twofour,,,,,,,,,,,,,,,,,,,,,,,,,,,,,,,,,,,,,,,,,,,,,,,,,,,,,,,,,,,,,,,,,,,,,,,,,,,,,,,,,,,,,
5fff0b0bcbc37a5f5928ed26,2023-11-24_04h38.08.890,kallum_motion_pilot,2023.1.2,Win32,59.90176111,5fff0b0bcbc37a5f5928ed26,656018846682f3df8008bb8f,65601a8ab6541fd121ba53b1,1,75,237,22,1,fourtwo,,,,,,,,,,,,,,,,,,,,,,,,,,,,,,,,,,,,,,,,,,,,,,,,,,,,,,,,,,,,,,,,,,,,,,,,,,,,,,,,,,,,,
5fff0b0bcbc37a5f5928ed26,2023-11-24_04h38.08.890,kallum_motion_pilot,2023.1.2,Win32,59.90176111,5fff0b0bcbc37a5f5928ed26,656018846682f3df8008bb8f,65601a8ab6541fd121ba53b1,1,76,238,51,1,twofour,,,,,,,,,,,,,,,,,,,,,,,,,,,,,,,,,,,,,,,,,,,,,,,,,,,,,,,,,,,,,,,,,,,,,,,,,,,,,,,,,,,,,
5fff0b0bcbc37a5f5928ed26,2023-11-24_04h38.08.890,kallum_motion_pilot,2023.1.2,Win32,59.90176111,5fff0b0bcbc37a5f5928ed26,656018846682f3df8008bb8f,65601a8ab6541fd121ba53b1,1,77,239,140,1,sevenfive,,,,,,,,,,,,,,,,,,,,,,,,,,,,,,,,,,,,,,,,,,,,,,,,,,,,,,,,,,,,,,,,,,,,,,,,,,,,,,,,,,,,,
5fff0b0bcbc37a5f5928ed26,2023-11-24_04h38.08.890,kallum_motion_pilot,2023.1.2,Win32,59.90176111,5fff0b0bcbc37a5f5928ed26,656018846682f3df8008bb8f,65601a8ab6541fd121ba53b1,1,78,240,32,1,onetwo,,,,,,,,,,,,,,,,,,,,,,,,,,,,,,,,,,,,,,,,,,,,,,,,,,,,,,,,,,,,,,,,,,,,,,,,,,,,,,,,,,,,,
5fff0b0bcbc37a5f5928ed26,2023-11-24_04h38.08.890,kallum_motion_pilot,2023.1.2,Win32,59.90176111,5fff0b0bcbc37a5f5928ed26,656018846682f3df8008bb8f,65601a8ab6541fd121ba53b1,1,79,241,47,1,fourthree,,,,,,,,,,,,,,,,,,,,,,,,,,,,,,,,,,,,,,,,,,,,,,,,,,,,,,,,,,,,,,,,,,,,,,,,,,,,,,,,,,,,,
5fff0b0bcbc37a5f5928ed26,2023-11-24_04h38.08.890,kallum_motion_pilot,2023.1.2,Win32,59.90176111,5fff0b0bcbc37a5f5928ed26,656018846682f3df8008bb8f,65601a8ab6541fd121ba53b1,1,80,242,159,1,eightseven,,,,,,,,,,,,,,,,,,,,,,,,,,,,,,,,,,,,,,,,,,,,,,,,,,,,,,,,,,,,,,,,,,,,,,,,,,,,,,,,,,,,,
5fff0b0bcbc37a5f5928ed26,2023-11-24_04h38.08.890,kallum_motion_pilot,2023.1.2,Win32,59.90176111,5fff0b0bcbc37a5f5928ed26,656018846682f3df8008bb8f,65601a8ab6541fd121ba53b1,1,81,243,16,1,onetwo,,,,,,,,,,,,,,,,,,,,,,,,,,,,,,,,,,,,,,,,,,,,,,,,,,,,,,,,,,,,,,,,,,,,,,,,,,,,,,,,,,,,,
5fff0b0bcbc37a5f5928ed26,2023-11-24_04h38.08.890,kallum_motion_pilot,2023.1.2,Win32,59.90176111,5fff0b0bcbc37a5f5928ed26,656018846682f3df8008bb8f,65601a8ab6541fd121ba53b1,1,82,244,84,1,sevenfive,,,,,,,,,,,,,,,,,,,,,,,,,,,,,,,,,,,,,,,,,,,,,,,,,,,,,,,,,,,,,,,,,,,,,,,,,,,,,,,,,,,,,
5fff0b0bcbc37a5f5928ed26,2023-11-24_04h38.08.890,kallum_motion_pilot,2023.1.2,Win32,59.90176111,5fff0b0bcbc37a5f5928ed26,656018846682f3df8008bb8f,65601a8ab6541fd121ba53b1,1,83,245,98,1,sixfive,,,,,,,,,,,,,,,,,,,,,,,,,,,,,,,,,,,,,,,,,,,,,,,,,,,,,,,,,,,,,,,,,,,,,,,,,,,,,,,,,,,,,
5fff0b0bcbc37a5f5928ed26,2023-11-24_04h38.08.890,kallum_motion_pilot,2023.1.2,Win32,59.90176111,5fff0b0bcbc37a5f5928ed26,656018846682f3df8008bb8f,65601a8ab6541fd121ba53b1,1,84,246,3,1,twofour,,,,,,,,,,,,,,,,,,,,,,,,,,,,,,,,,,,,,,,,,,,,,,,,,,,,,,,,,,,,,,,,,,,,,,,,,,,,,,,,,,,,,
5fff0b0bcbc37a5f5928ed26,2023-11-24_04h38.08.890,kallum_motion_pilot,2023.1.2,Win32,59.90176111,5fff0b0bcbc37a5f5928ed26,656018846682f3df8008bb8f,65601a8ab6541fd121ba53b1,1,85,247,157,1,seveneight,,,,,,,,,,,,,,,,,,,,,,,,,,,,,,,,,,,,,,,,,,,,,,,,,,,,,,,,,,,,,,,,,,,,,,,,,,,,,,,,,,,,,
5fff0b0bcbc37a5f5928ed26,2023-11-24_04h38.08.890,kallum_motion_pilot,2023.1.2,Win32,59.90176111,5fff0b0bcbc37a5f5928ed26,656018846682f3df8008bb8f,65601a8ab6541fd121ba53b1,1,86,248,131,1,sixeight,,,,,,,,,,,,,,,,,,,,,,,,,,,,,,,,,,,,,,,,,,,,,,,,,,,,,,,,,,,,,,,,,,,,,,,,,,,,,,,,,,,,,
5fff0b0bcbc37a5f5928ed26,2023-11-24_04h38.08.890,kallum_motion_pilot,2023.1.2,Win32,59.90176111,5fff0b0bcbc37a5f5928ed26,656018846682f3df8008bb8f,65601a8ab6541fd121ba53b1,1,87,249,55,1,fourthree,,,,,,,,,,,,,,,,,,,,,,,,,,,,,,,,,,,,,,,,,,,,,,,,,,,,,,,,,,,,,,,,,,,,,,,,,,,,,,,,,,,,,
5fff0b0bcbc37a5f5928ed26,2023-11-24_04h38.08.890,kallum_motion_pilot,2023.1.2,Win32,59.90176111,5fff0b0bcbc37a5f5928ed26,656018846682f3df8008bb8f,65601a8ab6541fd121ba53b1,1,88,250,40,1,onetwo,,,,,,,,,,,,,,,,,,,,,,,,,,,,,,,,,,,,,,,,,,,,,,,,,,,,,,,,,,,,,,,,,,,,,,,,,,,,,,,,,,,,,
5fff0b0bcbc37a5f5928ed26,2023-11-24_04h38.08.890,kallum_motion_pilot,2023.1.2,Win32,59.90176111,5fff0b0bcbc37a5f5928ed26,656018846682f3df8008bb8f,65601a8ab6541fd121ba53b1,1,89,251,82,1,sixfive,,,,,,,,,,,,,,,,,,,,,,,,,,,,,,,,,,,,,,,,,,,,,,,,,,,,,,,,,,,,,,,,,,,,,,,,,,,,,,,,,,,,,
5fff0b0bcbc37a5f5928ed26,2023-11-24_04h38.08.890,kallum_motion_pilot,2023.1.2,Win32,59.90176111,5fff0b0bcbc37a5f5928ed26,656018846682f3df8008bb8f,65601a8ab6541fd121ba53b1,1,90,252,31,1,fourthree,,,,,,,,,,,,,,,,,,,,,,,,,,,,,,,,,,,,,,,,,,,,,,,,,,,,,,,,,,,,,,,,,,,,,,,,,,,,,,,,,,,,,
5fff0b0bcbc37a5f5928ed26,2023-11-24_04h38.08.890,kallum_motion_pilot,2023.1.2,Win32,59.90176111,5fff0b0bcbc37a5f5928ed26,656018846682f3df8008bb8f,65601a8ab6541fd121ba53b1,1,91,253,36,1,threeone,,,,,,,,,,,,,,,,,,,,,,,,,,,,,,,,,,,,,,,,,,,,,,,,,,,,,,,,,,,,,,,,,,,,,,,,,,,,,,,,,,,,,
5fff0b0bcbc37a5f5928ed26,2023-11-24_04h38.08.890,kallum_motion_pilot,2023.1.2,Win32,59.90176111,5fff0b0bcbc37a5f5928ed26,656018846682f3df8008bb8f,65601a8ab6541fd121ba53b1,1,92,254,147,1,sixeight,,,,,,,,,,,,,,,,,,,,,,,,,,,,,,,,,,,,,,,,,,,,,,,,,,,,,,,,,,,,,,,,,,,,,,,,,,,,,,,,,,,,,
5fff0b0bcbc37a5f5928ed26,2023-11-24_04h38.08.890,kallum_motion_pilot,2023.1.2,Win32,59.90176111,5fff0b0bcbc37a5f5928ed26,656018846682f3df8008bb8f,65601a8ab6541fd121ba53b1,1,93,255,78,1,fourtwo,,,,,,,,,,,,,,,,,,,,,,,,,,,,,,,,,,,,,,,,,,,,,,,,,,,,,,,,,,,,,,,,,,,,,,,,,,,,,,,,,,,,,
5fff0b0bcbc37a5f5928ed26,2023-11-24_04h38.08.890,kallum_motion_pilot,2023.1.2,Win32,59.90176111,5fff0b0bcbc37a5f5928ed26,656018846682f3df8008bb8f,65601a8ab6541fd121ba53b1,1,94,256,104,1,fivesix,,,,,,,,,,,,,,,,,,,,,,,,,,,,,,,,,,,,,,,,,,,,,,,,,,,,,,,,,,,,,,,,,,,,,,,,,,,,,,,,,,,,,
5fff0b0bcbc37a5f5928ed26,2023-11-24_04h38.08.890,kallum_motion_pilot,2023.1.2,Win32,59.90176111,5fff0b0bcbc37a5f5928ed26,656018846682f3df8008bb8f,65601a8ab6541fd121ba53b1,1,95,257,113,1,fiveseven,,,,,,,,,,,,,,,,,,,,,,,,,,,,,,,,,,,,,,,,,,,,,,,,,,,,,,,,,,,,,,,,,,,,,,,,,,,,,,,,,,,,,
5fff0b0bcbc37a5f5928ed26,2023-11-24_04h38.08.890,kallum_motion_pilot,2023.1.2,Win32,59.90176111,5fff0b0bcbc37a5f5928ed26,656018846682f3df8008bb8f,65601a8ab6541fd121ba53b1,1,96,258,61,1,threefour,,,,,,,,,,,,,,,,,,,,,,,,,,,,,,,,,,,,,,,,,,,,,,,,,,,,,,,,,,,,,,,,,,,,,,,,,,,,,,,,,,,,,
5fff0b0bcbc37a5f5928ed26,2023-11-24_04h38.08.890,kallum_motion_pilot,2023.1.2,Win32,59.90176111,5fff0b0bcbc37a5f5928ed26,656018846682f3df8008bb8f,65601a8ab6541fd121ba53b1,1,97,259,114,1,sixfive,,,,,,,,,,,,,,,,,,,,,,,,,,,,,,,,,,,,,,,,,,,,,,,,,,,,,,,,,,,,,,,,,,,,,,,,,,,,,,,,,,,,,
5fff0b0bcbc37a5f5928ed26,2023-11-24_04h38.08.890,kallum_motion_pilot,2023.1.2,Win32,59.90176111,5fff0b0bcbc37a5f5928ed26,656018846682f3df8008bb8f,65601a8ab6541fd121ba53b1,1,98,260,0,1,onetwo,,,,,,,,,,,,,,,,,,,,,,,,,,,,,,,,,,,,,,,,,,,,,,,,,,,,,,,,,,,,,,,,,,,,,,,,,,,,,,,,,,,,,
5fff0b0bcbc37a5f5928ed26,2023-11-24_04h38.08.890,kallum_motion_pilot,2023.1.2,Win32,59.90176111,5fff0b0bcbc37a5f5928ed26,656018846682f3df8008bb8f,65601a8ab6541fd121ba53b1,1,99,261,76,1,threeone,,,,,,,,,,,,,,,,,,,,,,,,,,,,,,,,,,,,,,,,,,,,,,,,,,,,,,,,,,,,,,,,,,,,,,,,,,,,,,,,,,,,,
5fff0b0bcbc37a5f5928ed26,2023-11-24_04h38.08.890,kallum_motion_pilot,2023.1.2,Win32,59.90176111,5fff0b0bcbc37a5f5928ed26,656018846682f3df8008bb8f,65601a8ab6541fd121ba53b1,1,100,262,5,1,threefour,,,,,,,,,,,,,,,,,,,,,,,,,,,,,,,,,,,,,,,,,,,,,,,,,,,,,,,,,,,,,,,,,,,,,,,,,,,,,,,,,,,,,
5fff0b0bcbc37a5f5928ed26,2023-11-24_04h38.08.890,kallum_motion_pilot,2023.1.2,Win32,59.90176111,5fff0b0bcbc37a5f5928ed26,656018846682f3df8008bb8f,65601a8ab6541fd121ba53b1,1,101,263,43,1,twofour,,,,,,,,,,,,,,,,,,,,,,,,,,,,,,,,,,,,,,,,,,,,,,,,,,,,,,,,,,,,,,,,,,,,,,,,,,,,,,,,,,,,,
5fff0b0bcbc37a5f5928ed26,2023-11-24_04h38.08.890,kallum_motion_pilot,2023.1.2,Win32,59.90176111,5fff0b0bcbc37a5f5928ed26,656018846682f3df8008bb8f,65601a8ab6541fd121ba53b1,1,102,264,45,1,threefour,,,,,,,,,,,,,,,,,,,,,,,,,,,,,,,,,,,,,,,,,,,,,,,,,,,,,,,,,,,,,,,,,,,,,,,,,,,,,,,,,,,,,
5fff0b0bcbc37a5f5928ed26,2023-11-24_04h38.08.890,kallum_motion_pilot,2023.1.2,Win32,59.90176111,5fff0b0bcbc37a5f5928ed26,656018846682f3df8008bb8f,65601a8ab6541fd121ba53b1,1,103,265,26,1,twoone,,,,,,,,,,,,,,,,,,,,,,,,,,,,,,,,,,,,,,,,,,,,,,,,,,,,,,,,,,,,,,,,,,,,,,,,,,,,,,,,,,,,,
5fff0b0bcbc37a5f5928ed26,2023-11-24_04h38.08.890,kallum_motion_pilot,2023.1.2,Win32,59.90176111,5fff0b0bcbc37a5f5928ed26,656018846682f3df8008bb8f,65601a8ab6541fd121ba53b1,1,104,266,35,1,twofour,,,,,,,,,,,,,,,,,,,,,,,,,,,,,,,,,,,,,,,,,,,,,,,,,,,,,,,,,,,,,,,,,,,,,,,,,,,,,,,,,,,,,
5fff0b0bcbc37a5f5928ed26,2023-11-24_04h38.08.890,kallum_motion_pilot,2023.1.2,Win32,59.90176111,5fff0b0bcbc37a5f5928ed26,656018846682f3df8008bb8f,65601a8ab6541fd121ba53b1,1,105,267,7,1,fourthree,,,,,,,,,,,,,,,,,,,,,,,,,,,,,,,,,,,,,,,,,,,,,,,,,,,,,,,,,,,,,,,,,,,,,,,,,,,,,,,,,,,,,
5fff0b0bcbc37a5f5928ed26,2023-11-24_04h38.08.890,kallum_motion_pilot,2023.1.2,Win32,59.90176111,5fff0b0bcbc37a5f5928ed26,656018846682f3df8008bb8f,65601a8ab6541fd121ba53b1,1,106,268,81,1,fiveseven,,,,,,,,,,,,,,,,,,,,,,,,,,,,,,,,,,,,,,,,,,,,,,,,,,,,,,,,,,,,,,,,,,,,,,,,,,,,,,,,,,,,,
5fff0b0bcbc37a5f5928ed26,2023-11-24_04h38.08.890,kallum_motion_pilot,2023.1.2,Win32,59.90176111,5fff0b0bcbc37a5f5928ed26,656018846682f3df8008bb8f,65601a8ab6541fd121ba53b1,1,107,269,11,1,twofour,,,,,,,,,,,,,,,,,,,,,,,,,,,,,,,,,,,,,,,,,,,,,,,,,,,,,,,,,,,,,,,,,,,,,,,,,,,,,,,,,,,,,
5fff0b0bcbc37a5f5928ed26,2023-11-24_04h38.08.890,kallum_motion_pilot,2023.1.2,Win32,59.90176111,5fff0b0bcbc37a5f5928ed26,656018846682f3df8008bb8f,65601a8ab6541fd121ba53b1,1,108,270,80,1,fivesix,,,,,,,,,,,,,,,,,,,,,,,,,,,,,,,,,,,,,,,,,,,,,,,,,,,,,,,,,,,,,,,,,,,,,,,,,,,,,,,,,,,,,
5fff0b0bcbc37a5f5928ed26,2023-11-24_04h38.08.890,kallum_motion_pilot,2023.1.2,Win32,59.90176111,5fff0b0bcbc37a5f5928ed26,656018846682f3df8008bb8f,65601a8ab6541fd121ba53b1,1,109,271,83,1,sixeight,,,,,,,,,,,,,,,,,,,,,,,,,,,,,,,,,,,,,,,,,,,,,,,,,,,,,,,,,,,,,,,,,,,,,,,,,,,,,,,,,,,,,
5fff0b0bcbc37a5f5928ed26,2023-11-24_04h38.08.890,kallum_motion_pilot,2023.1.2,Win32,59.90176111,5fff0b0bcbc37a5f5928ed26,656018846682f3df8008bb8f,65601a8ab6541fd121ba53b1,1,110,272,160,1,fivesix,,,,,,,,,,,,,,,,,,,,,,,,,,,,,,,,,,,,,,,,,,,,,,,,,,,,,,,,,,,,,,,,,,,,,,,,,,,,,,,,,,,,,
5fff0b0bcbc37a5f5928ed26,2023-11-24_04h38.08.890,kallum_motion_pilot,2023.1.2,Win32,59.90176111,5fff0b0bcbc37a5f5928ed26,656018846682f3df8008bb8f,65601a8ab6541fd121ba53b1,1,111,273,158,1,eightsix,,,,,,,,,,,,,,,,,,,,,,,,,,,,,,,,,,,,,,,,,,,,,,,,,,,,,,,,,,,,,,,,,,,,,,,,,,,,,,,,,,,,,
5fff0b0bcbc37a5f5928ed26,2023-11-24_04h38.08.890,kallum_motion_pilot,2023.1.2,Win32,59.90176111,5fff0b0bcbc37a5f5928ed26,656018846682f3df8008bb8f,65601a8ab6541fd121ba53b1,1,112,274,105,1,fiveseven,,,,,,,,,,,,,,,,,,,,,,,,,,,,,,,,,,,,,,,,,,,,,,,,,,,,,,,,,,,,,,,,,,,,,,,,,,,,,,,,,,,,,
5fff0b0bcbc37a5f5928ed26,2023-11-24_04h38.08.890,kallum_motion_pilot,2023.1.2,Win32,59.90176111,5fff0b0bcbc37a5f5928ed26,656018846682f3df8008bb8f,65601a8ab6541fd121ba53b1,1,113,275,58,1,twoone,,,,,,,,,,,,,,,,,,,,,,,,,,,,,,,,,,,,,,,,,,,,,,,,,,,,,,,,,,,,,,,,,,,,,,,,,,,,,,,,,,,,,
5fff0b0bcbc37a5f5928ed26,2023-11-24_04h38.08.890,kallum_motion_pilot,2023.1.2,Win32,59.90176111,5fff0b0bcbc37a5f5928ed26,656018846682f3df8008bb8f,65601a8ab6541fd121ba53b1,1,114,276,50,1,twoone,,,,,,,,,,,,,,,,,,,,,,,,,,,,,,,,,,,,,,,,,,,,,,,,,,,,,,,,,,,,,,,,,,,,,,,,,,,,,,,,,,,,,
5fff0b0bcbc37a5f5928ed26,2023-11-24_04h38.08.890,kallum_motion_pilot,2023.1.2,Win32,59.90176111,5fff0b0bcbc37a5f5928ed26,656018846682f3df8008bb8f,65601a8ab6541fd121ba53b1,1,115,277,37,1,threefour,,,,,,,,,,,,,,,,,,,,,,,,,,,,,,,,,,,,,,,,,,,,,,,,,,,,,,,,,,,,,,,,,,,,,,,,,,,,,,,,,,,,,
5fff0b0bcbc37a5f5928ed26,2023-11-24_04h38.08.890,kallum_motion_pilot,2023.1.2,Win32,59.90176111,5fff0b0bcbc37a5f5928ed26,656018846682f3df8008bb8f,65601a8ab6541fd121ba53b1,1,116,278,70,1,fourtwo,,,,,,,,,,,,,,,,,,,,,,,,,,,,,,,,,,,,,,,,,,,,,,,,,,,,,,,,,,,,,,,,,,,,,,,,,,,,,,,,,,,,,
5fff0b0bcbc37a5f5928ed26,2023-11-24_04h38.08.890,kallum_motion_pilot,2023.1.2,Win32,59.90176111,5fff0b0bcbc37a5f5928ed26,656018846682f3df8008bb8f,65601a8ab6541fd121ba53b1,1,117,279,119,1,eightseven,,,,,,,,,,,,,,,,,,,,,,,,,,,,,,,,,,,,,,,,,,,,,,,,,,,,,,,,,,,,,,,,,,,,,,,,,,,,,,,,,,,,,
5fff0b0bcbc37a5f5928ed26,2023-11-24_04h38.08.890,kallum_motion_pilot,2023.1.2,Win32,59.90176111,5fff0b0bcbc37a5f5928ed26,656018846682f3df8008bb8f,65601a8ab6541fd121ba53b1,1,118,280,73,1,onethree,,,,,,,,,,,,,,,,,,,,,,,,,,,,,,,,,,,,,,,,,,,,,,,,,,,,,,,,,,,,,,,,,,,,,,,,,,,,,,,,,,,,,
5fff0b0bcbc37a5f5928ed26,2023-11-24_04h38.08.890,kallum_motion_pilot,2023.1.2,Win32,59.90176111,5fff0b0bcbc37a5f5928ed26,656018846682f3df8008bb8f,65601a8ab6541fd121ba53b1,1,119,281,91,1,sixeight,,,,,,,,,,,,,,,,,,,,,,,,,,,,,,,,,,,,,,,,,,,,,,,,,,,,,,,,,,,,,,,,,,,,,,,,,,,,,,,,,,,,,
5fff0b0bcbc37a5f5928ed26,2023-11-24_04h38.08.890,kallum_motion_pilot,2023.1.2,Win32,59.90176111,5fff0b0bcbc37a5f5928ed26,656018846682f3df8008bb8f,65601a8ab6541fd121ba53b1,1,120,282,38,1,fourtwo,,,,,,,,,,,,,,,,,,,,,,,,,,,,,,,,,,,,,,,,,,,,,,,,,,,,,,,,,,,,,,,,,,,,,,,,,,,,,,,,,,,,,
5fff0b0bcbc37a5f5928ed26,2023-11-24_04h38.08.890,kallum_motion_pilot,2023.1.2,Win32,59.90176111,5fff0b0bcbc37a5f5928ed26,656018846682f3df8008bb8f,65601a8ab6541fd121ba53b1,1,121,283,123,1,sixeight,,,,,,,,,,,,,,,,,,,,,,,,,,,,,,,,,,,,,,,,,,,,,,,,,,,,,,,,,,,,,,,,,,,,,,,,,,,,,,,,,,,,,
5fff0b0bcbc37a5f5928ed26,2023-11-24_04h38.08.890,kallum_motion_pilot,2023.1.2,Win32,59.90176111,5fff0b0bcbc37a5f5928ed26,656018846682f3df8008bb8f,65601a8ab6541fd121ba53b1,1,122,284,71,1,fourthree,,,,,,,,,,,,,,,,,,,,,,,,,,,,,,,,,,,,,,,,,,,,,,,,,,,,,,,,,,,,,,,,,,,,,,,,,,,,,,,,,,,,,
5fff0b0bcbc37a5f5928ed26,2023-11-24_04h38.08.890,kallum_motion_pilot,2023.1.2,Win32,59.90176111,5fff0b0bcbc37a5f5928ed26,656018846682f3df8008bb8f,65601a8ab6541fd121ba53b1,1,123,285,144,1,fivesix,,,,,,,,,,,,,,,,,,,,,,,,,,,,,,,,,,,,,,,,,,,,,,,,,,,,,,,,,,,,,,,,,,,,,,,,,,,,,,,,,,,,,
5fff0b0bcbc37a5f5928ed26,2023-11-24_04h38.08.890,kallum_motion_pilot,2023.1.2,Win32,59.90176111,5fff0b0bcbc37a5f5928ed26,656018846682f3df8008bb8f,65601a8ab6541fd121ba53b1,1,124,286,155,1,sixeight,,,,,,,,,,,,,,,,,,,,,,,,,,,,,,,,,,,,,,,,,,,,,,,,,,,,,,,,,,,,,,,,,,,,,,,,,,,,,,,,,,,,,
5fff0b0bcbc37a5f5928ed26,2023-11-24_04h38.08.890,kallum_motion_pilot,2023.1.2,Win32,59.90176111,5fff0b0bcbc37a5f5928ed26,656018846682f3df8008bb8f,65601a8ab6541fd121ba53b1,1,125,287,66,1,twoone,,,,,,,,,,,,,,,,,,,,,,,,,,,,,,,,,,,,,,,,,,,,,,,,,,,,,,,,,,,,,,,,,,,,,,,,,,,,,,,,,,,,,
5fff0b0bcbc37a5f5928ed26,2023-11-24_04h38.08.890,kallum_motion_pilot,2023.1.2,Win32,59.90176111,5fff0b0bcbc37a5f5928ed26,656018846682f3df8008bb8f,65601a8ab6541fd121ba53b1,1,126,288,75,1,twofour,,,,,,,,,,,,,,,,,,,,,,,,,,,,,,,,,,,,,,,,,,,,,,,,,,,,,,,,,,,,,,,,,,,,,,,,,,,,,,,,,,,,,
5fff0b0bcbc37a5f5928ed26,2023-11-24_04h38.08.890,kallum_motion_pilot,2023.1.2,Win32,59.90176111,5fff0b0bcbc37a5f5928ed26,656018846682f3df8008bb8f,65601a8ab6541fd121ba53b1,1,127,289,148,1,sevenfive,,,,,,,,,,,,,,,,,,,,,,,,,,,,,,,,,,,,,,,,,,,,,,,,,,,,,,,,,,,,,,,,,,,,,,,,,,,,,,,,,,,,,
5fff0b0bcbc37a5f5928ed26,2023-11-24_04h38.08.890,kallum_motion_pilot,2023.1.2,Win32,59.90176111,5fff0b0bcbc37a5f5928ed26,656018846682f3df8008bb8f,65601a8ab6541fd121ba53b1,1,128,290,89,1,fiveseven,,,,,,,,,,,,,,,,,,,,,,,,,,,,,,,,,,,,,,,,,,,,,,,,,,,,,,,,,,,,,,,,,,,,,,,,,,,,,,,,,,,,,
5fff0b0bcbc37a5f5928ed26,2023-11-24_04h38.08.890,kallum_motion_pilot,2023.1.2,Win32,59.90176111,5fff0b0bcbc37a5f5928ed26,656018846682f3df8008bb8f,65601a8ab6541fd121ba53b1,1,129,291,12,1,threeone,,,,,,,,,,,,,,,,,,,,,,,,,,,,,,,,,,,,,,,,,,,,,,,,,,,,,,,,,,,,,,,,,,,,,,,,,,,,,,,,,,,,,
5fff0b0bcbc37a5f5928ed26,2023-11-24_04h38.08.890,kallum_motion_pilot,2023.1.2,Win32,59.90176111,5fff0b0bcbc37a5f5928ed26,656018846682f3df8008bb8f,65601a8ab6541fd121ba53b1,1,130,292,92,1,sevenfive,,,,,,,,,,,,,,,,,,,,,,,,,,,,,,,,,,,,,,,,,,,,,,,,,,,,,,,,,,,,,,,,,,,,,,,,,,,,,,,,,,,,,
5fff0b0bcbc37a5f5928ed26,2023-11-24_04h38.08.890,kallum_motion_pilot,2023.1.2,Win32,59.90176111,5fff0b0bcbc37a5f5928ed26,656018846682f3df8008bb8f,65601a8ab6541fd121ba53b1,1,131,293,60,1,threeone,,,,,,,,,,,,,,,,,,,,,,,,,,,,,,,,,,,,,,,,,,,,,,,,,,,,,,,,,,,,,,,,,,,,,,,,,,,,,,,,,,,,,
5fff0b0bcbc37a5f5928ed26,2023-11-24_04h38.08.890,kallum_motion_pilot,2023.1.2,Win32,59.90176111,5fff0b0bcbc37a5f5928ed26,656018846682f3df8008bb8f,65601a8ab6541fd121ba53b1,1,132,294,149,1,seveneight,,,,,,,,,,,,,,,,,,,,,,,,,,,,,,,,,,,,,,,,,,,,,,,,,,,,,,,,,,,,,,,,,,,,,,,,,,,,,,,,,,,,,
5fff0b0bcbc37a5f5928ed26,2023-11-24_04h38.08.890,kallum_motion_pilot,2023.1.2,Win32,59.90176111,5fff0b0bcbc37a5f5928ed26,656018846682f3df8008bb8f,65601a8ab6541fd121ba53b1,1,133,295,56,1,onetwo,,,,,,,,,,,,,,,,,,,,,,,,,,,,,,,,,,,,,,,,,,,,,,,,,,,,,,,,,,,,,,,,,,,,,,,,,,,,,,,,,,,,,
5fff0b0bcbc37a5f5928ed26,2023-11-24_04h38.08.890,kallum_motion_pilot,2023.1.2,Win32,59.90176111,5fff0b0bcbc37a5f5928ed26,656018846682f3df8008bb8f,65601a8ab6541fd121ba53b1,1,134,296,69,1,threefour,,,,,,,,,,,,,,,,,,,,,,,,,,,,,,,,,,,,,,,,,,,,,,,,,,,,,,,,,,,,,,,,,,,,,,,,,,,,,,,,,,,,,
5fff0b0bcbc37a5f5928ed26,2023-11-24_04h38.08.890,kallum_motion_pilot,2023.1.2,Win32,59.90176111,5fff0b0bcbc37a5f5928ed26,656018846682f3df8008bb8f,65601a8ab6541fd121ba53b1,1,135,297,63,1,fourthree,,,,,,,,,,,,,,,,,,,,,,,,,,,,,,,,,,,,,,,,,,,,,,,,,,,,,,,,,,,,,,,,,,,,,,,,,,,,,,,,,,,,,
5fff0b0bcbc37a5f5928ed26,2023-11-24_04h38.08.890,kallum_motion_pilot,2023.1.2,Win32,59.90176111,5fff0b0bcbc37a5f5928ed26,656018846682f3df8008bb8f,65601a8ab6541fd121ba53b1,1,136,298,124,1,sevenfive,,,,,,,,,,,,,,,,,,,,,,,,,,,,,,,,,,,,,,,,,,,,,,,,,,,,,,,,,,,,,,,,,,,,,,,,,,,,,,,,,,,,,
5fff0b0bcbc37a5f5928ed26,2023-11-24_04h38.08.890,kallum_motion_pilot,2023.1.2,Win32,59.90176111,5fff0b0bcbc37a5f5928ed26,656018846682f3df8008bb8f,65601a8ab6541fd121ba53b1,1,137,299,108,1,sevenfive,,,,,,,,,,,,,,,,,,,,,,,,,,,,,,,,,,,,,,,,,,,,,,,,,,,,,,,,,,,,,,,,,,,,,,,,,,,,,,,,,,,,,
5fff0b0bcbc37a5f5928ed26,2023-11-24_04h38.08.890,kallum_motion_pilot,2023.1.2,Win32,59.90176111,5fff0b0bcbc37a5f5928ed26,656018846682f3df8008bb8f,65601a8ab6541fd121ba53b1,1,138,300,33,1,onethree,,,,,,,,,,,,,,,,,,,,,,,,,,,,,,,,,,,,,,,,,,,,,,,,,,,,,,,,,,,,,,,,,,,,,,,,,,,,,,,,,,,,,
5fff0b0bcbc37a5f5928ed26,2023-11-24_04h38.08.890,kallum_motion_pilot,2023.1.2,Win32,59.90176111,5fff0b0bcbc37a5f5928ed26,656018846682f3df8008bb8f,65601a8ab6541fd121ba53b1,1,139,301,44,1,threeone,,,,,,,,,,,,,,,,,,,,,,,,,,,,,,,,,,,,,,,,,,,,,,,,,,,,,,,,,,,,,,,,,,,,,,,,,,,,,,,,,,,,,
5fff0b0bcbc37a5f5928ed26,2023-11-24_04h38.08.890,kallum_motion_pilot,2023.1.2,Win32,59.90176111,5fff0b0bcbc37a5f5928ed26,656018846682f3df8008bb8f,65601a8ab6541fd121ba53b1,1,140,302,87,1,eightseven,,,,,,,,,,,,,,,,,,,,,,,,,,,,,,,,,,,,,,,,,,,,,,,,,,,,,,,,,,,,,,,,,,,,,,,,,,,,,,,,,,,,,
5fff0b0bcbc37a5f5928ed26,2023-11-24_04h38.08.890,kallum_motion_pilot,2023.1.2,Win32,59.90176111,5fff0b0bcbc37a5f5928ed26,656018846682f3df8008bb8f,65601a8ab6541fd121ba53b1,1,141,303,99,1,sixeight,,,,,,,,,,,,,,,,,,,,,,,,,,,,,,,,,,,,,,,,,,,,,,,,,,,,,,,,,,,,,,,,,,,,,,,,,,,,,,,,,,,,,
5fff0b0bcbc37a5f5928ed26,2023-11-24_04h38.08.890,kallum_motion_pilot,2023.1.2,Win32,59.90176111,5fff0b0bcbc37a5f5928ed26,656018846682f3df8008bb8f,65601a8ab6541fd121ba53b1,1,142,304,42,1,twoone,,,,,,,,,,,,,,,,,,,,,,,,,,,,,,,,,,,,,,,,,,,,,,,,,,,,,,,,,,,,,,,,,,,,,,,,,,,,,,,,,,,,,
5fff0b0bcbc37a5f5928ed26,2023-11-24_04h38.08.890,kallum_motion_pilot,2023.1.2,Win32,59.90176111,5fff0b0bcbc37a5f5928ed26,656018846682f3df8008bb8f,65601a8ab6541fd121ba53b1,1,143,305,19,1,twofour,,,,,,,,,,,,,,,,,,,,,,,,,,,,,,,,,,,,,,,,,,,,,,,,,,,,,,,,,,,,,,,,,,,,,,,,,,,,,,,,,,,,,
5fff0b0bcbc37a5f5928ed26,2023-11-24_04h38.08.890,kallum_motion_pilot,2023.1.2,Win32,59.90176111,5fff0b0bcbc37a5f5928ed26,656018846682f3df8008bb8f,65601a8ab6541fd121ba53b1,1,144,306,117,1,seveneight,,,,,,,,,,,,,,,,,,,,,,,,,,,,,,,,,,,,,,,,,,,,,,,,,,,,,,,,,,,,,,,,,,,,,,,,,,,,,,,,,,,,,
5fff0b0bcbc37a5f5928ed26,2023-11-24_04h38.08.890,kallum_motion_pilot,2023.1.2,Win32,59.90176111,5fff0b0bcbc37a5f5928ed26,656018846682f3df8008bb8f,65601a8ab6541fd121ba53b1,1,145,307,103,1,eightseven,,,,,,,,,,,,,,,,,,,,,,,,,,,,,,,,,,,,,,,,,,,,,,,,,,,,,,,,,,,,,,,,,,,,,,,,,,,,,,,,,,,,,
5fff0b0bcbc37a5f5928ed26,2023-11-24_04h38.08.890,kallum_motion_pilot,2023.1.2,Win32,59.90176111,5fff0b0bcbc37a5f5928ed26,656018846682f3df8008bb8f,65601a8ab6541fd121ba53b1,1,146,308,57,1,onethree,,,,,,,,,,,,,,,,,,,,,,,,,,,,,,,,,,,,,,,,,,,,,,,,,,,,,,,,,,,,,,,,,,,,,,,,,,,,,,,,,,,,,
5fff0b0bcbc37a5f5928ed26,2023-11-24_04h38.08.890,kallum_motion_pilot,2023.1.2,Win32,59.90176111,5fff0b0bcbc37a5f5928ed26,656018846682f3df8008bb8f,65601a8ab6541fd121ba53b1,1,147,309,141,1,seveneight,,,,,,,,,,,,,,,,,,,,,,,,,,,,,,,,,,,,,,,,,,,,,,,,,,,,,,,,,,,,,,,,,,,,,,,,,,,,,,,,,,,,,
5fff0b0bcbc37a5f5928ed26,2023-11-24_04h38.08.890,kallum_motion_pilot,2023.1.2,Win32,59.90176111,5fff0b0bcbc37a5f5928ed26,656018846682f3df8008bb8f,65601a8ab6541fd121ba53b1,1,148,310,30,1,fourtwo,,,,,,,,,,,,,,,,,,,,,,,,,,,,,,,,,,,,,,,,,,,,,,,,,,,,,,,,,,,,,,,,,,,,,,,,,,,,,,,,,,,,,
5fff0b0bcbc37a5f5928ed26,2023-11-24_04h38.08.890,kallum_motion_pilot,2023.1.2,Win32,59.90176111,5fff0b0bcbc37a5f5928ed26,656018846682f3df8008bb8f,65601a8ab6541fd121ba53b1,1,149,311,15,1,fourthree,,,,,,,,,,,,,,,,,,,,,,,,,,,,,,,,,,,,,,,,,,,,,,,,,,,,,,,,,,,,,,,,,,,,,,,,,,,,,,,,,,,,,
5fff0b0bcbc37a5f5928ed26,2023-11-24_04h38.08.890,kallum_motion_pilot,2023.1.2,Win32,59.90176111,5fff0b0bcbc37a5f5928ed26,656018846682f3df8008bb8f,65601a8ab6541fd121ba53b1,1,150,312,28,1,threeone,,,,,,,,,,,,,,,,,,,,,,,,,,,,,,,,,,,,,,,,,,,,,,,,,,,,,,,,,,,,,,,,,,,,,,,,,,,,,,,,,,,,,
5fff0b0bcbc37a5f5928ed26,2023-11-24_04h38.08.890,kallum_motion_pilot,2023.1.2,Win32,59.90176111,5fff0b0bcbc37a5f5928ed26,656018846682f3df8008bb8f,65601a8ab6541fd121ba53b1,1,151,313,39,1,fourthree,,,,,,,,,,,,,,,,,,,,,,,,,,,,,,,,,,,,,,,,,,,,,,,,,,,,,,,,,,,,,,,,,,,,,,,,,,,,,,,,,,,,,
5fff0b0bcbc37a5f5928ed26,2023-11-24_04h38.08.890,kallum_motion_pilot,2023.1.2,Win32,59.90176111,5fff0b0bcbc37a5f5928ed26,656018846682f3df8008bb8f,65601a8ab6541fd121ba53b1,1,152,314,94,1,eightsix,,,,,,,,,,,,,,,,,,,,,,,,,,,,,,,,,,,,,,,,,,,,,,,,,,,,,,,,,,,,,,,,,,,,,,,,,,,,,,,,,,,,,
5fff0b0bcbc37a5f5928ed26,2023-11-24_04h38.08.890,kallum_motion_pilot,2023.1.2,Win32,59.90176111,5fff0b0bcbc37a5f5928ed26,656018846682f3df8008bb8f,65601a8ab6541fd121ba53b1,1,153,315,127,1,eightseven,,,,,,,,,,,,,,,,,,,,,,,,,,,,,,,,,,,,,,,,,,,,,,,,,,,,,,,,,,,,,,,,,,,,,,,,,,,,,,,,,,,,,
5fff0b0bcbc37a5f5928ed26,2023-11-24_04h38.08.890,kallum_motion_pilot,2023.1.2,Win32,59.90176111,5fff0b0bcbc37a5f5928ed26,656018846682f3df8008bb8f,65601a8ab6541fd121ba53b1,1,154,316,120,1,fivesix,,,,,,,,,,,,,,,,,,,,,,,,,,,,,,,,,,,,,,,,,,,,,,,,,,,,,,,,,,,,,,,,,,,,,,,,,,,,,,,,,,,,,
5fff0b0bcbc37a5f5928ed26,2023-11-24_04h38.08.890,kallum_motion_pilot,2023.1.2,Win32,59.90176111,5fff0b0bcbc37a5f5928ed26,656018846682f3df8008bb8f,65601a8ab6541fd121ba53b1,1,155,317,54,1,fourtwo,,,,,,,,,,,,,,,,,,,,,,,,,,,,,,,,,,,,,,,,,,,,,,,,,,,,,,,,,,,,,,,,,,,,,,,,,,,,,,,,,,,,,
5fff0b0bcbc37a5f5928ed26,2023-11-24_04h38.08.890,kallum_motion_pilot,2023.1.2,Win32,59.90176111,5fff0b0bcbc37a5f5928ed26,656018846682f3df8008bb8f,65601a8ab6541fd121ba53b1,1,156,318,139,1,sixeight,,,,,,,,,,,,,,,,,,,,,,,,,,,,,,,,,,,,,,,,,,,,,,,,,,,,,,,,,,,,,,,,,,,,,,,,,,,,,,,,,,,,,
5fff0b0bcbc37a5f5928ed26,2023-11-24_04h38.08.890,kallum_motion_pilot,2023.1.2,Win32,59.90176111,5fff0b0bcbc37a5f5928ed26,656018846682f3df8008bb8f,65601a8ab6541fd121ba53b1,1,157,319,138,1,sixfive,,,,,,,,,,,,,,,,,,,,,,,,,,,,,,,,,,,,,,,,,,,,,,,,,,,,,,,,,,,,,,,,,,,,,,,,,,,,,,,,,,,,,
5fff0b0bcbc37a5f5928ed26,2023-11-24_04h38.08.890,kallum_motion_pilot,2023.1.2,Win32,59.90176111,5fff0b0bcbc37a5f5928ed26,656018846682f3df8008bb8f,65601a8ab6541fd121ba53b1,1,158,320,13,1,threefour,,,,,,,,,,,,,,,,,,,,,,,,,,,,,,,,,,,,,,,,,,,,,,,,,,,,,,,,,,,,,,,,,,,,,,,,,,,,,,,,,,,,,
5fff0b0bcbc37a5f5928ed26,2023-11-24_04h38.08.890,kallum_motion_pilot,2023.1.2,Win32,59.90176111,5fff0b0bcbc37a5f5928ed26,656018846682f3df8008bb8f,65601a8ab6541fd121ba53b1,1,159,321,77,1,threefour,,,,,,,,,,,,,,,,,,,,,,,,,,,,,,,,,,,,,,,,,,,,,,,,,,,,,,,,,,,,,,,,,,,,,,,,,,,,,,,,,,,,,
5fff0b0bcbc37a5f5928ed26,2023-11-24_04h38.08.890,kallum_motion_pilot,2023.1.2,Win32,59.90176111,5fff0b0bcbc37a5f5928ed26,656018846682f3df8008bb8f,65601a8ab6541fd121ba53b1,1,160,322,128,1,fivesix,,,,,,,,,,,,,,,,,,,,,,,,,,,,,,,,,,,,,,,,,,,,,,,,,,,,,,,,,,,,,,,,,,,,,,,,,,,,,,,,,,,,,
5fff0b0bcbc37a5f5928ed26,2023-11-24_04h38.08.890,kallum_motion_pilot,2023.1.2,Win32,59.90176111,5fff0b0bcbc37a5f5928ed26,656018846682f3df8008bb8f,65601a8ab6541fd121ba53b1,1,161,323,52,1,threeone,,,,,,,,,,,,,,,,,,,,,,,,,,,,,,,,,,,,,,,,,,,,,,,,,,,,,,,,,,,,,,,,,,,,,,,,,,,,,,,,,,,,,
5fff0b0bcbc37a5f5928ed26,2023-11-24_04h38.08.890,kallum_motion_pilot,2023.1.2,Win32,59.90176111,5fff0b0bcbc37a5f5928ed26,656018846682f3df8008bb8f,65601a8ab6541fd121ba53b1,2,0,324,120,1,fivesix,,,,,,,,,,,,,,,,,,,,,,,,,,,,,,,,,,,,,,,,,,,,,,,,,,,,,,,,,,,,,,,,,,,,,,,,,,,,,,,,,,,,,
5fff0b0bcbc37a5f5928ed26,2023-11-24_04h38.08.890,kallum_motion_pilot,2023.1.2,Win32,59.90176111,5fff0b0bcbc37a5f5928ed26,656018846682f3df8008bb8f,65601a8ab6541fd121ba53b1,2,1,325,7,1,fourthree,,,,,,,,,,,,,,,,,,,,,,,,,,,,,,,,,,,,,,,,,,,,,,,,,,,,,,,,,,,,,,,,,,,,,,,,,,,,,,,,,,,,,
5fff0b0bcbc37a5f5928ed26,2023-11-24_04h38.08.890,kallum_motion_pilot,2023.1.2,Win32,59.90176111,5fff0b0bcbc37a5f5928ed26,656018846682f3df8008bb8f,65601a8ab6541fd121ba53b1,2,2,326,111,1,eightseven,,,,,,,,,,,,,,,,,,,,,,,,,,,,,,,,,,,,,,,,,,,,,,,,,,,,,,,,,,,,,,,,,,,,,,,,,,,,,,,,,,,,,
5fff0b0bcbc37a5f5928ed26,2023-11-24_04h38.08.890,kallum_motion_pilot,2023.1.2,Win32,59.90176111,5fff0b0bcbc37a5f5928ed26,656018846682f3df8008bb8f,65601a8ab6541fd121ba53b1,2,3,327,140,1,sevenfive,,,,,,,,,,,,,,,,,,,,,,,,,,,,,,,,,,,,,,,,,,,,,,,,,,,,,,,,,,,,,,,,,,,,,,,,,,,,,,,,,,,,,
5fff0b0bcbc37a5f5928ed26,2023-11-24_04h38.08.890,kallum_motion_pilot,2023.1.2,Win32,59.90176111,5fff0b0bcbc37a5f5928ed26,656018846682f3df8008bb8f,65601a8ab6541fd121ba53b1,2,4,328,97,1,fiveseven,,,,,,,,,,,,,,,,,,,,,,,,,,,,,,,,,,,,,,,,,,,,,,,,,,,,,,,,,,,,,,,,,,,,,,,,,,,,,,,,,,,,,
5fff0b0bcbc37a5f5928ed26,2023-11-24_04h38.08.890,kallum_motion_pilot,2023.1.2,Win32,59.90176111,5fff0b0bcbc37a5f5928ed26,656018846682f3df8008bb8f,65601a8ab6541fd121ba53b1,2,5,329,51,1,twofour,,,,,,,,,,,,,,,,,,,,,,,,,,,,,,,,,,,,,,,,,,,,,,,,,,,,,,,,,,,,,,,,,,,,,,,,,,,,,,,,,,,,,
5fff0b0bcbc37a5f5928ed26,2023-11-24_04h38.08.890,kallum_motion_pilot,2023.1.2,Win32,59.90176111,5fff0b0bcbc37a5f5928ed26,656018846682f3df8008bb8f,65601a8ab6541fd121ba53b1,2,6,330,133,1,seveneight,,,,,,,,,,,,,,,,,,,,,,,,,,,,,,,,,,,,,,,,,,,,,,,,,,,,,,,,,,,,,,,,,,,,,,,,,,,,,,,,,,,,,
5fff0b0bcbc37a5f5928ed26,2023-11-24_04h38.08.890,kallum_motion_pilot,2023.1.2,Win32,59.90176111,5fff0b0bcbc37a5f5928ed26,656018846682f3df8008bb8f,65601a8ab6541fd121ba53b1,2,7,331,88,1,fivesix,,,,,,,,,,,,,,,,,,,,,,,,,,,,,,,,,,,,,,,,,,,,,,,,,,,,,,,,,,,,,,,,,,,,,,,,,,,,,,,,,,,,,
5fff0b0bcbc37a5f5928ed26,2023-11-24_04h38.08.890,kallum_motion_pilot,2023.1.2,Win32,59.90176111,5fff0b0bcbc37a5f5928ed26,656018846682f3df8008bb8f,65601a8ab6541fd121ba53b1,2,8,332,78,1,fourtwo,,,,,,,,,,,,,,,,,,,,,,,,,,,,,,,,,,,,,,,,,,,,,,,,,,,,,,,,,,,,,,,,,,,,,,,,,,,,,,,,,,,,,
5fff0b0bcbc37a5f5928ed26,2023-11-24_04h38.08.890,kallum_motion_pilot,2023.1.2,Win32,59.90176111,5fff0b0bcbc37a5f5928ed26,656018846682f3df8008bb8f,65601a8ab6541fd121ba53b1,2,9,333,123,1,sixeight,,,,,,,,,,,,,,,,,,,,,,,,,,,,,,,,,,,,,,,,,,,,,,,,,,,,,,,,,,,,,,,,,,,,,,,,,,,,,,,,,,,,,
5fff0b0bcbc37a5f5928ed26,2023-11-24_04h38.08.890,kallum_motion_pilot,2023.1.2,Win32,59.90176111,5fff0b0bcbc37a5f5928ed26,656018846682f3df8008bb8f,65601a8ab6541fd121ba53b1,2,10,334,104,1,fivesix,,,,,,,,,,,,,,,,,,,,,,,,,,,,,,,,,,,,,,,,,,,,,,,,,,,,,,,,,,,,,,,,,,,,,,,,,,,,,,,,,,,,,
5fff0b0bcbc37a5f5928ed26,2023-11-24_04h38.08.890,kallum_motion_pilot,2023.1.2,Win32,59.90176111,5fff0b0bcbc37a5f5928ed26,656018846682f3df8008bb8f,65601a8ab6541fd121ba53b1,2,11,335,19,1,twofour,,,,,,,,,,,,,,,,,,,,,,,,,,,,,,,,,,,,,,,,,,,,,,,,,,,,,,,,,,,,,,,,,,,,,,,,,,,,,,,,,,,,,
5fff0b0bcbc37a5f5928ed26,2023-11-24_04h38.08.890,kallum_motion_pilot,2023.1.2,Win32,59.90176111,5fff0b0bcbc37a5f5928ed26,656018846682f3df8008bb8f,65601a8ab6541fd121ba53b1,2,12,336,55,1,fourthree,,,,,,,,,,,,,,,,,,,,,,,,,,,,,,,,,,,,,,,,,,,,,,,,,,,,,,,,,,,,,,,,,,,,,,,,,,,,,,,,,,,,,
5fff0b0bcbc37a5f5928ed26,2023-11-24_04h38.08.890,kallum_motion_pilot,2023.1.2,Win32,59.90176111,5fff0b0bcbc37a5f5928ed26,656018846682f3df8008bb8f,65601a8ab6541fd121ba53b1,2,13,337,58,1,twoone,,,,,,,,,,,,,,,,,,,,,,,,,,,,,,,,,,,,,,,,,,,,,,,,,,,,,,,,,,,,,,,,,,,,,,,,,,,,,,,,,,,,,
5fff0b0bcbc37a5f5928ed26,2023-11-24_04h38.08.890,kallum_motion_pilot,2023.1.2,Win32,59.90176111,5fff0b0bcbc37a5f5928ed26,656018846682f3df8008bb8f,65601a8ab6541fd121ba53b1,2,14,338,70,1,fourtwo,,,,,,,,,,,,,,,,,,,,,,,,,,,,,,,,,,,,,,,,,,,,,,,,,,,,,,,,,,,,,,,,,,,,,,,,,,,,,,,,,,,,,
5fff0b0bcbc37a5f5928ed26,2023-11-24_04h38.08.890,kallum_motion_pilot,2023.1.2,Win32,59.90176111,5fff0b0bcbc37a5f5928ed26,656018846682f3df8008bb8f,65601a8ab6541fd121ba53b1,2,15,339,42,1,twoone,,,,,,,,,,,,,,,,,,,,,,,,,,,,,,,,,,,,,,,,,,,,,,,,,,,,,,,,,,,,,,,,,,,,,,,,,,,,,,,,,,,,,
5fff0b0bcbc37a5f5928ed26,2023-11-24_04h38.08.890,kallum_motion_pilot,2023.1.2,Win32,59.90176111,5fff0b0bcbc37a5f5928ed26,656018846682f3df8008bb8f,65601a8ab6541fd121ba53b1,2,16,340,118,1,eightsix,,,,,,,,,,,,,,,,,,,,,,,,,,,,,,,,,,,,,,,,,,,,,,,,,,,,,,,,,,,,,,,,,,,,,,,,,,,,,,,,,,,,,
5fff0b0bcbc37a5f5928ed26,2023-11-24_04h38.08.890,kallum_motion_pilot,2023.1.2,Win32,59.90176111,5fff0b0bcbc37a5f5928ed26,656018846682f3df8008bb8f,65601a8ab6541fd121ba53b1,2,17,341,71,1,fourthree,,,,,,,,,,,,,,,,,,,,,,,,,,,,,,,,,,,,,,,,,,,,,,,,,,,,,,,,,,,,,,,,,,,,,,,,,,,,,,,,,,,,,
5fff0b0bcbc37a5f5928ed26,2023-11-24_04h38.08.890,kallum_motion_pilot,2023.1.2,Win32,59.90176111,5fff0b0bcbc37a5f5928ed26,656018846682f3df8008bb8f,65601a8ab6541fd121ba53b1,2,18,342,20,1,threeone,,,,,,,,,,,,,,,,,,,,,,,,,,,,,,,,,,,,,,,,,,,,,,,,,,,,,,,,,,,,,,,,,,,,,,,,,,,,,,,,,,,,,
5fff0b0bcbc37a5f5928ed26,2023-11-24_04h38.08.890,kallum_motion_pilot,2023.1.2,Win32,59.90176111,5fff0b0bcbc37a5f5928ed26,656018846682f3df8008bb8f,65601a8ab6541fd121ba53b1,2,19,343,146,1,sixfive,,,,,,,,,,,,,,,,,,,,,,,,,,,,,,,,,,,,,,,,,,,,,,,,,,,,,,,,,,,,,,,,,,,,,,,,,,,,,,,,,,,,,
5fff0b0bcbc37a5f5928ed26,2023-11-24_04h38.08.890,kallum_motion_pilot,2023.1.2,Win32,59.90176111,5fff0b0bcbc37a5f5928ed26,656018846682f3df8008bb8f,65601a8ab6541fd121ba53b1,2,20,344,3,1,twofour,,,,,,,,,,,,,,,,,,,,,,,,,,,,,,,,,,,,,,,,,,,,,,,,,,,,,,,,,,,,,,,,,,,,,,,,,,,,,,,,,,,,,
5fff0b0bcbc37a5f5928ed26,2023-11-24_04h38.08.890,kallum_motion_pilot,2023.1.2,Win32,59.90176111,5fff0b0bcbc37a5f5928ed26,656018846682f3df8008bb8f,65601a8ab6541fd121ba53b1,2,21,345,34,1,twoone,,,,,,,,,,,,,,,,,,,,,,,,,,,,,,,,,,,,,,,,,,,,,,,,,,,,,,,,,,,,,,,,,,,,,,,,,,,,,,,,,,,,,
5fff0b0bcbc37a5f5928ed26,2023-11-24_04h38.08.890,kallum_motion_pilot,2023.1.2,Win32,59.90176111,5fff0b0bcbc37a5f5928ed26,656018846682f3df8008bb8f,65601a8ab6541fd121ba53b1,2,22,346,95,1,eightseven,,,,,,,,,,,,,,,,,,,,,,,,,,,,,,,,,,,,,,,,,,,,,,,,,,,,,,,,,,,,,,,,,,,,,,,,,,,,,,,,,,,,,
5fff0b0bcbc37a5f5928ed26,2023-11-24_04h38.08.890,kallum_motion_pilot,2023.1.2,Win32,59.90176111,5fff0b0bcbc37a5f5928ed26,656018846682f3df8008bb8f,65601a8ab6541fd121ba53b1,2,23,347,124,1,sevenfive,,,,,,,,,,,,,,,,,,,,,,,,,,,,,,,,,,,,,,,,,,,,,,,,,,,,,,,,,,,,,,,,,,,,,,,,,,,,,,,,,,,,,
5fff0b0bcbc37a5f5928ed26,2023-11-24_04h38.08.890,kallum_motion_pilot,2023.1.2,Win32,59.90176111,5fff0b0bcbc37a5f5928ed26,656018846682f3df8008bb8f,65601a8ab6541fd121ba53b1,2,24,348,85,1,seveneight,,,,,,,,,,,,,,,,,,,,,,,,,,,,,,,,,,,,,,,,,,,,,,,,,,,,,,,,,,,,,,,,,,,,,,,,,,,,,,,,,,,,,
5fff0b0bcbc37a5f5928ed26,2023-11-24_04h38.08.890,kallum_motion_pilot,2023.1.2,Win32,59.90176111,5fff0b0bcbc37a5f5928ed26,656018846682f3df8008bb8f,65601a8ab6541fd121ba53b1,2,25,349,40,1,onetwo,,,,,,,,,,,,,,,,,,,,,,,,,,,,,,,,,,,,,,,,,,,,,,,,,,,,,,,,,,,,,,,,,,,,,,,,,,,,,,,,,,,,,
