startup.started,startup.stopped,Prolific ID*,date,expName,psychopyVersion,OS,frameRate,participant,study_id,session,stimpositions.started,stimpositions.stopped,hardcoded_stimulus_positions.thisRepN,hardcoded_stimulus_positions.thisTrialN,hardcoded_stimulus_positions.thisN,hardcoded_stimulus_positions.thisIndex,hardcoded_stimulus_positions.ran,StimulusPos,stimorientation.started,stimorientation.stopped,prac_stimorientation_import_loop.thisRepN,prac_stimorientation_import_loop.thisTrialN,prac_stimorientation_import_loop.thisN,prac_stimorientation_import_loop.thisIndex,prac_stimorientation_import_loop.ran,Stimorientation,welcome_instr.started,welcome_instr.stopped,key_resp.keys,key_resp.rt,key_resp.duration,response_steppedout_1.started,response_steppedout_1.stopped,key_resp_20.keys,key_resp_20.rt,key_resp_20.duration,response_steppedout_2.started,response_steppedout_2.stopped,key_resp_19.keys,key_resp_19.rt,key_resp_19.duration,stim_response_instr.started,stim_response_instr.stopped,key_resp_15.keys,key_resp_15.rt,key_resp_15.duration,direction_instr_2.started,direction_instr_2.stopped,key_resp_9.keys,key_resp_9.rt,key_resp_9.duration,instr_prac.started,instr_prac.stopped,key_resp_10.keys,key_resp_10.rt,key_resp_10.duration,Stim1_display_prac.started,Stim1_display_prac.stopped,Ecc,Circle1_ori,Circle2_ori,response_prac.started,similarity,response_time,response_prac.stopped,mouse_5.x,mouse_5.y,mouse_5.leftButton,mouse_5.midButton,mouse_5.rightButton,mouse_5.clicked_name,responseprac_feedback.started,responseprac_feedback.stopped,summary2_prac.started,summary2_prac.stopped,mouse_6.x,mouse_6.y,mouse_6.leftButton,mouse_6.midButton,mouse_6.rightButton,mouse_6.clicked_name,duringprac.thisRepN,duringprac.thisTrialN,duringprac.thisN,duringprac.thisIndex,duringprac.ran,begin.started,begin.stopped,key_resp_22.keys,key_resp_22.rt,key_resp_22.duration,Stim1_display.started,Stim1_display.stopped,circle1_ori,circle2_ori,blank.started,blank.stopped,response.started,response.stopped,mouse.x,mouse.y,mouse.leftButton,mouse.midButton,mouse.rightButton,mouse.clicked_name,response_2.started,response_2.stopped,mouse_2.x,mouse_2.y,mouse_2.leftButton,mouse_2.midButton,mouse_2.rightButton,mouse_2.clicked_name,special_trial.started,special_trial.stopped,catch_1.started,catch_1.stopped,mouse_3.x,mouse_3.y,mouse_3.leftButton,mouse_3.midButton,mouse_3.rightButton,catchresponse,catchnumber,response_time_catch,Catch,response_sum.started,response_sum.stopped,mouse_11.x,mouse_11.y,mouse_11.leftButton,mouse_11.midButton,mouse_11.rightButton,main_trial.thisRepN,main_trial.thisTrialN,main_trial.thisN,main_trial.thisIndex,main_trial.ran,Orientationtrialno,xcircle1_ori,xcircle2_ori,flip_presentation_sequence_for_double_pass.started,flip_presentation_sequence_for_double_pass.stopped,double_pass.thisRepN,double_pass.thisTrialN,double_pass.thisN,double_pass.thisIndex,double_pass.ran,goodbye.started,goodbye.stopped,key_resp_3.keys,key_resp_3.rt,key_resp_3.duration
0.0002,0.0003,5b5fdd52b36c3400014718b9,2023-12-14_20h09.36.272,kallum_motion_pilot,2023.2.3,Win32,59.88023952,5b5fdd52b36c3400014718b9,657bb317c8798c6608bceb3f,657bb4a459cf1a6fe7c475a4,,,,,,,,,,,,,,,,,,,,,,,,,,,,,,,,,,,,,,,,,,,,,,,,,,,,,,,,,,,,,,,,,,,,,,,,,,,,,,,,,,,,,,,,,,,,,,,,,,,,,,,,,,,,,,,,,,,,,,,,,,,,,,,,,,,,,,,,,,,,,,,
,,5b5fdd52b36c3400014718b9,2023-12-14_20h09.36.272,kallum_motion_pilot,2023.2.3,Win32,59.88023952,5b5fdd52b36c3400014718b9,657bb317c8798c6608bceb3f,657bb4a459cf1a6fe7c475a4,0.025,0.0252,0,0,0,75,1,twofour,,,,,,,,,,,,,,,,,,,,,,,,,,,,,,,,,,,,,,,,,,,,,,,,,,,,,,,,,,,,,,,,,,,,,,,,,,,,,,,,,,,,,,,,,,,,,,,,,,,,,,,,,,,,,,,,,,,,,,,,,,,,,,,,,,,,,,,
,,5b5fdd52b36c3400014718b9,2023-12-14_20h09.36.272,kallum_motion_pilot,2023.2.3,Win32,59.88023952,5b5fdd52b36c3400014718b9,657bb317c8798c6608bceb3f,657bb4a459cf1a6fe7c475a4,0.0255,0.0255,0,1,1,115,1,sixeight,,,,,,,,,,,,,,,,,,,,,,,,,,,,,,,,,,,,,,,,,,,,,,,,,,,,,,,,,,,,,,,,,,,,,,,,,,,,,,,,,,,,,,,,,,,,,,,,,,,,,,,,,,,,,,,,,,,,,,,,,,,,,,,,,,,,,,,
,,5b5fdd52b36c3400014718b9,2023-12-14_20h09.36.272,kallum_motion_pilot,2023.2.3,Win32,59.88023952,5b5fdd52b36c3400014718b9,657bb317c8798c6608bceb3f,657bb4a459cf1a6fe7c475a4,0.0255,0.0256,0,2,2,97,1,fiveseven,,,,,,,,,,,,,,,,,,,,,,,,,,,,,,,,,,,,,,,,,,,,,,,,,,,,,,,,,,,,,,,,,,,,,,,,,,,,,,,,,,,,,,,,,,,,,,,,,,,,,,,,,,,,,,,,,,,,,,,,,,,,,,,,,,,,,,,
,,5b5fdd52b36c3400014718b9,2023-12-14_20h09.36.272,kallum_motion_pilot,2023.2.3,Win32,59.88023952,5b5fdd52b36c3400014718b9,657bb317c8798c6608bceb3f,657bb4a459cf1a6fe7c475a4,0.0257,0.0258,0,3,3,126,1,eightsix,,,,,,,,,,,,,,,,,,,,,,,,,,,,,,,,,,,,,,,,,,,,,,,,,,,,,,,,,,,,,,,,,,,,,,,,,,,,,,,,,,,,,,,,,,,,,,,,,,,,,,,,,,,,,,,,,,,,,,,,,,,,,,,,,,,,,,,
,,5b5fdd52b36c3400014718b9,2023-12-14_20h09.36.272,kallum_motion_pilot,2023.2.3,Win32,59.88023952,5b5fdd52b36c3400014718b9,657bb317c8798c6608bceb3f,657bb4a459cf1a6fe7c475a4,0.0259,0.0259,0,4,4,55,1,fourthree,,,,,,,,,,,,,,,,,,,,,,,,,,,,,,,,,,,,,,,,,,,,,,,,,,,,,,,,,,,,,,,,,,,,,,,,,,,,,,,,,,,,,,,,,,,,,,,,,,,,,,,,,,,,,,,,,,,,,,,,,,,,,,,,,,,,,,,
,,5b5fdd52b36c3400014718b9,2023-12-14_20h09.36.272,kallum_motion_pilot,2023.2.3,Win32,59.88023952,5b5fdd52b36c3400014718b9,657bb317c8798c6608bceb3f,657bb4a459cf1a6fe7c475a4,0.0261,0.0261,0,5,5,99,1,sixeight,,,,,,,,,,,,,,,,,,,,,,,,,,,,,,,,,,,,,,,,,,,,,,,,,,,,,,,,,,,,,,,,,,,,,,,,,,,,,,,,,,,,,,,,,,,,,,,,,,,,,,,,,,,,,,,,,,,,,,,,,,,,,,,,,,,,,,,
,,5b5fdd52b36c3400014718b9,2023-12-14_20h09.36.272,kallum_motion_pilot,2023.2.3,Win32,59.88023952,5b5fdd52b36c3400014718b9,657bb317c8798c6608bceb3f,657bb4a459cf1a6fe7c475a4,0.0262,0.0263,0,6,6,135,1,eightseven,,,,,,,,,,,,,,,,,,,,,,,,,,,,,,,,,,,,,,,,,,,,,,,,,,,,,,,,,,,,,,,,,,,,,,,,,,,,,,,,,,,,,,,,,,,,,,,,,,,,,,,,,,,,,,,,,,,,,,,,,,,,,,,,,,,,,,,
,,5b5fdd52b36c3400014718b9,2023-12-14_20h09.36.272,kallum_motion_pilot,2023.2.3,Win32,59.88023952,5b5fdd52b36c3400014718b9,657bb317c8798c6608bceb3f,657bb4a459cf1a6fe7c475a4,0.0263,0.0264,0,7,7,87,1,eightseven,,,,,,,,,,,,,,,,,,,,,,,,,,,,,,,,,,,,,,,,,,,,,,,,,,,,,,,,,,,,,,,,,,,,,,,,,,,,,,,,,,,,,,,,,,,,,,,,,,,,,,,,,,,,,,,,,,,,,,,,,,,,,,,,,,,,,,,
,,5b5fdd52b36c3400014718b9,2023-12-14_20h09.36.272,kallum_motion_pilot,2023.2.3,Win32,59.88023952,5b5fdd52b36c3400014718b9,657bb317c8798c6608bceb3f,657bb4a459cf1a6fe7c475a4,0.0266,0.0267,0,8,8,137,1,fiveseven,,,,,,,,,,,,,,,,,,,,,,,,,,,,,,,,,,,,,,,,,,,,,,,,,,,,,,,,,,,,,,,,,,,,,,,,,,,,,,,,,,,,,,,,,,,,,,,,,,,,,,,,,,,,,,,,,,,,,,,,,,,,,,,,,,,,,,,
,,5b5fdd52b36c3400014718b9,2023-12-14_20h09.36.272,kallum_motion_pilot,2023.2.3,Win32,59.88023952,5b5fdd52b36c3400014718b9,657bb317c8798c6608bceb3f,657bb4a459cf1a6fe7c475a4,0.0267,0.0268,0,9,9,68,1,threeone,,,,,,,,,,,,,,,,,,,,,,,,,,,,,,,,,,,,,,,,,,,,,,,,,,,,,,,,,,,,,,,,,,,,,,,,,,,,,,,,,,,,,,,,,,,,,,,,,,,,,,,,,,,,,,,,,,,,,,,,,,,,,,,,,,,,,,,
,,5b5fdd52b36c3400014718b9,2023-12-14_20h09.36.272,kallum_motion_pilot,2023.2.3,Win32,59.88023952,5b5fdd52b36c3400014718b9,657bb317c8798c6608bceb3f,657bb4a459cf1a6fe7c475a4,0.0269,0.0269,0,10,10,96,1,fivesix,,,,,,,,,,,,,,,,,,,,,,,,,,,,,,,,,,,,,,,,,,,,,,,,,,,,,,,,,,,,,,,,,,,,,,,,,,,,,,,,,,,,,,,,,,,,,,,,,,,,,,,,,,,,,,,,,,,,,,,,,,,,,,,,,,,,,,,
,,5b5fdd52b36c3400014718b9,2023-12-14_20h09.36.272,kallum_motion_pilot,2023.2.3,Win32,59.88023952,5b5fdd52b36c3400014718b9,657bb317c8798c6608bceb3f,657bb4a459cf1a6fe7c475a4,0.027,0.0271,0,11,11,30,1,fourtwo,,,,,,,,,,,,,,,,,,,,,,,,,,,,,,,,,,,,,,,,,,,,,,,,,,,,,,,,,,,,,,,,,,,,,,,,,,,,,,,,,,,,,,,,,,,,,,,,,,,,,,,,,,,,,,,,,,,,,,,,,,,,,,,,,,,,,,,
,,5b5fdd52b36c3400014718b9,2023-12-14_20h09.36.272,kallum_motion_pilot,2023.2.3,Win32,59.88023952,5b5fdd52b36c3400014718b9,657bb317c8798c6608bceb3f,657bb4a459cf1a6fe7c475a4,0.0272,0.0273,0,12,12,147,1,sixeight,,,,,,,,,,,,,,,,,,,,,,,,,,,,,,,,,,,,,,,,,,,,,,,,,,,,,,,,,,,,,,,,,,,,,,,,,,,,,,,,,,,,,,,,,,,,,,,,,,,,,,,,,,,,,,,,,,,,,,,,,,,,,,,,,,,,,,,
,,5b5fdd52b36c3400014718b9,2023-12-14_20h09.36.272,kallum_motion_pilot,2023.2.3,Win32,59.88023952,5b5fdd52b36c3400014718b9,657bb317c8798c6608bceb3f,657bb4a459cf1a6fe7c475a4,0.0274,0.0275,0,13,13,51,1,twofour,,,,,,,,,,,,,,,,,,,,,,,,,,,,,,,,,,,,,,,,,,,,,,,,,,,,,,,,,,,,,,,,,,,,,,,,,,,,,,,,,,,,,,,,,,,,,,,,,,,,,,,,,,,,,,,,,,,,,,,,,,,,,,,,,,,,,,,
,,5b5fdd52b36c3400014718b9,2023-12-14_20h09.36.272,kallum_motion_pilot,2023.2.3,Win32,59.88023952,5b5fdd52b36c3400014718b9,657bb317c8798c6608bceb3f,657bb4a459cf1a6fe7c475a4,0.0275,0.0277,0,14,14,72,1,onetwo,,,,,,,,,,,,,,,,,,,,,,,,,,,,,,,,,,,,,,,,,,,,,,,,,,,,,,,,,,,,,,,,,,,,,,,,,,,,,,,,,,,,,,,,,,,,,,,,,,,,,,,,,,,,,,,,,,,,,,,,,,,,,,,,,,,,,,,
,,5b5fdd52b36c3400014718b9,2023-12-14_20h09.36.272,kallum_motion_pilot,2023.2.3,Win32,59.88023952,5b5fdd52b36c3400014718b9,657bb317c8798c6608bceb3f,657bb4a459cf1a6fe7c475a4,0.0277,0.0277,0,15,15,82,1,sixfive,,,,,,,,,,,,,,,,,,,,,,,,,,,,,,,,,,,,,,,,,,,,,,,,,,,,,,,,,,,,,,,,,,,,,,,,,,,,,,,,,,,,,,,,,,,,,,,,,,,,,,,,,,,,,,,,,,,,,,,,,,,,,,,,,,,,,,,
,,5b5fdd52b36c3400014718b9,2023-12-14_20h09.36.272,kallum_motion_pilot,2023.2.3,Win32,59.88023952,5b5fdd52b36c3400014718b9,657bb317c8798c6608bceb3f,657bb4a459cf1a6fe7c475a4,0.0279,0.0279,0,16,16,98,1,sixfive,,,,,,,,,,,,,,,,,,,,,,,,,,,,,,,,,,,,,,,,,,,,,,,,,,,,,,,,,,,,,,,,,,,,,,,,,,,,,,,,,,,,,,,,,,,,,,,,,,,,,,,,,,,,,,,,,,,,,,,,,,,,,,,,,,,,,,,
,,5b5fdd52b36c3400014718b9,2023-12-14_20h09.36.272,kallum_motion_pilot,2023.2.3,Win32,59.88023952,5b5fdd52b36c3400014718b9,657bb317c8798c6608bceb3f,657bb4a459cf1a6fe7c475a4,0.028,0.0281,0,17,17,2,1,twoone,,,,,,,,,,,,,,,,,,,,,,,,,,,,,,,,,,,,,,,,,,,,,,,,,,,,,,,,,,,,,,,,,,,,,,,,,,,,,,,,,,,,,,,,,,,,,,,,,,,,,,,,,,,,,,,,,,,,,,,,,,,,,,,,,,,,,,,
,,5b5fdd52b36c3400014718b9,2023-12-14_20h09.36.272,kallum_motion_pilot,2023.2.3,Win32,59.88023952,5b5fdd52b36c3400014718b9,657bb317c8798c6608bceb3f,657bb4a459cf1a6fe7c475a4,0.0282,0.0282,0,18,18,139,1,sixeight,,,,,,,,,,,,,,,,,,,,,,,,,,,,,,,,,,,,,,,,,,,,,,,,,,,,,,,,,,,,,,,,,,,,,,,,,,,,,,,,,,,,,,,,,,,,,,,,,,,,,,,,,,,,,,,,,,,,,,,,,,,,,,,,,,,,,,,
,,5b5fdd52b36c3400014718b9,2023-12-14_20h09.36.272,kallum_motion_pilot,2023.2.3,Win32,59.88023952,5b5fdd52b36c3400014718b9,657bb317c8798c6608bceb3f,657bb4a459cf1a6fe7c475a4,0.0283,0.0284,0,19,19,108,1,sevenfive,,,,,,,,,,,,,,,,,,,,,,,,,,,,,,,,,,,,,,,,,,,,,,,,,,,,,,,,,,,,,,,,,,,,,,,,,,,,,,,,,,,,,,,,,,,,,,,,,,,,,,,,,,,,,,,,,,,,,,,,,,,,,,,,,,,,,,,
,,5b5fdd52b36c3400014718b9,2023-12-14_20h09.36.272,kallum_motion_pilot,2023.2.3,Win32,59.88023952,5b5fdd52b36c3400014718b9,657bb317c8798c6608bceb3f,657bb4a459cf1a6fe7c475a4,0.0284,0.0285,0,20,20,154,1,sixfive,,,,,,,,,,,,,,,,,,,,,,,,,,,,,,,,,,,,,,,,,,,,,,,,,,,,,,,,,,,,,,,,,,,,,,,,,,,,,,,,,,,,,,,,,,,,,,,,,,,,,,,,,,,,,,,,,,,,,,,,,,,,,,,,,,,,,,,
,,5b5fdd52b36c3400014718b9,2023-12-14_20h09.36.272,kallum_motion_pilot,2023.2.3,Win32,59.88023952,5b5fdd52b36c3400014718b9,657bb317c8798c6608bceb3f,657bb4a459cf1a6fe7c475a4,0.0286,0.0286,0,21,21,31,1,fourthree,,,,,,,,,,,,,,,,,,,,,,,,,,,,,,,,,,,,,,,,,,,,,,,,,,,,,,,,,,,,,,,,,,,,,,,,,,,,,,,,,,,,,,,,,,,,,,,,,,,,,,,,,,,,,,,,,,,,,,,,,,,,,,,,,,,,,,,
,,5b5fdd52b36c3400014718b9,2023-12-14_20h09.36.272,kallum_motion_pilot,2023.2.3,Win32,59.88023952,5b5fdd52b36c3400014718b9,657bb317c8798c6608bceb3f,657bb4a459cf1a6fe7c475a4,0.0287,0.0288,0,22,22,3,1,twofour,,,,,,,,,,,,,,,,,,,,,,,,,,,,,,,,,,,,,,,,,,,,,,,,,,,,,,,,,,,,,,,,,,,,,,,,,,,,,,,,,,,,,,,,,,,,,,,,,,,,,,,,,,,,,,,,,,,,,,,,,,,,,,,,,,,,,,,
,,5b5fdd52b36c3400014718b9,2023-12-14_20h09.36.272,kallum_motion_pilot,2023.2.3,Win32,59.88023952,5b5fdd52b36c3400014718b9,657bb317c8798c6608bceb3f,657bb4a459cf1a6fe7c475a4,0.0288,0.0289,0,23,23,25,1,onethree,,,,,,,,,,,,,,,,,,,,,,,,,,,,,,,,,,,,,,,,,,,,,,,,,,,,,,,,,,,,,,,,,,,,,,,,,,,,,,,,,,,,,,,,,,,,,,,,,,,,,,,,,,,,,,,,,,,,,,,,,,,,,,,,,,,,,,,
,,5b5fdd52b36c3400014718b9,2023-12-14_20h09.36.272,kallum_motion_pilot,2023.2.3,Win32,59.88023952,5b5fdd52b36c3400014718b9,657bb317c8798c6608bceb3f,657bb4a459cf1a6fe7c475a4,0.029,0.029,0,24,24,13,1,threefour,,,,,,,,,,,,,,,,,,,,,,,,,,,,,,,,,,,,,,,,,,,,,,,,,,,,,,,,,,,,,,,,,,,,,,,,,,,,,,,,,,,,,,,,,,,,,,,,,,,,,,,,,,,,,,,,,,,,,,,,,,,,,,,,,,,,,,,
,,5b5fdd52b36c3400014718b9,2023-12-14_20h09.36.272,kallum_motion_pilot,2023.2.3,Win32,59.88023952,5b5fdd52b36c3400014718b9,657bb317c8798c6608bceb3f,657bb4a459cf1a6fe7c475a4,0.0292,0.0293,0,25,25,10,1,twoone,,,,,,,,,,,,,,,,,,,,,,,,,,,,,,,,,,,,,,,,,,,,,,,,,,,,,,,,,,,,,,,,,,,,,,,,,,,,,,,,,,,,,,,,,,,,,,,,,,,,,,,,,,,,,,,,,,,,,,,,,,,,,,,,,,,,,,,
,,5b5fdd52b36c3400014718b9,2023-12-14_20h09.36.272,kallum_motion_pilot,2023.2.3,Win32,59.88023952,5b5fdd52b36c3400014718b9,657bb317c8798c6608bceb3f,657bb4a459cf1a6fe7c475a4,0.0293,0.0294,0,26,26,44,1,threeone,,,,,,,,,,,,,,,,,,,,,,,,,,,,,,,,,,,,,,,,,,,,,,,,,,,,,,,,,,,,,,,,,,,,,,,,,,,,,,,,,,,,,,,,,,,,,,,,,,,,,,,,,,,,,,,,,,,,,,,,,,,,,,,,,,,,,,,
,,5b5fdd52b36c3400014718b9,2023-12-14_20h09.36.272,kallum_motion_pilot,2023.2.3,Win32,59.88023952,5b5fdd52b36c3400014718b9,657bb317c8798c6608bceb3f,657bb4a459cf1a6fe7c475a4,0.0295,0.0295,0,27,27,141,1,seveneight,,,,,,,,,,,,,,,,,,,,,,,,,,,,,,,,,,,,,,,,,,,,,,,,,,,,,,,,,,,,,,,,,,,,,,,,,,,,,,,,,,,,,,,,,,,,,,,,,,,,,,,,,,,,,,,,,,,,,,,,,,,,,,,,,,,,,,,
,,5b5fdd52b36c3400014718b9,2023-12-14_20h09.36.272,kallum_motion_pilot,2023.2.3,Win32,59.88023952,5b5fdd52b36c3400014718b9,657bb317c8798c6608bceb3f,657bb4a459cf1a6fe7c475a4,0.0296,0.0297,0,28,28,4,1,threeone,,,,,,,,,,,,,,,,,,,,,,,,,,,,,,,,,,,,,,,,,,,,,,,,,,,,,,,,,,,,,,,,,,,,,,,,,,,,,,,,,,,,,,,,,,,,,,,,,,,,,,,,,,,,,,,,,,,,,,,,,,,,,,,,,,,,,,,
,,5b5fdd52b36c3400014718b9,2023-12-14_20h09.36.272,kallum_motion_pilot,2023.2.3,Win32,59.88023952,5b5fdd52b36c3400014718b9,657bb317c8798c6608bceb3f,657bb4a459cf1a6fe7c475a4,0.0297,0.0297,0,29,29,33,1,onethree,,,,,,,,,,,,,,,,,,,,,,,,,,,,,,,,,,,,,,,,,,,,,,,,,,,,,,,,,,,,,,,,,,,,,,,,,,,,,,,,,,,,,,,,,,,,,,,,,,,,,,,,,,,,,,,,,,,,,,,,,,,,,,,,,,,,,,,
,,5b5fdd52b36c3400014718b9,2023-12-14_20h09.36.272,kallum_motion_pilot,2023.2.3,Win32,59.88023952,5b5fdd52b36c3400014718b9,657bb317c8798c6608bceb3f,657bb4a459cf1a6fe7c475a4,0.0299,0.0299,0,30,30,77,1,threefour,,,,,,,,,,,,,,,,,,,,,,,,,,,,,,,,,,,,,,,,,,,,,,,,,,,,,,,,,,,,,,,,,,,,,,,,,,,,,,,,,,,,,,,,,,,,,,,,,,,,,,,,,,,,,,,,,,,,,,,,,,,,,,,,,,,,,,,
,,5b5fdd52b36c3400014718b9,2023-12-14_20h09.36.272,kallum_motion_pilot,2023.2.3,Win32,59.88023952,5b5fdd52b36c3400014718b9,657bb317c8798c6608bceb3f,657bb4a459cf1a6fe7c475a4,0.03,0.03,0,31,31,8,1,onetwo,,,,,,,,,,,,,,,,,,,,,,,,,,,,,,,,,,,,,,,,,,,,,,,,,,,,,,,,,,,,,,,,,,,,,,,,,,,,,,,,,,,,,,,,,,,,,,,,,,,,,,,,,,,,,,,,,,,,,,,,,,,,,,,,,,,,,,,
,,5b5fdd52b36c3400014718b9,2023-12-14_20h09.36.272,kallum_motion_pilot,2023.2.3,Win32,59.88023952,5b5fdd52b36c3400014718b9,657bb317c8798c6608bceb3f,657bb4a459cf1a6fe7c475a4,0.0301,0.0301,0,32,32,116,1,sevenfive,,,,,,,,,,,,,,,,,,,,,,,,,,,,,,,,,,,,,,,,,,,,,,,,,,,,,,,,,,,,,,,,,,,,,,,,,,,,,,,,,,,,,,,,,,,,,,,,,,,,,,,,,,,,,,,,,,,,,,,,,,,,,,,,,,,,,,,
,,5b5fdd52b36c3400014718b9,2023-12-14_20h09.36.272,kallum_motion_pilot,2023.2.3,Win32,59.88023952,5b5fdd52b36c3400014718b9,657bb317c8798c6608bceb3f,657bb4a459cf1a6fe7c475a4,0.0303,0.0303,0,33,33,89,1,fiveseven,,,,,,,,,,,,,,,,,,,,,,,,,,,,,,,,,,,,,,,,,,,,,,,,,,,,,,,,,,,,,,,,,,,,,,,,,,,,,,,,,,,,,,,,,,,,,,,,,,,,,,,,,,,,,,,,,,,,,,,,,,,,,,,,,,,,,,,
,,5b5fdd52b36c3400014718b9,2023-12-14_20h09.36.272,kallum_motion_pilot,2023.2.3,Win32,59.88023952,5b5fdd52b36c3400014718b9,657bb317c8798c6608bceb3f,657bb4a459cf1a6fe7c475a4,0.0304,0.0305,0,34,34,133,1,seveneight,,,,,,,,,,,,,,,,,,,,,,,,,,,,,,,,,,,,,,,,,,,,,,,,,,,,,,,,,,,,,,,,,,,,,,,,,,,,,,,,,,,,,,,,,,,,,,,,,,,,,,,,,,,,,,,,,,,,,,,,,,,,,,,,,,,,,,,
,,5b5fdd52b36c3400014718b9,2023-12-14_20h09.36.272,kallum_motion_pilot,2023.2.3,Win32,59.88023952,5b5fdd52b36c3400014718b9,657bb317c8798c6608bceb3f,657bb4a459cf1a6fe7c475a4,0.0305,0.0306,0,35,35,160,1,fivesix,,,,,,,,,,,,,,,,,,,,,,,,,,,,,,,,,,,,,,,,,,,,,,,,,,,,,,,,,,,,,,,,,,,,,,,,,,,,,,,,,,,,,,,,,,,,,,,,,,,,,,,,,,,,,,,,,,,,,,,,,,,,,,,,,,,,,,,
,,5b5fdd52b36c3400014718b9,2023-12-14_20h09.36.272,kallum_motion_pilot,2023.2.3,Win32,59.88023952,5b5fdd52b36c3400014718b9,657bb317c8798c6608bceb3f,657bb4a459cf1a6fe7c475a4,0.0307,0.0308,0,36,36,16,1,onetwo,,,,,,,,,,,,,,,,,,,,,,,,,,,,,,,,,,,,,,,,,,,,,,,,,,,,,,,,,,,,,,,,,,,,,,,,,,,,,,,,,,,,,,,,,,,,,,,,,,,,,,,,,,,,,,,,,,,,,,,,,,,,,,,,,,,,,,,
,,5b5fdd52b36c3400014718b9,2023-12-14_20h09.36.272,kallum_motion_pilot,2023.2.3,Win32,59.88023952,5b5fdd52b36c3400014718b9,657bb317c8798c6608bceb3f,657bb4a459cf1a6fe7c475a4,0.0309,0.0309,0,37,37,36,1,threeone,,,,,,,,,,,,,,,,,,,,,,,,,,,,,,,,,,,,,,,,,,,,,,,,,,,,,,,,,,,,,,,,,,,,,,,,,,,,,,,,,,,,,,,,,,,,,,,,,,,,,,,,,,,,,,,,,,,,,,,,,,,,,,,,,,,,,,,
,,5b5fdd52b36c3400014718b9,2023-12-14_20h09.36.272,kallum_motion_pilot,2023.2.3,Win32,59.88023952,5b5fdd52b36c3400014718b9,657bb317c8798c6608bceb3f,657bb4a459cf1a6fe7c475a4,0.0309,0.031,0,38,38,86,1,eightsix,,,,,,,,,,,,,,,,,,,,,,,,,,,,,,,,,,,,,,,,,,,,,,,,,,,,,,,,,,,,,,,,,,,,,,,,,,,,,,,,,,,,,,,,,,,,,,,,,,,,,,,,,,,,,,,,,,,,,,,,,,,,,,,,,,,,,,,
,,5b5fdd52b36c3400014718b9,2023-12-14_20h09.36.272,kallum_motion_pilot,2023.2.3,Win32,59.88023952,5b5fdd52b36c3400014718b9,657bb317c8798c6608bceb3f,657bb4a459cf1a6fe7c475a4,0.0311,0.0311,0,39,39,26,1,twoone,,,,,,,,,,,,,,,,,,,,,,,,,,,,,,,,,,,,,,,,,,,,,,,,,,,,,,,,,,,,,,,,,,,,,,,,,,,,,,,,,,,,,,,,,,,,,,,,,,,,,,,,,,,,,,,,,,,,,,,,,,,,,,,,,,,,,,,
,,5b5fdd52b36c3400014718b9,2023-12-14_20h09.36.272,kallum_motion_pilot,2023.2.3,Win32,59.88023952,5b5fdd52b36c3400014718b9,657bb317c8798c6608bceb3f,657bb4a459cf1a6fe7c475a4,0.0312,0.0312,0,40,40,107,1,sixeight,,,,,,,,,,,,,,,,,,,,,,,,,,,,,,,,,,,,,,,,,,,,,,,,,,,,,,,,,,,,,,,,,,,,,,,,,,,,,,,,,,,,,,,,,,,,,,,,,,,,,,,,,,,,,,,,,,,,,,,,,,,,,,,,,,,,,,,
,,5b5fdd52b36c3400014718b9,2023-12-14_20h09.36.272,kallum_motion_pilot,2023.2.3,Win32,59.88023952,5b5fdd52b36c3400014718b9,657bb317c8798c6608bceb3f,657bb4a459cf1a6fe7c475a4,0.0314,0.0314,0,41,41,53,1,threefour,,,,,,,,,,,,,,,,,,,,,,,,,,,,,,,,,,,,,,,,,,,,,,,,,,,,,,,,,,,,,,,,,,,,,,,,,,,,,,,,,,,,,,,,,,,,,,,,,,,,,,,,,,,,,,,,,,,,,,,,,,,,,,,,,,,,,,,
,,5b5fdd52b36c3400014718b9,2023-12-14_20h09.36.272,kallum_motion_pilot,2023.2.3,Win32,59.88023952,5b5fdd52b36c3400014718b9,657bb317c8798c6608bceb3f,657bb4a459cf1a6fe7c475a4,0.0315,0.0315,0,42,42,102,1,eightsix,,,,,,,,,,,,,,,,,,,,,,,,,,,,,,,,,,,,,,,,,,,,,,,,,,,,,,,,,,,,,,,,,,,,,,,,,,,,,,,,,,,,,,,,,,,,,,,,,,,,,,,,,,,,,,,,,,,,,,,,,,,,,,,,,,,,,,,
,,5b5fdd52b36c3400014718b9,2023-12-14_20h09.36.272,kallum_motion_pilot,2023.2.3,Win32,59.88023952,5b5fdd52b36c3400014718b9,657bb317c8798c6608bceb3f,657bb4a459cf1a6fe7c475a4,0.0317,0.0317,0,43,43,85,1,seveneight,,,,,,,,,,,,,,,,,,,,,,,,,,,,,,,,,,,,,,,,,,,,,,,,,,,,,,,,,,,,,,,,,,,,,,,,,,,,,,,,,,,,,,,,,,,,,,,,,,,,,,,,,,,,,,,,,,,,,,,,,,,,,,,,,,,,,,,
,,5b5fdd52b36c3400014718b9,2023-12-14_20h09.36.272,kallum_motion_pilot,2023.2.3,Win32,59.88023952,5b5fdd52b36c3400014718b9,657bb317c8798c6608bceb3f,657bb4a459cf1a6fe7c475a4,0.0318,0.0318,0,44,44,120,1,fivesix,,,,,,,,,,,,,,,,,,,,,,,,,,,,,,,,,,,,,,,,,,,,,,,,,,,,,,,,,,,,,,,,,,,,,,,,,,,,,,,,,,,,,,,,,,,,,,,,,,,,,,,,,,,,,,,,,,,,,,,,,,,,,,,,,,,,,,,
,,5b5fdd52b36c3400014718b9,2023-12-14_20h09.36.272,kallum_motion_pilot,2023.2.3,Win32,59.88023952,5b5fdd52b36c3400014718b9,657bb317c8798c6608bceb3f,657bb4a459cf1a6fe7c475a4,0.0319,0.0319,0,45,45,118,1,eightsix,,,,,,,,,,,,,,,,,,,,,,,,,,,,,,,,,,,,,,,,,,,,,,,,,,,,,,,,,,,,,,,,,,,,,,,,,,,,,,,,,,,,,,,,,,,,,,,,,,,,,,,,,,,,,,,,,,,,,,,,,,,,,,,,,,,,,,,
,,5b5fdd52b36c3400014718b9,2023-12-14_20h09.36.272,kallum_motion_pilot,2023.2.3,Win32,59.88023952,5b5fdd52b36c3400014718b9,657bb317c8798c6608bceb3f,657bb4a459cf1a6fe7c475a4,0.0321,0.0321,0,46,46,110,1,eightsix,,,,,,,,,,,,,,,,,,,,,,,,,,,,,,,,,,,,,,,,,,,,,,,,,,,,,,,,,,,,,,,,,,,,,,,,,,,,,,,,,,,,,,,,,,,,,,,,,,,,,,,,,,,,,,,,,,,,,,,,,,,,,,,,,,,,,,,
,,5b5fdd52b36c3400014718b9,2023-12-14_20h09.36.272,kallum_motion_pilot,2023.2.3,Win32,59.88023952,5b5fdd52b36c3400014718b9,657bb317c8798c6608bceb3f,657bb4a459cf1a6fe7c475a4,0.0321,0.0322,0,47,47,91,1,sixeight,,,,,,,,,,,,,,,,,,,,,,,,,,,,,,,,,,,,,,,,,,,,,,,,,,,,,,,,,,,,,,,,,,,,,,,,,,,,,,,,,,,,,,,,,,,,,,,,,,,,,,,,,,,,,,,,,,,,,,,,,,,,,,,,,,,,,,,
,,5b5fdd52b36c3400014718b9,2023-12-14_20h09.36.272,kallum_motion_pilot,2023.2.3,Win32,59.88023952,5b5fdd52b36c3400014718b9,657bb317c8798c6608bceb3f,657bb4a459cf1a6fe7c475a4,0.0323,0.0324,0,48,48,56,1,onetwo,,,,,,,,,,,,,,,,,,,,,,,,,,,,,,,,,,,,,,,,,,,,,,,,,,,,,,,,,,,,,,,,,,,,,,,,,,,,,,,,,,,,,,,,,,,,,,,,,,,,,,,,,,,,,,,,,,,,,,,,,,,,,,,,,,,,,,,
,,5b5fdd52b36c3400014718b9,2023-12-14_20h09.36.272,kallum_motion_pilot,2023.2.3,Win32,59.88023952,5b5fdd52b36c3400014718b9,657bb317c8798c6608bceb3f,657bb4a459cf1a6fe7c475a4,0.0325,0.0325,0,49,49,27,1,twofour,,,,,,,,,,,,,,,,,,,,,,,,,,,,,,,,,,,,,,,,,,,,,,,,,,,,,,,,,,,,,,,,,,,,,,,,,,,,,,,,,,,,,,,,,,,,,,,,,,,,,,,,,,,,,,,,,,,,,,,,,,,,,,,,,,,,,,,
,,5b5fdd52b36c3400014718b9,2023-12-14_20h09.36.272,kallum_motion_pilot,2023.2.3,Win32,59.88023952,5b5fdd52b36c3400014718b9,657bb317c8798c6608bceb3f,657bb4a459cf1a6fe7c475a4,0.0327,0.0328,0,50,50,153,1,fiveseven,,,,,,,,,,,,,,,,,,,,,,,,,,,,,,,,,,,,,,,,,,,,,,,,,,,,,,,,,,,,,,,,,,,,,,,,,,,,,,,,,,,,,,,,,,,,,,,,,,,,,,,,,,,,,,,,,,,,,,,,,,,,,,,,,,,,,,,
,,5b5fdd52b36c3400014718b9,2023-12-14_20h09.36.272,kallum_motion_pilot,2023.2.3,Win32,59.88023952,5b5fdd52b36c3400014718b9,657bb317c8798c6608bceb3f,657bb4a459cf1a6fe7c475a4,0.0328,0.0328,0,51,51,131,1,sixeight,,,,,,,,,,,,,,,,,,,,,,,,,,,,,,,,,,,,,,,,,,,,,,,,,,,,,,,,,,,,,,,,,,,,,,,,,,,,,,,,,,,,,,,,,,,,,,,,,,,,,,,,,,,,,,,,,,,,,,,,,,,,,,,,,,,,,,,
,,5b5fdd52b36c3400014718b9,2023-12-14_20h09.36.272,kallum_motion_pilot,2023.2.3,Win32,59.88023952,5b5fdd52b36c3400014718b9,657bb317c8798c6608bceb3f,657bb4a459cf1a6fe7c475a4,0.033,0.033,0,52,52,61,1,threefour,,,,,,,,,,,,,,,,,,,,,,,,,,,,,,,,,,,,,,,,,,,,,,,,,,,,,,,,,,,,,,,,,,,,,,,,,,,,,,,,,,,,,,,,,,,,,,,,,,,,,,,,,,,,,,,,,,,,,,,,,,,,,,,,,,,,,,,
,,5b5fdd52b36c3400014718b9,2023-12-14_20h09.36.272,kallum_motion_pilot,2023.2.3,Win32,59.88023952,5b5fdd52b36c3400014718b9,657bb317c8798c6608bceb3f,657bb4a459cf1a6fe7c475a4,0.0332,0.0332,0,53,53,14,1,fourtwo,,,,,,,,,,,,,,,,,,,,,,,,,,,,,,,,,,,,,,,,,,,,,,,,,,,,,,,,,,,,,,,,,,,,,,,,,,,,,,,,,,,,,,,,,,,,,,,,,,,,,,,,,,,,,,,,,,,,,,,,,,,,,,,,,,,,,,,
,,5b5fdd52b36c3400014718b9,2023-12-14_20h09.36.272,kallum_motion_pilot,2023.2.3,Win32,59.88023952,5b5fdd52b36c3400014718b9,657bb317c8798c6608bceb3f,657bb4a459cf1a6fe7c475a4,0.0332,0.0333,0,54,54,66,1,twoone,,,,,,,,,,,,,,,,,,,,,,,,,,,,,,,,,,,,,,,,,,,,,,,,,,,,,,,,,,,,,,,,,,,,,,,,,,,,,,,,,,,,,,,,,,,,,,,,,,,,,,,,,,,,,,,,,,,,,,,,,,,,,,,,,,,,,,,
,,5b5fdd52b36c3400014718b9,2023-12-14_20h09.36.272,kallum_motion_pilot,2023.2.3,Win32,59.88023952,5b5fdd52b36c3400014718b9,657bb317c8798c6608bceb3f,657bb4a459cf1a6fe7c475a4,0.0335,0.0335,0,55,55,46,1,fourtwo,,,,,,,,,,,,,,,,,,,,,,,,,,,,,,,,,,,,,,,,,,,,,,,,,,,,,,,,,,,,,,,,,,,,,,,,,,,,,,,,,,,,,,,,,,,,,,,,,,,,,,,,,,,,,,,,,,,,,,,,,,,,,,,,,,,,,,,
,,5b5fdd52b36c3400014718b9,2023-12-14_20h09.36.272,kallum_motion_pilot,2023.2.3,Win32,59.88023952,5b5fdd52b36c3400014718b9,657bb317c8798c6608bceb3f,657bb4a459cf1a6fe7c475a4,0.0336,0.0336,0,56,56,1,1,onethree,,,,,,,,,,,,,,,,,,,,,,,,,,,,,,,,,,,,,,,,,,,,,,,,,,,,,,,,,,,,,,,,,,,,,,,,,,,,,,,,,,,,,,,,,,,,,,,,,,,,,,,,,,,,,,,,,,,,,,,,,,,,,,,,,,,,,,,
,,5b5fdd52b36c3400014718b9,2023-12-14_20h09.36.272,kallum_motion_pilot,2023.2.3,Win32,59.88023952,5b5fdd52b36c3400014718b9,657bb317c8798c6608bceb3f,657bb4a459cf1a6fe7c475a4,0.0337,0.0337,0,57,57,78,1,fourtwo,,,,,,,,,,,,,,,,,,,,,,,,,,,,,,,,,,,,,,,,,,,,,,,,,,,,,,,,,,,,,,,,,,,,,,,,,,,,,,,,,,,,,,,,,,,,,,,,,,,,,,,,,,,,,,,,,,,,,,,,,,,,,,,,,,,,,,,
,,5b5fdd52b36c3400014718b9,2023-12-14_20h09.36.272,kallum_motion_pilot,2023.2.3,Win32,59.88023952,5b5fdd52b36c3400014718b9,657bb317c8798c6608bceb3f,657bb4a459cf1a6fe7c475a4,0.0338,0.0338,0,58,58,43,1,twofour,,,,,,,,,,,,,,,,,,,,,,,,,,,,,,,,,,,,,,,,,,,,,,,,,,,,,,,,,,,,,,,,,,,,,,,,,,,,,,,,,,,,,,,,,,,,,,,,,,,,,,,,,,,,,,,,,,,,,,,,,,,,,,,,,,,,,,,
,,5b5fdd52b36c3400014718b9,2023-12-14_20h09.36.272,kallum_motion_pilot,2023.2.3,Win32,59.88023952,5b5fdd52b36c3400014718b9,657bb317c8798c6608bceb3f,657bb4a459cf1a6fe7c475a4,0.034,0.0341,0,59,59,54,1,fourtwo,,,,,,,,,,,,,,,,,,,,,,,,,,,,,,,,,,,,,,,,,,,,,,,,,,,,,,,,,,,,,,,,,,,,,,,,,,,,,,,,,,,,,,,,,,,,,,,,,,,,,,,,,,,,,,,,,,,,,,,,,,,,,,,,,,,,,,,
,,5b5fdd52b36c3400014718b9,2023-12-14_20h09.36.272,kallum_motion_pilot,2023.2.3,Win32,59.88023952,5b5fdd52b36c3400014718b9,657bb317c8798c6608bceb3f,657bb4a459cf1a6fe7c475a4,0.0341,0.0341,0,60,60,119,1,eightseven,,,,,,,,,,,,,,,,,,,,,,,,,,,,,,,,,,,,,,,,,,,,,,,,,,,,,,,,,,,,,,,,,,,,,,,,,,,,,,,,,,,,,,,,,,,,,,,,,,,,,,,,,,,,,,,,,,,,,,,,,,,,,,,,,,,,,,,
,,5b5fdd52b36c3400014718b9,2023-12-14_20h09.36.272,kallum_motion_pilot,2023.2.3,Win32,59.88023952,5b5fdd52b36c3400014718b9,657bb317c8798c6608bceb3f,657bb4a459cf1a6fe7c475a4,0.0342,0.0343,0,61,61,101,1,seveneight,,,,,,,,,,,,,,,,,,,,,,,,,,,,,,,,,,,,,,,,,,,,,,,,,,,,,,,,,,,,,,,,,,,,,,,,,,,,,,,,,,,,,,,,,,,,,,,,,,,,,,,,,,,,,,,,,,,,,,,,,,,,,,,,,,,,,,,
,,5b5fdd52b36c3400014718b9,2023-12-14_20h09.36.272,kallum_motion_pilot,2023.2.3,Win32,59.88023952,5b5fdd52b36c3400014718b9,657bb317c8798c6608bceb3f,657bb4a459cf1a6fe7c475a4,0.0344,0.0344,0,62,62,48,1,onetwo,,,,,,,,,,,,,,,,,,,,,,,,,,,,,,,,,,,,,,,,,,,,,,,,,,,,,,,,,,,,,,,,,,,,,,,,,,,,,,,,,,,,,,,,,,,,,,,,,,,,,,,,,,,,,,,,,,,,,,,,,,,,,,,,,,,,,,,
,,5b5fdd52b36c3400014718b9,2023-12-14_20h09.36.272,kallum_motion_pilot,2023.2.3,Win32,59.88023952,5b5fdd52b36c3400014718b9,657bb317c8798c6608bceb3f,657bb4a459cf1a6fe7c475a4,0.0345,0.0347,0,63,63,34,1,twoone,,,,,,,,,,,,,,,,,,,,,,,,,,,,,,,,,,,,,,,,,,,,,,,,,,,,,,,,,,,,,,,,,,,,,,,,,,,,,,,,,,,,,,,,,,,,,,,,,,,,,,,,,,,,,,,,,,,,,,,,,,,,,,,,,,,,,,,
,,5b5fdd52b36c3400014718b9,2023-12-14_20h09.36.272,kallum_motion_pilot,2023.2.3,Win32,59.88023952,5b5fdd52b36c3400014718b9,657bb317c8798c6608bceb3f,657bb4a459cf1a6fe7c475a4,0.0348,0.0348,0,64,64,84,1,sevenfive,,,,,,,,,,,,,,,,,,,,,,,,,,,,,,,,,,,,,,,,,,,,,,,,,,,,,,,,,,,,,,,,,,,,,,,,,,,,,,,,,,,,,,,,,,,,,,,,,,,,,,,,,,,,,,,,,,,,,,,,,,,,,,,,,,,,,,,
,,5b5fdd52b36c3400014718b9,2023-12-14_20h09.36.272,kallum_motion_pilot,2023.2.3,Win32,59.88023952,5b5fdd52b36c3400014718b9,657bb317c8798c6608bceb3f,657bb4a459cf1a6fe7c475a4,0.0349,0.035,0,65,65,7,1,fourthree,,,,,,,,,,,,,,,,,,,,,,,,,,,,,,,,,,,,,,,,,,,,,,,,,,,,,,,,,,,,,,,,,,,,,,,,,,,,,,,,,,,,,,,,,,,,,,,,,,,,,,,,,,,,,,,,,,,,,,,,,,,,,,,,,,,,,,,
,,5b5fdd52b36c3400014718b9,2023-12-14_20h09.36.272,kallum_motion_pilot,2023.2.3,Win32,59.88023952,5b5fdd52b36c3400014718b9,657bb317c8798c6608bceb3f,657bb4a459cf1a6fe7c475a4,0.0351,0.0352,0,66,66,28,1,threeone,,,,,,,,,,,,,,,,,,,,,,,,,,,,,,,,,,,,,,,,,,,,,,,,,,,,,,,,,,,,,,,,,,,,,,,,,,,,,,,,,,,,,,,,,,,,,,,,,,,,,,,,,,,,,,,,,,,,,,,,,,,,,,,,,,,,,,,
,,5b5fdd52b36c3400014718b9,2023-12-14_20h09.36.272,kallum_motion_pilot,2023.2.3,Win32,59.88023952,5b5fdd52b36c3400014718b9,657bb317c8798c6608bceb3f,657bb4a459cf1a6fe7c475a4,0.0353,0.0353,0,67,67,158,1,eightsix,,,,,,,,,,,,,,,,,,,,,,,,,,,,,,,,,,,,,,,,,,,,,,,,,,,,,,,,,,,,,,,,,,,,,,,,,,,,,,,,,,,,,,,,,,,,,,,,,,,,,,,,,,,,,,,,,,,,,,,,,,,,,,,,,,,,,,,
,,5b5fdd52b36c3400014718b9,2023-12-14_20h09.36.272,kallum_motion_pilot,2023.2.3,Win32,59.88023952,5b5fdd52b36c3400014718b9,657bb317c8798c6608bceb3f,657bb4a459cf1a6fe7c475a4,0.0354,0.0354,0,68,68,15,1,fourthree,,,,,,,,,,,,,,,,,,,,,,,,,,,,,,,,,,,,,,,,,,,,,,,,,,,,,,,,,,,,,,,,,,,,,,,,,,,,,,,,,,,,,,,,,,,,,,,,,,,,,,,,,,,,,,,,,,,,,,,,,,,,,,,,,,,,,,,
,,5b5fdd52b36c3400014718b9,2023-12-14_20h09.36.272,kallum_motion_pilot,2023.2.3,Win32,59.88023952,5b5fdd52b36c3400014718b9,657bb317c8798c6608bceb3f,657bb4a459cf1a6fe7c475a4,0.0356,0.0356,0,69,69,18,1,twoone,,,,,,,,,,,,,,,,,,,,,,,,,,,,,,,,,,,,,,,,,,,,,,,,,,,,,,,,,,,,,,,,,,,,,,,,,,,,,,,,,,,,,,,,,,,,,,,,,,,,,,,,,,,,,,,,,,,,,,,,,,,,,,,,,,,,,,,
,,5b5fdd52b36c3400014718b9,2023-12-14_20h09.36.272,kallum_motion_pilot,2023.2.3,Win32,59.88023952,5b5fdd52b36c3400014718b9,657bb317c8798c6608bceb3f,657bb4a459cf1a6fe7c475a4,0.0357,0.0357,0,70,70,124,1,sevenfive,,,,,,,,,,,,,,,,,,,,,,,,,,,,,,,,,,,,,,,,,,,,,,,,,,,,,,,,,,,,,,,,,,,,,,,,,,,,,,,,,,,,,,,,,,,,,,,,,,,,,,,,,,,,,,,,,,,,,,,,,,,,,,,,,,,,,,,
,,5b5fdd52b36c3400014718b9,2023-12-14_20h09.36.272,kallum_motion_pilot,2023.2.3,Win32,59.88023952,5b5fdd52b36c3400014718b9,657bb317c8798c6608bceb3f,657bb4a459cf1a6fe7c475a4,0.0359,0.0359,0,71,71,19,1,twofour,,,,,,,,,,,,,,,,,,,,,,,,,,,,,,,,,,,,,,,,,,,,,,,,,,,,,,,,,,,,,,,,,,,,,,,,,,,,,,,,,,,,,,,,,,,,,,,,,,,,,,,,,,,,,,,,,,,,,,,,,,,,,,,,,,,,,,,
,,5b5fdd52b36c3400014718b9,2023-12-14_20h09.36.272,kallum_motion_pilot,2023.2.3,Win32,59.88023952,5b5fdd52b36c3400014718b9,657bb317c8798c6608bceb3f,657bb4a459cf1a6fe7c475a4,0.036,0.036,0,72,72,52,1,threeone,,,,,,,,,,,,,,,,,,,,,,,,,,,,,,,,,,,,,,,,,,,,,,,,,,,,,,,,,,,,,,,,,,,,,,,,,,,,,,,,,,,,,,,,,,,,,,,,,,,,,,,,,,,,,,,,,,,,,,,,,,,,,,,,,,,,,,,
,,5b5fdd52b36c3400014718b9,2023-12-14_20h09.36.272,kallum_motion_pilot,2023.2.3,Win32,59.88023952,5b5fdd52b36c3400014718b9,657bb317c8798c6608bceb3f,657bb4a459cf1a6fe7c475a4,0.0361,0.0362,0,73,73,109,1,seveneight,,,,,,,,,,,,,,,,,,,,,,,,,,,,,,,,,,,,,,,,,,,,,,,,,,,,,,,,,,,,,,,,,,,,,,,,,,,,,,,,,,,,,,,,,,,,,,,,,,,,,,,,,,,,,,,,,,,,,,,,,,,,,,,,,,,,,,,
,,5b5fdd52b36c3400014718b9,2023-12-14_20h09.36.272,kallum_motion_pilot,2023.2.3,Win32,59.88023952,5b5fdd52b36c3400014718b9,657bb317c8798c6608bceb3f,657bb4a459cf1a6fe7c475a4,0.0366,0.0368,0,74,74,111,1,eightseven,,,,,,,,,,,,,,,,,,,,,,,,,,,,,,,,,,,,,,,,,,,,,,,,,,,,,,,,,,,,,,,,,,,,,,,,,,,,,,,,,,,,,,,,,,,,,,,,,,,,,,,,,,,,,,,,,,,,,,,,,,,,,,,,,,,,,,,
,,5b5fdd52b36c3400014718b9,2023-12-14_20h09.36.272,kallum_motion_pilot,2023.2.3,Win32,59.88023952,5b5fdd52b36c3400014718b9,657bb317c8798c6608bceb3f,657bb4a459cf1a6fe7c475a4,0.0373,0.0373,0,75,75,129,1,fiveseven,,,,,,,,,,,,,,,,,,,,,,,,,,,,,,,,,,,,,,,,,,,,,,,,,,,,,,,,,,,,,,,,,,,,,,,,,,,,,,,,,,,,,,,,,,,,,,,,,,,,,,,,,,,,,,,,,,,,,,,,,,,,,,,,,,,,,,,
,,5b5fdd52b36c3400014718b9,2023-12-14_20h09.36.272,kallum_motion_pilot,2023.2.3,Win32,59.88023952,5b5fdd52b36c3400014718b9,657bb317c8798c6608bceb3f,657bb4a459cf1a6fe7c475a4,0.0375,0.0375,0,76,76,156,1,sevenfive,,,,,,,,,,,,,,,,,,,,,,,,,,,,,,,,,,,,,,,,,,,,,,,,,,,,,,,,,,,,,,,,,,,,,,,,,,,,,,,,,,,,,,,,,,,,,,,,,,,,,,,,,,,,,,,,,,,,,,,,,,,,,,,,,,,,,,,
,,5b5fdd52b36c3400014718b9,2023-12-14_20h09.36.272,kallum_motion_pilot,2023.2.3,Win32,59.88023952,5b5fdd52b36c3400014718b9,657bb317c8798c6608bceb3f,657bb4a459cf1a6fe7c475a4,0.0376,0.0376,0,77,77,148,1,sevenfive,,,,,,,,,,,,,,,,,,,,,,,,,,,,,,,,,,,,,,,,,,,,,,,,,,,,,,,,,,,,,,,,,,,,,,,,,,,,,,,,,,,,,,,,,,,,,,,,,,,,,,,,,,,,,,,,,,,,,,,,,,,,,,,,,,,,,,,
,,5b5fdd52b36c3400014718b9,2023-12-14_20h09.36.272,kallum_motion_pilot,2023.2.3,Win32,59.88023952,5b5fdd52b36c3400014718b9,657bb317c8798c6608bceb3f,657bb4a459cf1a6fe7c475a4,0.0378,0.0378,0,78,78,70,1,fourtwo,,,,,,,,,,,,,,,,,,,,,,,,,,,,,,,,,,,,,,,,,,,,,,,,,,,,,,,,,,,,,,,,,,,,,,,,,,,,,,,,,,,,,,,,,,,,,,,,,,,,,,,,,,,,,,,,,,,,,,,,,,,,,,,,,,,,,,,
,,5b5fdd52b36c3400014718b9,2023-12-14_20h09.36.272,kallum_motion_pilot,2023.2.3,Win32,59.88023952,5b5fdd52b36c3400014718b9,657bb317c8798c6608bceb3f,657bb4a459cf1a6fe7c475a4,0.0379,0.0379,0,79,79,155,1,sixeight,,,,,,,,,,,,,,,,,,,,,,,,,,,,,,,,,,,,,,,,,,,,,,,,,,,,,,,,,,,,,,,,,,,,,,,,,,,,,,,,,,,,,,,,,,,,,,,,,,,,,,,,,,,,,,,,,,,,,,,,,,,,,,,,,,,,,,,
,,5b5fdd52b36c3400014718b9,2023-12-14_20h09.36.272,kallum_motion_pilot,2023.2.3,Win32,59.88023952,5b5fdd52b36c3400014718b9,657bb317c8798c6608bceb3f,657bb4a459cf1a6fe7c475a4,0.0381,0.0381,0,80,80,80,1,fivesix,,,,,,,,,,,,,,,,,,,,,,,,,,,,,,,,,,,,,,,,,,,,,,,,,,,,,,,,,,,,,,,,,,,,,,,,,,,,,,,,,,,,,,,,,,,,,,,,,,,,,,,,,,,,,,,,,,,,,,,,,,,,,,,,,,,,,,,
,,5b5fdd52b36c3400014718b9,2023-12-14_20h09.36.272,kallum_motion_pilot,2023.2.3,Win32,59.88023952,5b5fdd52b36c3400014718b9,657bb317c8798c6608bceb3f,657bb4a459cf1a6fe7c475a4,0.0382,0.0383,0,81,81,62,1,fourtwo,,,,,,,,,,,,,,,,,,,,,,,,,,,,,,,,,,,,,,,,,,,,,,,,,,,,,,,,,,,,,,,,,,,,,,,,,,,,,,,,,,,,,,,,,,,,,,,,,,,,,,,,,,,,,,,,,,,,,,,,,,,,,,,,,,,,,,,
,,5b5fdd52b36c3400014718b9,2023-12-14_20h09.36.272,kallum_motion_pilot,2023.2.3,Win32,59.88023952,5b5fdd52b36c3400014718b9,657bb317c8798c6608bceb3f,657bb4a459cf1a6fe7c475a4,0.0384,0.0385,0,82,82,113,1,fiveseven,,,,,,,,,,,,,,,,,,,,,,,,,,,,,,,,,,,,,,,,,,,,,,,,,,,,,,,,,,,,,,,,,,,,,,,,,,,,,,,,,,,,,,,,,,,,,,,,,,,,,,,,,,,,,,,,,,,,,,,,,,,,,,,,,,,,,,,
,,5b5fdd52b36c3400014718b9,2023-12-14_20h09.36.272,kallum_motion_pilot,2023.2.3,Win32,59.88023952,5b5fdd52b36c3400014718b9,657bb317c8798c6608bceb3f,657bb4a459cf1a6fe7c475a4,0.0386,0.0386,0,83,83,42,1,twoone,,,,,,,,,,,,,,,,,,,,,,,,,,,,,,,,,,,,,,,,,,,,,,,,,,,,,,,,,,,,,,,,,,,,,,,,,,,,,,,,,,,,,,,,,,,,,,,,,,,,,,,,,,,,,,,,,,,,,,,,,,,,,,,,,,,,,,,
,,5b5fdd52b36c3400014718b9,2023-12-14_20h09.36.272,kallum_motion_pilot,2023.2.3,Win32,59.88023952,5b5fdd52b36c3400014718b9,657bb317c8798c6608bceb3f,657bb4a459cf1a6fe7c475a4,0.0387,0.0388,0,84,84,29,1,threefour,,,,,,,,,,,,,,,,,,,,,,,,,,,,,,,,,,,,,,,,,,,,,,,,,,,,,,,,,,,,,,,,,,,,,,,,,,,,,,,,,,,,,,,,,,,,,,,,,,,,,,,,,,,,,,,,,,,,,,,,,,,,,,,,,,,,,,,
,,5b5fdd52b36c3400014718b9,2023-12-14_20h09.36.272,kallum_motion_pilot,2023.2.3,Win32,59.88023952,5b5fdd52b36c3400014718b9,657bb317c8798c6608bceb3f,657bb4a459cf1a6fe7c475a4,0.0389,0.0389,0,85,85,60,1,threeone,,,,,,,,,,,,,,,,,,,,,,,,,,,,,,,,,,,,,,,,,,,,,,,,,,,,,,,,,,,,,,,,,,,,,,,,,,,,,,,,,,,,,,,,,,,,,,,,,,,,,,,,,,,,,,,,,,,,,,,,,,,,,,,,,,,,,,,
,,5b5fdd52b36c3400014718b9,2023-12-14_20h09.36.272,kallum_motion_pilot,2023.2.3,Win32,59.88023952,5b5fdd52b36c3400014718b9,657bb317c8798c6608bceb3f,657bb4a459cf1a6fe7c475a4,0.039,0.039,0,86,86,138,1,sixfive,,,,,,,,,,,,,,,,,,,,,,,,,,,,,,,,,,,,,,,,,,,,,,,,,,,,,,,,,,,,,,,,,,,,,,,,,,,,,,,,,,,,,,,,,,,,,,,,,,,,,,,,,,,,,,,,,,,,,,,,,,,,,,,,,,,,,,,
,,5b5fdd52b36c3400014718b9,2023-12-14_20h09.36.272,kallum_motion_pilot,2023.2.3,Win32,59.88023952,5b5fdd52b36c3400014718b9,657bb317c8798c6608bceb3f,657bb4a459cf1a6fe7c475a4,0.0391,0.0392,0,87,87,6,1,fourtwo,,,,,,,,,,,,,,,,,,,,,,,,,,,,,,,,,,,,,,,,,,,,,,,,,,,,,,,,,,,,,,,,,,,,,,,,,,,,,,,,,,,,,,,,,,,,,,,,,,,,,,,,,,,,,,,,,,,,,,,,,,,,,,,,,,,,,,,
,,5b5fdd52b36c3400014718b9,2023-12-14_20h09.36.272,kallum_motion_pilot,2023.2.3,Win32,59.88023952,5b5fdd52b36c3400014718b9,657bb317c8798c6608bceb3f,657bb4a459cf1a6fe7c475a4,0.0393,0.0393,0,88,88,105,1,fiveseven,,,,,,,,,,,,,,,,,,,,,,,,,,,,,,,,,,,,,,,,,,,,,,,,,,,,,,,,,,,,,,,,,,,,,,,,,,,,,,,,,,,,,,,,,,,,,,,,,,,,,,,,,,,,,,,,,,,,,,,,,,,,,,,,,,,,,,,
,,5b5fdd52b36c3400014718b9,2023-12-14_20h09.36.272,kallum_motion_pilot,2023.2.3,Win32,59.88023952,5b5fdd52b36c3400014718b9,657bb317c8798c6608bceb3f,657bb4a459cf1a6fe7c475a4,0.0394,0.0394,0,89,89,94,1,eightsix,,,,,,,,,,,,,,,,,,,,,,,,,,,,,,,,,,,,,,,,,,,,,,,,,,,,,,,,,,,,,,,,,,,,,,,,,,,,,,,,,,,,,,,,,,,,,,,,,,,,,,,,,,,,,,,,,,,,,,,,,,,,,,,,,,,,,,,
,,5b5fdd52b36c3400014718b9,2023-12-14_20h09.36.272,kallum_motion_pilot,2023.2.3,Win32,59.88023952,5b5fdd52b36c3400014718b9,657bb317c8798c6608bceb3f,657bb4a459cf1a6fe7c475a4,0.0396,0.0396,0,90,90,73,1,onethree,,,,,,,,,,,,,,,,,,,,,,,,,,,,,,,,,,,,,,,,,,,,,,,,,,,,,,,,,,,,,,,,,,,,,,,,,,,,,,,,,,,,,,,,,,,,,,,,,,,,,,,,,,,,,,,,,,,,,,,,,,,,,,,,,,,,,,,
,,5b5fdd52b36c3400014718b9,2023-12-14_20h09.36.272,kallum_motion_pilot,2023.2.3,Win32,59.88023952,5b5fdd52b36c3400014718b9,657bb317c8798c6608bceb3f,657bb4a459cf1a6fe7c475a4,0.0397,0.0398,0,91,91,50,1,twoone,,,,,,,,,,,,,,,,,,,,,,,,,,,,,,,,,,,,,,,,,,,,,,,,,,,,,,,,,,,,,,,,,,,,,,,,,,,,,,,,,,,,,,,,,,,,,,,,,,,,,,,,,,,,,,,,,,,,,,,,,,,,,,,,,,,,,,,
,,5b5fdd52b36c3400014718b9,2023-12-14_20h09.36.272,kallum_motion_pilot,2023.2.3,Win32,59.88023952,5b5fdd52b36c3400014718b9,657bb317c8798c6608bceb3f,657bb4a459cf1a6fe7c475a4,0.0399,0.0399,0,92,92,71,1,fourthree,,,,,,,,,,,,,,,,,,,,,,,,,,,,,,,,,,,,,,,,,,,,,,,,,,,,,,,,,,,,,,,,,,,,,,,,,,,,,,,,,,,,,,,,,,,,,,,,,,,,,,,,,,,,,,,,,,,,,,,,,,,,,,,,,,,,,,,
,,5b5fdd52b36c3400014718b9,2023-12-14_20h09.36.272,kallum_motion_pilot,2023.2.3,Win32,59.88023952,5b5fdd52b36c3400014718b9,657bb317c8798c6608bceb3f,657bb4a459cf1a6fe7c475a4,0.04,0.0401,0,93,93,47,1,fourthree,,,,,,,,,,,,,,,,,,,,,,,,,,,,,,,,,,,,,,,,,,,,,,,,,,,,,,,,,,,,,,,,,,,,,,,,,,,,,,,,,,,,,,,,,,,,,,,,,,,,,,,,,,,,,,,,,,,,,,,,,,,,,,,,,,,,,,,
,,5b5fdd52b36c3400014718b9,2023-12-14_20h09.36.272,kallum_motion_pilot,2023.2.3,Win32,59.88023952,5b5fdd52b36c3400014718b9,657bb317c8798c6608bceb3f,657bb4a459cf1a6fe7c475a4,0.0402,0.0402,0,94,94,38,1,fourtwo,,,,,,,,,,,,,,,,,,,,,,,,,,,,,,,,,,,,,,,,,,,,,,,,,,,,,,,,,,,,,,,,,,,,,,,,,,,,,,,,,,,,,,,,,,,,,,,,,,,,,,,,,,,,,,,,,,,,,,,,,,,,,,,,,,,,,,,
,,5b5fdd52b36c3400014718b9,2023-12-14_20h09.36.272,kallum_motion_pilot,2023.2.3,Win32,59.88023952,5b5fdd52b36c3400014718b9,657bb317c8798c6608bceb3f,657bb4a459cf1a6fe7c475a4,0.0404,0.0405,0,95,95,57,1,onethree,,,,,,,,,,,,,,,,,,,,,,,,,,,,,,,,,,,,,,,,,,,,,,,,,,,,,,,,,,,,,,,,,,,,,,,,,,,,,,,,,,,,,,,,,,,,,,,,,,,,,,,,,,,,,,,,,,,,,,,,,,,,,,,,,,,,,,,
,,5b5fdd52b36c3400014718b9,2023-12-14_20h09.36.272,kallum_motion_pilot,2023.2.3,Win32,59.88023952,5b5fdd52b36c3400014718b9,657bb317c8798c6608bceb3f,657bb4a459cf1a6fe7c475a4,0.0406,0.0407,0,96,96,39,1,fourthree,,,,,,,,,,,,,,,,,,,,,,,,,,,,,,,,,,,,,,,,,,,,,,,,,,,,,,,,,,,,,,,,,,,,,,,,,,,,,,,,,,,,,,,,,,,,,,,,,,,,,,,,,,,,,,,,,,,,,,,,,,,,,,,,,,,,,,,
,,5b5fdd52b36c3400014718b9,2023-12-14_20h09.36.272,kallum_motion_pilot,2023.2.3,Win32,59.88023952,5b5fdd52b36c3400014718b9,657bb317c8798c6608bceb3f,657bb4a459cf1a6fe7c475a4,0.0408,0.0408,0,97,97,40,1,onetwo,,,,,,,,,,,,,,,,,,,,,,,,,,,,,,,,,,,,,,,,,,,,,,,,,,,,,,,,,,,,,,,,,,,,,,,,,,,,,,,,,,,,,,,,,,,,,,,,,,,,,,,,,,,,,,,,,,,,,,,,,,,,,,,,,,,,,,,
,,5b5fdd52b36c3400014718b9,2023-12-14_20h09.36.272,kallum_motion_pilot,2023.2.3,Win32,59.88023952,5b5fdd52b36c3400014718b9,657bb317c8798c6608bceb3f,657bb4a459cf1a6fe7c475a4,0.0409,0.041,0,98,98,63,1,fourthree,,,,,,,,,,,,,,,,,,,,,,,,,,,,,,,,,,,,,,,,,,,,,,,,,,,,,,,,,,,,,,,,,,,,,,,,,,,,,,,,,,,,,,,,,,,,,,,,,,,,,,,,,,,,,,,,,,,,,,,,,,,,,,,,,,,,,,,
,,5b5fdd52b36c3400014718b9,2023-12-14_20h09.36.272,kallum_motion_pilot,2023.2.3,Win32,59.88023952,5b5fdd52b36c3400014718b9,657bb317c8798c6608bceb3f,657bb4a459cf1a6fe7c475a4,0.041,0.0411,0,99,99,59,1,twofour,,,,,,,,,,,,,,,,,,,,,,,,,,,,,,,,,,,,,,,,,,,,,,,,,,,,,,,,,,,,,,,,,,,,,,,,,,,,,,,,,,,,,,,,,,,,,,,,,,,,,,,,,,,,,,,,,,,,,,,,,,,,,,,,,,,,,,,
,,5b5fdd52b36c3400014718b9,2023-12-14_20h09.36.272,kallum_motion_pilot,2023.2.3,Win32,59.88023952,5b5fdd52b36c3400014718b9,657bb317c8798c6608bceb3f,657bb4a459cf1a6fe7c475a4,0.0412,0.0412,0,100,100,93,1,seveneight,,,,,,,,,,,,,,,,,,,,,,,,,,,,,,,,,,,,,,,,,,,,,,,,,,,,,,,,,,,,,,,,,,,,,,,,,,,,,,,,,,,,,,,,,,,,,,,,,,,,,,,,,,,,,,,,,,,,,,,,,,,,,,,,,,,,,,,
,,5b5fdd52b36c3400014718b9,2023-12-14_20h09.36.272,kallum_motion_pilot,2023.2.3,Win32,59.88023952,5b5fdd52b36c3400014718b9,657bb317c8798c6608bceb3f,657bb4a459cf1a6fe7c475a4,0.0413,0.0414,0,101,101,76,1,threeone,,,,,,,,,,,,,,,,,,,,,,,,,,,,,,,,,,,,,,,,,,,,,,,,,,,,,,,,,,,,,,,,,,,,,,,,,,,,,,,,,,,,,,,,,,,,,,,,,,,,,,,,,,,,,,,,,,,,,,,,,,,,,,,,,,,,,,,
,,5b5fdd52b36c3400014718b9,2023-12-14_20h09.36.272,kallum_motion_pilot,2023.2.3,Win32,59.88023952,5b5fdd52b36c3400014718b9,657bb317c8798c6608bceb3f,657bb4a459cf1a6fe7c475a4,0.0415,0.0416,0,102,102,134,1,eightsix,,,,,,,,,,,,,,,,,,,,,,,,,,,,,,,,,,,,,,,,,,,,,,,,,,,,,,,,,,,,,,,,,,,,,,,,,,,,,,,,,,,,,,,,,,,,,,,,,,,,,,,,,,,,,,,,,,,,,,,,,,,,,,,,,,,,,,,
,,5b5fdd52b36c3400014718b9,2023-12-14_20h09.36.272,kallum_motion_pilot,2023.2.3,Win32,59.88023952,5b5fdd52b36c3400014718b9,657bb317c8798c6608bceb3f,657bb4a459cf1a6fe7c475a4,0.0416,0.0417,0,103,103,41,1,onethree,,,,,,,,,,,,,,,,,,,,,,,,,,,,,,,,,,,,,,,,,,,,,,,,,,,,,,,,,,,,,,,,,,,,,,,,,,,,,,,,,,,,,,,,,,,,,,,,,,,,,,,,,,,,,,,,,,,,,,,,,,,,,,,,,,,,,,,
,,5b5fdd52b36c3400014718b9,2023-12-14_20h09.36.272,kallum_motion_pilot,2023.2.3,Win32,59.88023952,5b5fdd52b36c3400014718b9,657bb317c8798c6608bceb3f,657bb4a459cf1a6fe7c475a4,0.0418,0.0418,0,104,104,127,1,eightseven,,,,,,,,,,,,,,,,,,,,,,,,,,,,,,,,,,,,,,,,,,,,,,,,,,,,,,,,,,,,,,,,,,,,,,,,,,,,,,,,,,,,,,,,,,,,,,,,,,,,,,,,,,,,,,,,,,,,,,,,,,,,,,,,,,,,,,,
,,5b5fdd52b36c3400014718b9,2023-12-14_20h09.36.272,kallum_motion_pilot,2023.2.3,Win32,59.88023952,5b5fdd52b36c3400014718b9,657bb317c8798c6608bceb3f,657bb4a459cf1a6fe7c475a4,0.0419,0.042,0,105,105,121,1,fiveseven,,,,,,,,,,,,,,,,,,,,,,,,,,,,,,,,,,,,,,,,,,,,,,,,,,,,,,,,,,,,,,,,,,,,,,,,,,,,,,,,,,,,,,,,,,,,,,,,,,,,,,,,,,,,,,,,,,,,,,,,,,,,,,,,,,,,,,,
,,5b5fdd52b36c3400014718b9,2023-12-14_20h09.36.272,kallum_motion_pilot,2023.2.3,Win32,59.88023952,5b5fdd52b36c3400014718b9,657bb317c8798c6608bceb3f,657bb4a459cf1a6fe7c475a4,0.0421,0.0422,0,106,106,157,1,seveneight,,,,,,,,,,,,,,,,,,,,,,,,,,,,,,,,,,,,,,,,,,,,,,,,,,,,,,,,,,,,,,,,,,,,,,,,,,,,,,,,,,,,,,,,,,,,,,,,,,,,,,,,,,,,,,,,,,,,,,,,,,,,,,,,,,,,,,,
,,5b5fdd52b36c3400014718b9,2023-12-14_20h09.36.272,kallum_motion_pilot,2023.2.3,Win32,59.88023952,5b5fdd52b36c3400014718b9,657bb317c8798c6608bceb3f,657bb4a459cf1a6fe7c475a4,0.0422,0.0423,0,107,107,106,1,sixfive,,,,,,,,,,,,,,,,,,,,,,,,,,,,,,,,,,,,,,,,,,,,,,,,,,,,,,,,,,,,,,,,,,,,,,,,,,,,,,,,,,,,,,,,,,,,,,,,,,,,,,,,,,,,,,,,,,,,,,,,,,,,,,,,,,,,,,,
,,5b5fdd52b36c3400014718b9,2023-12-14_20h09.36.272,kallum_motion_pilot,2023.2.3,Win32,59.88023952,5b5fdd52b36c3400014718b9,657bb317c8798c6608bceb3f,657bb4a459cf1a6fe7c475a4,0.0424,0.0424,0,108,108,12,1,threeone,,,,,,,,,,,,,,,,,,,,,,,,,,,,,,,,,,,,,,,,,,,,,,,,,,,,,,,,,,,,,,,,,,,,,,,,,,,,,,,,,,,,,,,,,,,,,,,,,,,,,,,,,,,,,,,,,,,,,,,,,,,,,,,,,,,,,,,
,,5b5fdd52b36c3400014718b9,2023-12-14_20h09.36.272,kallum_motion_pilot,2023.2.3,Win32,59.88023952,5b5fdd52b36c3400014718b9,657bb317c8798c6608bceb3f,657bb4a459cf1a6fe7c475a4,0.0426,0.0426,0,109,109,35,1,twofour,,,,,,,,,,,,,,,,,,,,,,,,,,,,,,,,,,,,,,,,,,,,,,,,,,,,,,,,,,,,,,,,,,,,,,,,,,,,,,,,,,,,,,,,,,,,,,,,,,,,,,,,,,,,,,,,,,,,,,,,,,,,,,,,,,,,,,,
,,5b5fdd52b36c3400014718b9,2023-12-14_20h09.36.272,kallum_motion_pilot,2023.2.3,Win32,59.88023952,5b5fdd52b36c3400014718b9,657bb317c8798c6608bceb3f,657bb4a459cf1a6fe7c475a4,0.0427,0.0428,0,110,110,151,1,eightseven,,,,,,,,,,,,,,,,,,,,,,,,,,,,,,,,,,,,,,,,,,,,,,,,,,,,,,,,,,,,,,,,,,,,,,,,,,,,,,,,,,,,,,,,,,,,,,,,,,,,,,,,,,,,,,,,,,,,,,,,,,,,,,,,,,,,,,,
,,5b5fdd52b36c3400014718b9,2023-12-14_20h09.36.272,kallum_motion_pilot,2023.2.3,Win32,59.88023952,5b5fdd52b36c3400014718b9,657bb317c8798c6608bceb3f,657bb4a459cf1a6fe7c475a4,0.0429,0.043,0,111,111,22,1,fourtwo,,,,,,,,,,,,,,,,,,,,,,,,,,,,,,,,,,,,,,,,,,,,,,,,,,,,,,,,,,,,,,,,,,,,,,,,,,,,,,,,,,,,,,,,,,,,,,,,,,,,,,,,,,,,,,,,,,,,,,,,,,,,,,,,,,,,,,,
,,5b5fdd52b36c3400014718b9,2023-12-14_20h09.36.272,kallum_motion_pilot,2023.2.3,Win32,59.88023952,5b5fdd52b36c3400014718b9,657bb317c8798c6608bceb3f,657bb4a459cf1a6fe7c475a4,0.043,0.0431,0,112,112,104,1,fivesix,,,,,,,,,,,,,,,,,,,,,,,,,,,,,,,,,,,,,,,,,,,,,,,,,,,,,,,,,,,,,,,,,,,,,,,,,,,,,,,,,,,,,,,,,,,,,,,,,,,,,,,,,,,,,,,,,,,,,,,,,,,,,,,,,,,,,,,
,,5b5fdd52b36c3400014718b9,2023-12-14_20h09.36.272,kallum_motion_pilot,2023.2.3,Win32,59.88023952,5b5fdd52b36c3400014718b9,657bb317c8798c6608bceb3f,657bb4a459cf1a6fe7c475a4,0.0432,0.0432,0,113,113,143,1,eightseven,,,,,,,,,,,,,,,,,,,,,,,,,,,,,,,,,,,,,,,,,,,,,,,,,,,,,,,,,,,,,,,,,,,,,,,,,,,,,,,,,,,,,,,,,,,,,,,,,,,,,,,,,,,,,,,,,,,,,,,,,,,,,,,,,,,,,,,
,,5b5fdd52b36c3400014718b9,2023-12-14_20h09.36.272,kallum_motion_pilot,2023.2.3,Win32,59.88023952,5b5fdd52b36c3400014718b9,657bb317c8798c6608bceb3f,657bb4a459cf1a6fe7c475a4,0.0433,0.0434,0,114,114,88,1,fivesix,,,,,,,,,,,,,,,,,,,,,,,,,,,,,,,,,,,,,,,,,,,,,,,,,,,,,,,,,,,,,,,,,,,,,,,,,,,,,,,,,,,,,,,,,,,,,,,,,,,,,,,,,,,,,,,,,,,,,,,,,,,,,,,,,,,,,,,
,,5b5fdd52b36c3400014718b9,2023-12-14_20h09.36.272,kallum_motion_pilot,2023.2.3,Win32,59.88023952,5b5fdd52b36c3400014718b9,657bb317c8798c6608bceb3f,657bb4a459cf1a6fe7c475a4,0.0434,0.0436,0,115,115,21,1,threefour,,,,,,,,,,,,,,,,,,,,,,,,,,,,,,,,,,,,,,,,,,,,,,,,,,,,,,,,,,,,,,,,,,,,,,,,,,,,,,,,,,,,,,,,,,,,,,,,,,,,,,,,,,,,,,,,,,,,,,,,,,,,,,,,,,,,,,,
,,5b5fdd52b36c3400014718b9,2023-12-14_20h09.36.272,kallum_motion_pilot,2023.2.3,Win32,59.88023952,5b5fdd52b36c3400014718b9,657bb317c8798c6608bceb3f,657bb4a459cf1a6fe7c475a4,0.0436,0.0437,0,116,116,17,1,onethree,,,,,,,,,,,,,,,,,,,,,,,,,,,,,,,,,,,,,,,,,,,,,,,,,,,,,,,,,,,,,,,,,,,,,,,,,,,,,,,,,,,,,,,,,,,,,,,,,,,,,,,,,,,,,,,,,,,,,,,,,,,,,,,,,,,,,,,
,,5b5fdd52b36c3400014718b9,2023-12-14_20h09.36.272,kallum_motion_pilot,2023.2.3,Win32,59.88023952,5b5fdd52b36c3400014718b9,657bb317c8798c6608bceb3f,657bb4a459cf1a6fe7c475a4,0.0438,0.0439,0,117,117,130,1,sixfive,,,,,,,,,,,,,,,,,,,,,,,,,,,,,,,,,,,,,,,,,,,,,,,,,,,,,,,,,,,,,,,,,,,,,,,,,,,,,,,,,,,,,,,,,,,,,,,,,,,,,,,,,,,,,,,,,,,,,,,,,,,,,,,,,,,,,,,
,,5b5fdd52b36c3400014718b9,2023-12-14_20h09.36.272,kallum_motion_pilot,2023.2.3,Win32,59.88023952,5b5fdd52b36c3400014718b9,657bb317c8798c6608bceb3f,657bb4a459cf1a6fe7c475a4,0.0439,0.044,0,118,118,112,1,fivesix,,,,,,,,,,,,,,,,,,,,,,,,,,,,,,,,,,,,,,,,,,,,,,,,,,,,,,,,,,,,,,,,,,,,,,,,,,,,,,,,,,,,,,,,,,,,,,,,,,,,,,,,,,,,,,,,,,,,,,,,,,,,,,,,,,,,,,,
,,5b5fdd52b36c3400014718b9,2023-12-14_20h09.36.272,kallum_motion_pilot,2023.2.3,Win32,59.88023952,5b5fdd52b36c3400014718b9,657bb317c8798c6608bceb3f,657bb4a459cf1a6fe7c475a4,0.0441,0.0442,0,119,119,67,1,twofour,,,,,,,,,,,,,,,,,,,,,,,,,,,,,,,,,,,,,,,,,,,,,,,,,,,,,,,,,,,,,,,,,,,,,,,,,,,,,,,,,,,,,,,,,,,,,,,,,,,,,,,,,,,,,,,,,,,,,,,,,,,,,,,,,,,,,,,
,,5b5fdd52b36c3400014718b9,2023-12-14_20h09.36.272,kallum_motion_pilot,2023.2.3,Win32,59.88023952,5b5fdd52b36c3400014718b9,657bb317c8798c6608bceb3f,657bb4a459cf1a6fe7c475a4,0.0443,0.0443,0,120,120,123,1,sixeight,,,,,,,,,,,,,,,,,,,,,,,,,,,,,,,,,,,,,,,,,,,,,,,,,,,,,,,,,,,,,,,,,,,,,,,,,,,,,,,,,,,,,,,,,,,,,,,,,,,,,,,,,,,,,,,,,,,,,,,,,,,,,,,,,,,,,,,
,,5b5fdd52b36c3400014718b9,2023-12-14_20h09.36.272,kallum_motion_pilot,2023.2.3,Win32,59.88023952,5b5fdd52b36c3400014718b9,657bb317c8798c6608bceb3f,657bb4a459cf1a6fe7c475a4,0.0443,0.0444,0,121,121,37,1,threefour,,,,,,,,,,,,,,,,,,,,,,,,,,,,,,,,,,,,,,,,,,,,,,,,,,,,,,,,,,,,,,,,,,,,,,,,,,,,,,,,,,,,,,,,,,,,,,,,,,,,,,,,,,,,,,,,,,,,,,,,,,,,,,,,,,,,,,,
,,5b5fdd52b36c3400014718b9,2023-12-14_20h09.36.272,kallum_motion_pilot,2023.2.3,Win32,59.88023952,5b5fdd52b36c3400014718b9,657bb317c8798c6608bceb3f,657bb4a459cf1a6fe7c475a4,0.0445,0.0446,0,122,122,95,1,eightseven,,,,,,,,,,,,,,,,,,,,,,,,,,,,,,,,,,,,,,,,,,,,,,,,,,,,,,,,,,,,,,,,,,,,,,,,,,,,,,,,,,,,,,,,,,,,,,,,,,,,,,,,,,,,,,,,,,,,,,,,,,,,,,,,,,,,,,,
,,5b5fdd52b36c3400014718b9,2023-12-14_20h09.36.272,kallum_motion_pilot,2023.2.3,Win32,59.88023952,5b5fdd52b36c3400014718b9,657bb317c8798c6608bceb3f,657bb4a459cf1a6fe7c475a4,0.0447,0.0448,0,123,123,81,1,fiveseven,,,,,,,,,,,,,,,,,,,,,,,,,,,,,,,,,,,,,,,,,,,,,,,,,,,,,,,,,,,,,,,,,,,,,,,,,,,,,,,,,,,,,,,,,,,,,,,,,,,,,,,,,,,,,,,,,,,,,,,,,,,,,,,,,,,,,,,
,,5b5fdd52b36c3400014718b9,2023-12-14_20h09.36.272,kallum_motion_pilot,2023.2.3,Win32,59.88023952,5b5fdd52b36c3400014718b9,657bb317c8798c6608bceb3f,657bb4a459cf1a6fe7c475a4,0.0449,0.0449,0,124,124,79,1,eightseven,,,,,,,,,,,,,,,,,,,,,,,,,,,,,,,,,,,,,,,,,,,,,,,,,,,,,,,,,,,,,,,,,,,,,,,,,,,,,,,,,,,,,,,,,,,,,,,,,,,,,,,,,,,,,,,,,,,,,,,,,,,,,,,,,,,,,,,
,,5b5fdd52b36c3400014718b9,2023-12-14_20h09.36.272,kallum_motion_pilot,2023.2.3,Win32,59.88023952,5b5fdd52b36c3400014718b9,657bb317c8798c6608bceb3f,657bb4a459cf1a6fe7c475a4,0.0451,0.0452,0,125,125,58,1,twoone,,,,,,,,,,,,,,,,,,,,,,,,,,,,,,,,,,,,,,,,,,,,,,,,,,,,,,,,,,,,,,,,,,,,,,,,,,,,,,,,,,,,,,,,,,,,,,,,,,,,,,,,,,,,,,,,,,,,,,,,,,,,,,,,,,,,,,,
,,5b5fdd52b36c3400014718b9,2023-12-14_20h09.36.272,kallum_motion_pilot,2023.2.3,Win32,59.88023952,5b5fdd52b36c3400014718b9,657bb317c8798c6608bceb3f,657bb4a459cf1a6fe7c475a4,0.0454,0.0455,0,126,126,103,1,eightseven,,,,,,,,,,,,,,,,,,,,,,,,,,,,,,,,,,,,,,,,,,,,,,,,,,,,,,,,,,,,,,,,,,,,,,,,,,,,,,,,,,,,,,,,,,,,,,,,,,,,,,,,,,,,,,,,,,,,,,,,,,,,,,,,,,,,,,,
,,5b5fdd52b36c3400014718b9,2023-12-14_20h09.36.272,kallum_motion_pilot,2023.2.3,Win32,59.88023952,5b5fdd52b36c3400014718b9,657bb317c8798c6608bceb3f,657bb4a459cf1a6fe7c475a4,0.0456,0.0456,0,127,127,152,1,fivesix,,,,,,,,,,,,,,,,,,,,,,,,,,,,,,,,,,,,,,,,,,,,,,,,,,,,,,,,,,,,,,,,,,,,,,,,,,,,,,,,,,,,,,,,,,,,,,,,,,,,,,,,,,,,,,,,,,,,,,,,,,,,,,,,,,,,,,,
,,5b5fdd52b36c3400014718b9,2023-12-14_20h09.36.272,kallum_motion_pilot,2023.2.3,Win32,59.88023952,5b5fdd52b36c3400014718b9,657bb317c8798c6608bceb3f,657bb4a459cf1a6fe7c475a4,0.0457,0.0458,0,128,128,150,1,eightsix,,,,,,,,,,,,,,,,,,,,,,,,,,,,,,,,,,,,,,,,,,,,,,,,,,,,,,,,,,,,,,,,,,,,,,,,,,,,,,,,,,,,,,,,,,,,,,,,,,,,,,,,,,,,,,,,,,,,,,,,,,,,,,,,,,,,,,,
,,5b5fdd52b36c3400014718b9,2023-12-14_20h09.36.272,kallum_motion_pilot,2023.2.3,Win32,59.88023952,5b5fdd52b36c3400014718b9,657bb317c8798c6608bceb3f,657bb4a459cf1a6fe7c475a4,0.0459,0.046,0,129,129,146,1,sixfive,,,,,,,,,,,,,,,,,,,,,,,,,,,,,,,,,,,,,,,,,,,,,,,,,,,,,,,,,,,,,,,,,,,,,,,,,,,,,,,,,,,,,,,,,,,,,,,,,,,,,,,,,,,,,,,,,,,,,,,,,,,,,,,,,,,,,,,
,,5b5fdd52b36c3400014718b9,2023-12-14_20h09.36.272,kallum_motion_pilot,2023.2.3,Win32,59.88023952,5b5fdd52b36c3400014718b9,657bb317c8798c6608bceb3f,657bb4a459cf1a6fe7c475a4,0.046,0.0461,0,130,130,20,1,threeone,,,,,,,,,,,,,,,,,,,,,,,,,,,,,,,,,,,,,,,,,,,,,,,,,,,,,,,,,,,,,,,,,,,,,,,,,,,,,,,,,,,,,,,,,,,,,,,,,,,,,,,,,,,,,,,,,,,,,,,,,,,,,,,,,,,,,,,
,,5b5fdd52b36c3400014718b9,2023-12-14_20h09.36.272,kallum_motion_pilot,2023.2.3,Win32,59.88023952,5b5fdd52b36c3400014718b9,657bb317c8798c6608bceb3f,657bb4a459cf1a6fe7c475a4,0.0463,0.0463,0,131,131,145,1,fiveseven,,,,,,,,,,,,,,,,,,,,,,,,,,,,,,,,,,,,,,,,,,,,,,,,,,,,,,,,,,,,,,,,,,,,,,,,,,,,,,,,,,,,,,,,,,,,,,,,,,,,,,,,,,,,,,,,,,,,,,,,,,,,,,,,,,,,,,,
,,5b5fdd52b36c3400014718b9,2023-12-14_20h09.36.272,kallum_motion_pilot,2023.2.3,Win32,59.88023952,5b5fdd52b36c3400014718b9,657bb317c8798c6608bceb3f,657bb4a459cf1a6fe7c475a4,0.0464,0.0465,0,132,132,64,1,onetwo,,,,,,,,,,,,,,,,,,,,,,,,,,,,,,,,,,,,,,,,,,,,,,,,,,,,,,,,,,,,,,,,,,,,,,,,,,,,,,,,,,,,,,,,,,,,,,,,,,,,,,,,,,,,,,,,,,,,,,,,,,,,,,,,,,,,,,,
,,5b5fdd52b36c3400014718b9,2023-12-14_20h09.36.272,kallum_motion_pilot,2023.2.3,Win32,59.88023952,5b5fdd52b36c3400014718b9,657bb317c8798c6608bceb3f,657bb4a459cf1a6fe7c475a4,0.0466,0.0466,0,133,133,125,1,seveneight,,,,,,,,,,,,,,,,,,,,,,,,,,,,,,,,,,,,,,,,,,,,,,,,,,,,,,,,,,,,,,,,,,,,,,,,,,,,,,,,,,,,,,,,,,,,,,,,,,,,,,,,,,,,,,,,,,,,,,,,,,,,,,,,,,,,,,,
,,5b5fdd52b36c3400014718b9,2023-12-14_20h09.36.272,kallum_motion_pilot,2023.2.3,Win32,59.88023952,5b5fdd52b36c3400014718b9,657bb317c8798c6608bceb3f,657bb4a459cf1a6fe7c475a4,0.0467,0.0468,0,134,134,142,1,eightsix,,,,,,,,,,,,,,,,,,,,,,,,,,,,,,,,,,,,,,,,,,,,,,,,,,,,,,,,,,,,,,,,,,,,,,,,,,,,,,,,,,,,,,,,,,,,,,,,,,,,,,,,,,,,,,,,,,,,,,,,,,,,,,,,,,,,,,,
,,5b5fdd52b36c3400014718b9,2023-12-14_20h09.36.272,kallum_motion_pilot,2023.2.3,Win32,59.88023952,5b5fdd52b36c3400014718b9,657bb317c8798c6608bceb3f,657bb4a459cf1a6fe7c475a4,0.0469,0.047,0,135,135,140,1,sevenfive,,,,,,,,,,,,,,,,,,,,,,,,,,,,,,,,,,,,,,,,,,,,,,,,,,,,,,,,,,,,,,,,,,,,,,,,,,,,,,,,,,,,,,,,,,,,,,,,,,,,,,,,,,,,,,,,,,,,,,,,,,,,,,,,,,,,,,,
,,5b5fdd52b36c3400014718b9,2023-12-14_20h09.36.272,kallum_motion_pilot,2023.2.3,Win32,59.88023952,5b5fdd52b36c3400014718b9,657bb317c8798c6608bceb3f,657bb4a459cf1a6fe7c475a4,0.0471,0.0472,0,136,136,9,1,onethree,,,,,,,,,,,,,,,,,,,,,,,,,,,,,,,,,,,,,,,,,,,,,,,,,,,,,,,,,,,,,,,,,,,,,,,,,,,,,,,,,,,,,,,,,,,,,,,,,,,,,,,,,,,,,,,,,,,,,,,,,,,,,,,,,,,,,,,
,,5b5fdd52b36c3400014718b9,2023-12-14_20h09.36.272,kallum_motion_pilot,2023.2.3,Win32,59.88023952,5b5fdd52b36c3400014718b9,657bb317c8798c6608bceb3f,657bb4a459cf1a6fe7c475a4,0.0473,0.0474,0,137,137,0,1,onetwo,,,,,,,,,,,,,,,,,,,,,,,,,,,,,,,,,,,,,,,,,,,,,,,,,,,,,,,,,,,,,,,,,,,,,,,,,,,,,,,,,,,,,,,,,,,,,,,,,,,,,,,,,,,,,,,,,,,,,,,,,,,,,,,,,,,,,,,
,,5b5fdd52b36c3400014718b9,2023-12-14_20h09.36.272,kallum_motion_pilot,2023.2.3,Win32,59.88023952,5b5fdd52b36c3400014718b9,657bb317c8798c6608bceb3f,657bb4a459cf1a6fe7c475a4,0.0474,0.0475,0,138,138,24,1,onetwo,,,,,,,,,,,,,,,,,,,,,,,,,,,,,,,,,,,,,,,,,,,,,,,,,,,,,,,,,,,,,,,,,,,,,,,,,,,,,,,,,,,,,,,,,,,,,,,,,,,,,,,,,,,,,,,,,,,,,,,,,,,,,,,,,,,,,,,
,,5b5fdd52b36c3400014718b9,2023-12-14_20h09.36.272,kallum_motion_pilot,2023.2.3,Win32,59.88023952,5b5fdd52b36c3400014718b9,657bb317c8798c6608bceb3f,657bb4a459cf1a6fe7c475a4,0.0477,0.0478,0,139,139,69,1,threefour,,,,,,,,,,,,,,,,,,,,,,,,,,,,,,,,,,,,,,,,,,,,,,,,,,,,,,,,,,,,,,,,,,,,,,,,,,,,,,,,,,,,,,,,,,,,,,,,,,,,,,,,,,,,,,,,,,,,,,,,,,,,,,,,,,,,,,,
,,5b5fdd52b36c3400014718b9,2023-12-14_20h09.36.272,kallum_motion_pilot,2023.2.3,Win32,59.88023952,5b5fdd52b36c3400014718b9,657bb317c8798c6608bceb3f,657bb4a459cf1a6fe7c475a4,0.0478,0.0479,0,140,140,32,1,onetwo,,,,,,,,,,,,,,,,,,,,,,,,,,,,,,,,,,,,,,,,,,,,,,,,,,,,,,,,,,,,,,,,,,,,,,,,,,,,,,,,,,,,,,,,,,,,,,,,,,,,,,,,,,,,,,,,,,,,,,,,,,,,,,,,,,,,,,,
,,5b5fdd52b36c3400014718b9,2023-12-14_20h09.36.272,kallum_motion_pilot,2023.2.3,Win32,59.88023952,5b5fdd52b36c3400014718b9,657bb317c8798c6608bceb3f,657bb4a459cf1a6fe7c475a4,0.0487,0.0487,0,141,141,144,1,fivesix,,,,,,,,,,,,,,,,,,,,,,,,,,,,,,,,,,,,,,,,,,,,,,,,,,,,,,,,,,,,,,,,,,,,,,,,,,,,,,,,,,,,,,,,,,,,,,,,,,,,,,,,,,,,,,,,,,,,,,,,,,,,,,,,,,,,,,,
,,5b5fdd52b36c3400014718b9,2023-12-14_20h09.36.272,kallum_motion_pilot,2023.2.3,Win32,59.88023952,5b5fdd52b36c3400014718b9,657bb317c8798c6608bceb3f,657bb4a459cf1a6fe7c475a4,0.0489,0.0489,0,142,142,23,1,fourthree,,,,,,,,,,,,,,,,,,,,,,,,,,,,,,,,,,,,,,,,,,,,,,,,,,,,,,,,,,,,,,,,,,,,,,,,,,,,,,,,,,,,,,,,,,,,,,,,,,,,,,,,,,,,,,,,,,,,,,,,,,,,,,,,,,,,,,,
,,5b5fdd52b36c3400014718b9,2023-12-14_20h09.36.272,kallum_motion_pilot,2023.2.3,Win32,59.88023952,5b5fdd52b36c3400014718b9,657bb317c8798c6608bceb3f,657bb4a459cf1a6fe7c475a4,0.0491,0.0491,0,143,143,128,1,fivesix,,,,,,,,,,,,,,,,,,,,,,,,,,,,,,,,,,,,,,,,,,,,,,,,,,,,,,,,,,,,,,,,,,,,,,,,,,,,,,,,,,,,,,,,,,,,,,,,,,,,,,,,,,,,,,,,,,,,,,,,,,,,,,,,,,,,,,,
,,5b5fdd52b36c3400014718b9,2023-12-14_20h09.36.272,kallum_motion_pilot,2023.2.3,Win32,59.88023952,5b5fdd52b36c3400014718b9,657bb317c8798c6608bceb3f,657bb4a459cf1a6fe7c475a4,0.0492,0.0492,0,144,144,100,1,sevenfive,,,,,,,,,,,,,,,,,,,,,,,,,,,,,,,,,,,,,,,,,,,,,,,,,,,,,,,,,,,,,,,,,,,,,,,,,,,,,,,,,,,,,,,,,,,,,,,,,,,,,,,,,,,,,,,,,,,,,,,,,,,,,,,,,,,,,,,
,,5b5fdd52b36c3400014718b9,2023-12-14_20h09.36.272,kallum_motion_pilot,2023.2.3,Win32,59.88023952,5b5fdd52b36c3400014718b9,657bb317c8798c6608bceb3f,657bb4a459cf1a6fe7c475a4,0.0494,0.0494,0,145,145,65,1,onethree,,,,,,,,,,,,,,,,,,,,,,,,,,,,,,,,,,,,,,,,,,,,,,,,,,,,,,,,,,,,,,,,,,,,,,,,,,,,,,,,,,,,,,,,,,,,,,,,,,,,,,,,,,,,,,,,,,,,,,,,,,,,,,,,,,,,,,,
,,5b5fdd52b36c3400014718b9,2023-12-14_20h09.36.272,kallum_motion_pilot,2023.2.3,Win32,59.88023952,5b5fdd52b36c3400014718b9,657bb317c8798c6608bceb3f,657bb4a459cf1a6fe7c475a4,0.0495,0.0496,0,146,146,92,1,sevenfive,,,,,,,,,,,,,,,,,,,,,,,,,,,,,,,,,,,,,,,,,,,,,,,,,,,,,,,,,,,,,,,,,,,,,,,,,,,,,,,,,,,,,,,,,,,,,,,,,,,,,,,,,,,,,,,,,,,,,,,,,,,,,,,,,,,,,,,
,,5b5fdd52b36c3400014718b9,2023-12-14_20h09.36.272,kallum_motion_pilot,2023.2.3,Win32,59.88023952,5b5fdd52b36c3400014718b9,657bb317c8798c6608bceb3f,657bb4a459cf1a6fe7c475a4,0.0497,0.0497,0,147,147,136,1,fivesix,,,,,,,,,,,,,,,,,,,,,,,,,,,,,,,,,,,,,,,,,,,,,,,,,,,,,,,,,,,,,,,,,,,,,,,,,,,,,,,,,,,,,,,,,,,,,,,,,,,,,,,,,,,,,,,,,,,,,,,,,,,,,,,,,,,,,,,
,,5b5fdd52b36c3400014718b9,2023-12-14_20h09.36.272,kallum_motion_pilot,2023.2.3,Win32,59.88023952,5b5fdd52b36c3400014718b9,657bb317c8798c6608bceb3f,657bb4a459cf1a6fe7c475a4,0.0498,0.0499,0,148,148,11,1,twofour,,,,,,,,,,,,,,,,,,,,,,,,,,,,,,,,,,,,,,,,,,,,,,,,,,,,,,,,,,,,,,,,,,,,,,,,,,,,,,,,,,,,,,,,,,,,,,,,,,,,,,,,,,,,,,,,,,,,,,,,,,,,,,,,,,,,,,,
,,5b5fdd52b36c3400014718b9,2023-12-14_20h09.36.272,kallum_motion_pilot,2023.2.3,Win32,59.88023952,5b5fdd52b36c3400014718b9,657bb317c8798c6608bceb3f,657bb4a459cf1a6fe7c475a4,0.05,0.0501,0,149,149,114,1,sixfive,,,,,,,,,,,,,,,,,,,,,,,,,,,,,,,,,,,,,,,,,,,,,,,,,,,,,,,,,,,,,,,,,,,,,,,,,,,,,,,,,,,,,,,,,,,,,,,,,,,,,,,,,,,,,,,,,,,,,,,,,,,,,,,,,,,,,,,
,,5b5fdd52b36c3400014718b9,2023-12-14_20h09.36.272,kallum_motion_pilot,2023.2.3,Win32,59.88023952,5b5fdd52b36c3400014718b9,657bb317c8798c6608bceb3f,657bb4a459cf1a6fe7c475a4,0.0501,0.0503,0,150,150,5,1,threefour,,,,,,,,,,,,,,,,,,,,,,,,,,,,,,,,,,,,,,,,,,,,,,,,,,,,,,,,,,,,,,,,,,,,,,,,,,,,,,,,,,,,,,,,,,,,,,,,,,,,,,,,,,,,,,,,,,,,,,,,,,,,,,,,,,,,,,,
,,5b5fdd52b36c3400014718b9,2023-12-14_20h09.36.272,kallum_motion_pilot,2023.2.3,Win32,59.88023952,5b5fdd52b36c3400014718b9,657bb317c8798c6608bceb3f,657bb4a459cf1a6fe7c475a4,0.0503,0.0504,0,151,151,159,1,eightseven,,,,,,,,,,,,,,,,,,,,,,,,,,,,,,,,,,,,,,,,,,,,,,,,,,,,,,,,,,,,,,,,,,,,,,,,,,,,,,,,,,,,,,,,,,,,,,,,,,,,,,,,,,,,,,,,,,,,,,,,,,,,,,,,,,,,,,,
,,5b5fdd52b36c3400014718b9,2023-12-14_20h09.36.272,kallum_motion_pilot,2023.2.3,Win32,59.88023952,5b5fdd52b36c3400014718b9,657bb317c8798c6608bceb3f,657bb4a459cf1a6fe7c475a4,0.0505,0.0506,0,152,152,74,1,twoone,,,,,,,,,,,,,,,,,,,,,,,,,,,,,,,,,,,,,,,,,,,,,,,,,,,,,,,,,,,,,,,,,,,,,,,,,,,,,,,,,,,,,,,,,,,,,,,,,,,,,,,,,,,,,,,,,,,,,,,,,,,,,,,,,,,,,,,
,,5b5fdd52b36c3400014718b9,2023-12-14_20h09.36.272,kallum_motion_pilot,2023.2.3,Win32,59.88023952,5b5fdd52b36c3400014718b9,657bb317c8798c6608bceb3f,657bb4a459cf1a6fe7c475a4,0.0506,0.0507,0,153,153,149,1,seveneight,,,,,,,,,,,,,,,,,,,,,,,,,,,,,,,,,,,,,,,,,,,,,,,,,,,,,,,,,,,,,,,,,,,,,,,,,,,,,,,,,,,,,,,,,,,,,,,,,,,,,,,,,,,,,,,,,,,,,,,,,,,,,,,,,,,,,,,
,,5b5fdd52b36c3400014718b9,2023-12-14_20h09.36.272,kallum_motion_pilot,2023.2.3,Win32,59.88023952,5b5fdd52b36c3400014718b9,657bb317c8798c6608bceb3f,657bb4a459cf1a6fe7c475a4,0.0508,0.0509,0,154,154,132,1,sevenfive,,,,,,,,,,,,,,,,,,,,,,,,,,,,,,,,,,,,,,,,,,,,,,,,,,,,,,,,,,,,,,,,,,,,,,,,,,,,,,,,,,,,,,,,,,,,,,,,,,,,,,,,,,,,,,,,,,,,,,,,,,,,,,,,,,,,,,,
,,5b5fdd52b36c3400014718b9,2023-12-14_20h09.36.272,kallum_motion_pilot,2023.2.3,Win32,59.88023952,5b5fdd52b36c3400014718b9,657bb317c8798c6608bceb3f,657bb4a459cf1a6fe7c475a4,0.051,0.051,0,155,155,122,1,sixfive,,,,,,,,,,,,,,,,,,,,,,,,,,,,,,,,,,,,,,,,,,,,,,,,,,,,,,,,,,,,,,,,,,,,,,,,,,,,,,,,,,,,,,,,,,,,,,,,,,,,,,,,,,,,,,,,,,,,,,,,,,,,,,,,,,,,,,,
,,5b5fdd52b36c3400014718b9,2023-12-14_20h09.36.272,kallum_motion_pilot,2023.2.3,Win32,59.88023952,5b5fdd52b36c3400014718b9,657bb317c8798c6608bceb3f,657bb4a459cf1a6fe7c475a4,0.0513,0.0513,0,156,156,83,1,sixeight,,,,,,,,,,,,,,,,,,,,,,,,,,,,,,,,,,,,,,,,,,,,,,,,,,,,,,,,,,,,,,,,,,,,,,,,,,,,,,,,,,,,,,,,,,,,,,,,,,,,,,,,,,,,,,,,,,,,,,,,,,,,,,,,,,,,,,,
,,5b5fdd52b36c3400014718b9,2023-12-14_20h09.36.272,kallum_motion_pilot,2023.2.3,Win32,59.88023952,5b5fdd52b36c3400014718b9,657bb317c8798c6608bceb3f,657bb4a459cf1a6fe7c475a4,0.0514,0.0515,0,157,157,161,1,fiveseven,,,,,,,,,,,,,,,,,,,,,,,,,,,,,,,,,,,,,,,,,,,,,,,,,,,,,,,,,,,,,,,,,,,,,,,,,,,,,,,,,,,,,,,,,,,,,,,,,,,,,,,,,,,,,,,,,,,,,,,,,,,,,,,,,,,,,,,
,,5b5fdd52b36c3400014718b9,2023-12-14_20h09.36.272,kallum_motion_pilot,2023.2.3,Win32,59.88023952,5b5fdd52b36c3400014718b9,657bb317c8798c6608bceb3f,657bb4a459cf1a6fe7c475a4,0.0516,0.0517,0,158,158,49,1,onethree,,,,,,,,,,,,,,,,,,,,,,,,,,,,,,,,,,,,,,,,,,,,,,,,,,,,,,,,,,,,,,,,,,,,,,,,,,,,,,,,,,,,,,,,,,,,,,,,,,,,,,,,,,,,,,,,,,,,,,,,,,,,,,,,,,,,,,,
,,5b5fdd52b36c3400014718b9,2023-12-14_20h09.36.272,kallum_motion_pilot,2023.2.3,Win32,59.88023952,5b5fdd52b36c3400014718b9,657bb317c8798c6608bceb3f,657bb4a459cf1a6fe7c475a4,0.0517,0.0518,0,159,159,45,1,threefour,,,,,,,,,,,,,,,,,,,,,,,,,,,,,,,,,,,,,,,,,,,,,,,,,,,,,,,,,,,,,,,,,,,,,,,,,,,,,,,,,,,,,,,,,,,,,,,,,,,,,,,,,,,,,,,,,,,,,,,,,,,,,,,,,,,,,,,
,,5b5fdd52b36c3400014718b9,2023-12-14_20h09.36.272,kallum_motion_pilot,2023.2.3,Win32,59.88023952,5b5fdd52b36c3400014718b9,657bb317c8798c6608bceb3f,657bb4a459cf1a6fe7c475a4,0.0519,0.052,0,160,160,117,1,seveneight,,,,,,,,,,,,,,,,,,,,,,,,,,,,,,,,,,,,,,,,,,,,,,,,,,,,,,,,,,,,,,,,,,,,,,,,,,,,,,,,,,,,,,,,,,,,,,,,,,,,,,,,,,,,,,,,,,,,,,,,,,,,,,,,,,,,,,,
,,5b5fdd52b36c3400014718b9,2023-12-14_20h09.36.272,kallum_motion_pilot,2023.2.3,Win32,59.88023952,5b5fdd52b36c3400014718b9,657bb317c8798c6608bceb3f,657bb4a459cf1a6fe7c475a4,0.0521,0.0521,0,161,161,90,1,sixfive,,,,,,,,,,,,,,,,,,,,,,,,,,,,,,,,,,,,,,,,,,,,,,,,,,,,,,,,,,,,,,,,,,,,,,,,,,,,,,,,,,,,,,,,,,,,,,,,,,,,,,,,,,,,,,,,,,,,,,,,,,,,,,,,,,,,,,,
,,5b5fdd52b36c3400014718b9,2023-12-14_20h09.36.272,kallum_motion_pilot,2023.2.3,Win32,59.88023952,5b5fdd52b36c3400014718b9,657bb317c8798c6608bceb3f,657bb4a459cf1a6fe7c475a4,0.0522,0.0523,1,0,162,155,1,sixeight,,,,,,,,,,,,,,,,,,,,,,,,,,,,,,,,,,,,,,,,,,,,,,,,,,,,,,,,,,,,,,,,,,,,,,,,,,,,,,,,,,,,,,,,,,,,,,,,,,,,,,,,,,,,,,,,,,,,,,,,,,,,,,,,,,,,,,,
,,5b5fdd52b36c3400014718b9,2023-12-14_20h09.36.272,kallum_motion_pilot,2023.2.3,Win32,59.88023952,5b5fdd52b36c3400014718b9,657bb317c8798c6608bceb3f,657bb4a459cf1a6fe7c475a4,0.0524,0.0525,1,1,163,113,1,fiveseven,,,,,,,,,,,,,,,,,,,,,,,,,,,,,,,,,,,,,,,,,,,,,,,,,,,,,,,,,,,,,,,,,,,,,,,,,,,,,,,,,,,,,,,,,,,,,,,,,,,,,,,,,,,,,,,,,,,,,,,,,,,,,,,,,,,,,,,
,,5b5fdd52b36c3400014718b9,2023-12-14_20h09.36.272,kallum_motion_pilot,2023.2.3,Win32,59.88023952,5b5fdd52b36c3400014718b9,657bb317c8798c6608bceb3f,657bb4a459cf1a6fe7c475a4,0.0525,0.0526,1,2,164,110,1,eightsix,,,,,,,,,,,,,,,,,,,,,,,,,,,,,,,,,,,,,,,,,,,,,,,,,,,,,,,,,,,,,,,,,,,,,,,,,,,,,,,,,,,,,,,,,,,,,,,,,,,,,,,,,,,,,,,,,,,,,,,,,,,,,,,,,,,,,,,
,,5b5fdd52b36c3400014718b9,2023-12-14_20h09.36.272,kallum_motion_pilot,2023.2.3,Win32,59.88023952,5b5fdd52b36c3400014718b9,657bb317c8798c6608bceb3f,657bb4a459cf1a6fe7c475a4,0.0527,0.0528,1,3,165,105,1,fiveseven,,,,,,,,,,,,,,,,,,,,,,,,,,,,,,,,,,,,,,,,,,,,,,,,,,,,,,,,,,,,,,,,,,,,,,,,,,,,,,,,,,,,,,,,,,,,,,,,,,,,,,,,,,,,,,,,,,,,,,,,,,,,,,,,,,,,,,,
,,5b5fdd52b36c3400014718b9,2023-12-14_20h09.36.272,kallum_motion_pilot,2023.2.3,Win32,59.88023952,5b5fdd52b36c3400014718b9,657bb317c8798c6608bceb3f,657bb4a459cf1a6fe7c475a4,0.0529,0.0534,1,4,166,160,1,fivesix,,,,,,,,,,,,,,,,,,,,,,,,,,,,,,,,,,,,,,,,,,,,,,,,,,,,,,,,,,,,,,,,,,,,,,,,,,,,,,,,,,,,,,,,,,,,,,,,,,,,,,,,,,,,,,,,,,,,,,,,,,,,,,,,,,,,,,,
,,5b5fdd52b36c3400014718b9,2023-12-14_20h09.36.272,kallum_motion_pilot,2023.2.3,Win32,59.88023952,5b5fdd52b36c3400014718b9,657bb317c8798c6608bceb3f,657bb4a459cf1a6fe7c475a4,0.0538,0.0539,1,5,167,106,1,sixfive,,,,,,,,,,,,,,,,,,,,,,,,,,,,,,,,,,,,,,,,,,,,,,,,,,,,,,,,,,,,,,,,,,,,,,,,,,,,,,,,,,,,,,,,,,,,,,,,,,,,,,,,,,,,,,,,,,,,,,,,,,,,,,,,,,,,,,,
,,5b5fdd52b36c3400014718b9,2023-12-14_20h09.36.272,kallum_motion_pilot,2023.2.3,Win32,59.88023952,5b5fdd52b36c3400014718b9,657bb317c8798c6608bceb3f,657bb4a459cf1a6fe7c475a4,0.0539,0.054,1,6,168,61,1,threefour,,,,,,,,,,,,,,,,,,,,,,,,,,,,,,,,,,,,,,,,,,,,,,,,,,,,,,,,,,,,,,,,,,,,,,,,,,,,,,,,,,,,,,,,,,,,,,,,,,,,,,,,,,,,,,,,,,,,,,,,,,,,,,,,,,,,,,,
,,5b5fdd52b36c3400014718b9,2023-12-14_20h09.36.272,kallum_motion_pilot,2023.2.3,Win32,59.88023952,5b5fdd52b36c3400014718b9,657bb317c8798c6608bceb3f,657bb4a459cf1a6fe7c475a4,0.0541,0.0542,1,7,169,112,1,fivesix,,,,,,,,,,,,,,,,,,,,,,,,,,,,,,,,,,,,,,,,,,,,,,,,,,,,,,,,,,,,,,,,,,,,,,,,,,,,,,,,,,,,,,,,,,,,,,,,,,,,,,,,,,,,,,,,,,,,,,,,,,,,,,,,,,,,,,,
,,5b5fdd52b36c3400014718b9,2023-12-14_20h09.36.272,kallum_motion_pilot,2023.2.3,Win32,59.88023952,5b5fdd52b36c3400014718b9,657bb317c8798c6608bceb3f,657bb4a459cf1a6fe7c475a4,0.0543,0.0544,1,8,170,17,1,onethree,,,,,,,,,,,,,,,,,,,,,,,,,,,,,,,,,,,,,,,,,,,,,,,,,,,,,,,,,,,,,,,,,,,,,,,,,,,,,,,,,,,,,,,,,,,,,,,,,,,,,,,,,,,,,,,,,,,,,,,,,,,,,,,,,,,,,,,
,,5b5fdd52b36c3400014718b9,2023-12-14_20h09.36.272,kallum_motion_pilot,2023.2.3,Win32,59.88023952,5b5fdd52b36c3400014718b9,657bb317c8798c6608bceb3f,657bb4a459cf1a6fe7c475a4,0.0545,0.0545,1,9,171,1,1,onethree,,,,,,,,,,,,,,,,,,,,,,,,,,,,,,,,,,,,,,,,,,,,,,,,,,,,,,,,,,,,,,,,,,,,,,,,,,,,,,,,,,,,,,,,,,,,,,,,,,,,,,,,,,,,,,,,,,,,,,,,,,,,,,,,,,,,,,,
,,5b5fdd52b36c3400014718b9,2023-12-14_20h09.36.272,kallum_motion_pilot,2023.2.3,Win32,59.88023952,5b5fdd52b36c3400014718b9,657bb317c8798c6608bceb3f,657bb4a459cf1a6fe7c475a4,0.0547,0.0547,1,10,172,79,1,eightseven,,,,,,,,,,,,,,,,,,,,,,,,,,,,,,,,,,,,,,,,,,,,,,,,,,,,,,,,,,,,,,,,,,,,,,,,,,,,,,,,,,,,,,,,,,,,,,,,,,,,,,,,,,,,,,,,,,,,,,,,,,,,,,,,,,,,,,,
,,5b5fdd52b36c3400014718b9,2023-12-14_20h09.36.272,kallum_motion_pilot,2023.2.3,Win32,59.88023952,5b5fdd52b36c3400014718b9,657bb317c8798c6608bceb3f,657bb4a459cf1a6fe7c475a4,0.0548,0.0549,1,11,173,80,1,fivesix,,,,,,,,,,,,,,,,,,,,,,,,,,,,,,,,,,,,,,,,,,,,,,,,,,,,,,,,,,,,,,,,,,,,,,,,,,,,,,,,,,,,,,,,,,,,,,,,,,,,,,,,,,,,,,,,,,,,,,,,,,,,,,,,,,,,,,,
,,5b5fdd52b36c3400014718b9,2023-12-14_20h09.36.272,kallum_motion_pilot,2023.2.3,Win32,59.88023952,5b5fdd52b36c3400014718b9,657bb317c8798c6608bceb3f,657bb4a459cf1a6fe7c475a4,0.055,0.0551,1,12,174,144,1,fivesix,,,,,,,,,,,,,,,,,,,,,,,,,,,,,,,,,,,,,,,,,,,,,,,,,,,,,,,,,,,,,,,,,,,,,,,,,,,,,,,,,,,,,,,,,,,,,,,,,,,,,,,,,,,,,,,,,,,,,,,,,,,,,,,,,,,,,,,
,,5b5fdd52b36c3400014718b9,2023-12-14_20h09.36.272,kallum_motion_pilot,2023.2.3,Win32,59.88023952,5b5fdd52b36c3400014718b9,657bb317c8798c6608bceb3f,657bb4a459cf1a6fe7c475a4,0.0552,0.0553,1,13,175,145,1,fiveseven,,,,,,,,,,,,,,,,,,,,,,,,,,,,,,,,,,,,,,,,,,,,,,,,,,,,,,,,,,,,,,,,,,,,,,,,,,,,,,,,,,,,,,,,,,,,,,,,,,,,,,,,,,,,,,,,,,,,,,,,,,,,,,,,,,,,,,,
,,5b5fdd52b36c3400014718b9,2023-12-14_20h09.36.272,kallum_motion_pilot,2023.2.3,Win32,59.88023952,5b5fdd52b36c3400014718b9,657bb317c8798c6608bceb3f,657bb4a459cf1a6fe7c475a4,0.0553,0.0554,1,14,176,151,1,eightseven,,,,,,,,,,,,,,,,,,,,,,,,,,,,,,,,,,,,,,,,,,,,,,,,,,,,,,,,,,,,,,,,,,,,,,,,,,,,,,,,,,,,,,,,,,,,,,,,,,,,,,,,,,,,,,,,,,,,,,,,,,,,,,,,,,,,,,,
,,5b5fdd52b36c3400014718b9,2023-12-14_20h09.36.272,kallum_motion_pilot,2023.2.3,Win32,59.88023952,5b5fdd52b36c3400014718b9,657bb317c8798c6608bceb3f,657bb4a459cf1a6fe7c475a4,0.0555,0.0556,1,15,177,118,1,eightsix,,,,,,,,,,,,,,,,,,,,,,,,,,,,,,,,,,,,,,,,,,,,,,,,,,,,,,,,,,,,,,,,,,,,,,,,,,,,,,,,,,,,,,,,,,,,,,,,,,,,,,,,,,,,,,,,,,,,,,,,,,,,,,,,,,,,,,,
,,5b5fdd52b36c3400014718b9,2023-12-14_20h09.36.272,kallum_motion_pilot,2023.2.3,Win32,59.88023952,5b5fdd52b36c3400014718b9,657bb317c8798c6608bceb3f,657bb4a459cf1a6fe7c475a4,0.0557,0.0558,1,16,178,25,1,onethree,,,,,,,,,,,,,,,,,,,,,,,,,,,,,,,,,,,,,,,,,,,,,,,,,,,,,,,,,,,,,,,,,,,,,,,,,,,,,,,,,,,,,,,,,,,,,,,,,,,,,,,,,,,,,,,,,,,,,,,,,,,,,,,,,,,,,,,
,,5b5fdd52b36c3400014718b9,2023-12-14_20h09.36.272,kallum_motion_pilot,2023.2.3,Win32,59.88023952,5b5fdd52b36c3400014718b9,657bb317c8798c6608bceb3f,657bb4a459cf1a6fe7c475a4,0.0558,0.0559,1,17,179,156,1,sevenfive,,,,,,,,,,,,,,,,,,,,,,,,,,,,,,,,,,,,,,,,,,,,,,,,,,,,,,,,,,,,,,,,,,,,,,,,,,,,,,,,,,,,,,,,,,,,,,,,,,,,,,,,,,,,,,,,,,,,,,,,,,,,,,,,,,,,,,,
,,5b5fdd52b36c3400014718b9,2023-12-14_20h09.36.272,kallum_motion_pilot,2023.2.3,Win32,59.88023952,5b5fdd52b36c3400014718b9,657bb317c8798c6608bceb3f,657bb4a459cf1a6fe7c475a4,0.056,0.0561,1,18,180,128,1,fivesix,,,,,,,,,,,,,,,,,,,,,,,,,,,,,,,,,,,,,,,,,,,,,,,,,,,,,,,,,,,,,,,,,,,,,,,,,,,,,,,,,,,,,,,,,,,,,,,,,,,,,,,,,,,,,,,,,,,,,,,,,,,,,,,,,,,,,,,
,,5b5fdd52b36c3400014718b9,2023-12-14_20h09.36.272,kallum_motion_pilot,2023.2.3,Win32,59.88023952,5b5fdd52b36c3400014718b9,657bb317c8798c6608bceb3f,657bb4a459cf1a6fe7c475a4,0.0562,0.0563,1,19,181,102,1,eightsix,,,,,,,,,,,,,,,,,,,,,,,,,,,,,,,,,,,,,,,,,,,,,,,,,,,,,,,,,,,,,,,,,,,,,,,,,,,,,,,,,,,,,,,,,,,,,,,,,,,,,,,,,,,,,,,,,,,,,,,,,,,,,,,,,,,,,,,
,,5b5fdd52b36c3400014718b9,2023-12-14_20h09.36.272,kallum_motion_pilot,2023.2.3,Win32,59.88023952,5b5fdd52b36c3400014718b9,657bb317c8798c6608bceb3f,657bb4a459cf1a6fe7c475a4,0.0564,0.0565,1,20,182,44,1,threeone,,,,,,,,,,,,,,,,,,,,,,,,,,,,,,,,,,,,,,,,,,,,,,,,,,,,,,,,,,,,,,,,,,,,,,,,,,,,,,,,,,,,,,,,,,,,,,,,,,,,,,,,,,,,,,,,,,,,,,,,,,,,,,,,,,,,,,,
,,5b5fdd52b36c3400014718b9,2023-12-14_20h09.36.272,kallum_motion_pilot,2023.2.3,Win32,59.88023952,5b5fdd52b36c3400014718b9,657bb317c8798c6608bceb3f,657bb4a459cf1a6fe7c475a4,0.0565,0.0567,1,21,183,40,1,onetwo,,,,,,,,,,,,,,,,,,,,,,,,,,,,,,,,,,,,,,,,,,,,,,,,,,,,,,,,,,,,,,,,,,,,,,,,,,,,,,,,,,,,,,,,,,,,,,,,,,,,,,,,,,,,,,,,,,,,,,,,,,,,,,,,,,,,,,,
,,5b5fdd52b36c3400014718b9,2023-12-14_20h09.36.272,kallum_motion_pilot,2023.2.3,Win32,59.88023952,5b5fdd52b36c3400014718b9,657bb317c8798c6608bceb3f,657bb4a459cf1a6fe7c475a4,0.0568,0.0569,1,22,184,54,1,fourtwo,,,,,,,,,,,,,,,,,,,,,,,,,,,,,,,,,,,,,,,,,,,,,,,,,,,,,,,,,,,,,,,,,,,,,,,,,,,,,,,,,,,,,,,,,,,,,,,,,,,,,,,,,,,,,,,,,,,,,,,,,,,,,,,,,,,,,,,
,,5b5fdd52b36c3400014718b9,2023-12-14_20h09.36.272,kallum_motion_pilot,2023.2.3,Win32,59.88023952,5b5fdd52b36c3400014718b9,657bb317c8798c6608bceb3f,657bb4a459cf1a6fe7c475a4,0.057,0.0571,1,23,185,146,1,sixfive,,,,,,,,,,,,,,,,,,,,,,,,,,,,,,,,,,,,,,,,,,,,,,,,,,,,,,,,,,,,,,,,,,,,,,,,,,,,,,,,,,,,,,,,,,,,,,,,,,,,,,,,,,,,,,,,,,,,,,,,,,,,,,,,,,,,,,,
,,5b5fdd52b36c3400014718b9,2023-12-14_20h09.36.272,kallum_motion_pilot,2023.2.3,Win32,59.88023952,5b5fdd52b36c3400014718b9,657bb317c8798c6608bceb3f,657bb4a459cf1a6fe7c475a4,0.0573,0.0574,1,24,186,124,1,sevenfive,,,,,,,,,,,,,,,,,,,,,,,,,,,,,,,,,,,,,,,,,,,,,,,,,,,,,,,,,,,,,,,,,,,,,,,,,,,,,,,,,,,,,,,,,,,,,,,,,,,,,,,,,,,,,,,,,,,,,,,,,,,,,,,,,,,,,,,
,,5b5fdd52b36c3400014718b9,2023-12-14_20h09.36.272,kallum_motion_pilot,2023.2.3,Win32,59.88023952,5b5fdd52b36c3400014718b9,657bb317c8798c6608bceb3f,657bb4a459cf1a6fe7c475a4,0.0576,0.0576,1,25,187,59,1,twofour,,,,,,,,,,,,,,,,,,,,,,,,,,,,,,,,,,,,,,,,,,,,,,,,,,,,,,,,,,,,,,,,,,,,,,,,,,,,,,,,,,,,,,,,,,,,,,,,,,,,,,,,,,,,,,,,,,,,,,,,,,,,,,,,,,,,,,,
,,5b5fdd52b36c3400014718b9,2023-12-14_20h09.36.272,kallum_motion_pilot,2023.2.3,Win32,59.88023952,5b5fdd52b36c3400014718b9,657bb317c8798c6608bceb3f,657bb4a459cf1a6fe7c475a4,0.0577,0.0578,1,26,188,48,1,onetwo,,,,,,,,,,,,,,,,,,,,,,,,,,,,,,,,,,,,,,,,,,,,,,,,,,,,,,,,,,,,,,,,,,,,,,,,,,,,,,,,,,,,,,,,,,,,,,,,,,,,,,,,,,,,,,,,,,,,,,,,,,,,,,,,,,,,,,,
,,5b5fdd52b36c3400014718b9,2023-12-14_20h09.36.272,kallum_motion_pilot,2023.2.3,Win32,59.88023952,5b5fdd52b36c3400014718b9,657bb317c8798c6608bceb3f,657bb4a459cf1a6fe7c475a4,0.0579,0.058,1,27,189,90,1,sixfive,,,,,,,,,,,,,,,,,,,,,,,,,,,,,,,,,,,,,,,,,,,,,,,,,,,,,,,,,,,,,,,,,,,,,,,,,,,,,,,,,,,,,,,,,,,,,,,,,,,,,,,,,,,,,,,,,,,,,,,,,,,,,,,,,,,,,,,
,,5b5fdd52b36c3400014718b9,2023-12-14_20h09.36.272,kallum_motion_pilot,2023.2.3,Win32,59.88023952,5b5fdd52b36c3400014718b9,657bb317c8798c6608bceb3f,657bb4a459cf1a6fe7c475a4,0.0581,0.0581,1,28,190,23,1,fourthree,,,,,,,,,,,,,,,,,,,,,,,,,,,,,,,,,,,,,,,,,,,,,,,,,,,,,,,,,,,,,,,,,,,,,,,,,,,,,,,,,,,,,,,,,,,,,,,,,,,,,,,,,,,,,,,,,,,,,,,,,,,,,,,,,,,,,,,
,,5b5fdd52b36c3400014718b9,2023-12-14_20h09.36.272,kallum_motion_pilot,2023.2.3,Win32,59.88023952,5b5fdd52b36c3400014718b9,657bb317c8798c6608bceb3f,657bb4a459cf1a6fe7c475a4,0.0583,0.0584,1,29,191,15,1,fourthree,,,,,,,,,,,,,,,,,,,,,,,,,,,,,,,,,,,,,,,,,,,,,,,,,,,,,,,,,,,,,,,,,,,,,,,,,,,,,,,,,,,,,,,,,,,,,,,,,,,,,,,,,,,,,,,,,,,,,,,,,,,,,,,,,,,,,,,
,,5b5fdd52b36c3400014718b9,2023-12-14_20h09.36.272,kallum_motion_pilot,2023.2.3,Win32,59.88023952,5b5fdd52b36c3400014718b9,657bb317c8798c6608bceb3f,657bb4a459cf1a6fe7c475a4,0.0585,0.0585,1,30,192,71,1,fourthree,,,,,,,,,,,,,,,,,,,,,,,,,,,,,,,,,,,,,,,,,,,,,,,,,,,,,,,,,,,,,,,,,,,,,,,,,,,,,,,,,,,,,,,,,,,,,,,,,,,,,,,,,,,,,,,,,,,,,,,,,,,,,,,,,,,,,,,
,,5b5fdd52b36c3400014718b9,2023-12-14_20h09.36.272,kallum_motion_pilot,2023.2.3,Win32,59.88023952,5b5fdd52b36c3400014718b9,657bb317c8798c6608bceb3f,657bb4a459cf1a6fe7c475a4,0.0586,0.0587,1,31,193,53,1,threefour,,,,,,,,,,,,,,,,,,,,,,,,,,,,,,,,,,,,,,,,,,,,,,,,,,,,,,,,,,,,,,,,,,,,,,,,,,,,,,,,,,,,,,,,,,,,,,,,,,,,,,,,,,,,,,,,,,,,,,,,,,,,,,,,,,,,,,,
,,5b5fdd52b36c3400014718b9,2023-12-14_20h09.36.272,kallum_motion_pilot,2023.2.3,Win32,59.88023952,5b5fdd52b36c3400014718b9,657bb317c8798c6608bceb3f,657bb4a459cf1a6fe7c475a4,0.0587,0.0589,1,32,194,55,1,fourthree,,,,,,,,,,,,,,,,,,,,,,,,,,,,,,,,,,,,,,,,,,,,,,,,,,,,,,,,,,,,,,,,,,,,,,,,,,,,,,,,,,,,,,,,,,,,,,,,,,,,,,,,,,,,,,,,,,,,,,,,,,,,,,,,,,,,,,,
,,5b5fdd52b36c3400014718b9,2023-12-14_20h09.36.272,kallum_motion_pilot,2023.2.3,Win32,59.88023952,5b5fdd52b36c3400014718b9,657bb317c8798c6608bceb3f,657bb4a459cf1a6fe7c475a4,0.059,0.0591,1,33,195,93,1,seveneight,,,,,,,,,,,,,,,,,,,,,,,,,,,,,,,,,,,,,,,,,,,,,,,,,,,,,,,,,,,,,,,,,,,,,,,,,,,,,,,,,,,,,,,,,,,,,,,,,,,,,,,,,,,,,,,,,,,,,,,,,,,,,,,,,,,,,,,
,,5b5fdd52b36c3400014718b9,2023-12-14_20h09.36.272,kallum_motion_pilot,2023.2.3,Win32,59.88023952,5b5fdd52b36c3400014718b9,657bb317c8798c6608bceb3f,657bb4a459cf1a6fe7c475a4,0.0591,0.0592,1,34,196,49,1,onethree,,,,,,,,,,,,,,,,,,,,,,,,,,,,,,,,,,,,,,,,,,,,,,,,,,,,,,,,,,,,,,,,,,,,,,,,,,,,,,,,,,,,,,,,,,,,,,,,,,,,,,,,,,,,,,,,,,,,,,,,,,,,,,,,,,,,,,,
,,5b5fdd52b36c3400014718b9,2023-12-14_20h09.36.272,kallum_motion_pilot,2023.2.3,Win32,59.88023952,5b5fdd52b36c3400014718b9,657bb317c8798c6608bceb3f,657bb4a459cf1a6fe7c475a4,0.0593,0.0594,1,35,197,111,1,eightseven,,,,,,,,,,,,,,,,,,,,,,,,,,,,,,,,,,,,,,,,,,,,,,,,,,,,,,,,,,,,,,,,,,,,,,,,,,,,,,,,,,,,,,,,,,,,,,,,,,,,,,,,,,,,,,,,,,,,,,,,,,,,,,,,,,,,,,,
,,5b5fdd52b36c3400014718b9,2023-12-14_20h09.36.272,kallum_motion_pilot,2023.2.3,Win32,59.88023952,5b5fdd52b36c3400014718b9,657bb317c8798c6608bceb3f,657bb4a459cf1a6fe7c475a4,0.0595,0.0595,1,36,198,129,1,fiveseven,,,,,,,,,,,,,,,,,,,,,,,,,,,,,,,,,,,,,,,,,,,,,,,,,,,,,,,,,,,,,,,,,,,,,,,,,,,,,,,,,,,,,,,,,,,,,,,,,,,,,,,,,,,,,,,,,,,,,,,,,,,,,,,,,,,,,,,
,,5b5fdd52b36c3400014718b9,2023-12-14_20h09.36.272,kallum_motion_pilot,2023.2.3,Win32,59.88023952,5b5fdd52b36c3400014718b9,657bb317c8798c6608bceb3f,657bb4a459cf1a6fe7c475a4,0.0597,0.0598,1,37,199,50,1,twoone,,,,,,,,,,,,,,,,,,,,,,,,,,,,,,,,,,,,,,,,,,,,,,,,,,,,,,,,,,,,,,,,,,,,,,,,,,,,,,,,,,,,,,,,,,,,,,,,,,,,,,,,,,,,,,,,,,,,,,,,,,,,,,,,,,,,,,,
,,5b5fdd52b36c3400014718b9,2023-12-14_20h09.36.272,kallum_motion_pilot,2023.2.3,Win32,59.88023952,5b5fdd52b36c3400014718b9,657bb317c8798c6608bceb3f,657bb4a459cf1a6fe7c475a4,0.0598,0.0599,1,38,200,24,1,onetwo,,,,,,,,,,,,,,,,,,,,,,,,,,,,,,,,,,,,,,,,,,,,,,,,,,,,,,,,,,,,,,,,,,,,,,,,,,,,,,,,,,,,,,,,,,,,,,,,,,,,,,,,,,,,,,,,,,,,,,,,,,,,,,,,,,,,,,,
,,5b5fdd52b36c3400014718b9,2023-12-14_20h09.36.272,kallum_motion_pilot,2023.2.3,Win32,59.88023952,5b5fdd52b36c3400014718b9,657bb317c8798c6608bceb3f,657bb4a459cf1a6fe7c475a4,0.06,0.0601,1,39,201,76,1,threeone,,,,,,,,,,,,,,,,,,,,,,,,,,,,,,,,,,,,,,,,,,,,,,,,,,,,,,,,,,,,,,,,,,,,,,,,,,,,,,,,,,,,,,,,,,,,,,,,,,,,,,,,,,,,,,,,,,,,,,,,,,,,,,,,,,,,,,,
,,5b5fdd52b36c3400014718b9,2023-12-14_20h09.36.272,kallum_motion_pilot,2023.2.3,Win32,59.88023952,5b5fdd52b36c3400014718b9,657bb317c8798c6608bceb3f,657bb4a459cf1a6fe7c475a4,0.0602,0.0602,1,40,202,137,1,fiveseven,,,,,,,,,,,,,,,,,,,,,,,,,,,,,,,,,,,,,,,,,,,,,,,,,,,,,,,,,,,,,,,,,,,,,,,,,,,,,,,,,,,,,,,,,,,,,,,,,,,,,,,,,,,,,,,,,,,,,,,,,,,,,,,,,,,,,,,
,,5b5fdd52b36c3400014718b9,2023-12-14_20h09.36.272,kallum_motion_pilot,2023.2.3,Win32,59.88023952,5b5fdd52b36c3400014718b9,657bb317c8798c6608bceb3f,657bb4a459cf1a6fe7c475a4,0.0603,0.0604,1,41,203,100,1,sevenfive,,,,,,,,,,,,,,,,,,,,,,,,,,,,,,,,,,,,,,,,,,,,,,,,,,,,,,,,,,,,,,,,,,,,,,,,,,,,,,,,,,,,,,,,,,,,,,,,,,,,,,,,,,,,,,,,,,,,,,,,,,,,,,,,,,,,,,,
,,5b5fdd52b36c3400014718b9,2023-12-14_20h09.36.272,kallum_motion_pilot,2023.2.3,Win32,59.88023952,5b5fdd52b36c3400014718b9,657bb317c8798c6608bceb3f,657bb4a459cf1a6fe7c475a4,0.0605,0.0605,1,42,204,28,1,threeone,,,,,,,,,,,,,,,,,,,,,,,,,,,,,,,,,,,,,,,,,,,,,,,,,,,,,,,,,,,,,,,,,,,,,,,,,,,,,,,,,,,,,,,,,,,,,,,,,,,,,,,,,,,,,,,,,,,,,,,,,,,,,,,,,,,,,,,
,,5b5fdd52b36c3400014718b9,2023-12-14_20h09.36.272,kallum_motion_pilot,2023.2.3,Win32,59.88023952,5b5fdd52b36c3400014718b9,657bb317c8798c6608bceb3f,657bb4a459cf1a6fe7c475a4,0.0607,0.0607,1,43,205,114,1,sixfive,,,,,,,,,,,,,,,,,,,,,,,,,,,,,,,,,,,,,,,,,,,,,,,,,,,,,,,,,,,,,,,,,,,,,,,,,,,,,,,,,,,,,,,,,,,,,,,,,,,,,,,,,,,,,,,,,,,,,,,,,,,,,,,,,,,,,,,
,,5b5fdd52b36c3400014718b9,2023-12-14_20h09.36.272,kallum_motion_pilot,2023.2.3,Win32,59.88023952,5b5fdd52b36c3400014718b9,657bb317c8798c6608bceb3f,657bb4a459cf1a6fe7c475a4,0.0608,0.0609,1,44,206,30,1,fourtwo,,,,,,,,,,,,,,,,,,,,,,,,,,,,,,,,,,,,,,,,,,,,,,,,,,,,,,,,,,,,,,,,,,,,,,,,,,,,,,,,,,,,,,,,,,,,,,,,,,,,,,,,,,,,,,,,,,,,,,,,,,,,,,,,,,,,,,,
,,5b5fdd52b36c3400014718b9,2023-12-14_20h09.36.272,kallum_motion_pilot,2023.2.3,Win32,59.88023952,5b5fdd52b36c3400014718b9,657bb317c8798c6608bceb3f,657bb4a459cf1a6fe7c475a4,0.061,0.061,1,45,207,157,1,seveneight,,,,,,,,,,,,,,,,,,,,,,,,,,,,,,,,,,,,,,,,,,,,,,,,,,,,,,,,,,,,,,,,,,,,,,,,,,,,,,,,,,,,,,,,,,,,,,,,,,,,,,,,,,,,,,,,,,,,,,,,,,,,,,,,,,,,,,,
,,5b5fdd52b36c3400014718b9,2023-12-14_20h09.36.272,kallum_motion_pilot,2023.2.3,Win32,59.88023952,5b5fdd52b36c3400014718b9,657bb317c8798c6608bceb3f,657bb4a459cf1a6fe7c475a4,0.0612,0.0612,1,46,208,92,1,sevenfive,,,,,,,,,,,,,,,,,,,,,,,,,,,,,,,,,,,,,,,,,,,,,,,,,,,,,,,,,,,,,,,,,,,,,,,,,,,,,,,,,,,,,,,,,,,,,,,,,,,,,,,,,,,,,,,,,,,,,,,,,,,,,,,,,,,,,,,
,,5b5fdd52b36c3400014718b9,2023-12-14_20h09.36.272,kallum_motion_pilot,2023.2.3,Win32,59.88023952,5b5fdd52b36c3400014718b9,657bb317c8798c6608bceb3f,657bb4a459cf1a6fe7c475a4,0.0614,0.0615,1,47,209,66,1,twoone,,,,,,,,,,,,,,,,,,,,,,,,,,,,,,,,,,,,,,,,,,,,,,,,,,,,,,,,,,,,,,,,,,,,,,,,,,,,,,,,,,,,,,,,,,,,,,,,,,,,,,,,,,,,,,,,,,,,,,,,,,,,,,,,,,,,,,,
,,5b5fdd52b36c3400014718b9,2023-12-14_20h09.36.272,kallum_motion_pilot,2023.2.3,Win32,59.88023952,5b5fdd52b36c3400014718b9,657bb317c8798c6608bceb3f,657bb4a459cf1a6fe7c475a4,0.0616,0.0616,1,48,210,133,1,seveneight,,,,,,,,,,,,,,,,,,,,,,,,,,,,,,,,,,,,,,,,,,,,,,,,,,,,,,,,,,,,,,,,,,,,,,,,,,,,,,,,,,,,,,,,,,,,,,,,,,,,,,,,,,,,,,,,,,,,,,,,,,,,,,,,,,,,,,,
,,5b5fdd52b36c3400014718b9,2023-12-14_20h09.36.272,kallum_motion_pilot,2023.2.3,Win32,59.88023952,5b5fdd52b36c3400014718b9,657bb317c8798c6608bceb3f,657bb4a459cf1a6fe7c475a4,0.0617,0.0618,1,49,211,125,1,seveneight,,,,,,,,,,,,,,,,,,,,,,,,,,,,,,,,,,,,,,,,,,,,,,,,,,,,,,,,,,,,,,,,,,,,,,,,,,,,,,,,,,,,,,,,,,,,,,,,,,,,,,,,,,,,,,,,,,,,,,,,,,,,,,,,,,,,,,,
,,5b5fdd52b36c3400014718b9,2023-12-14_20h09.36.272,kallum_motion_pilot,2023.2.3,Win32,59.88023952,5b5fdd52b36c3400014718b9,657bb317c8798c6608bceb3f,657bb4a459cf1a6fe7c475a4,0.0619,0.062,1,50,212,32,1,onetwo,,,,,,,,,,,,,,,,,,,,,,,,,,,,,,,,,,,,,,,,,,,,,,,,,,,,,,,,,,,,,,,,,,,,,,,,,,,,,,,,,,,,,,,,,,,,,,,,,,,,,,,,,,,,,,,,,,,,,,,,,,,,,,,,,,,,,,,
,,5b5fdd52b36c3400014718b9,2023-12-14_20h09.36.272,kallum_motion_pilot,2023.2.3,Win32,59.88023952,5b5fdd52b36c3400014718b9,657bb317c8798c6608bceb3f,657bb4a459cf1a6fe7c475a4,0.0621,0.0622,1,51,213,148,1,sevenfive,,,,,,,,,,,,,,,,,,,,,,,,,,,,,,,,,,,,,,,,,,,,,,,,,,,,,,,,,,,,,,,,,,,,,,,,,,,,,,,,,,,,,,,,,,,,,,,,,,,,,,,,,,,,,,,,,,,,,,,,,,,,,,,,,,,,,,,
,,5b5fdd52b36c3400014718b9,2023-12-14_20h09.36.272,kallum_motion_pilot,2023.2.3,Win32,59.88023952,5b5fdd52b36c3400014718b9,657bb317c8798c6608bceb3f,657bb4a459cf1a6fe7c475a4,0.0623,0.0623,1,52,214,38,1,fourtwo,,,,,,,,,,,,,,,,,,,,,,,,,,,,,,,,,,,,,,,,,,,,,,,,,,,,,,,,,,,,,,,,,,,,,,,,,,,,,,,,,,,,,,,,,,,,,,,,,,,,,,,,,,,,,,,,,,,,,,,,,,,,,,,,,,,,,,,
,,5b5fdd52b36c3400014718b9,2023-12-14_20h09.36.272,kallum_motion_pilot,2023.2.3,Win32,59.88023952,5b5fdd52b36c3400014718b9,657bb317c8798c6608bceb3f,657bb4a459cf1a6fe7c475a4,0.0624,0.0625,1,53,215,62,1,fourtwo,,,,,,,,,,,,,,,,,,,,,,,,,,,,,,,,,,,,,,,,,,,,,,,,,,,,,,,,,,,,,,,,,,,,,,,,,,,,,,,,,,,,,,,,,,,,,,,,,,,,,,,,,,,,,,,,,,,,,,,,,,,,,,,,,,,,,,,
,,5b5fdd52b36c3400014718b9,2023-12-14_20h09.36.272,kallum_motion_pilot,2023.2.3,Win32,59.88023952,5b5fdd52b36c3400014718b9,657bb317c8798c6608bceb3f,657bb4a459cf1a6fe7c475a4,0.0626,0.0628,1,54,216,73,1,onethree,,,,,,,,,,,,,,,,,,,,,,,,,,,,,,,,,,,,,,,,,,,,,,,,,,,,,,,,,,,,,,,,,,,,,,,,,,,,,,,,,,,,,,,,,,,,,,,,,,,,,,,,,,,,,,,,,,,,,,,,,,,,,,,,,,,,,,,
,,5b5fdd52b36c3400014718b9,2023-12-14_20h09.36.272,kallum_motion_pilot,2023.2.3,Win32,59.88023952,5b5fdd52b36c3400014718b9,657bb317c8798c6608bceb3f,657bb4a459cf1a6fe7c475a4,0.0628,0.0629,1,55,217,108,1,sevenfive,,,,,,,,,,,,,,,,,,,,,,,,,,,,,,,,,,,,,,,,,,,,,,,,,,,,,,,,,,,,,,,,,,,,,,,,,,,,,,,,,,,,,,,,,,,,,,,,,,,,,,,,,,,,,,,,,,,,,,,,,,,,,,,,,,,,,,,
,,5b5fdd52b36c3400014718b9,2023-12-14_20h09.36.272,kallum_motion_pilot,2023.2.3,Win32,59.88023952,5b5fdd52b36c3400014718b9,657bb317c8798c6608bceb3f,657bb4a459cf1a6fe7c475a4,0.063,0.0631,1,56,218,74,1,twoone,,,,,,,,,,,,,,,,,,,,,,,,,,,,,,,,,,,,,,,,,,,,,,,,,,,,,,,,,,,,,,,,,,,,,,,,,,,,,,,,,,,,,,,,,,,,,,,,,,,,,,,,,,,,,,,,,,,,,,,,,,,,,,,,,,,,,,,
,,5b5fdd52b36c3400014718b9,2023-12-14_20h09.36.272,kallum_motion_pilot,2023.2.3,Win32,59.88023952,5b5fdd52b36c3400014718b9,657bb317c8798c6608bceb3f,657bb4a459cf1a6fe7c475a4,0.0631,0.0633,1,57,219,88,1,fivesix,,,,,,,,,,,,,,,,,,,,,,,,,,,,,,,,,,,,,,,,,,,,,,,,,,,,,,,,,,,,,,,,,,,,,,,,,,,,,,,,,,,,,,,,,,,,,,,,,,,,,,,,,,,,,,,,,,,,,,,,,,,,,,,,,,,,,,,
,,5b5fdd52b36c3400014718b9,2023-12-14_20h09.36.272,kallum_motion_pilot,2023.2.3,Win32,59.88023952,5b5fdd52b36c3400014718b9,657bb317c8798c6608bceb3f,657bb4a459cf1a6fe7c475a4,0.0634,0.0636,1,58,220,140,1,sevenfive,,,,,,,,,,,,,,,,,,,,,,,,,,,,,,,,,,,,,,,,,,,,,,,,,,,,,,,,,,,,,,,,,,,,,,,,,,,,,,,,,,,,,,,,,,,,,,,,,,,,,,,,,,,,,,,,,,,,,,,,,,,,,,,,,,,,,,,
,,5b5fdd52b36c3400014718b9,2023-12-14_20h09.36.272,kallum_motion_pilot,2023.2.3,Win32,59.88023952,5b5fdd52b36c3400014718b9,657bb317c8798c6608bceb3f,657bb4a459cf1a6fe7c475a4,0.0636,0.0638,1,59,221,31,1,fourthree,,,,,,,,,,,,,,,,,,,,,,,,,,,,,,,,,,,,,,,,,,,,,,,,,,,,,,,,,,,,,,,,,,,,,,,,,,,,,,,,,,,,,,,,,,,,,,,,,,,,,,,,,,,,,,,,,,,,,,,,,,,,,,,,,,,,,,,
,,5b5fdd52b36c3400014718b9,2023-12-14_20h09.36.272,kallum_motion_pilot,2023.2.3,Win32,59.88023952,5b5fdd52b36c3400014718b9,657bb317c8798c6608bceb3f,657bb4a459cf1a6fe7c475a4,0.064,0.0641,1,60,222,116,1,sevenfive,,,,,,,,,,,,,,,,,,,,,,,,,,,,,,,,,,,,,,,,,,,,,,,,,,,,,,,,,,,,,,,,,,,,,,,,,,,,,,,,,,,,,,,,,,,,,,,,,,,,,,,,,,,,,,,,,,,,,,,,,,,,,,,,,,,,,,,
,,5b5fdd52b36c3400014718b9,2023-12-14_20h09.36.272,kallum_motion_pilot,2023.2.3,Win32,59.88023952,5b5fdd52b36c3400014718b9,657bb317c8798c6608bceb3f,657bb4a459cf1a6fe7c475a4,0.0642,0.0643,1,61,223,35,1,twofour,,,,,,,,,,,,,,,,,,,,,,,,,,,,,,,,,,,,,,,,,,,,,,,,,,,,,,,,,,,,,,,,,,,,,,,,,,,,,,,,,,,,,,,,,,,,,,,,,,,,,,,,,,,,,,,,,,,,,,,,,,,,,,,,,,,,,,,
,,5b5fdd52b36c3400014718b9,2023-12-14_20h09.36.272,kallum_motion_pilot,2023.2.3,Win32,59.88023952,5b5fdd52b36c3400014718b9,657bb317c8798c6608bceb3f,657bb4a459cf1a6fe7c475a4,0.0643,0.0644,1,62,224,42,1,twoone,,,,,,,,,,,,,,,,,,,,,,,,,,,,,,,,,,,,,,,,,,,,,,,,,,,,,,,,,,,,,,,,,,,,,,,,,,,,,,,,,,,,,,,,,,,,,,,,,,,,,,,,,,,,,,,,,,,,,,,,,,,,,,,,,,,,,,,
,,5b5fdd52b36c3400014718b9,2023-12-14_20h09.36.272,kallum_motion_pilot,2023.2.3,Win32,59.88023952,5b5fdd52b36c3400014718b9,657bb317c8798c6608bceb3f,657bb4a459cf1a6fe7c475a4,0.0646,0.0646,1,63,225,149,1,seveneight,,,,,,,,,,,,,,,,,,,,,,,,,,,,,,,,,,,,,,,,,,,,,,,,,,,,,,,,,,,,,,,,,,,,,,,,,,,,,,,,,,,,,,,,,,,,,,,,,,,,,,,,,,,,,,,,,,,,,,,,,,,,,,,,,,,,,,,
,,5b5fdd52b36c3400014718b9,2023-12-14_20h09.36.272,kallum_motion_pilot,2023.2.3,Win32,59.88023952,5b5fdd52b36c3400014718b9,657bb317c8798c6608bceb3f,657bb4a459cf1a6fe7c475a4,0.0648,0.0648,1,64,226,119,1,eightseven,,,,,,,,,,,,,,,,,,,,,,,,,,,,,,,,,,,,,,,,,,,,,,,,,,,,,,,,,,,,,,,,,,,,,,,,,,,,,,,,,,,,,,,,,,,,,,,,,,,,,,,,,,,,,,,,,,,,,,,,,,,,,,,,,,,,,,,
,,5b5fdd52b36c3400014718b9,2023-12-14_20h09.36.272,kallum_motion_pilot,2023.2.3,Win32,59.88023952,5b5fdd52b36c3400014718b9,657bb317c8798c6608bceb3f,657bb4a459cf1a6fe7c475a4,0.0649,0.0651,1,65,227,43,1,twofour,,,,,,,,,,,,,,,,,,,,,,,,,,,,,,,,,,,,,,,,,,,,,,,,,,,,,,,,,,,,,,,,,,,,,,,,,,,,,,,,,,,,,,,,,,,,,,,,,,,,,,,,,,,,,,,,,,,,,,,,,,,,,,,,,,,,,,,
,,5b5fdd52b36c3400014718b9,2023-12-14_20h09.36.272,kallum_motion_pilot,2023.2.3,Win32,59.88023952,5b5fdd52b36c3400014718b9,657bb317c8798c6608bceb3f,657bb4a459cf1a6fe7c475a4,0.0651,0.0653,1,66,228,75,1,twofour,,,,,,,,,,,,,,,,,,,,,,,,,,,,,,,,,,,,,,,,,,,,,,,,,,,,,,,,,,,,,,,,,,,,,,,,,,,,,,,,,,,,,,,,,,,,,,,,,,,,,,,,,,,,,,,,,,,,,,,,,,,,,,,,,,,,,,,
,,5b5fdd52b36c3400014718b9,2023-12-14_20h09.36.272,kallum_motion_pilot,2023.2.3,Win32,59.88023952,5b5fdd52b36c3400014718b9,657bb317c8798c6608bceb3f,657bb4a459cf1a6fe7c475a4,0.0653,0.0654,1,67,229,60,1,threeone,,,,,,,,,,,,,,,,,,,,,,,,,,,,,,,,,,,,,,,,,,,,,,,,,,,,,,,,,,,,,,,,,,,,,,,,,,,,,,,,,,,,,,,,,,,,,,,,,,,,,,,,,,,,,,,,,,,,,,,,,,,,,,,,,,,,,,,
,,5b5fdd52b36c3400014718b9,2023-12-14_20h09.36.272,kallum_motion_pilot,2023.2.3,Win32,59.88023952,5b5fdd52b36c3400014718b9,657bb317c8798c6608bceb3f,657bb4a459cf1a6fe7c475a4,0.0655,0.0656,1,68,230,47,1,fourthree,,,,,,,,,,,,,,,,,,,,,,,,,,,,,,,,,,,,,,,,,,,,,,,,,,,,,,,,,,,,,,,,,,,,,,,,,,,,,,,,,,,,,,,,,,,,,,,,,,,,,,,,,,,,,,,,,,,,,,,,,,,,,,,,,,,,,,,
,,5b5fdd52b36c3400014718b9,2023-12-14_20h09.36.272,kallum_motion_pilot,2023.2.3,Win32,59.88023952,5b5fdd52b36c3400014718b9,657bb317c8798c6608bceb3f,657bb4a459cf1a6fe7c475a4,0.0657,0.0658,1,69,231,36,1,threeone,,,,,,,,,,,,,,,,,,,,,,,,,,,,,,,,,,,,,,,,,,,,,,,,,,,,,,,,,,,,,,,,,,,,,,,,,,,,,,,,,,,,,,,,,,,,,,,,,,,,,,,,,,,,,,,,,,,,,,,,,,,,,,,,,,,,,,,
,,5b5fdd52b36c3400014718b9,2023-12-14_20h09.36.272,kallum_motion_pilot,2023.2.3,Win32,59.88023952,5b5fdd52b36c3400014718b9,657bb317c8798c6608bceb3f,657bb4a459cf1a6fe7c475a4,0.0659,0.066,1,70,232,117,1,seveneight,,,,,,,,,,,,,,,,,,,,,,,,,,,,,,,,,,,,,,,,,,,,,,,,,,,,,,,,,,,,,,,,,,,,,,,,,,,,,,,,,,,,,,,,,,,,,,,,,,,,,,,,,,,,,,,,,,,,,,,,,,,,,,,,,,,,,,,
,,5b5fdd52b36c3400014718b9,2023-12-14_20h09.36.272,kallum_motion_pilot,2023.2.3,Win32,59.88023952,5b5fdd52b36c3400014718b9,657bb317c8798c6608bceb3f,657bb4a459cf1a6fe7c475a4,0.066,0.0661,1,71,233,68,1,threeone,,,,,,,,,,,,,,,,,,,,,,,,,,,,,,,,,,,,,,,,,,,,,,,,,,,,,,,,,,,,,,,,,,,,,,,,,,,,,,,,,,,,,,,,,,,,,,,,,,,,,,,,,,,,,,,,,,,,,,,,,,,,,,,,,,,,,,,
,,5b5fdd52b36c3400014718b9,2023-12-14_20h09.36.272,kallum_motion_pilot,2023.2.3,Win32,59.88023952,5b5fdd52b36c3400014718b9,657bb317c8798c6608bceb3f,657bb4a459cf1a6fe7c475a4,0.0664,0.0664,1,72,234,96,1,fivesix,,,,,,,,,,,,,,,,,,,,,,,,,,,,,,,,,,,,,,,,,,,,,,,,,,,,,,,,,,,,,,,,,,,,,,,,,,,,,,,,,,,,,,,,,,,,,,,,,,,,,,,,,,,,,,,,,,,,,,,,,,,,,,,,,,,,,,,
,,5b5fdd52b36c3400014718b9,2023-12-14_20h09.36.272,kallum_motion_pilot,2023.2.3,Win32,59.88023952,5b5fdd52b36c3400014718b9,657bb317c8798c6608bceb3f,657bb4a459cf1a6fe7c475a4,0.0666,0.0666,1,73,235,19,1,twofour,,,,,,,,,,,,,,,,,,,,,,,,,,,,,,,,,,,,,,,,,,,,,,,,,,,,,,,,,,,,,,,,,,,,,,,,,,,,,,,,,,,,,,,,,,,,,,,,,,,,,,,,,,,,,,,,,,,,,,,,,,,,,,,,,,,,,,,
,,5b5fdd52b36c3400014718b9,2023-12-14_20h09.36.272,kallum_motion_pilot,2023.2.3,Win32,59.88023952,5b5fdd52b36c3400014718b9,657bb317c8798c6608bceb3f,657bb4a459cf1a6fe7c475a4,0.0667,0.0668,1,74,236,95,1,eightseven,,,,,,,,,,,,,,,,,,,,,,,,,,,,,,,,,,,,,,,,,,,,,,,,,,,,,,,,,,,,,,,,,,,,,,,,,,,,,,,,,,,,,,,,,,,,,,,,,,,,,,,,,,,,,,,,,,,,,,,,,,,,,,,,,,,,,,,
,,5b5fdd52b36c3400014718b9,2023-12-14_20h09.36.272,kallum_motion_pilot,2023.2.3,Win32,59.88023952,5b5fdd52b36c3400014718b9,657bb317c8798c6608bceb3f,657bb4a459cf1a6fe7c475a4,0.0669,0.067,1,75,237,64,1,onetwo,,,,,,,,,,,,,,,,,,,,,,,,,,,,,,,,,,,,,,,,,,,,,,,,,,,,,,,,,,,,,,,,,,,,,,,,,,,,,,,,,,,,,,,,,,,,,,,,,,,,,,,,,,,,,,,,,,,,,,,,,,,,,,,,,,,,,,,
,,5b5fdd52b36c3400014718b9,2023-12-14_20h09.36.272,kallum_motion_pilot,2023.2.3,Win32,59.88023952,5b5fdd52b36c3400014718b9,657bb317c8798c6608bceb3f,657bb4a459cf1a6fe7c475a4,0.0671,0.0672,1,76,238,51,1,twofour,,,,,,,,,,,,,,,,,,,,,,,,,,,,,,,,,,,,,,,,,,,,,,,,,,,,,,,,,,,,,,,,,,,,,,,,,,,,,,,,,,,,,,,,,,,,,,,,,,,,,,,,,,,,,,,,,,,,,,,,,,,,,,,,,,,,,,,
,,5b5fdd52b36c3400014718b9,2023-12-14_20h09.36.272,kallum_motion_pilot,2023.2.3,Win32,59.88023952,5b5fdd52b36c3400014718b9,657bb317c8798c6608bceb3f,657bb4a459cf1a6fe7c475a4,0.0674,0.0675,1,77,239,22,1,fourtwo,,,,,,,,,,,,,,,,,,,,,,,,,,,,,,,,,,,,,,,,,,,,,,,,,,,,,,,,,,,,,,,,,,,,,,,,,,,,,,,,,,,,,,,,,,,,,,,,,,,,,,,,,,,,,,,,,,,,,,,,,,,,,,,,,,,,,,,
,,5b5fdd52b36c3400014718b9,2023-12-14_20h09.36.272,kallum_motion_pilot,2023.2.3,Win32,59.88023952,5b5fdd52b36c3400014718b9,657bb317c8798c6608bceb3f,657bb4a459cf1a6fe7c475a4,0.0675,0.0676,1,78,240,45,1,threefour,,,,,,,,,,,,,,,,,,,,,,,,,,,,,,,,,,,,,,,,,,,,,,,,,,,,,,,,,,,,,,,,,,,,,,,,,,,,,,,,,,,,,,,,,,,,,,,,,,,,,,,,,,,,,,,,,,,,,,,,,,,,,,,,,,,,,,,
,,5b5fdd52b36c3400014718b9,2023-12-14_20h09.36.272,kallum_motion_pilot,2023.2.3,Win32,59.88023952,5b5fdd52b36c3400014718b9,657bb317c8798c6608bceb3f,657bb4a459cf1a6fe7c475a4,0.0677,0.0678,1,79,241,10,1,twoone,,,,,,,,,,,,,,,,,,,,,,,,,,,,,,,,,,,,,,,,,,,,,,,,,,,,,,,,,,,,,,,,,,,,,,,,,,,,,,,,,,,,,,,,,,,,,,,,,,,,,,,,,,,,,,,,,,,,,,,,,,,,,,,,,,,,,,,
,,5b5fdd52b36c3400014718b9,2023-12-14_20h09.36.272,kallum_motion_pilot,2023.2.3,Win32,59.88023952,5b5fdd52b36c3400014718b9,657bb317c8798c6608bceb3f,657bb4a459cf1a6fe7c475a4,0.068,0.068,1,80,242,81,1,fiveseven,,,,,,,,,,,,,,,,,,,,,,,,,,,,,,,,,,,,,,,,,,,,,,,,,,,,,,,,,,,,,,,,,,,,,,,,,,,,,,,,,,,,,,,,,,,,,,,,,,,,,,,,,,,,,,,,,,,,,,,,,,,,,,,,,,,,,,,
,,5b5fdd52b36c3400014718b9,2023-12-14_20h09.36.272,kallum_motion_pilot,2023.2.3,Win32,59.88023952,5b5fdd52b36c3400014718b9,657bb317c8798c6608bceb3f,657bb4a459cf1a6fe7c475a4,0.0681,0.0682,1,81,243,26,1,twoone,,,,,,,,,,,,,,,,,,,,,,,,,,,,,,,,,,,,,,,,,,,,,,,,,,,,,,,,,,,,,,,,,,,,,,,,,,,,,,,,,,,,,,,,,,,,,,,,,,,,,,,,,,,,,,,,,,,,,,,,,,,,,,,,,,,,,,,
,,5b5fdd52b36c3400014718b9,2023-12-14_20h09.36.272,kallum_motion_pilot,2023.2.3,Win32,59.88023952,5b5fdd52b36c3400014718b9,657bb317c8798c6608bceb3f,657bb4a459cf1a6fe7c475a4,0.0683,0.0685,1,82,244,89,1,fiveseven,,,,,,,,,,,,,,,,,,,,,,,,,,,,,,,,,,,,,,,,,,,,,,,,,,,,,,,,,,,,,,,,,,,,,,,,,,,,,,,,,,,,,,,,,,,,,,,,,,,,,,,,,,,,,,,,,,,,,,,,,,,,,,,,,,,,,,,
,,5b5fdd52b36c3400014718b9,2023-12-14_20h09.36.272,kallum_motion_pilot,2023.2.3,Win32,59.88023952,5b5fdd52b36c3400014718b9,657bb317c8798c6608bceb3f,657bb4a459cf1a6fe7c475a4,0.0686,0.0686,1,83,245,98,1,sixfive,,,,,,,,,,,,,,,,,,,,,,,,,,,,,,,,,,,,,,,,,,,,,,,,,,,,,,,,,,,,,,,,,,,,,,,,,,,,,,,,,,,,,,,,,,,,,,,,,,,,,,,,,,,,,,,,,,,,,,,,,,,,,,,,,,,,,,,
,,5b5fdd52b36c3400014718b9,2023-12-14_20h09.36.272,kallum_motion_pilot,2023.2.3,Win32,59.88023952,5b5fdd52b36c3400014718b9,657bb317c8798c6608bceb3f,657bb4a459cf1a6fe7c475a4,0.0687,0.0689,1,84,246,154,1,sixfive,,,,,,,,,,,,,,,,,,,,,,,,,,,,,,,,,,,,,,,,,,,,,,,,,,,,,,,,,,,,,,,,,,,,,,,,,,,,,,,,,,,,,,,,,,,,,,,,,,,,,,,,,,,,,,,,,,,,,,,,,,,,,,,,,,,,,,,
,,5b5fdd52b36c3400014718b9,2023-12-14_20h09.36.272,kallum_motion_pilot,2023.2.3,Win32,59.88023952,5b5fdd52b36c3400014718b9,657bb317c8798c6608bceb3f,657bb4a459cf1a6fe7c475a4,0.0689,0.069,1,85,247,135,1,eightseven,,,,,,,,,,,,,,,,,,,,,,,,,,,,,,,,,,,,,,,,,,,,,,,,,,,,,,,,,,,,,,,,,,,,,,,,,,,,,,,,,,,,,,,,,,,,,,,,,,,,,,,,,,,,,,,,,,,,,,,,,,,,,,,,,,,,,,,
,,5b5fdd52b36c3400014718b9,2023-12-14_20h09.36.272,kallum_motion_pilot,2023.2.3,Win32,59.88023952,5b5fdd52b36c3400014718b9,657bb317c8798c6608bceb3f,657bb4a459cf1a6fe7c475a4,0.0691,0.0692,1,86,248,97,1,fiveseven,,,,,,,,,,,,,,,,,,,,,,,,,,,,,,,,,,,,,,,,,,,,,,,,,,,,,,,,,,,,,,,,,,,,,,,,,,,,,,,,,,,,,,,,,,,,,,,,,,,,,,,,,,,,,,,,,,,,,,,,,,,,,,,,,,,,,,,
,,5b5fdd52b36c3400014718b9,2023-12-14_20h09.36.272,kallum_motion_pilot,2023.2.3,Win32,59.88023952,5b5fdd52b36c3400014718b9,657bb317c8798c6608bceb3f,657bb4a459cf1a6fe7c475a4,0.0692,0.0694,1,87,249,127,1,eightseven,,,,,,,,,,,,,,,,,,,,,,,,,,,,,,,,,,,,,,,,,,,,,,,,,,,,,,,,,,,,,,,,,,,,,,,,,,,,,,,,,,,,,,,,,,,,,,,,,,,,,,,,,,,,,,,,,,,,,,,,,,,,,,,,,,,,,,,
,,5b5fdd52b36c3400014718b9,2023-12-14_20h09.36.272,kallum_motion_pilot,2023.2.3,Win32,59.88023952,5b5fdd52b36c3400014718b9,657bb317c8798c6608bceb3f,657bb4a459cf1a6fe7c475a4,0.0694,0.0696,1,88,250,141,1,seveneight,,,,,,,,,,,,,,,,,,,,,,,,,,,,,,,,,,,,,,,,,,,,,,,,,,,,,,,,,,,,,,,,,,,,,,,,,,,,,,,,,,,,,,,,,,,,,,,,,,,,,,,,,,,,,,,,,,,,,,,,,,,,,,,,,,,,,,,
,,5b5fdd52b36c3400014718b9,2023-12-14_20h09.36.272,kallum_motion_pilot,2023.2.3,Win32,59.88023952,5b5fdd52b36c3400014718b9,657bb317c8798c6608bceb3f,657bb4a459cf1a6fe7c475a4,0.0703,0.0705,1,89,251,109,1,seveneight,,,,,,,,,,,,,,,,,,,,,,,,,,,,,,,,,,,,,,,,,,,,,,,,,,,,,,,,,,,,,,,,,,,,,,,,,,,,,,,,,,,,,,,,,,,,,,,,,,,,,,,,,,,,,,,,,,,,,,,,,,,,,,,,,,,,,,,
,,5b5fdd52b36c3400014718b9,2023-12-14_20h09.36.272,kallum_motion_pilot,2023.2.3,Win32,59.88023952,5b5fdd52b36c3400014718b9,657bb317c8798c6608bceb3f,657bb4a459cf1a6fe7c475a4,0.0706,0.0707,1,90,252,107,1,sixeight,,,,,,,,,,,,,,,,,,,,,,,,,,,,,,,,,,,,,,,,,,,,,,,,,,,,,,,,,,,,,,,,,,,,,,,,,,,,,,,,,,,,,,,,,,,,,,,,,,,,,,,,,,,,,,,,,,,,,,,,,,,,,,,,,,,,,,,
,,5b5fdd52b36c3400014718b9,2023-12-14_20h09.36.272,kallum_motion_pilot,2023.2.3,Win32,59.88023952,5b5fdd52b36c3400014718b9,657bb317c8798c6608bceb3f,657bb4a459cf1a6fe7c475a4,0.0708,0.0709,1,91,253,121,1,fiveseven,,,,,,,,,,,,,,,,,,,,,,,,,,,,,,,,,,,,,,,,,,,,,,,,,,,,,,,,,,,,,,,,,,,,,,,,,,,,,,,,,,,,,,,,,,,,,,,,,,,,,,,,,,,,,,,,,,,,,,,,,,,,,,,,,,,,,,,
,,5b5fdd52b36c3400014718b9,2023-12-14_20h09.36.272,kallum_motion_pilot,2023.2.3,Win32,59.88023952,5b5fdd52b36c3400014718b9,657bb317c8798c6608bceb3f,657bb4a459cf1a6fe7c475a4,0.071,0.0711,1,92,254,82,1,sixfive,,,,,,,,,,,,,,,,,,,,,,,,,,,,,,,,,,,,,,,,,,,,,,,,,,,,,,,,,,,,,,,,,,,,,,,,,,,,,,,,,,,,,,,,,,,,,,,,,,,,,,,,,,,,,,,,,,,,,,,,,,,,,,,,,,,,,,,
,,5b5fdd52b36c3400014718b9,2023-12-14_20h09.36.272,kallum_motion_pilot,2023.2.3,Win32,59.88023952,5b5fdd52b36c3400014718b9,657bb317c8798c6608bceb3f,657bb4a459cf1a6fe7c475a4,0.0713,0.0714,1,93,255,136,1,fivesix,,,,,,,,,,,,,,,,,,,,,,,,,,,,,,,,,,,,,,,,,,,,,,,,,,,,,,,,,,,,,,,,,,,,,,,,,,,,,,,,,,,,,,,,,,,,,,,,,,,,,,,,,,,,,,,,,,,,,,,,,,,,,,,,,,,,,,,
,,5b5fdd52b36c3400014718b9,2023-12-14_20h09.36.272,kallum_motion_pilot,2023.2.3,Win32,59.88023952,5b5fdd52b36c3400014718b9,657bb317c8798c6608bceb3f,657bb4a459cf1a6fe7c475a4,0.0715,0.0716,1,94,256,34,1,twoone,,,,,,,,,,,,,,,,,,,,,,,,,,,,,,,,,,,,,,,,,,,,,,,,,,,,,,,,,,,,,,,,,,,,,,,,,,,,,,,,,,,,,,,,,,,,,,,,,,,,,,,,,,,,,,,,,,,,,,,,,,,,,,,,,,,,,,,
,,5b5fdd52b36c3400014718b9,2023-12-14_20h09.36.272,kallum_motion_pilot,2023.2.3,Win32,59.88023952,5b5fdd52b36c3400014718b9,657bb317c8798c6608bceb3f,657bb4a459cf1a6fe7c475a4,0.0717,0.0717,1,95,257,16,1,onetwo,,,,,,,,,,,,,,,,,,,,,,,,,,,,,,,,,,,,,,,,,,,,,,,,,,,,,,,,,,,,,,,,,,,,,,,,,,,,,,,,,,,,,,,,,,,,,,,,,,,,,,,,,,,,,,,,,,,,,,,,,,,,,,,,,,,,,,,
,,5b5fdd52b36c3400014718b9,2023-12-14_20h09.36.272,kallum_motion_pilot,2023.2.3,Win32,59.88023952,5b5fdd52b36c3400014718b9,657bb317c8798c6608bceb3f,657bb4a459cf1a6fe7c475a4,0.0718,0.072,1,96,258,91,1,sixeight,,,,,,,,,,,,,,,,,,,,,,,,,,,,,,,,,,,,,,,,,,,,,,,,,,,,,,,,,,,,,,,,,,,,,,,,,,,,,,,,,,,,,,,,,,,,,,,,,,,,,,,,,,,,,,,,,,,,,,,,,,,,,,,,,,,,,,,
,,5b5fdd52b36c3400014718b9,2023-12-14_20h09.36.272,kallum_motion_pilot,2023.2.3,Win32,59.88023952,5b5fdd52b36c3400014718b9,657bb317c8798c6608bceb3f,657bb4a459cf1a6fe7c475a4,0.072,0.0722,1,97,259,6,1,fourtwo,,,,,,,,,,,,,,,,,,,,,,,,,,,,,,,,,,,,,,,,,,,,,,,,,,,,,,,,,,,,,,,,,,,,,,,,,,,,,,,,,,,,,,,,,,,,,,,,,,,,,,,,,,,,,,,,,,,,,,,,,,,,,,,,,,,,,,,
,,5b5fdd52b36c3400014718b9,2023-12-14_20h09.36.272,kallum_motion_pilot,2023.2.3,Win32,59.88023952,5b5fdd52b36c3400014718b9,657bb317c8798c6608bceb3f,657bb4a459cf1a6fe7c475a4,0.0723,0.0724,1,98,260,29,1,threefour,,,,,,,,,,,,,,,,,,,,,,,,,,,,,,,,,,,,,,,,,,,,,,,,,,,,,,,,,,,,,,,,,,,,,,,,,,,,,,,,,,,,,,,,,,,,,,,,,,,,,,,,,,,,,,,,,,,,,,,,,,,,,,,,,,,,,,,
,,5b5fdd52b36c3400014718b9,2023-12-14_20h09.36.272,kallum_motion_pilot,2023.2.3,Win32,59.88023952,5b5fdd52b36c3400014718b9,657bb317c8798c6608bceb3f,657bb4a459cf1a6fe7c475a4,0.0724,0.0726,1,99,261,138,1,sixfive,,,,,,,,,,,,,,,,,,,,,,,,,,,,,,,,,,,,,,,,,,,,,,,,,,,,,,,,,,,,,,,,,,,,,,,,,,,,,,,,,,,,,,,,,,,,,,,,,,,,,,,,,,,,,,,,,,,,,,,,,,,,,,,,,,,,,,,
,,5b5fdd52b36c3400014718b9,2023-12-14_20h09.36.272,kallum_motion_pilot,2023.2.3,Win32,59.88023952,5b5fdd52b36c3400014718b9,657bb317c8798c6608bceb3f,657bb4a459cf1a6fe7c475a4,0.0726,0.0728,1,100,262,115,1,sixeight,,,,,,,,,,,,,,,,,,,,,,,,,,,,,,,,,,,,,,,,,,,,,,,,,,,,,,,,,,,,,,,,,,,,,,,,,,,,,,,,,,,,,,,,,,,,,,,,,,,,,,,,,,,,,,,,,,,,,,,,,,,,,,,,,,,,,,,
,,5b5fdd52b36c3400014718b9,2023-12-14_20h09.36.272,kallum_motion_pilot,2023.2.3,Win32,59.88023952,5b5fdd52b36c3400014718b9,657bb317c8798c6608bceb3f,657bb4a459cf1a6fe7c475a4,0.0729,0.0729,1,101,263,63,1,fourthree,,,,,,,,,,,,,,,,,,,,,,,,,,,,,,,,,,,,,,,,,,,,,,,,,,,,,,,,,,,,,,,,,,,,,,,,,,,,,,,,,,,,,,,,,,,,,,,,,,,,,,,,,,,,,,,,,,,,,,,,,,,,,,,,,,,,,,,
,,5b5fdd52b36c3400014718b9,2023-12-14_20h09.36.272,kallum_motion_pilot,2023.2.3,Win32,59.88023952,5b5fdd52b36c3400014718b9,657bb317c8798c6608bceb3f,657bb4a459cf1a6fe7c475a4,0.073,0.0732,1,102,264,18,1,twoone,,,,,,,,,,,,,,,,,,,,,,,,,,,,,,,,,,,,,,,,,,,,,,,,,,,,,,,,,,,,,,,,,,,,,,,,,,,,,,,,,,,,,,,,,,,,,,,,,,,,,,,,,,,,,,,,,,,,,,,,,,,,,,,,,,,,,,,
,,5b5fdd52b36c3400014718b9,2023-12-14_20h09.36.272,kallum_motion_pilot,2023.2.3,Win32,59.88023952,5b5fdd52b36c3400014718b9,657bb317c8798c6608bceb3f,657bb4a459cf1a6fe7c475a4,0.0732,0.0733,1,103,265,12,1,threeone,,,,,,,,,,,,,,,,,,,,,,,,,,,,,,,,,,,,,,,,,,,,,,,,,,,,,,,,,,,,,,,,,,,,,,,,,,,,,,,,,,,,,,,,,,,,,,,,,,,,,,,,,,,,,,,,,,,,,,,,,,,,,,,,,,,,,,,
,,5b5fdd52b36c3400014718b9,2023-12-14_20h09.36.272,kallum_motion_pilot,2023.2.3,Win32,59.88023952,5b5fdd52b36c3400014718b9,657bb317c8798c6608bceb3f,657bb4a459cf1a6fe7c475a4,0.0734,0.0735,1,104,266,142,1,eightsix,,,,,,,,,,,,,,,,,,,,,,,,,,,,,,,,,,,,,,,,,,,,,,,,,,,,,,,,,,,,,,,,,,,,,,,,,,,,,,,,,,,,,,,,,,,,,,,,,,,,,,,,,,,,,,,,,,,,,,,,,,,,,,,,,,,,,,,
,,5b5fdd52b36c3400014718b9,2023-12-14_20h09.36.272,kallum_motion_pilot,2023.2.3,Win32,59.88023952,5b5fdd52b36c3400014718b9,657bb317c8798c6608bceb3f,657bb4a459cf1a6fe7c475a4,0.0736,0.0737,1,105,267,123,1,sixeight,,,,,,,,,,,,,,,,,,,,,,,,,,,,,,,,,,,,,,,,,,,,,,,,,,,,,,,,,,,,,,,,,,,,,,,,,,,,,,,,,,,,,,,,,,,,,,,,,,,,,,,,,,,,,,,,,,,,,,,,,,,,,,,,,,,,,,,
,,5b5fdd52b36c3400014718b9,2023-12-14_20h09.36.272,kallum_motion_pilot,2023.2.3,Win32,59.88023952,5b5fdd52b36c3400014718b9,657bb317c8798c6608bceb3f,657bb4a459cf1a6fe7c475a4,0.0738,0.0739,1,106,268,158,1,eightsix,,,,,,,,,,,,,,,,,,,,,,,,,,,,,,,,,,,,,,,,,,,,,,,,,,,,,,,,,,,,,,,,,,,,,,,,,,,,,,,,,,,,,,,,,,,,,,,,,,,,,,,,,,,,,,,,,,,,,,,,,,,,,,,,,,,,,,,
,,5b5fdd52b36c3400014718b9,2023-12-14_20h09.36.272,kallum_motion_pilot,2023.2.3,Win32,59.88023952,5b5fdd52b36c3400014718b9,657bb317c8798c6608bceb3f,657bb4a459cf1a6fe7c475a4,0.074,0.0741,1,107,269,11,1,twofour,,,,,,,,,,,,,,,,,,,,,,,,,,,,,,,,,,,,,,,,,,,,,,,,,,,,,,,,,,,,,,,,,,,,,,,,,,,,,,,,,,,,,,,,,,,,,,,,,,,,,,,,,,,,,,,,,,,,,,,,,,,,,,,,,,,,,,,
,,5b5fdd52b36c3400014718b9,2023-12-14_20h09.36.272,kallum_motion_pilot,2023.2.3,Win32,59.88023952,5b5fdd52b36c3400014718b9,657bb317c8798c6608bceb3f,657bb4a459cf1a6fe7c475a4,0.0742,0.0742,1,108,270,132,1,sevenfive,,,,,,,,,,,,,,,,,,,,,,,,,,,,,,,,,,,,,,,,,,,,,,,,,,,,,,,,,,,,,,,,,,,,,,,,,,,,,,,,,,,,,,,,,,,,,,,,,,,,,,,,,,,,,,,,,,,,,,,,,,,,,,,,,,,,,,,
,,5b5fdd52b36c3400014718b9,2023-12-14_20h09.36.272,kallum_motion_pilot,2023.2.3,Win32,59.88023952,5b5fdd52b36c3400014718b9,657bb317c8798c6608bceb3f,657bb4a459cf1a6fe7c475a4,0.0744,0.0745,1,109,271,122,1,sixfive,,,,,,,,,,,,,,,,,,,,,,,,,,,,,,,,,,,,,,,,,,,,,,,,,,,,,,,,,,,,,,,,,,,,,,,,,,,,,,,,,,,,,,,,,,,,,,,,,,,,,,,,,,,,,,,,,,,,,,,,,,,,,,,,,,,,,,,
,,5b5fdd52b36c3400014718b9,2023-12-14_20h09.36.272,kallum_motion_pilot,2023.2.3,Win32,59.88023952,5b5fdd52b36c3400014718b9,657bb317c8798c6608bceb3f,657bb4a459cf1a6fe7c475a4,0.0745,0.0747,1,110,272,78,1,fourtwo,,,,,,,,,,,,,,,,,,,,,,,,,,,,,,,,,,,,,,,,,,,,,,,,,,,,,,,,,,,,,,,,,,,,,,,,,,,,,,,,,,,,,,,,,,,,,,,,,,,,,,,,,,,,,,,,,,,,,,,,,,,,,,,,,,,,,,,
,,5b5fdd52b36c3400014718b9,2023-12-14_20h09.36.272,kallum_motion_pilot,2023.2.3,Win32,59.88023952,5b5fdd52b36c3400014718b9,657bb317c8798c6608bceb3f,657bb4a459cf1a6fe7c475a4,0.0747,0.0749,1,111,273,94,1,eightsix,,,,,,,,,,,,,,,,,,,,,,,,,,,,,,,,,,,,,,,,,,,,,,,,,,,,,,,,,,,,,,,,,,,,,,,,,,,,,,,,,,,,,,,,,,,,,,,,,,,,,,,,,,,,,,,,,,,,,,,,,,,,,,,,,,,,,,,
,,5b5fdd52b36c3400014718b9,2023-12-14_20h09.36.272,kallum_motion_pilot,2023.2.3,Win32,59.88023952,5b5fdd52b36c3400014718b9,657bb317c8798c6608bceb3f,657bb4a459cf1a6fe7c475a4,0.0749,0.075,1,112,274,131,1,sixeight,,,,,,,,,,,,,,,,,,,,,,,,,,,,,,,,,,,,,,,,,,,,,,,,,,,,,,,,,,,,,,,,,,,,,,,,,,,,,,,,,,,,,,,,,,,,,,,,,,,,,,,,,,,,,,,,,,,,,,,,,,,,,,,,,,,,,,,
,,5b5fdd52b36c3400014718b9,2023-12-14_20h09.36.272,kallum_motion_pilot,2023.2.3,Win32,59.88023952,5b5fdd52b36c3400014718b9,657bb317c8798c6608bceb3f,657bb4a459cf1a6fe7c475a4,0.0752,0.0752,1,113,275,2,1,twoone,,,,,,,,,,,,,,,,,,,,,,,,,,,,,,,,,,,,,,,,,,,,,,,,,,,,,,,,,,,,,,,,,,,,,,,,,,,,,,,,,,,,,,,,,,,,,,,,,,,,,,,,,,,,,,,,,,,,,,,,,,,,,,,,,,,,,,,
,,5b5fdd52b36c3400014718b9,2023-12-14_20h09.36.272,kallum_motion_pilot,2023.2.3,Win32,59.88023952,5b5fdd52b36c3400014718b9,657bb317c8798c6608bceb3f,657bb4a459cf1a6fe7c475a4,0.0753,0.0755,1,114,276,56,1,onetwo,,,,,,,,,,,,,,,,,,,,,,,,,,,,,,,,,,,,,,,,,,,,,,,,,,,,,,,,,,,,,,,,,,,,,,,,,,,,,,,,,,,,,,,,,,,,,,,,,,,,,,,,,,,,,,,,,,,,,,,,,,,,,,,,,,,,,,,
,,5b5fdd52b36c3400014718b9,2023-12-14_20h09.36.272,kallum_motion_pilot,2023.2.3,Win32,59.88023952,5b5fdd52b36c3400014718b9,657bb317c8798c6608bceb3f,657bb4a459cf1a6fe7c475a4,0.0755,0.0756,1,115,277,85,1,seveneight,,,,,,,,,,,,,,,,,,,,,,,,,,,,,,,,,,,,,,,,,,,,,,,,,,,,,,,,,,,,,,,,,,,,,,,,,,,,,,,,,,,,,,,,,,,,,,,,,,,,,,,,,,,,,,,,,,,,,,,,,,,,,,,,,,,,,,,
,,5b5fdd52b36c3400014718b9,2023-12-14_20h09.36.272,kallum_motion_pilot,2023.2.3,Win32,59.88023952,5b5fdd52b36c3400014718b9,657bb317c8798c6608bceb3f,657bb4a459cf1a6fe7c475a4,0.0757,0.0758,1,116,278,21,1,threefour,,,,,,,,,,,,,,,,,,,,,,,,,,,,,,,,,,,,,,,,,,,,,,,,,,,,,,,,,,,,,,,,,,,,,,,,,,,,,,,,,,,,,,,,,,,,,,,,,,,,,,,,,,,,,,,,,,,,,,,,,,,,,,,,,,,,,,,
,,5b5fdd52b36c3400014718b9,2023-12-14_20h09.36.272,kallum_motion_pilot,2023.2.3,Win32,59.88023952,5b5fdd52b36c3400014718b9,657bb317c8798c6608bceb3f,657bb4a459cf1a6fe7c475a4,0.0759,0.076,1,117,279,37,1,threefour,,,,,,,,,,,,,,,,,,,,,,,,,,,,,,,,,,,,,,,,,,,,,,,,,,,,,,,,,,,,,,,,,,,,,,,,,,,,,,,,,,,,,,,,,,,,,,,,,,,,,,,,,,,,,,,,,,,,,,,,,,,,,,,,,,,,,,,
