startup.started,startup.stopped,Prolific ID*,date,expName,psychopyVersion,OS,frameRate,participant,study_id,session,stimpositions.started,stimpositions.stopped,hardcoded_stimulus_positions.thisRepN,hardcoded_stimulus_positions.thisTrialN,hardcoded_stimulus_positions.thisN,hardcoded_stimulus_positions.thisIndex,hardcoded_stimulus_positions.ran,StimulusPos,stimorientation.started,stimorientation.stopped,prac_stimorientation_import_loop.thisRepN,prac_stimorientation_import_loop.thisTrialN,prac_stimorientation_import_loop.thisN,prac_stimorientation_import_loop.thisIndex,prac_stimorientation_import_loop.ran,Stimorientation,welcome_instr.started,welcome_instr.stopped,key_resp.keys,key_resp.rt,key_resp.duration,response_steppedout_1.started,response_steppedout_1.stopped,key_resp_20.keys,key_resp_20.rt,key_resp_20.duration,response_steppedout_2.started,response_steppedout_2.stopped,key_resp_19.keys,key_resp_19.rt,key_resp_19.duration,stim_response_instr.started,stim_response_instr.stopped,key_resp_15.keys,key_resp_15.rt,key_resp_15.duration,direction_instr_2.started,direction_instr_2.stopped,key_resp_9.keys,key_resp_9.rt,key_resp_9.duration,instr_prac.started,instr_prac.stopped,key_resp_10.keys,key_resp_10.rt,key_resp_10.duration,Stim1_display_prac.started,Stim1_display_prac.stopped,Ecc,Circle1_ori,Circle2_ori,response_prac.started,similarity,response_time,response_prac.stopped,mouse_5.x,mouse_5.y,mouse_5.leftButton,mouse_5.midButton,mouse_5.rightButton,mouse_5.clicked_name,responseprac_feedback.started,responseprac_feedback.stopped,summary2_prac.started,summary2_prac.stopped,mouse_6.x,mouse_6.y,mouse_6.leftButton,mouse_6.midButton,mouse_6.rightButton,mouse_6.clicked_name,duringprac.thisRepN,duringprac.thisTrialN,duringprac.thisN,duringprac.thisIndex,duringprac.ran,begin.started,begin.stopped,key_resp_22.keys,key_resp_22.rt,key_resp_22.duration,Stim1_display.started,Stim1_display.stopped,circle1_ori,circle2_ori,blank.started,blank.stopped,response.started,response.stopped,mouse.x,mouse.y,mouse.leftButton,mouse.midButton,mouse.rightButton,mouse.clicked_name,response_2.started,response_2.stopped,mouse_2.x,mouse_2.y,mouse_2.leftButton,mouse_2.midButton,mouse_2.rightButton,mouse_2.clicked_name,special_trial.started,special_trial.stopped,catch_1.started,catch_1.stopped,mouse_3.x,mouse_3.y,mouse_3.leftButton,mouse_3.midButton,mouse_3.rightButton,catchresponse,catchnumber,response_time_catch,Catch,response_sum.started,response_sum.stopped,mouse_11.x,mouse_11.y,mouse_11.leftButton,mouse_11.midButton,mouse_11.rightButton,main_trial.thisRepN,main_trial.thisTrialN,main_trial.thisN,main_trial.thisIndex,main_trial.ran,Orientationtrialno,xcircle1_ori,xcircle2_ori,flip_presentation_sequence_for_double_pass.started,flip_presentation_sequence_for_double_pass.stopped,double_pass.thisRepN,double_pass.thisTrialN,double_pass.thisN,double_pass.thisIndex,double_pass.ran,goodbye.started,goodbye.stopped,key_resp_3.keys,key_resp_3.rt,key_resp_3.duration
1E-04,0.0002,5c60e5371115b4000140fb07,2023-12-14_20h04.42.289,kallum_motion_pilot,2023.2.3,Win32,144.9275362,5c60e5371115b4000140fb07,657bb317c8798c6608bceb3f,657bb41fd6d61e0ddbc39450,,,,,,,,,,,,,,,,,,,,,,,,,,,,,,,,,,,,,,,,,,,,,,,,,,,,,,,,,,,,,,,,,,,,,,,,,,,,,,,,,,,,,,,,,,,,,,,,,,,,,,,,,,,,,,,,,,,,,,,,,,,,,,,,,,,,,,,,,,,,,,,
,,5c60e5371115b4000140fb07,2023-12-14_20h04.42.289,kallum_motion_pilot,2023.2.3,Win32,144.9275362,5c60e5371115b4000140fb07,657bb317c8798c6608bceb3f,657bb41fd6d61e0ddbc39450,0.0125,0.0126,0,0,0,115,1,sixeight,,,,,,,,,,,,,,,,,,,,,,,,,,,,,,,,,,,,,,,,,,,,,,,,,,,,,,,,,,,,,,,,,,,,,,,,,,,,,,,,,,,,,,,,,,,,,,,,,,,,,,,,,,,,,,,,,,,,,,,,,,,,,,,,,,,,,,,
,,5c60e5371115b4000140fb07,2023-12-14_20h04.42.289,kallum_motion_pilot,2023.2.3,Win32,144.9275362,5c60e5371115b4000140fb07,657bb317c8798c6608bceb3f,657bb41fd6d61e0ddbc39450,0.0128,0.0128,0,1,1,152,1,fivesix,,,,,,,,,,,,,,,,,,,,,,,,,,,,,,,,,,,,,,,,,,,,,,,,,,,,,,,,,,,,,,,,,,,,,,,,,,,,,,,,,,,,,,,,,,,,,,,,,,,,,,,,,,,,,,,,,,,,,,,,,,,,,,,,,,,,,,,
,,5c60e5371115b4000140fb07,2023-12-14_20h04.42.289,kallum_motion_pilot,2023.2.3,Win32,144.9275362,5c60e5371115b4000140fb07,657bb317c8798c6608bceb3f,657bb41fd6d61e0ddbc39450,0.0128,0.0129,0,2,2,104,1,fivesix,,,,,,,,,,,,,,,,,,,,,,,,,,,,,,,,,,,,,,,,,,,,,,,,,,,,,,,,,,,,,,,,,,,,,,,,,,,,,,,,,,,,,,,,,,,,,,,,,,,,,,,,,,,,,,,,,,,,,,,,,,,,,,,,,,,,,,,
,,5c60e5371115b4000140fb07,2023-12-14_20h04.42.289,kallum_motion_pilot,2023.2.3,Win32,144.9275362,5c60e5371115b4000140fb07,657bb317c8798c6608bceb3f,657bb41fd6d61e0ddbc39450,0.0129,0.0129,0,3,3,22,1,fourtwo,,,,,,,,,,,,,,,,,,,,,,,,,,,,,,,,,,,,,,,,,,,,,,,,,,,,,,,,,,,,,,,,,,,,,,,,,,,,,,,,,,,,,,,,,,,,,,,,,,,,,,,,,,,,,,,,,,,,,,,,,,,,,,,,,,,,,,,
,,5c60e5371115b4000140fb07,2023-12-14_20h04.42.289,kallum_motion_pilot,2023.2.3,Win32,144.9275362,5c60e5371115b4000140fb07,657bb317c8798c6608bceb3f,657bb41fd6d61e0ddbc39450,0.013,0.013,0,4,4,10,1,twoone,,,,,,,,,,,,,,,,,,,,,,,,,,,,,,,,,,,,,,,,,,,,,,,,,,,,,,,,,,,,,,,,,,,,,,,,,,,,,,,,,,,,,,,,,,,,,,,,,,,,,,,,,,,,,,,,,,,,,,,,,,,,,,,,,,,,,,,
,,5c60e5371115b4000140fb07,2023-12-14_20h04.42.289,kallum_motion_pilot,2023.2.3,Win32,144.9275362,5c60e5371115b4000140fb07,657bb317c8798c6608bceb3f,657bb41fd6d61e0ddbc39450,0.013,0.013,0,5,5,86,1,eightsix,,,,,,,,,,,,,,,,,,,,,,,,,,,,,,,,,,,,,,,,,,,,,,,,,,,,,,,,,,,,,,,,,,,,,,,,,,,,,,,,,,,,,,,,,,,,,,,,,,,,,,,,,,,,,,,,,,,,,,,,,,,,,,,,,,,,,,,
,,5c60e5371115b4000140fb07,2023-12-14_20h04.42.289,kallum_motion_pilot,2023.2.3,Win32,144.9275362,5c60e5371115b4000140fb07,657bb317c8798c6608bceb3f,657bb41fd6d61e0ddbc39450,0.0131,0.0131,0,6,6,23,1,fourthree,,,,,,,,,,,,,,,,,,,,,,,,,,,,,,,,,,,,,,,,,,,,,,,,,,,,,,,,,,,,,,,,,,,,,,,,,,,,,,,,,,,,,,,,,,,,,,,,,,,,,,,,,,,,,,,,,,,,,,,,,,,,,,,,,,,,,,,
,,5c60e5371115b4000140fb07,2023-12-14_20h04.42.289,kallum_motion_pilot,2023.2.3,Win32,144.9275362,5c60e5371115b4000140fb07,657bb317c8798c6608bceb3f,657bb41fd6d61e0ddbc39450,0.0131,0.0131,0,7,7,43,1,twofour,,,,,,,,,,,,,,,,,,,,,,,,,,,,,,,,,,,,,,,,,,,,,,,,,,,,,,,,,,,,,,,,,,,,,,,,,,,,,,,,,,,,,,,,,,,,,,,,,,,,,,,,,,,,,,,,,,,,,,,,,,,,,,,,,,,,,,,
,,5c60e5371115b4000140fb07,2023-12-14_20h04.42.289,kallum_motion_pilot,2023.2.3,Win32,144.9275362,5c60e5371115b4000140fb07,657bb317c8798c6608bceb3f,657bb41fd6d61e0ddbc39450,0.0132,0.0133,0,8,8,70,1,fourtwo,,,,,,,,,,,,,,,,,,,,,,,,,,,,,,,,,,,,,,,,,,,,,,,,,,,,,,,,,,,,,,,,,,,,,,,,,,,,,,,,,,,,,,,,,,,,,,,,,,,,,,,,,,,,,,,,,,,,,,,,,,,,,,,,,,,,,,,
,,5c60e5371115b4000140fb07,2023-12-14_20h04.42.289,kallum_motion_pilot,2023.2.3,Win32,144.9275362,5c60e5371115b4000140fb07,657bb317c8798c6608bceb3f,657bb41fd6d61e0ddbc39450,0.0133,0.0134,0,9,9,39,1,fourthree,,,,,,,,,,,,,,,,,,,,,,,,,,,,,,,,,,,,,,,,,,,,,,,,,,,,,,,,,,,,,,,,,,,,,,,,,,,,,,,,,,,,,,,,,,,,,,,,,,,,,,,,,,,,,,,,,,,,,,,,,,,,,,,,,,,,,,,
,,5c60e5371115b4000140fb07,2023-12-14_20h04.42.289,kallum_motion_pilot,2023.2.3,Win32,144.9275362,5c60e5371115b4000140fb07,657bb317c8798c6608bceb3f,657bb41fd6d61e0ddbc39450,0.0134,0.0134,0,10,10,133,1,seveneight,,,,,,,,,,,,,,,,,,,,,,,,,,,,,,,,,,,,,,,,,,,,,,,,,,,,,,,,,,,,,,,,,,,,,,,,,,,,,,,,,,,,,,,,,,,,,,,,,,,,,,,,,,,,,,,,,,,,,,,,,,,,,,,,,,,,,,,
,,5c60e5371115b4000140fb07,2023-12-14_20h04.42.289,kallum_motion_pilot,2023.2.3,Win32,144.9275362,5c60e5371115b4000140fb07,657bb317c8798c6608bceb3f,657bb41fd6d61e0ddbc39450,0.0134,0.0134,0,11,11,112,1,fivesix,,,,,,,,,,,,,,,,,,,,,,,,,,,,,,,,,,,,,,,,,,,,,,,,,,,,,,,,,,,,,,,,,,,,,,,,,,,,,,,,,,,,,,,,,,,,,,,,,,,,,,,,,,,,,,,,,,,,,,,,,,,,,,,,,,,,,,,
,,5c60e5371115b4000140fb07,2023-12-14_20h04.42.289,kallum_motion_pilot,2023.2.3,Win32,144.9275362,5c60e5371115b4000140fb07,657bb317c8798c6608bceb3f,657bb41fd6d61e0ddbc39450,0.0134,0.0135,0,12,12,134,1,eightsix,,,,,,,,,,,,,,,,,,,,,,,,,,,,,,,,,,,,,,,,,,,,,,,,,,,,,,,,,,,,,,,,,,,,,,,,,,,,,,,,,,,,,,,,,,,,,,,,,,,,,,,,,,,,,,,,,,,,,,,,,,,,,,,,,,,,,,,
,,5c60e5371115b4000140fb07,2023-12-14_20h04.42.289,kallum_motion_pilot,2023.2.3,Win32,144.9275362,5c60e5371115b4000140fb07,657bb317c8798c6608bceb3f,657bb41fd6d61e0ddbc39450,0.0135,0.0135,0,13,13,4,1,threeone,,,,,,,,,,,,,,,,,,,,,,,,,,,,,,,,,,,,,,,,,,,,,,,,,,,,,,,,,,,,,,,,,,,,,,,,,,,,,,,,,,,,,,,,,,,,,,,,,,,,,,,,,,,,,,,,,,,,,,,,,,,,,,,,,,,,,,,
,,5c60e5371115b4000140fb07,2023-12-14_20h04.42.289,kallum_motion_pilot,2023.2.3,Win32,144.9275362,5c60e5371115b4000140fb07,657bb317c8798c6608bceb3f,657bb41fd6d61e0ddbc39450,0.0135,0.0135,0,14,14,60,1,threeone,,,,,,,,,,,,,,,,,,,,,,,,,,,,,,,,,,,,,,,,,,,,,,,,,,,,,,,,,,,,,,,,,,,,,,,,,,,,,,,,,,,,,,,,,,,,,,,,,,,,,,,,,,,,,,,,,,,,,,,,,,,,,,,,,,,,,,,
,,5c60e5371115b4000140fb07,2023-12-14_20h04.42.289,kallum_motion_pilot,2023.2.3,Win32,144.9275362,5c60e5371115b4000140fb07,657bb317c8798c6608bceb3f,657bb41fd6d61e0ddbc39450,0.0137,0.0137,0,15,15,136,1,fivesix,,,,,,,,,,,,,,,,,,,,,,,,,,,,,,,,,,,,,,,,,,,,,,,,,,,,,,,,,,,,,,,,,,,,,,,,,,,,,,,,,,,,,,,,,,,,,,,,,,,,,,,,,,,,,,,,,,,,,,,,,,,,,,,,,,,,,,,
,,5c60e5371115b4000140fb07,2023-12-14_20h04.42.289,kallum_motion_pilot,2023.2.3,Win32,144.9275362,5c60e5371115b4000140fb07,657bb317c8798c6608bceb3f,657bb41fd6d61e0ddbc39450,0.0137,0.0137,0,16,16,85,1,seveneight,,,,,,,,,,,,,,,,,,,,,,,,,,,,,,,,,,,,,,,,,,,,,,,,,,,,,,,,,,,,,,,,,,,,,,,,,,,,,,,,,,,,,,,,,,,,,,,,,,,,,,,,,,,,,,,,,,,,,,,,,,,,,,,,,,,,,,,
,,5c60e5371115b4000140fb07,2023-12-14_20h04.42.289,kallum_motion_pilot,2023.2.3,Win32,144.9275362,5c60e5371115b4000140fb07,657bb317c8798c6608bceb3f,657bb41fd6d61e0ddbc39450,0.0137,0.0137,0,17,17,96,1,fivesix,,,,,,,,,,,,,,,,,,,,,,,,,,,,,,,,,,,,,,,,,,,,,,,,,,,,,,,,,,,,,,,,,,,,,,,,,,,,,,,,,,,,,,,,,,,,,,,,,,,,,,,,,,,,,,,,,,,,,,,,,,,,,,,,,,,,,,,
,,5c60e5371115b4000140fb07,2023-12-14_20h04.42.289,kallum_motion_pilot,2023.2.3,Win32,144.9275362,5c60e5371115b4000140fb07,657bb317c8798c6608bceb3f,657bb41fd6d61e0ddbc39450,0.0138,0.0138,0,18,18,17,1,onethree,,,,,,,,,,,,,,,,,,,,,,,,,,,,,,,,,,,,,,,,,,,,,,,,,,,,,,,,,,,,,,,,,,,,,,,,,,,,,,,,,,,,,,,,,,,,,,,,,,,,,,,,,,,,,,,,,,,,,,,,,,,,,,,,,,,,,,,
,,5c60e5371115b4000140fb07,2023-12-14_20h04.42.289,kallum_motion_pilot,2023.2.3,Win32,144.9275362,5c60e5371115b4000140fb07,657bb317c8798c6608bceb3f,657bb41fd6d61e0ddbc39450,0.0138,0.0139,0,19,19,127,1,eightseven,,,,,,,,,,,,,,,,,,,,,,,,,,,,,,,,,,,,,,,,,,,,,,,,,,,,,,,,,,,,,,,,,,,,,,,,,,,,,,,,,,,,,,,,,,,,,,,,,,,,,,,,,,,,,,,,,,,,,,,,,,,,,,,,,,,,,,,
,,5c60e5371115b4000140fb07,2023-12-14_20h04.42.289,kallum_motion_pilot,2023.2.3,Win32,144.9275362,5c60e5371115b4000140fb07,657bb317c8798c6608bceb3f,657bb41fd6d61e0ddbc39450,0.0139,0.0139,0,20,20,67,1,twofour,,,,,,,,,,,,,,,,,,,,,,,,,,,,,,,,,,,,,,,,,,,,,,,,,,,,,,,,,,,,,,,,,,,,,,,,,,,,,,,,,,,,,,,,,,,,,,,,,,,,,,,,,,,,,,,,,,,,,,,,,,,,,,,,,,,,,,,
,,5c60e5371115b4000140fb07,2023-12-14_20h04.42.289,kallum_motion_pilot,2023.2.3,Win32,144.9275362,5c60e5371115b4000140fb07,657bb317c8798c6608bceb3f,657bb41fd6d61e0ddbc39450,0.0139,0.014,0,21,21,91,1,sixeight,,,,,,,,,,,,,,,,,,,,,,,,,,,,,,,,,,,,,,,,,,,,,,,,,,,,,,,,,,,,,,,,,,,,,,,,,,,,,,,,,,,,,,,,,,,,,,,,,,,,,,,,,,,,,,,,,,,,,,,,,,,,,,,,,,,,,,,
,,5c60e5371115b4000140fb07,2023-12-14_20h04.42.289,kallum_motion_pilot,2023.2.3,Win32,144.9275362,5c60e5371115b4000140fb07,657bb317c8798c6608bceb3f,657bb41fd6d61e0ddbc39450,0.014,0.014,0,22,22,41,1,onethree,,,,,,,,,,,,,,,,,,,,,,,,,,,,,,,,,,,,,,,,,,,,,,,,,,,,,,,,,,,,,,,,,,,,,,,,,,,,,,,,,,,,,,,,,,,,,,,,,,,,,,,,,,,,,,,,,,,,,,,,,,,,,,,,,,,,,,,
,,5c60e5371115b4000140fb07,2023-12-14_20h04.42.289,kallum_motion_pilot,2023.2.3,Win32,144.9275362,5c60e5371115b4000140fb07,657bb317c8798c6608bceb3f,657bb41fd6d61e0ddbc39450,0.014,0.0141,0,23,23,88,1,fivesix,,,,,,,,,,,,,,,,,,,,,,,,,,,,,,,,,,,,,,,,,,,,,,,,,,,,,,,,,,,,,,,,,,,,,,,,,,,,,,,,,,,,,,,,,,,,,,,,,,,,,,,,,,,,,,,,,,,,,,,,,,,,,,,,,,,,,,,
,,5c60e5371115b4000140fb07,2023-12-14_20h04.42.289,kallum_motion_pilot,2023.2.3,Win32,144.9275362,5c60e5371115b4000140fb07,657bb317c8798c6608bceb3f,657bb41fd6d61e0ddbc39450,0.0142,0.0142,0,24,24,40,1,onetwo,,,,,,,,,,,,,,,,,,,,,,,,,,,,,,,,,,,,,,,,,,,,,,,,,,,,,,,,,,,,,,,,,,,,,,,,,,,,,,,,,,,,,,,,,,,,,,,,,,,,,,,,,,,,,,,,,,,,,,,,,,,,,,,,,,,,,,,
,,5c60e5371115b4000140fb07,2023-12-14_20h04.42.289,kallum_motion_pilot,2023.2.3,Win32,144.9275362,5c60e5371115b4000140fb07,657bb317c8798c6608bceb3f,657bb41fd6d61e0ddbc39450,0.0142,0.0142,0,25,25,7,1,fourthree,,,,,,,,,,,,,,,,,,,,,,,,,,,,,,,,,,,,,,,,,,,,,,,,,,,,,,,,,,,,,,,,,,,,,,,,,,,,,,,,,,,,,,,,,,,,,,,,,,,,,,,,,,,,,,,,,,,,,,,,,,,,,,,,,,,,,,,
,,5c60e5371115b4000140fb07,2023-12-14_20h04.42.289,kallum_motion_pilot,2023.2.3,Win32,144.9275362,5c60e5371115b4000140fb07,657bb317c8798c6608bceb3f,657bb41fd6d61e0ddbc39450,0.0143,0.0144,0,26,26,45,1,threefour,,,,,,,,,,,,,,,,,,,,,,,,,,,,,,,,,,,,,,,,,,,,,,,,,,,,,,,,,,,,,,,,,,,,,,,,,,,,,,,,,,,,,,,,,,,,,,,,,,,,,,,,,,,,,,,,,,,,,,,,,,,,,,,,,,,,,,,
,,5c60e5371115b4000140fb07,2023-12-14_20h04.42.289,kallum_motion_pilot,2023.2.3,Win32,144.9275362,5c60e5371115b4000140fb07,657bb317c8798c6608bceb3f,657bb41fd6d61e0ddbc39450,0.0144,0.0144,0,27,27,145,1,fiveseven,,,,,,,,,,,,,,,,,,,,,,,,,,,,,,,,,,,,,,,,,,,,,,,,,,,,,,,,,,,,,,,,,,,,,,,,,,,,,,,,,,,,,,,,,,,,,,,,,,,,,,,,,,,,,,,,,,,,,,,,,,,,,,,,,,,,,,,
,,5c60e5371115b4000140fb07,2023-12-14_20h04.42.289,kallum_motion_pilot,2023.2.3,Win32,144.9275362,5c60e5371115b4000140fb07,657bb317c8798c6608bceb3f,657bb41fd6d61e0ddbc39450,0.0145,0.0145,0,28,28,50,1,twoone,,,,,,,,,,,,,,,,,,,,,,,,,,,,,,,,,,,,,,,,,,,,,,,,,,,,,,,,,,,,,,,,,,,,,,,,,,,,,,,,,,,,,,,,,,,,,,,,,,,,,,,,,,,,,,,,,,,,,,,,,,,,,,,,,,,,,,,
,,5c60e5371115b4000140fb07,2023-12-14_20h04.42.289,kallum_motion_pilot,2023.2.3,Win32,144.9275362,5c60e5371115b4000140fb07,657bb317c8798c6608bceb3f,657bb41fd6d61e0ddbc39450,0.0145,0.0145,0,29,29,107,1,sixeight,,,,,,,,,,,,,,,,,,,,,,,,,,,,,,,,,,,,,,,,,,,,,,,,,,,,,,,,,,,,,,,,,,,,,,,,,,,,,,,,,,,,,,,,,,,,,,,,,,,,,,,,,,,,,,,,,,,,,,,,,,,,,,,,,,,,,,,
,,5c60e5371115b4000140fb07,2023-12-14_20h04.42.289,kallum_motion_pilot,2023.2.3,Win32,144.9275362,5c60e5371115b4000140fb07,657bb317c8798c6608bceb3f,657bb41fd6d61e0ddbc39450,0.0146,0.0146,0,30,30,6,1,fourtwo,,,,,,,,,,,,,,,,,,,,,,,,,,,,,,,,,,,,,,,,,,,,,,,,,,,,,,,,,,,,,,,,,,,,,,,,,,,,,,,,,,,,,,,,,,,,,,,,,,,,,,,,,,,,,,,,,,,,,,,,,,,,,,,,,,,,,,,
,,5c60e5371115b4000140fb07,2023-12-14_20h04.42.289,kallum_motion_pilot,2023.2.3,Win32,144.9275362,5c60e5371115b4000140fb07,657bb317c8798c6608bceb3f,657bb41fd6d61e0ddbc39450,0.0146,0.0146,0,31,31,123,1,sixeight,,,,,,,,,,,,,,,,,,,,,,,,,,,,,,,,,,,,,,,,,,,,,,,,,,,,,,,,,,,,,,,,,,,,,,,,,,,,,,,,,,,,,,,,,,,,,,,,,,,,,,,,,,,,,,,,,,,,,,,,,,,,,,,,,,,,,,,
,,5c60e5371115b4000140fb07,2023-12-14_20h04.42.289,kallum_motion_pilot,2023.2.3,Win32,144.9275362,5c60e5371115b4000140fb07,657bb317c8798c6608bceb3f,657bb41fd6d61e0ddbc39450,0.0147,0.0147,0,32,32,21,1,threefour,,,,,,,,,,,,,,,,,,,,,,,,,,,,,,,,,,,,,,,,,,,,,,,,,,,,,,,,,,,,,,,,,,,,,,,,,,,,,,,,,,,,,,,,,,,,,,,,,,,,,,,,,,,,,,,,,,,,,,,,,,,,,,,,,,,,,,,
,,5c60e5371115b4000140fb07,2023-12-14_20h04.42.289,kallum_motion_pilot,2023.2.3,Win32,144.9275362,5c60e5371115b4000140fb07,657bb317c8798c6608bceb3f,657bb41fd6d61e0ddbc39450,0.0147,0.0147,0,33,33,140,1,sevenfive,,,,,,,,,,,,,,,,,,,,,,,,,,,,,,,,,,,,,,,,,,,,,,,,,,,,,,,,,,,,,,,,,,,,,,,,,,,,,,,,,,,,,,,,,,,,,,,,,,,,,,,,,,,,,,,,,,,,,,,,,,,,,,,,,,,,,,,
,,5c60e5371115b4000140fb07,2023-12-14_20h04.42.289,kallum_motion_pilot,2023.2.3,Win32,144.9275362,5c60e5371115b4000140fb07,657bb317c8798c6608bceb3f,657bb41fd6d61e0ddbc39450,0.0148,0.0148,0,34,34,98,1,sixfive,,,,,,,,,,,,,,,,,,,,,,,,,,,,,,,,,,,,,,,,,,,,,,,,,,,,,,,,,,,,,,,,,,,,,,,,,,,,,,,,,,,,,,,,,,,,,,,,,,,,,,,,,,,,,,,,,,,,,,,,,,,,,,,,,,,,,,,
,,5c60e5371115b4000140fb07,2023-12-14_20h04.42.289,kallum_motion_pilot,2023.2.3,Win32,144.9275362,5c60e5371115b4000140fb07,657bb317c8798c6608bceb3f,657bb41fd6d61e0ddbc39450,0.0149,0.0149,0,35,35,141,1,seveneight,,,,,,,,,,,,,,,,,,,,,,,,,,,,,,,,,,,,,,,,,,,,,,,,,,,,,,,,,,,,,,,,,,,,,,,,,,,,,,,,,,,,,,,,,,,,,,,,,,,,,,,,,,,,,,,,,,,,,,,,,,,,,,,,,,,,,,,
,,5c60e5371115b4000140fb07,2023-12-14_20h04.42.289,kallum_motion_pilot,2023.2.3,Win32,144.9275362,5c60e5371115b4000140fb07,657bb317c8798c6608bceb3f,657bb41fd6d61e0ddbc39450,0.0149,0.0149,0,36,36,75,1,twofour,,,,,,,,,,,,,,,,,,,,,,,,,,,,,,,,,,,,,,,,,,,,,,,,,,,,,,,,,,,,,,,,,,,,,,,,,,,,,,,,,,,,,,,,,,,,,,,,,,,,,,,,,,,,,,,,,,,,,,,,,,,,,,,,,,,,,,,
,,5c60e5371115b4000140fb07,2023-12-14_20h04.42.289,kallum_motion_pilot,2023.2.3,Win32,144.9275362,5c60e5371115b4000140fb07,657bb317c8798c6608bceb3f,657bb41fd6d61e0ddbc39450,0.015,0.015,0,37,37,42,1,twoone,,,,,,,,,,,,,,,,,,,,,,,,,,,,,,,,,,,,,,,,,,,,,,,,,,,,,,,,,,,,,,,,,,,,,,,,,,,,,,,,,,,,,,,,,,,,,,,,,,,,,,,,,,,,,,,,,,,,,,,,,,,,,,,,,,,,,,,
,,5c60e5371115b4000140fb07,2023-12-14_20h04.42.289,kallum_motion_pilot,2023.2.3,Win32,144.9275362,5c60e5371115b4000140fb07,657bb317c8798c6608bceb3f,657bb41fd6d61e0ddbc39450,0.015,0.015,0,38,38,33,1,onethree,,,,,,,,,,,,,,,,,,,,,,,,,,,,,,,,,,,,,,,,,,,,,,,,,,,,,,,,,,,,,,,,,,,,,,,,,,,,,,,,,,,,,,,,,,,,,,,,,,,,,,,,,,,,,,,,,,,,,,,,,,,,,,,,,,,,,,,
,,5c60e5371115b4000140fb07,2023-12-14_20h04.42.289,kallum_motion_pilot,2023.2.3,Win32,144.9275362,5c60e5371115b4000140fb07,657bb317c8798c6608bceb3f,657bb41fd6d61e0ddbc39450,0.0151,0.0151,0,39,39,87,1,eightseven,,,,,,,,,,,,,,,,,,,,,,,,,,,,,,,,,,,,,,,,,,,,,,,,,,,,,,,,,,,,,,,,,,,,,,,,,,,,,,,,,,,,,,,,,,,,,,,,,,,,,,,,,,,,,,,,,,,,,,,,,,,,,,,,,,,,,,,
,,5c60e5371115b4000140fb07,2023-12-14_20h04.42.289,kallum_motion_pilot,2023.2.3,Win32,144.9275362,5c60e5371115b4000140fb07,657bb317c8798c6608bceb3f,657bb41fd6d61e0ddbc39450,0.0152,0.0152,0,40,40,155,1,sixeight,,,,,,,,,,,,,,,,,,,,,,,,,,,,,,,,,,,,,,,,,,,,,,,,,,,,,,,,,,,,,,,,,,,,,,,,,,,,,,,,,,,,,,,,,,,,,,,,,,,,,,,,,,,,,,,,,,,,,,,,,,,,,,,,,,,,,,,
,,5c60e5371115b4000140fb07,2023-12-14_20h04.42.289,kallum_motion_pilot,2023.2.3,Win32,144.9275362,5c60e5371115b4000140fb07,657bb317c8798c6608bceb3f,657bb41fd6d61e0ddbc39450,0.0152,0.0152,0,41,41,97,1,fiveseven,,,,,,,,,,,,,,,,,,,,,,,,,,,,,,,,,,,,,,,,,,,,,,,,,,,,,,,,,,,,,,,,,,,,,,,,,,,,,,,,,,,,,,,,,,,,,,,,,,,,,,,,,,,,,,,,,,,,,,,,,,,,,,,,,,,,,,,
,,5c60e5371115b4000140fb07,2023-12-14_20h04.42.289,kallum_motion_pilot,2023.2.3,Win32,144.9275362,5c60e5371115b4000140fb07,657bb317c8798c6608bceb3f,657bb41fd6d61e0ddbc39450,0.0153,0.0153,0,42,42,18,1,twoone,,,,,,,,,,,,,,,,,,,,,,,,,,,,,,,,,,,,,,,,,,,,,,,,,,,,,,,,,,,,,,,,,,,,,,,,,,,,,,,,,,,,,,,,,,,,,,,,,,,,,,,,,,,,,,,,,,,,,,,,,,,,,,,,,,,,,,,
,,5c60e5371115b4000140fb07,2023-12-14_20h04.42.289,kallum_motion_pilot,2023.2.3,Win32,144.9275362,5c60e5371115b4000140fb07,657bb317c8798c6608bceb3f,657bb41fd6d61e0ddbc39450,0.0153,0.0153,0,43,43,79,1,eightseven,,,,,,,,,,,,,,,,,,,,,,,,,,,,,,,,,,,,,,,,,,,,,,,,,,,,,,,,,,,,,,,,,,,,,,,,,,,,,,,,,,,,,,,,,,,,,,,,,,,,,,,,,,,,,,,,,,,,,,,,,,,,,,,,,,,,,,,
,,5c60e5371115b4000140fb07,2023-12-14_20h04.42.289,kallum_motion_pilot,2023.2.3,Win32,144.9275362,5c60e5371115b4000140fb07,657bb317c8798c6608bceb3f,657bb41fd6d61e0ddbc39450,0.0154,0.0154,0,44,44,84,1,sevenfive,,,,,,,,,,,,,,,,,,,,,,,,,,,,,,,,,,,,,,,,,,,,,,,,,,,,,,,,,,,,,,,,,,,,,,,,,,,,,,,,,,,,,,,,,,,,,,,,,,,,,,,,,,,,,,,,,,,,,,,,,,,,,,,,,,,,,,,
,,5c60e5371115b4000140fb07,2023-12-14_20h04.42.289,kallum_motion_pilot,2023.2.3,Win32,144.9275362,5c60e5371115b4000140fb07,657bb317c8798c6608bceb3f,657bb41fd6d61e0ddbc39450,0.0154,0.0154,0,45,45,78,1,fourtwo,,,,,,,,,,,,,,,,,,,,,,,,,,,,,,,,,,,,,,,,,,,,,,,,,,,,,,,,,,,,,,,,,,,,,,,,,,,,,,,,,,,,,,,,,,,,,,,,,,,,,,,,,,,,,,,,,,,,,,,,,,,,,,,,,,,,,,,
,,5c60e5371115b4000140fb07,2023-12-14_20h04.42.289,kallum_motion_pilot,2023.2.3,Win32,144.9275362,5c60e5371115b4000140fb07,657bb317c8798c6608bceb3f,657bb41fd6d61e0ddbc39450,0.0154,0.0154,0,46,46,38,1,fourtwo,,,,,,,,,,,,,,,,,,,,,,,,,,,,,,,,,,,,,,,,,,,,,,,,,,,,,,,,,,,,,,,,,,,,,,,,,,,,,,,,,,,,,,,,,,,,,,,,,,,,,,,,,,,,,,,,,,,,,,,,,,,,,,,,,,,,,,,
,,5c60e5371115b4000140fb07,2023-12-14_20h04.42.289,kallum_motion_pilot,2023.2.3,Win32,144.9275362,5c60e5371115b4000140fb07,657bb317c8798c6608bceb3f,657bb41fd6d61e0ddbc39450,0.0155,0.0155,0,47,47,81,1,fiveseven,,,,,,,,,,,,,,,,,,,,,,,,,,,,,,,,,,,,,,,,,,,,,,,,,,,,,,,,,,,,,,,,,,,,,,,,,,,,,,,,,,,,,,,,,,,,,,,,,,,,,,,,,,,,,,,,,,,,,,,,,,,,,,,,,,,,,,,
,,5c60e5371115b4000140fb07,2023-12-14_20h04.42.289,kallum_motion_pilot,2023.2.3,Win32,144.9275362,5c60e5371115b4000140fb07,657bb317c8798c6608bceb3f,657bb41fd6d61e0ddbc39450,0.0156,0.0156,0,48,48,137,1,fiveseven,,,,,,,,,,,,,,,,,,,,,,,,,,,,,,,,,,,,,,,,,,,,,,,,,,,,,,,,,,,,,,,,,,,,,,,,,,,,,,,,,,,,,,,,,,,,,,,,,,,,,,,,,,,,,,,,,,,,,,,,,,,,,,,,,,,,,,,
,,5c60e5371115b4000140fb07,2023-12-14_20h04.42.289,kallum_motion_pilot,2023.2.3,Win32,144.9275362,5c60e5371115b4000140fb07,657bb317c8798c6608bceb3f,657bb41fd6d61e0ddbc39450,0.0156,0.0156,0,49,49,31,1,fourthree,,,,,,,,,,,,,,,,,,,,,,,,,,,,,,,,,,,,,,,,,,,,,,,,,,,,,,,,,,,,,,,,,,,,,,,,,,,,,,,,,,,,,,,,,,,,,,,,,,,,,,,,,,,,,,,,,,,,,,,,,,,,,,,,,,,,,,,
,,5c60e5371115b4000140fb07,2023-12-14_20h04.42.289,kallum_motion_pilot,2023.2.3,Win32,144.9275362,5c60e5371115b4000140fb07,657bb317c8798c6608bceb3f,657bb41fd6d61e0ddbc39450,0.0157,0.0157,0,50,50,46,1,fourtwo,,,,,,,,,,,,,,,,,,,,,,,,,,,,,,,,,,,,,,,,,,,,,,,,,,,,,,,,,,,,,,,,,,,,,,,,,,,,,,,,,,,,,,,,,,,,,,,,,,,,,,,,,,,,,,,,,,,,,,,,,,,,,,,,,,,,,,,
,,5c60e5371115b4000140fb07,2023-12-14_20h04.42.289,kallum_motion_pilot,2023.2.3,Win32,144.9275362,5c60e5371115b4000140fb07,657bb317c8798c6608bceb3f,657bb41fd6d61e0ddbc39450,0.0161,0.0161,0,51,51,144,1,fivesix,,,,,,,,,,,,,,,,,,,,,,,,,,,,,,,,,,,,,,,,,,,,,,,,,,,,,,,,,,,,,,,,,,,,,,,,,,,,,,,,,,,,,,,,,,,,,,,,,,,,,,,,,,,,,,,,,,,,,,,,,,,,,,,,,,,,,,,
,,5c60e5371115b4000140fb07,2023-12-14_20h04.42.289,kallum_motion_pilot,2023.2.3,Win32,144.9275362,5c60e5371115b4000140fb07,657bb317c8798c6608bceb3f,657bb41fd6d61e0ddbc39450,0.0161,0.0161,0,52,52,118,1,eightsix,,,,,,,,,,,,,,,,,,,,,,,,,,,,,,,,,,,,,,,,,,,,,,,,,,,,,,,,,,,,,,,,,,,,,,,,,,,,,,,,,,,,,,,,,,,,,,,,,,,,,,,,,,,,,,,,,,,,,,,,,,,,,,,,,,,,,,,
,,5c60e5371115b4000140fb07,2023-12-14_20h04.42.289,kallum_motion_pilot,2023.2.3,Win32,144.9275362,5c60e5371115b4000140fb07,657bb317c8798c6608bceb3f,657bb41fd6d61e0ddbc39450,0.0162,0.0162,0,53,53,99,1,sixeight,,,,,,,,,,,,,,,,,,,,,,,,,,,,,,,,,,,,,,,,,,,,,,,,,,,,,,,,,,,,,,,,,,,,,,,,,,,,,,,,,,,,,,,,,,,,,,,,,,,,,,,,,,,,,,,,,,,,,,,,,,,,,,,,,,,,,,,
,,5c60e5371115b4000140fb07,2023-12-14_20h04.42.289,kallum_motion_pilot,2023.2.3,Win32,144.9275362,5c60e5371115b4000140fb07,657bb317c8798c6608bceb3f,657bb41fd6d61e0ddbc39450,0.0163,0.0163,0,54,54,25,1,onethree,,,,,,,,,,,,,,,,,,,,,,,,,,,,,,,,,,,,,,,,,,,,,,,,,,,,,,,,,,,,,,,,,,,,,,,,,,,,,,,,,,,,,,,,,,,,,,,,,,,,,,,,,,,,,,,,,,,,,,,,,,,,,,,,,,,,,,,
,,5c60e5371115b4000140fb07,2023-12-14_20h04.42.289,kallum_motion_pilot,2023.2.3,Win32,144.9275362,5c60e5371115b4000140fb07,657bb317c8798c6608bceb3f,657bb41fd6d61e0ddbc39450,0.0163,0.0164,0,55,55,160,1,fivesix,,,,,,,,,,,,,,,,,,,,,,,,,,,,,,,,,,,,,,,,,,,,,,,,,,,,,,,,,,,,,,,,,,,,,,,,,,,,,,,,,,,,,,,,,,,,,,,,,,,,,,,,,,,,,,,,,,,,,,,,,,,,,,,,,,,,,,,
,,5c60e5371115b4000140fb07,2023-12-14_20h04.42.289,kallum_motion_pilot,2023.2.3,Win32,144.9275362,5c60e5371115b4000140fb07,657bb317c8798c6608bceb3f,657bb41fd6d61e0ddbc39450,0.0164,0.0164,0,56,56,66,1,twoone,,,,,,,,,,,,,,,,,,,,,,,,,,,,,,,,,,,,,,,,,,,,,,,,,,,,,,,,,,,,,,,,,,,,,,,,,,,,,,,,,,,,,,,,,,,,,,,,,,,,,,,,,,,,,,,,,,,,,,,,,,,,,,,,,,,,,,,
,,5c60e5371115b4000140fb07,2023-12-14_20h04.42.289,kallum_motion_pilot,2023.2.3,Win32,144.9275362,5c60e5371115b4000140fb07,657bb317c8798c6608bceb3f,657bb41fd6d61e0ddbc39450,0.0165,0.0165,0,57,57,159,1,eightseven,,,,,,,,,,,,,,,,,,,,,,,,,,,,,,,,,,,,,,,,,,,,,,,,,,,,,,,,,,,,,,,,,,,,,,,,,,,,,,,,,,,,,,,,,,,,,,,,,,,,,,,,,,,,,,,,,,,,,,,,,,,,,,,,,,,,,,,
,,5c60e5371115b4000140fb07,2023-12-14_20h04.42.289,kallum_motion_pilot,2023.2.3,Win32,144.9275362,5c60e5371115b4000140fb07,657bb317c8798c6608bceb3f,657bb41fd6d61e0ddbc39450,0.0165,0.0165,0,58,58,82,1,sixfive,,,,,,,,,,,,,,,,,,,,,,,,,,,,,,,,,,,,,,,,,,,,,,,,,,,,,,,,,,,,,,,,,,,,,,,,,,,,,,,,,,,,,,,,,,,,,,,,,,,,,,,,,,,,,,,,,,,,,,,,,,,,,,,,,,,,,,,
,,5c60e5371115b4000140fb07,2023-12-14_20h04.42.289,kallum_motion_pilot,2023.2.3,Win32,144.9275362,5c60e5371115b4000140fb07,657bb317c8798c6608bceb3f,657bb41fd6d61e0ddbc39450,0.0165,0.0165,0,59,59,34,1,twoone,,,,,,,,,,,,,,,,,,,,,,,,,,,,,,,,,,,,,,,,,,,,,,,,,,,,,,,,,,,,,,,,,,,,,,,,,,,,,,,,,,,,,,,,,,,,,,,,,,,,,,,,,,,,,,,,,,,,,,,,,,,,,,,,,,,,,,,
,,5c60e5371115b4000140fb07,2023-12-14_20h04.42.289,kallum_motion_pilot,2023.2.3,Win32,144.9275362,5c60e5371115b4000140fb07,657bb317c8798c6608bceb3f,657bb41fd6d61e0ddbc39450,0.0166,0.0166,0,60,60,143,1,eightseven,,,,,,,,,,,,,,,,,,,,,,,,,,,,,,,,,,,,,,,,,,,,,,,,,,,,,,,,,,,,,,,,,,,,,,,,,,,,,,,,,,,,,,,,,,,,,,,,,,,,,,,,,,,,,,,,,,,,,,,,,,,,,,,,,,,,,,,
,,5c60e5371115b4000140fb07,2023-12-14_20h04.42.289,kallum_motion_pilot,2023.2.3,Win32,144.9275362,5c60e5371115b4000140fb07,657bb317c8798c6608bceb3f,657bb41fd6d61e0ddbc39450,0.0167,0.0167,0,61,61,124,1,sevenfive,,,,,,,,,,,,,,,,,,,,,,,,,,,,,,,,,,,,,,,,,,,,,,,,,,,,,,,,,,,,,,,,,,,,,,,,,,,,,,,,,,,,,,,,,,,,,,,,,,,,,,,,,,,,,,,,,,,,,,,,,,,,,,,,,,,,,,,
,,5c60e5371115b4000140fb07,2023-12-14_20h04.42.289,kallum_motion_pilot,2023.2.3,Win32,144.9275362,5c60e5371115b4000140fb07,657bb317c8798c6608bceb3f,657bb41fd6d61e0ddbc39450,0.0167,0.0167,0,62,62,95,1,eightseven,,,,,,,,,,,,,,,,,,,,,,,,,,,,,,,,,,,,,,,,,,,,,,,,,,,,,,,,,,,,,,,,,,,,,,,,,,,,,,,,,,,,,,,,,,,,,,,,,,,,,,,,,,,,,,,,,,,,,,,,,,,,,,,,,,,,,,,
,,5c60e5371115b4000140fb07,2023-12-14_20h04.42.289,kallum_motion_pilot,2023.2.3,Win32,144.9275362,5c60e5371115b4000140fb07,657bb317c8798c6608bceb3f,657bb41fd6d61e0ddbc39450,0.0168,0.0168,0,63,63,93,1,seveneight,,,,,,,,,,,,,,,,,,,,,,,,,,,,,,,,,,,,,,,,,,,,,,,,,,,,,,,,,,,,,,,,,,,,,,,,,,,,,,,,,,,,,,,,,,,,,,,,,,,,,,,,,,,,,,,,,,,,,,,,,,,,,,,,,,,,,,,
,,5c60e5371115b4000140fb07,2023-12-14_20h04.42.289,kallum_motion_pilot,2023.2.3,Win32,144.9275362,5c60e5371115b4000140fb07,657bb317c8798c6608bceb3f,657bb41fd6d61e0ddbc39450,0.0169,0.0169,0,64,64,49,1,onethree,,,,,,,,,,,,,,,,,,,,,,,,,,,,,,,,,,,,,,,,,,,,,,,,,,,,,,,,,,,,,,,,,,,,,,,,,,,,,,,,,,,,,,,,,,,,,,,,,,,,,,,,,,,,,,,,,,,,,,,,,,,,,,,,,,,,,,,
,,5c60e5371115b4000140fb07,2023-12-14_20h04.42.289,kallum_motion_pilot,2023.2.3,Win32,144.9275362,5c60e5371115b4000140fb07,657bb317c8798c6608bceb3f,657bb41fd6d61e0ddbc39450,0.017,0.017,0,65,65,8,1,onetwo,,,,,,,,,,,,,,,,,,,,,,,,,,,,,,,,,,,,,,,,,,,,,,,,,,,,,,,,,,,,,,,,,,,,,,,,,,,,,,,,,,,,,,,,,,,,,,,,,,,,,,,,,,,,,,,,,,,,,,,,,,,,,,,,,,,,,,,
,,5c60e5371115b4000140fb07,2023-12-14_20h04.42.289,kallum_motion_pilot,2023.2.3,Win32,144.9275362,5c60e5371115b4000140fb07,657bb317c8798c6608bceb3f,657bb41fd6d61e0ddbc39450,0.017,0.017,0,66,66,52,1,threeone,,,,,,,,,,,,,,,,,,,,,,,,,,,,,,,,,,,,,,,,,,,,,,,,,,,,,,,,,,,,,,,,,,,,,,,,,,,,,,,,,,,,,,,,,,,,,,,,,,,,,,,,,,,,,,,,,,,,,,,,,,,,,,,,,,,,,,,
,,5c60e5371115b4000140fb07,2023-12-14_20h04.42.289,kallum_motion_pilot,2023.2.3,Win32,144.9275362,5c60e5371115b4000140fb07,657bb317c8798c6608bceb3f,657bb41fd6d61e0ddbc39450,0.0171,0.0171,0,67,67,121,1,fiveseven,,,,,,,,,,,,,,,,,,,,,,,,,,,,,,,,,,,,,,,,,,,,,,,,,,,,,,,,,,,,,,,,,,,,,,,,,,,,,,,,,,,,,,,,,,,,,,,,,,,,,,,,,,,,,,,,,,,,,,,,,,,,,,,,,,,,,,,
,,5c60e5371115b4000140fb07,2023-12-14_20h04.42.289,kallum_motion_pilot,2023.2.3,Win32,144.9275362,5c60e5371115b4000140fb07,657bb317c8798c6608bceb3f,657bb41fd6d61e0ddbc39450,0.0171,0.0171,0,68,68,69,1,threefour,,,,,,,,,,,,,,,,,,,,,,,,,,,,,,,,,,,,,,,,,,,,,,,,,,,,,,,,,,,,,,,,,,,,,,,,,,,,,,,,,,,,,,,,,,,,,,,,,,,,,,,,,,,,,,,,,,,,,,,,,,,,,,,,,,,,,,,
,,5c60e5371115b4000140fb07,2023-12-14_20h04.42.289,kallum_motion_pilot,2023.2.3,Win32,144.9275362,5c60e5371115b4000140fb07,657bb317c8798c6608bceb3f,657bb41fd6d61e0ddbc39450,0.0171,0.0172,0,69,69,158,1,eightsix,,,,,,,,,,,,,,,,,,,,,,,,,,,,,,,,,,,,,,,,,,,,,,,,,,,,,,,,,,,,,,,,,,,,,,,,,,,,,,,,,,,,,,,,,,,,,,,,,,,,,,,,,,,,,,,,,,,,,,,,,,,,,,,,,,,,,,,
,,5c60e5371115b4000140fb07,2023-12-14_20h04.42.289,kallum_motion_pilot,2023.2.3,Win32,144.9275362,5c60e5371115b4000140fb07,657bb317c8798c6608bceb3f,657bb41fd6d61e0ddbc39450,0.0172,0.0172,0,70,70,62,1,fourtwo,,,,,,,,,,,,,,,,,,,,,,,,,,,,,,,,,,,,,,,,,,,,,,,,,,,,,,,,,,,,,,,,,,,,,,,,,,,,,,,,,,,,,,,,,,,,,,,,,,,,,,,,,,,,,,,,,,,,,,,,,,,,,,,,,,,,,,,
,,5c60e5371115b4000140fb07,2023-12-14_20h04.42.289,kallum_motion_pilot,2023.2.3,Win32,144.9275362,5c60e5371115b4000140fb07,657bb317c8798c6608bceb3f,657bb41fd6d61e0ddbc39450,0.0173,0.0173,0,71,71,126,1,eightsix,,,,,,,,,,,,,,,,,,,,,,,,,,,,,,,,,,,,,,,,,,,,,,,,,,,,,,,,,,,,,,,,,,,,,,,,,,,,,,,,,,,,,,,,,,,,,,,,,,,,,,,,,,,,,,,,,,,,,,,,,,,,,,,,,,,,,,,
,,5c60e5371115b4000140fb07,2023-12-14_20h04.42.289,kallum_motion_pilot,2023.2.3,Win32,144.9275362,5c60e5371115b4000140fb07,657bb317c8798c6608bceb3f,657bb41fd6d61e0ddbc39450,0.0173,0.0174,0,72,72,119,1,eightseven,,,,,,,,,,,,,,,,,,,,,,,,,,,,,,,,,,,,,,,,,,,,,,,,,,,,,,,,,,,,,,,,,,,,,,,,,,,,,,,,,,,,,,,,,,,,,,,,,,,,,,,,,,,,,,,,,,,,,,,,,,,,,,,,,,,,,,,
,,5c60e5371115b4000140fb07,2023-12-14_20h04.42.289,kallum_motion_pilot,2023.2.3,Win32,144.9275362,5c60e5371115b4000140fb07,657bb317c8798c6608bceb3f,657bb41fd6d61e0ddbc39450,0.0174,0.0174,0,73,73,100,1,sevenfive,,,,,,,,,,,,,,,,,,,,,,,,,,,,,,,,,,,,,,,,,,,,,,,,,,,,,,,,,,,,,,,,,,,,,,,,,,,,,,,,,,,,,,,,,,,,,,,,,,,,,,,,,,,,,,,,,,,,,,,,,,,,,,,,,,,,,,,
,,5c60e5371115b4000140fb07,2023-12-14_20h04.42.289,kallum_motion_pilot,2023.2.3,Win32,144.9275362,5c60e5371115b4000140fb07,657bb317c8798c6608bceb3f,657bb41fd6d61e0ddbc39450,0.0174,0.0174,0,74,74,53,1,threefour,,,,,,,,,,,,,,,,,,,,,,,,,,,,,,,,,,,,,,,,,,,,,,,,,,,,,,,,,,,,,,,,,,,,,,,,,,,,,,,,,,,,,,,,,,,,,,,,,,,,,,,,,,,,,,,,,,,,,,,,,,,,,,,,,,,,,,,
,,5c60e5371115b4000140fb07,2023-12-14_20h04.42.289,kallum_motion_pilot,2023.2.3,Win32,144.9275362,5c60e5371115b4000140fb07,657bb317c8798c6608bceb3f,657bb41fd6d61e0ddbc39450,0.0175,0.0175,0,75,75,132,1,sevenfive,,,,,,,,,,,,,,,,,,,,,,,,,,,,,,,,,,,,,,,,,,,,,,,,,,,,,,,,,,,,,,,,,,,,,,,,,,,,,,,,,,,,,,,,,,,,,,,,,,,,,,,,,,,,,,,,,,,,,,,,,,,,,,,,,,,,,,,
,,5c60e5371115b4000140fb07,2023-12-14_20h04.42.289,kallum_motion_pilot,2023.2.3,Win32,144.9275362,5c60e5371115b4000140fb07,657bb317c8798c6608bceb3f,657bb41fd6d61e0ddbc39450,0.0175,0.0175,0,76,76,9,1,onethree,,,,,,,,,,,,,,,,,,,,,,,,,,,,,,,,,,,,,,,,,,,,,,,,,,,,,,,,,,,,,,,,,,,,,,,,,,,,,,,,,,,,,,,,,,,,,,,,,,,,,,,,,,,,,,,,,,,,,,,,,,,,,,,,,,,,,,,
,,5c60e5371115b4000140fb07,2023-12-14_20h04.42.289,kallum_motion_pilot,2023.2.3,Win32,144.9275362,5c60e5371115b4000140fb07,657bb317c8798c6608bceb3f,657bb41fd6d61e0ddbc39450,0.0176,0.0176,0,77,77,142,1,eightsix,,,,,,,,,,,,,,,,,,,,,,,,,,,,,,,,,,,,,,,,,,,,,,,,,,,,,,,,,,,,,,,,,,,,,,,,,,,,,,,,,,,,,,,,,,,,,,,,,,,,,,,,,,,,,,,,,,,,,,,,,,,,,,,,,,,,,,,
,,5c60e5371115b4000140fb07,2023-12-14_20h04.42.289,kallum_motion_pilot,2023.2.3,Win32,144.9275362,5c60e5371115b4000140fb07,657bb317c8798c6608bceb3f,657bb41fd6d61e0ddbc39450,0.0177,0.0177,0,78,78,114,1,sixfive,,,,,,,,,,,,,,,,,,,,,,,,,,,,,,,,,,,,,,,,,,,,,,,,,,,,,,,,,,,,,,,,,,,,,,,,,,,,,,,,,,,,,,,,,,,,,,,,,,,,,,,,,,,,,,,,,,,,,,,,,,,,,,,,,,,,,,,
,,5c60e5371115b4000140fb07,2023-12-14_20h04.42.289,kallum_motion_pilot,2023.2.3,Win32,144.9275362,5c60e5371115b4000140fb07,657bb317c8798c6608bceb3f,657bb41fd6d61e0ddbc39450,0.0177,0.0177,0,79,79,72,1,onetwo,,,,,,,,,,,,,,,,,,,,,,,,,,,,,,,,,,,,,,,,,,,,,,,,,,,,,,,,,,,,,,,,,,,,,,,,,,,,,,,,,,,,,,,,,,,,,,,,,,,,,,,,,,,,,,,,,,,,,,,,,,,,,,,,,,,,,,,
,,5c60e5371115b4000140fb07,2023-12-14_20h04.42.289,kallum_motion_pilot,2023.2.3,Win32,144.9275362,5c60e5371115b4000140fb07,657bb317c8798c6608bceb3f,657bb41fd6d61e0ddbc39450,0.0178,0.0178,0,80,80,83,1,sixeight,,,,,,,,,,,,,,,,,,,,,,,,,,,,,,,,,,,,,,,,,,,,,,,,,,,,,,,,,,,,,,,,,,,,,,,,,,,,,,,,,,,,,,,,,,,,,,,,,,,,,,,,,,,,,,,,,,,,,,,,,,,,,,,,,,,,,,,
,,5c60e5371115b4000140fb07,2023-12-14_20h04.42.289,kallum_motion_pilot,2023.2.3,Win32,144.9275362,5c60e5371115b4000140fb07,657bb317c8798c6608bceb3f,657bb41fd6d61e0ddbc39450,0.0178,0.0179,0,81,81,47,1,fourthree,,,,,,,,,,,,,,,,,,,,,,,,,,,,,,,,,,,,,,,,,,,,,,,,,,,,,,,,,,,,,,,,,,,,,,,,,,,,,,,,,,,,,,,,,,,,,,,,,,,,,,,,,,,,,,,,,,,,,,,,,,,,,,,,,,,,,,,
,,5c60e5371115b4000140fb07,2023-12-14_20h04.42.289,kallum_motion_pilot,2023.2.3,Win32,144.9275362,5c60e5371115b4000140fb07,657bb317c8798c6608bceb3f,657bb41fd6d61e0ddbc39450,0.0179,0.0179,0,82,82,150,1,eightsix,,,,,,,,,,,,,,,,,,,,,,,,,,,,,,,,,,,,,,,,,,,,,,,,,,,,,,,,,,,,,,,,,,,,,,,,,,,,,,,,,,,,,,,,,,,,,,,,,,,,,,,,,,,,,,,,,,,,,,,,,,,,,,,,,,,,,,,
,,5c60e5371115b4000140fb07,2023-12-14_20h04.42.289,kallum_motion_pilot,2023.2.3,Win32,144.9275362,5c60e5371115b4000140fb07,657bb317c8798c6608bceb3f,657bb41fd6d61e0ddbc39450,0.018,0.018,0,83,83,32,1,onetwo,,,,,,,,,,,,,,,,,,,,,,,,,,,,,,,,,,,,,,,,,,,,,,,,,,,,,,,,,,,,,,,,,,,,,,,,,,,,,,,,,,,,,,,,,,,,,,,,,,,,,,,,,,,,,,,,,,,,,,,,,,,,,,,,,,,,,,,
,,5c60e5371115b4000140fb07,2023-12-14_20h04.42.289,kallum_motion_pilot,2023.2.3,Win32,144.9275362,5c60e5371115b4000140fb07,657bb317c8798c6608bceb3f,657bb41fd6d61e0ddbc39450,0.0181,0.0181,0,84,84,20,1,threeone,,,,,,,,,,,,,,,,,,,,,,,,,,,,,,,,,,,,,,,,,,,,,,,,,,,,,,,,,,,,,,,,,,,,,,,,,,,,,,,,,,,,,,,,,,,,,,,,,,,,,,,,,,,,,,,,,,,,,,,,,,,,,,,,,,,,,,,
,,5c60e5371115b4000140fb07,2023-12-14_20h04.42.289,kallum_motion_pilot,2023.2.3,Win32,144.9275362,5c60e5371115b4000140fb07,657bb317c8798c6608bceb3f,657bb41fd6d61e0ddbc39450,0.0181,0.0181,0,85,85,135,1,eightseven,,,,,,,,,,,,,,,,,,,,,,,,,,,,,,,,,,,,,,,,,,,,,,,,,,,,,,,,,,,,,,,,,,,,,,,,,,,,,,,,,,,,,,,,,,,,,,,,,,,,,,,,,,,,,,,,,,,,,,,,,,,,,,,,,,,,,,,
,,5c60e5371115b4000140fb07,2023-12-14_20h04.42.289,kallum_motion_pilot,2023.2.3,Win32,144.9275362,5c60e5371115b4000140fb07,657bb317c8798c6608bceb3f,657bb41fd6d61e0ddbc39450,0.0181,0.0181,0,86,86,109,1,seveneight,,,,,,,,,,,,,,,,,,,,,,,,,,,,,,,,,,,,,,,,,,,,,,,,,,,,,,,,,,,,,,,,,,,,,,,,,,,,,,,,,,,,,,,,,,,,,,,,,,,,,,,,,,,,,,,,,,,,,,,,,,,,,,,,,,,,,,,
,,5c60e5371115b4000140fb07,2023-12-14_20h04.42.289,kallum_motion_pilot,2023.2.3,Win32,144.9275362,5c60e5371115b4000140fb07,657bb317c8798c6608bceb3f,657bb41fd6d61e0ddbc39450,0.0182,0.0182,0,87,87,101,1,seveneight,,,,,,,,,,,,,,,,,,,,,,,,,,,,,,,,,,,,,,,,,,,,,,,,,,,,,,,,,,,,,,,,,,,,,,,,,,,,,,,,,,,,,,,,,,,,,,,,,,,,,,,,,,,,,,,,,,,,,,,,,,,,,,,,,,,,,,,
,,5c60e5371115b4000140fb07,2023-12-14_20h04.42.289,kallum_motion_pilot,2023.2.3,Win32,144.9275362,5c60e5371115b4000140fb07,657bb317c8798c6608bceb3f,657bb41fd6d61e0ddbc39450,0.0182,0.0183,0,88,88,13,1,threefour,,,,,,,,,,,,,,,,,,,,,,,,,,,,,,,,,,,,,,,,,,,,,,,,,,,,,,,,,,,,,,,,,,,,,,,,,,,,,,,,,,,,,,,,,,,,,,,,,,,,,,,,,,,,,,,,,,,,,,,,,,,,,,,,,,,,,,,
,,5c60e5371115b4000140fb07,2023-12-14_20h04.42.289,kallum_motion_pilot,2023.2.3,Win32,144.9275362,5c60e5371115b4000140fb07,657bb317c8798c6608bceb3f,657bb41fd6d61e0ddbc39450,0.0183,0.0184,0,89,89,48,1,onetwo,,,,,,,,,,,,,,,,,,,,,,,,,,,,,,,,,,,,,,,,,,,,,,,,,,,,,,,,,,,,,,,,,,,,,,,,,,,,,,,,,,,,,,,,,,,,,,,,,,,,,,,,,,,,,,,,,,,,,,,,,,,,,,,,,,,,,,,
,,5c60e5371115b4000140fb07,2023-12-14_20h04.42.289,kallum_motion_pilot,2023.2.3,Win32,144.9275362,5c60e5371115b4000140fb07,657bb317c8798c6608bceb3f,657bb41fd6d61e0ddbc39450,0.0184,0.0184,0,90,90,74,1,twoone,,,,,,,,,,,,,,,,,,,,,,,,,,,,,,,,,,,,,,,,,,,,,,,,,,,,,,,,,,,,,,,,,,,,,,,,,,,,,,,,,,,,,,,,,,,,,,,,,,,,,,,,,,,,,,,,,,,,,,,,,,,,,,,,,,,,,,,
,,5c60e5371115b4000140fb07,2023-12-14_20h04.42.289,kallum_motion_pilot,2023.2.3,Win32,144.9275362,5c60e5371115b4000140fb07,657bb317c8798c6608bceb3f,657bb41fd6d61e0ddbc39450,0.0185,0.0185,0,91,91,28,1,threeone,,,,,,,,,,,,,,,,,,,,,,,,,,,,,,,,,,,,,,,,,,,,,,,,,,,,,,,,,,,,,,,,,,,,,,,,,,,,,,,,,,,,,,,,,,,,,,,,,,,,,,,,,,,,,,,,,,,,,,,,,,,,,,,,,,,,,,,
,,5c60e5371115b4000140fb07,2023-12-14_20h04.42.289,kallum_motion_pilot,2023.2.3,Win32,144.9275362,5c60e5371115b4000140fb07,657bb317c8798c6608bceb3f,657bb41fd6d61e0ddbc39450,0.0185,0.0185,0,92,92,161,1,fiveseven,,,,,,,,,,,,,,,,,,,,,,,,,,,,,,,,,,,,,,,,,,,,,,,,,,,,,,,,,,,,,,,,,,,,,,,,,,,,,,,,,,,,,,,,,,,,,,,,,,,,,,,,,,,,,,,,,,,,,,,,,,,,,,,,,,,,,,,
,,5c60e5371115b4000140fb07,2023-12-14_20h04.42.289,kallum_motion_pilot,2023.2.3,Win32,144.9275362,5c60e5371115b4000140fb07,657bb317c8798c6608bceb3f,657bb41fd6d61e0ddbc39450,0.0186,0.0186,0,93,93,54,1,fourtwo,,,,,,,,,,,,,,,,,,,,,,,,,,,,,,,,,,,,,,,,,,,,,,,,,,,,,,,,,,,,,,,,,,,,,,,,,,,,,,,,,,,,,,,,,,,,,,,,,,,,,,,,,,,,,,,,,,,,,,,,,,,,,,,,,,,,,,,
,,5c60e5371115b4000140fb07,2023-12-14_20h04.42.289,kallum_motion_pilot,2023.2.3,Win32,144.9275362,5c60e5371115b4000140fb07,657bb317c8798c6608bceb3f,657bb41fd6d61e0ddbc39450,0.0186,0.0186,0,94,94,146,1,sixfive,,,,,,,,,,,,,,,,,,,,,,,,,,,,,,,,,,,,,,,,,,,,,,,,,,,,,,,,,,,,,,,,,,,,,,,,,,,,,,,,,,,,,,,,,,,,,,,,,,,,,,,,,,,,,,,,,,,,,,,,,,,,,,,,,,,,,,,
,,5c60e5371115b4000140fb07,2023-12-14_20h04.42.289,kallum_motion_pilot,2023.2.3,Win32,144.9275362,5c60e5371115b4000140fb07,657bb317c8798c6608bceb3f,657bb41fd6d61e0ddbc39450,0.0187,0.0187,0,95,95,51,1,twofour,,,,,,,,,,,,,,,,,,,,,,,,,,,,,,,,,,,,,,,,,,,,,,,,,,,,,,,,,,,,,,,,,,,,,,,,,,,,,,,,,,,,,,,,,,,,,,,,,,,,,,,,,,,,,,,,,,,,,,,,,,,,,,,,,,,,,,,
,,5c60e5371115b4000140fb07,2023-12-14_20h04.42.289,kallum_motion_pilot,2023.2.3,Win32,144.9275362,5c60e5371115b4000140fb07,657bb317c8798c6608bceb3f,657bb41fd6d61e0ddbc39450,0.0188,0.0188,0,96,96,92,1,sevenfive,,,,,,,,,,,,,,,,,,,,,,,,,,,,,,,,,,,,,,,,,,,,,,,,,,,,,,,,,,,,,,,,,,,,,,,,,,,,,,,,,,,,,,,,,,,,,,,,,,,,,,,,,,,,,,,,,,,,,,,,,,,,,,,,,,,,,,,
,,5c60e5371115b4000140fb07,2023-12-14_20h04.42.289,kallum_motion_pilot,2023.2.3,Win32,144.9275362,5c60e5371115b4000140fb07,657bb317c8798c6608bceb3f,657bb41fd6d61e0ddbc39450,0.0189,0.0189,0,97,97,110,1,eightsix,,,,,,,,,,,,,,,,,,,,,,,,,,,,,,,,,,,,,,,,,,,,,,,,,,,,,,,,,,,,,,,,,,,,,,,,,,,,,,,,,,,,,,,,,,,,,,,,,,,,,,,,,,,,,,,,,,,,,,,,,,,,,,,,,,,,,,,
,,5c60e5371115b4000140fb07,2023-12-14_20h04.42.289,kallum_motion_pilot,2023.2.3,Win32,144.9275362,5c60e5371115b4000140fb07,657bb317c8798c6608bceb3f,657bb41fd6d61e0ddbc39450,0.0189,0.0189,0,98,98,129,1,fiveseven,,,,,,,,,,,,,,,,,,,,,,,,,,,,,,,,,,,,,,,,,,,,,,,,,,,,,,,,,,,,,,,,,,,,,,,,,,,,,,,,,,,,,,,,,,,,,,,,,,,,,,,,,,,,,,,,,,,,,,,,,,,,,,,,,,,,,,,
,,5c60e5371115b4000140fb07,2023-12-14_20h04.42.289,kallum_motion_pilot,2023.2.3,Win32,144.9275362,5c60e5371115b4000140fb07,657bb317c8798c6608bceb3f,657bb41fd6d61e0ddbc39450,0.0189,0.019,0,99,99,26,1,twoone,,,,,,,,,,,,,,,,,,,,,,,,,,,,,,,,,,,,,,,,,,,,,,,,,,,,,,,,,,,,,,,,,,,,,,,,,,,,,,,,,,,,,,,,,,,,,,,,,,,,,,,,,,,,,,,,,,,,,,,,,,,,,,,,,,,,,,,
,,5c60e5371115b4000140fb07,2023-12-14_20h04.42.289,kallum_motion_pilot,2023.2.3,Win32,144.9275362,5c60e5371115b4000140fb07,657bb317c8798c6608bceb3f,657bb41fd6d61e0ddbc39450,0.019,0.019,0,100,100,55,1,fourthree,,,,,,,,,,,,,,,,,,,,,,,,,,,,,,,,,,,,,,,,,,,,,,,,,,,,,,,,,,,,,,,,,,,,,,,,,,,,,,,,,,,,,,,,,,,,,,,,,,,,,,,,,,,,,,,,,,,,,,,,,,,,,,,,,,,,,,,
,,5c60e5371115b4000140fb07,2023-12-14_20h04.42.289,kallum_motion_pilot,2023.2.3,Win32,144.9275362,5c60e5371115b4000140fb07,657bb317c8798c6608bceb3f,657bb41fd6d61e0ddbc39450,0.0191,0.0191,0,101,101,94,1,eightsix,,,,,,,,,,,,,,,,,,,,,,,,,,,,,,,,,,,,,,,,,,,,,,,,,,,,,,,,,,,,,,,,,,,,,,,,,,,,,,,,,,,,,,,,,,,,,,,,,,,,,,,,,,,,,,,,,,,,,,,,,,,,,,,,,,,,,,,
,,5c60e5371115b4000140fb07,2023-12-14_20h04.42.289,kallum_motion_pilot,2023.2.3,Win32,144.9275362,5c60e5371115b4000140fb07,657bb317c8798c6608bceb3f,657bb41fd6d61e0ddbc39450,0.0192,0.0192,0,102,102,59,1,twofour,,,,,,,,,,,,,,,,,,,,,,,,,,,,,,,,,,,,,,,,,,,,,,,,,,,,,,,,,,,,,,,,,,,,,,,,,,,,,,,,,,,,,,,,,,,,,,,,,,,,,,,,,,,,,,,,,,,,,,,,,,,,,,,,,,,,,,,
,,5c60e5371115b4000140fb07,2023-12-14_20h04.42.289,kallum_motion_pilot,2023.2.3,Win32,144.9275362,5c60e5371115b4000140fb07,657bb317c8798c6608bceb3f,657bb41fd6d61e0ddbc39450,0.0192,0.0193,0,103,103,120,1,fivesix,,,,,,,,,,,,,,,,,,,,,,,,,,,,,,,,,,,,,,,,,,,,,,,,,,,,,,,,,,,,,,,,,,,,,,,,,,,,,,,,,,,,,,,,,,,,,,,,,,,,,,,,,,,,,,,,,,,,,,,,,,,,,,,,,,,,,,,
,,5c60e5371115b4000140fb07,2023-12-14_20h04.42.289,kallum_motion_pilot,2023.2.3,Win32,144.9275362,5c60e5371115b4000140fb07,657bb317c8798c6608bceb3f,657bb41fd6d61e0ddbc39450,0.0193,0.0193,0,104,104,90,1,sixfive,,,,,,,,,,,,,,,,,,,,,,,,,,,,,,,,,,,,,,,,,,,,,,,,,,,,,,,,,,,,,,,,,,,,,,,,,,,,,,,,,,,,,,,,,,,,,,,,,,,,,,,,,,,,,,,,,,,,,,,,,,,,,,,,,,,,,,,
,,5c60e5371115b4000140fb07,2023-12-14_20h04.42.289,kallum_motion_pilot,2023.2.3,Win32,144.9275362,5c60e5371115b4000140fb07,657bb317c8798c6608bceb3f,657bb41fd6d61e0ddbc39450,0.0194,0.0194,0,105,105,122,1,sixfive,,,,,,,,,,,,,,,,,,,,,,,,,,,,,,,,,,,,,,,,,,,,,,,,,,,,,,,,,,,,,,,,,,,,,,,,,,,,,,,,,,,,,,,,,,,,,,,,,,,,,,,,,,,,,,,,,,,,,,,,,,,,,,,,,,,,,,,
,,5c60e5371115b4000140fb07,2023-12-14_20h04.42.289,kallum_motion_pilot,2023.2.3,Win32,144.9275362,5c60e5371115b4000140fb07,657bb317c8798c6608bceb3f,657bb41fd6d61e0ddbc39450,0.0194,0.0194,0,106,106,139,1,sixeight,,,,,,,,,,,,,,,,,,,,,,,,,,,,,,,,,,,,,,,,,,,,,,,,,,,,,,,,,,,,,,,,,,,,,,,,,,,,,,,,,,,,,,,,,,,,,,,,,,,,,,,,,,,,,,,,,,,,,,,,,,,,,,,,,,,,,,,
,,5c60e5371115b4000140fb07,2023-12-14_20h04.42.289,kallum_motion_pilot,2023.2.3,Win32,144.9275362,5c60e5371115b4000140fb07,657bb317c8798c6608bceb3f,657bb41fd6d61e0ddbc39450,0.0195,0.0196,0,107,107,147,1,sixeight,,,,,,,,,,,,,,,,,,,,,,,,,,,,,,,,,,,,,,,,,,,,,,,,,,,,,,,,,,,,,,,,,,,,,,,,,,,,,,,,,,,,,,,,,,,,,,,,,,,,,,,,,,,,,,,,,,,,,,,,,,,,,,,,,,,,,,,
,,5c60e5371115b4000140fb07,2023-12-14_20h04.42.289,kallum_motion_pilot,2023.2.3,Win32,144.9275362,5c60e5371115b4000140fb07,657bb317c8798c6608bceb3f,657bb41fd6d61e0ddbc39450,0.0196,0.0196,0,108,108,103,1,eightseven,,,,,,,,,,,,,,,,,,,,,,,,,,,,,,,,,,,,,,,,,,,,,,,,,,,,,,,,,,,,,,,,,,,,,,,,,,,,,,,,,,,,,,,,,,,,,,,,,,,,,,,,,,,,,,,,,,,,,,,,,,,,,,,,,,,,,,,
,,5c60e5371115b4000140fb07,2023-12-14_20h04.42.289,kallum_motion_pilot,2023.2.3,Win32,144.9275362,5c60e5371115b4000140fb07,657bb317c8798c6608bceb3f,657bb41fd6d61e0ddbc39450,0.0196,0.0197,0,109,109,44,1,threeone,,,,,,,,,,,,,,,,,,,,,,,,,,,,,,,,,,,,,,,,,,,,,,,,,,,,,,,,,,,,,,,,,,,,,,,,,,,,,,,,,,,,,,,,,,,,,,,,,,,,,,,,,,,,,,,,,,,,,,,,,,,,,,,,,,,,,,,
,,5c60e5371115b4000140fb07,2023-12-14_20h04.42.289,kallum_motion_pilot,2023.2.3,Win32,144.9275362,5c60e5371115b4000140fb07,657bb317c8798c6608bceb3f,657bb41fd6d61e0ddbc39450,0.0197,0.0197,0,110,110,157,1,seveneight,,,,,,,,,,,,,,,,,,,,,,,,,,,,,,,,,,,,,,,,,,,,,,,,,,,,,,,,,,,,,,,,,,,,,,,,,,,,,,,,,,,,,,,,,,,,,,,,,,,,,,,,,,,,,,,,,,,,,,,,,,,,,,,,,,,,,,,
,,5c60e5371115b4000140fb07,2023-12-14_20h04.42.289,kallum_motion_pilot,2023.2.3,Win32,144.9275362,5c60e5371115b4000140fb07,657bb317c8798c6608bceb3f,657bb41fd6d61e0ddbc39450,0.0198,0.0199,0,111,111,19,1,twofour,,,,,,,,,,,,,,,,,,,,,,,,,,,,,,,,,,,,,,,,,,,,,,,,,,,,,,,,,,,,,,,,,,,,,,,,,,,,,,,,,,,,,,,,,,,,,,,,,,,,,,,,,,,,,,,,,,,,,,,,,,,,,,,,,,,,,,,
,,5c60e5371115b4000140fb07,2023-12-14_20h04.42.289,kallum_motion_pilot,2023.2.3,Win32,144.9275362,5c60e5371115b4000140fb07,657bb317c8798c6608bceb3f,657bb41fd6d61e0ddbc39450,0.0199,0.0199,0,112,112,64,1,onetwo,,,,,,,,,,,,,,,,,,,,,,,,,,,,,,,,,,,,,,,,,,,,,,,,,,,,,,,,,,,,,,,,,,,,,,,,,,,,,,,,,,,,,,,,,,,,,,,,,,,,,,,,,,,,,,,,,,,,,,,,,,,,,,,,,,,,,,,
,,5c60e5371115b4000140fb07,2023-12-14_20h04.42.289,kallum_motion_pilot,2023.2.3,Win32,144.9275362,5c60e5371115b4000140fb07,657bb317c8798c6608bceb3f,657bb41fd6d61e0ddbc39450,0.0199,0.0199,0,113,113,2,1,twoone,,,,,,,,,,,,,,,,,,,,,,,,,,,,,,,,,,,,,,,,,,,,,,,,,,,,,,,,,,,,,,,,,,,,,,,,,,,,,,,,,,,,,,,,,,,,,,,,,,,,,,,,,,,,,,,,,,,,,,,,,,,,,,,,,,,,,,,
,,5c60e5371115b4000140fb07,2023-12-14_20h04.42.289,kallum_motion_pilot,2023.2.3,Win32,144.9275362,5c60e5371115b4000140fb07,657bb317c8798c6608bceb3f,657bb41fd6d61e0ddbc39450,0.02,0.02,0,114,114,24,1,onetwo,,,,,,,,,,,,,,,,,,,,,,,,,,,,,,,,,,,,,,,,,,,,,,,,,,,,,,,,,,,,,,,,,,,,,,,,,,,,,,,,,,,,,,,,,,,,,,,,,,,,,,,,,,,,,,,,,,,,,,,,,,,,,,,,,,,,,,,
,,5c60e5371115b4000140fb07,2023-12-14_20h04.42.289,kallum_motion_pilot,2023.2.3,Win32,144.9275362,5c60e5371115b4000140fb07,657bb317c8798c6608bceb3f,657bb41fd6d61e0ddbc39450,0.02,0.02,0,115,115,29,1,threefour,,,,,,,,,,,,,,,,,,,,,,,,,,,,,,,,,,,,,,,,,,,,,,,,,,,,,,,,,,,,,,,,,,,,,,,,,,,,,,,,,,,,,,,,,,,,,,,,,,,,,,,,,,,,,,,,,,,,,,,,,,,,,,,,,,,,,,,
,,5c60e5371115b4000140fb07,2023-12-14_20h04.42.289,kallum_motion_pilot,2023.2.3,Win32,144.9275362,5c60e5371115b4000140fb07,657bb317c8798c6608bceb3f,657bb41fd6d61e0ddbc39450,0.0201,0.0201,0,116,116,15,1,fourthree,,,,,,,,,,,,,,,,,,,,,,,,,,,,,,,,,,,,,,,,,,,,,,,,,,,,,,,,,,,,,,,,,,,,,,,,,,,,,,,,,,,,,,,,,,,,,,,,,,,,,,,,,,,,,,,,,,,,,,,,,,,,,,,,,,,,,,,
,,5c60e5371115b4000140fb07,2023-12-14_20h04.42.289,kallum_motion_pilot,2023.2.3,Win32,144.9275362,5c60e5371115b4000140fb07,657bb317c8798c6608bceb3f,657bb41fd6d61e0ddbc39450,0.0202,0.0202,0,117,117,0,1,onetwo,,,,,,,,,,,,,,,,,,,,,,,,,,,,,,,,,,,,,,,,,,,,,,,,,,,,,,,,,,,,,,,,,,,,,,,,,,,,,,,,,,,,,,,,,,,,,,,,,,,,,,,,,,,,,,,,,,,,,,,,,,,,,,,,,,,,,,,
,,5c60e5371115b4000140fb07,2023-12-14_20h04.42.289,kallum_motion_pilot,2023.2.3,Win32,144.9275362,5c60e5371115b4000140fb07,657bb317c8798c6608bceb3f,657bb41fd6d61e0ddbc39450,0.0202,0.0202,0,118,118,148,1,sevenfive,,,,,,,,,,,,,,,,,,,,,,,,,,,,,,,,,,,,,,,,,,,,,,,,,,,,,,,,,,,,,,,,,,,,,,,,,,,,,,,,,,,,,,,,,,,,,,,,,,,,,,,,,,,,,,,,,,,,,,,,,,,,,,,,,,,,,,,
,,5c60e5371115b4000140fb07,2023-12-14_20h04.42.289,kallum_motion_pilot,2023.2.3,Win32,144.9275362,5c60e5371115b4000140fb07,657bb317c8798c6608bceb3f,657bb41fd6d61e0ddbc39450,0.0203,0.0203,0,119,119,14,1,fourtwo,,,,,,,,,,,,,,,,,,,,,,,,,,,,,,,,,,,,,,,,,,,,,,,,,,,,,,,,,,,,,,,,,,,,,,,,,,,,,,,,,,,,,,,,,,,,,,,,,,,,,,,,,,,,,,,,,,,,,,,,,,,,,,,,,,,,,,,
,,5c60e5371115b4000140fb07,2023-12-14_20h04.42.289,kallum_motion_pilot,2023.2.3,Win32,144.9275362,5c60e5371115b4000140fb07,657bb317c8798c6608bceb3f,657bb41fd6d61e0ddbc39450,0.0204,0.0204,0,120,120,3,1,twofour,,,,,,,,,,,,,,,,,,,,,,,,,,,,,,,,,,,,,,,,,,,,,,,,,,,,,,,,,,,,,,,,,,,,,,,,,,,,,,,,,,,,,,,,,,,,,,,,,,,,,,,,,,,,,,,,,,,,,,,,,,,,,,,,,,,,,,,
,,5c60e5371115b4000140fb07,2023-12-14_20h04.42.289,kallum_motion_pilot,2023.2.3,Win32,144.9275362,5c60e5371115b4000140fb07,657bb317c8798c6608bceb3f,657bb41fd6d61e0ddbc39450,0.0205,0.0205,0,121,121,89,1,fiveseven,,,,,,,,,,,,,,,,,,,,,,,,,,,,,,,,,,,,,,,,,,,,,,,,,,,,,,,,,,,,,,,,,,,,,,,,,,,,,,,,,,,,,,,,,,,,,,,,,,,,,,,,,,,,,,,,,,,,,,,,,,,,,,,,,,,,,,,
,,5c60e5371115b4000140fb07,2023-12-14_20h04.42.289,kallum_motion_pilot,2023.2.3,Win32,144.9275362,5c60e5371115b4000140fb07,657bb317c8798c6608bceb3f,657bb41fd6d61e0ddbc39450,0.0205,0.0205,0,122,122,58,1,twoone,,,,,,,,,,,,,,,,,,,,,,,,,,,,,,,,,,,,,,,,,,,,,,,,,,,,,,,,,,,,,,,,,,,,,,,,,,,,,,,,,,,,,,,,,,,,,,,,,,,,,,,,,,,,,,,,,,,,,,,,,,,,,,,,,,,,,,,
,,5c60e5371115b4000140fb07,2023-12-14_20h04.42.289,kallum_motion_pilot,2023.2.3,Win32,144.9275362,5c60e5371115b4000140fb07,657bb317c8798c6608bceb3f,657bb41fd6d61e0ddbc39450,0.0206,0.0206,0,123,123,106,1,sixfive,,,,,,,,,,,,,,,,,,,,,,,,,,,,,,,,,,,,,,,,,,,,,,,,,,,,,,,,,,,,,,,,,,,,,,,,,,,,,,,,,,,,,,,,,,,,,,,,,,,,,,,,,,,,,,,,,,,,,,,,,,,,,,,,,,,,,,,
,,5c60e5371115b4000140fb07,2023-12-14_20h04.42.289,kallum_motion_pilot,2023.2.3,Win32,144.9275362,5c60e5371115b4000140fb07,657bb317c8798c6608bceb3f,657bb41fd6d61e0ddbc39450,0.0207,0.0207,0,124,124,57,1,onethree,,,,,,,,,,,,,,,,,,,,,,,,,,,,,,,,,,,,,,,,,,,,,,,,,,,,,,,,,,,,,,,,,,,,,,,,,,,,,,,,,,,,,,,,,,,,,,,,,,,,,,,,,,,,,,,,,,,,,,,,,,,,,,,,,,,,,,,
,,5c60e5371115b4000140fb07,2023-12-14_20h04.42.289,kallum_motion_pilot,2023.2.3,Win32,144.9275362,5c60e5371115b4000140fb07,657bb317c8798c6608bceb3f,657bb41fd6d61e0ddbc39450,0.0211,0.0211,0,125,125,56,1,onetwo,,,,,,,,,,,,,,,,,,,,,,,,,,,,,,,,,,,,,,,,,,,,,,,,,,,,,,,,,,,,,,,,,,,,,,,,,,,,,,,,,,,,,,,,,,,,,,,,,,,,,,,,,,,,,,,,,,,,,,,,,,,,,,,,,,,,,,,
,,5c60e5371115b4000140fb07,2023-12-14_20h04.42.289,kallum_motion_pilot,2023.2.3,Win32,144.9275362,5c60e5371115b4000140fb07,657bb317c8798c6608bceb3f,657bb41fd6d61e0ddbc39450,0.0212,0.0213,0,126,126,113,1,fiveseven,,,,,,,,,,,,,,,,,,,,,,,,,,,,,,,,,,,,,,,,,,,,,,,,,,,,,,,,,,,,,,,,,,,,,,,,,,,,,,,,,,,,,,,,,,,,,,,,,,,,,,,,,,,,,,,,,,,,,,,,,,,,,,,,,,,,,,,
,,5c60e5371115b4000140fb07,2023-12-14_20h04.42.289,kallum_motion_pilot,2023.2.3,Win32,144.9275362,5c60e5371115b4000140fb07,657bb317c8798c6608bceb3f,657bb41fd6d61e0ddbc39450,0.0213,0.0213,0,127,127,151,1,eightseven,,,,,,,,,,,,,,,,,,,,,,,,,,,,,,,,,,,,,,,,,,,,,,,,,,,,,,,,,,,,,,,,,,,,,,,,,,,,,,,,,,,,,,,,,,,,,,,,,,,,,,,,,,,,,,,,,,,,,,,,,,,,,,,,,,,,,,,
,,5c60e5371115b4000140fb07,2023-12-14_20h04.42.289,kallum_motion_pilot,2023.2.3,Win32,144.9275362,5c60e5371115b4000140fb07,657bb317c8798c6608bceb3f,657bb41fd6d61e0ddbc39450,0.0213,0.0213,0,128,128,102,1,eightsix,,,,,,,,,,,,,,,,,,,,,,,,,,,,,,,,,,,,,,,,,,,,,,,,,,,,,,,,,,,,,,,,,,,,,,,,,,,,,,,,,,,,,,,,,,,,,,,,,,,,,,,,,,,,,,,,,,,,,,,,,,,,,,,,,,,,,,,
,,5c60e5371115b4000140fb07,2023-12-14_20h04.42.289,kallum_motion_pilot,2023.2.3,Win32,144.9275362,5c60e5371115b4000140fb07,657bb317c8798c6608bceb3f,657bb41fd6d61e0ddbc39450,0.0215,0.0215,0,129,129,117,1,seveneight,,,,,,,,,,,,,,,,,,,,,,,,,,,,,,,,,,,,,,,,,,,,,,,,,,,,,,,,,,,,,,,,,,,,,,,,,,,,,,,,,,,,,,,,,,,,,,,,,,,,,,,,,,,,,,,,,,,,,,,,,,,,,,,,,,,,,,,
,,5c60e5371115b4000140fb07,2023-12-14_20h04.42.289,kallum_motion_pilot,2023.2.3,Win32,144.9275362,5c60e5371115b4000140fb07,657bb317c8798c6608bceb3f,657bb41fd6d61e0ddbc39450,0.0218,0.0218,0,130,130,5,1,threefour,,,,,,,,,,,,,,,,,,,,,,,,,,,,,,,,,,,,,,,,,,,,,,,,,,,,,,,,,,,,,,,,,,,,,,,,,,,,,,,,,,,,,,,,,,,,,,,,,,,,,,,,,,,,,,,,,,,,,,,,,,,,,,,,,,,,,,,
,,5c60e5371115b4000140fb07,2023-12-14_20h04.42.289,kallum_motion_pilot,2023.2.3,Win32,144.9275362,5c60e5371115b4000140fb07,657bb317c8798c6608bceb3f,657bb41fd6d61e0ddbc39450,0.0219,0.0219,0,131,131,30,1,fourtwo,,,,,,,,,,,,,,,,,,,,,,,,,,,,,,,,,,,,,,,,,,,,,,,,,,,,,,,,,,,,,,,,,,,,,,,,,,,,,,,,,,,,,,,,,,,,,,,,,,,,,,,,,,,,,,,,,,,,,,,,,,,,,,,,,,,,,,,
,,5c60e5371115b4000140fb07,2023-12-14_20h04.42.289,kallum_motion_pilot,2023.2.3,Win32,144.9275362,5c60e5371115b4000140fb07,657bb317c8798c6608bceb3f,657bb41fd6d61e0ddbc39450,0.022,0.0221,0,132,132,131,1,sixeight,,,,,,,,,,,,,,,,,,,,,,,,,,,,,,,,,,,,,,,,,,,,,,,,,,,,,,,,,,,,,,,,,,,,,,,,,,,,,,,,,,,,,,,,,,,,,,,,,,,,,,,,,,,,,,,,,,,,,,,,,,,,,,,,,,,,,,,
,,5c60e5371115b4000140fb07,2023-12-14_20h04.42.289,kallum_motion_pilot,2023.2.3,Win32,144.9275362,5c60e5371115b4000140fb07,657bb317c8798c6608bceb3f,657bb41fd6d61e0ddbc39450,0.0221,0.0221,0,133,133,12,1,threeone,,,,,,,,,,,,,,,,,,,,,,,,,,,,,,,,,,,,,,,,,,,,,,,,,,,,,,,,,,,,,,,,,,,,,,,,,,,,,,,,,,,,,,,,,,,,,,,,,,,,,,,,,,,,,,,,,,,,,,,,,,,,,,,,,,,,,,,
,,5c60e5371115b4000140fb07,2023-12-14_20h04.42.289,kallum_motion_pilot,2023.2.3,Win32,144.9275362,5c60e5371115b4000140fb07,657bb317c8798c6608bceb3f,657bb41fd6d61e0ddbc39450,0.0221,0.0222,0,134,134,1,1,onethree,,,,,,,,,,,,,,,,,,,,,,,,,,,,,,,,,,,,,,,,,,,,,,,,,,,,,,,,,,,,,,,,,,,,,,,,,,,,,,,,,,,,,,,,,,,,,,,,,,,,,,,,,,,,,,,,,,,,,,,,,,,,,,,,,,,,,,,
,,5c60e5371115b4000140fb07,2023-12-14_20h04.42.289,kallum_motion_pilot,2023.2.3,Win32,144.9275362,5c60e5371115b4000140fb07,657bb317c8798c6608bceb3f,657bb41fd6d61e0ddbc39450,0.0222,0.0222,0,135,135,116,1,sevenfive,,,,,,,,,,,,,,,,,,,,,,,,,,,,,,,,,,,,,,,,,,,,,,,,,,,,,,,,,,,,,,,,,,,,,,,,,,,,,,,,,,,,,,,,,,,,,,,,,,,,,,,,,,,,,,,,,,,,,,,,,,,,,,,,,,,,,,,
,,5c60e5371115b4000140fb07,2023-12-14_20h04.42.289,kallum_motion_pilot,2023.2.3,Win32,144.9275362,5c60e5371115b4000140fb07,657bb317c8798c6608bceb3f,657bb41fd6d61e0ddbc39450,0.0222,0.0223,0,136,136,105,1,fiveseven,,,,,,,,,,,,,,,,,,,,,,,,,,,,,,,,,,,,,,,,,,,,,,,,,,,,,,,,,,,,,,,,,,,,,,,,,,,,,,,,,,,,,,,,,,,,,,,,,,,,,,,,,,,,,,,,,,,,,,,,,,,,,,,,,,,,,,,
,,5c60e5371115b4000140fb07,2023-12-14_20h04.42.289,kallum_motion_pilot,2023.2.3,Win32,144.9275362,5c60e5371115b4000140fb07,657bb317c8798c6608bceb3f,657bb41fd6d61e0ddbc39450,0.0223,0.0223,0,137,137,76,1,threeone,,,,,,,,,,,,,,,,,,,,,,,,,,,,,,,,,,,,,,,,,,,,,,,,,,,,,,,,,,,,,,,,,,,,,,,,,,,,,,,,,,,,,,,,,,,,,,,,,,,,,,,,,,,,,,,,,,,,,,,,,,,,,,,,,,,,,,,
,,5c60e5371115b4000140fb07,2023-12-14_20h04.42.289,kallum_motion_pilot,2023.2.3,Win32,144.9275362,5c60e5371115b4000140fb07,657bb317c8798c6608bceb3f,657bb41fd6d61e0ddbc39450,0.0224,0.0224,0,138,138,108,1,sevenfive,,,,,,,,,,,,,,,,,,,,,,,,,,,,,,,,,,,,,,,,,,,,,,,,,,,,,,,,,,,,,,,,,,,,,,,,,,,,,,,,,,,,,,,,,,,,,,,,,,,,,,,,,,,,,,,,,,,,,,,,,,,,,,,,,,,,,,,
,,5c60e5371115b4000140fb07,2023-12-14_20h04.42.289,kallum_motion_pilot,2023.2.3,Win32,144.9275362,5c60e5371115b4000140fb07,657bb317c8798c6608bceb3f,657bb41fd6d61e0ddbc39450,0.0225,0.0225,0,139,139,68,1,threeone,,,,,,,,,,,,,,,,,,,,,,,,,,,,,,,,,,,,,,,,,,,,,,,,,,,,,,,,,,,,,,,,,,,,,,,,,,,,,,,,,,,,,,,,,,,,,,,,,,,,,,,,,,,,,,,,,,,,,,,,,,,,,,,,,,,,,,,
,,5c60e5371115b4000140fb07,2023-12-14_20h04.42.289,kallum_motion_pilot,2023.2.3,Win32,144.9275362,5c60e5371115b4000140fb07,657bb317c8798c6608bceb3f,657bb41fd6d61e0ddbc39450,0.0226,0.0226,0,140,140,128,1,fivesix,,,,,,,,,,,,,,,,,,,,,,,,,,,,,,,,,,,,,,,,,,,,,,,,,,,,,,,,,,,,,,,,,,,,,,,,,,,,,,,,,,,,,,,,,,,,,,,,,,,,,,,,,,,,,,,,,,,,,,,,,,,,,,,,,,,,,,,
,,5c60e5371115b4000140fb07,2023-12-14_20h04.42.289,kallum_motion_pilot,2023.2.3,Win32,144.9275362,5c60e5371115b4000140fb07,657bb317c8798c6608bceb3f,657bb41fd6d61e0ddbc39450,0.0226,0.0226,0,141,141,80,1,fivesix,,,,,,,,,,,,,,,,,,,,,,,,,,,,,,,,,,,,,,,,,,,,,,,,,,,,,,,,,,,,,,,,,,,,,,,,,,,,,,,,,,,,,,,,,,,,,,,,,,,,,,,,,,,,,,,,,,,,,,,,,,,,,,,,,,,,,,,
,,5c60e5371115b4000140fb07,2023-12-14_20h04.42.289,kallum_motion_pilot,2023.2.3,Win32,144.9275362,5c60e5371115b4000140fb07,657bb317c8798c6608bceb3f,657bb41fd6d61e0ddbc39450,0.0227,0.0227,0,142,142,27,1,twofour,,,,,,,,,,,,,,,,,,,,,,,,,,,,,,,,,,,,,,,,,,,,,,,,,,,,,,,,,,,,,,,,,,,,,,,,,,,,,,,,,,,,,,,,,,,,,,,,,,,,,,,,,,,,,,,,,,,,,,,,,,,,,,,,,,,,,,,
,,5c60e5371115b4000140fb07,2023-12-14_20h04.42.289,kallum_motion_pilot,2023.2.3,Win32,144.9275362,5c60e5371115b4000140fb07,657bb317c8798c6608bceb3f,657bb41fd6d61e0ddbc39450,0.0227,0.0228,0,143,143,77,1,threefour,,,,,,,,,,,,,,,,,,,,,,,,,,,,,,,,,,,,,,,,,,,,,,,,,,,,,,,,,,,,,,,,,,,,,,,,,,,,,,,,,,,,,,,,,,,,,,,,,,,,,,,,,,,,,,,,,,,,,,,,,,,,,,,,,,,,,,,
,,5c60e5371115b4000140fb07,2023-12-14_20h04.42.289,kallum_motion_pilot,2023.2.3,Win32,144.9275362,5c60e5371115b4000140fb07,657bb317c8798c6608bceb3f,657bb41fd6d61e0ddbc39450,0.0228,0.0228,0,144,144,16,1,onetwo,,,,,,,,,,,,,,,,,,,,,,,,,,,,,,,,,,,,,,,,,,,,,,,,,,,,,,,,,,,,,,,,,,,,,,,,,,,,,,,,,,,,,,,,,,,,,,,,,,,,,,,,,,,,,,,,,,,,,,,,,,,,,,,,,,,,,,,
,,5c60e5371115b4000140fb07,2023-12-14_20h04.42.289,kallum_motion_pilot,2023.2.3,Win32,144.9275362,5c60e5371115b4000140fb07,657bb317c8798c6608bceb3f,657bb41fd6d61e0ddbc39450,0.0228,0.0229,0,145,145,111,1,eightseven,,,,,,,,,,,,,,,,,,,,,,,,,,,,,,,,,,,,,,,,,,,,,,,,,,,,,,,,,,,,,,,,,,,,,,,,,,,,,,,,,,,,,,,,,,,,,,,,,,,,,,,,,,,,,,,,,,,,,,,,,,,,,,,,,,,,,,,
,,5c60e5371115b4000140fb07,2023-12-14_20h04.42.289,kallum_motion_pilot,2023.2.3,Win32,144.9275362,5c60e5371115b4000140fb07,657bb317c8798c6608bceb3f,657bb41fd6d61e0ddbc39450,0.023,0.023,0,146,146,65,1,onethree,,,,,,,,,,,,,,,,,,,,,,,,,,,,,,,,,,,,,,,,,,,,,,,,,,,,,,,,,,,,,,,,,,,,,,,,,,,,,,,,,,,,,,,,,,,,,,,,,,,,,,,,,,,,,,,,,,,,,,,,,,,,,,,,,,,,,,,
,,5c60e5371115b4000140fb07,2023-12-14_20h04.42.289,kallum_motion_pilot,2023.2.3,Win32,144.9275362,5c60e5371115b4000140fb07,657bb317c8798c6608bceb3f,657bb41fd6d61e0ddbc39450,0.023,0.023,0,147,147,11,1,twofour,,,,,,,,,,,,,,,,,,,,,,,,,,,,,,,,,,,,,,,,,,,,,,,,,,,,,,,,,,,,,,,,,,,,,,,,,,,,,,,,,,,,,,,,,,,,,,,,,,,,,,,,,,,,,,,,,,,,,,,,,,,,,,,,,,,,,,,
,,5c60e5371115b4000140fb07,2023-12-14_20h04.42.289,kallum_motion_pilot,2023.2.3,Win32,144.9275362,5c60e5371115b4000140fb07,657bb317c8798c6608bceb3f,657bb41fd6d61e0ddbc39450,0.0231,0.0231,0,148,148,125,1,seveneight,,,,,,,,,,,,,,,,,,,,,,,,,,,,,,,,,,,,,,,,,,,,,,,,,,,,,,,,,,,,,,,,,,,,,,,,,,,,,,,,,,,,,,,,,,,,,,,,,,,,,,,,,,,,,,,,,,,,,,,,,,,,,,,,,,,,,,,
,,5c60e5371115b4000140fb07,2023-12-14_20h04.42.289,kallum_motion_pilot,2023.2.3,Win32,144.9275362,5c60e5371115b4000140fb07,657bb317c8798c6608bceb3f,657bb41fd6d61e0ddbc39450,0.0232,0.0232,0,149,149,138,1,sixfive,,,,,,,,,,,,,,,,,,,,,,,,,,,,,,,,,,,,,,,,,,,,,,,,,,,,,,,,,,,,,,,,,,,,,,,,,,,,,,,,,,,,,,,,,,,,,,,,,,,,,,,,,,,,,,,,,,,,,,,,,,,,,,,,,,,,,,,
,,5c60e5371115b4000140fb07,2023-12-14_20h04.42.289,kallum_motion_pilot,2023.2.3,Win32,144.9275362,5c60e5371115b4000140fb07,657bb317c8798c6608bceb3f,657bb41fd6d61e0ddbc39450,0.0232,0.0232,0,150,150,130,1,sixfive,,,,,,,,,,,,,,,,,,,,,,,,,,,,,,,,,,,,,,,,,,,,,,,,,,,,,,,,,,,,,,,,,,,,,,,,,,,,,,,,,,,,,,,,,,,,,,,,,,,,,,,,,,,,,,,,,,,,,,,,,,,,,,,,,,,,,,,
,,5c60e5371115b4000140fb07,2023-12-14_20h04.42.289,kallum_motion_pilot,2023.2.3,Win32,144.9275362,5c60e5371115b4000140fb07,657bb317c8798c6608bceb3f,657bb41fd6d61e0ddbc39450,0.0233,0.0233,0,151,151,149,1,seveneight,,,,,,,,,,,,,,,,,,,,,,,,,,,,,,,,,,,,,,,,,,,,,,,,,,,,,,,,,,,,,,,,,,,,,,,,,,,,,,,,,,,,,,,,,,,,,,,,,,,,,,,,,,,,,,,,,,,,,,,,,,,,,,,,,,,,,,,
,,5c60e5371115b4000140fb07,2023-12-14_20h04.42.289,kallum_motion_pilot,2023.2.3,Win32,144.9275362,5c60e5371115b4000140fb07,657bb317c8798c6608bceb3f,657bb41fd6d61e0ddbc39450,0.0233,0.0233,0,152,152,156,1,sevenfive,,,,,,,,,,,,,,,,,,,,,,,,,,,,,,,,,,,,,,,,,,,,,,,,,,,,,,,,,,,,,,,,,,,,,,,,,,,,,,,,,,,,,,,,,,,,,,,,,,,,,,,,,,,,,,,,,,,,,,,,,,,,,,,,,,,,,,,
,,5c60e5371115b4000140fb07,2023-12-14_20h04.42.289,kallum_motion_pilot,2023.2.3,Win32,144.9275362,5c60e5371115b4000140fb07,657bb317c8798c6608bceb3f,657bb41fd6d61e0ddbc39450,0.0234,0.0234,0,153,153,73,1,onethree,,,,,,,,,,,,,,,,,,,,,,,,,,,,,,,,,,,,,,,,,,,,,,,,,,,,,,,,,,,,,,,,,,,,,,,,,,,,,,,,,,,,,,,,,,,,,,,,,,,,,,,,,,,,,,,,,,,,,,,,,,,,,,,,,,,,,,,
,,5c60e5371115b4000140fb07,2023-12-14_20h04.42.289,kallum_motion_pilot,2023.2.3,Win32,144.9275362,5c60e5371115b4000140fb07,657bb317c8798c6608bceb3f,657bb41fd6d61e0ddbc39450,0.0235,0.0235,0,154,154,154,1,sixfive,,,,,,,,,,,,,,,,,,,,,,,,,,,,,,,,,,,,,,,,,,,,,,,,,,,,,,,,,,,,,,,,,,,,,,,,,,,,,,,,,,,,,,,,,,,,,,,,,,,,,,,,,,,,,,,,,,,,,,,,,,,,,,,,,,,,,,,
,,5c60e5371115b4000140fb07,2023-12-14_20h04.42.289,kallum_motion_pilot,2023.2.3,Win32,144.9275362,5c60e5371115b4000140fb07,657bb317c8798c6608bceb3f,657bb41fd6d61e0ddbc39450,0.0236,0.0236,0,155,155,153,1,fiveseven,,,,,,,,,,,,,,,,,,,,,,,,,,,,,,,,,,,,,,,,,,,,,,,,,,,,,,,,,,,,,,,,,,,,,,,,,,,,,,,,,,,,,,,,,,,,,,,,,,,,,,,,,,,,,,,,,,,,,,,,,,,,,,,,,,,,,,,
,,5c60e5371115b4000140fb07,2023-12-14_20h04.42.289,kallum_motion_pilot,2023.2.3,Win32,144.9275362,5c60e5371115b4000140fb07,657bb317c8798c6608bceb3f,657bb41fd6d61e0ddbc39450,0.0236,0.0236,0,156,156,71,1,fourthree,,,,,,,,,,,,,,,,,,,,,,,,,,,,,,,,,,,,,,,,,,,,,,,,,,,,,,,,,,,,,,,,,,,,,,,,,,,,,,,,,,,,,,,,,,,,,,,,,,,,,,,,,,,,,,,,,,,,,,,,,,,,,,,,,,,,,,,
,,5c60e5371115b4000140fb07,2023-12-14_20h04.42.289,kallum_motion_pilot,2023.2.3,Win32,144.9275362,5c60e5371115b4000140fb07,657bb317c8798c6608bceb3f,657bb41fd6d61e0ddbc39450,0.0236,0.0237,0,157,157,63,1,fourthree,,,,,,,,,,,,,,,,,,,,,,,,,,,,,,,,,,,,,,,,,,,,,,,,,,,,,,,,,,,,,,,,,,,,,,,,,,,,,,,,,,,,,,,,,,,,,,,,,,,,,,,,,,,,,,,,,,,,,,,,,,,,,,,,,,,,,,,
,,5c60e5371115b4000140fb07,2023-12-14_20h04.42.289,kallum_motion_pilot,2023.2.3,Win32,144.9275362,5c60e5371115b4000140fb07,657bb317c8798c6608bceb3f,657bb41fd6d61e0ddbc39450,0.0238,0.0238,0,158,158,37,1,threefour,,,,,,,,,,,,,,,,,,,,,,,,,,,,,,,,,,,,,,,,,,,,,,,,,,,,,,,,,,,,,,,,,,,,,,,,,,,,,,,,,,,,,,,,,,,,,,,,,,,,,,,,,,,,,,,,,,,,,,,,,,,,,,,,,,,,,,,
,,5c60e5371115b4000140fb07,2023-12-14_20h04.42.289,kallum_motion_pilot,2023.2.3,Win32,144.9275362,5c60e5371115b4000140fb07,657bb317c8798c6608bceb3f,657bb41fd6d61e0ddbc39450,0.0238,0.0239,0,159,159,35,1,twofour,,,,,,,,,,,,,,,,,,,,,,,,,,,,,,,,,,,,,,,,,,,,,,,,,,,,,,,,,,,,,,,,,,,,,,,,,,,,,,,,,,,,,,,,,,,,,,,,,,,,,,,,,,,,,,,,,,,,,,,,,,,,,,,,,,,,,,,
,,5c60e5371115b4000140fb07,2023-12-14_20h04.42.289,kallum_motion_pilot,2023.2.3,Win32,144.9275362,5c60e5371115b4000140fb07,657bb317c8798c6608bceb3f,657bb41fd6d61e0ddbc39450,0.0239,0.024,0,160,160,61,1,threefour,,,,,,,,,,,,,,,,,,,,,,,,,,,,,,,,,,,,,,,,,,,,,,,,,,,,,,,,,,,,,,,,,,,,,,,,,,,,,,,,,,,,,,,,,,,,,,,,,,,,,,,,,,,,,,,,,,,,,,,,,,,,,,,,,,,,,,,
,,5c60e5371115b4000140fb07,2023-12-14_20h04.42.289,kallum_motion_pilot,2023.2.3,Win32,144.9275362,5c60e5371115b4000140fb07,657bb317c8798c6608bceb3f,657bb41fd6d61e0ddbc39450,0.024,0.024,0,161,161,36,1,threeone,,,,,,,,,,,,,,,,,,,,,,,,,,,,,,,,,,,,,,,,,,,,,,,,,,,,,,,,,,,,,,,,,,,,,,,,,,,,,,,,,,,,,,,,,,,,,,,,,,,,,,,,,,,,,,,,,,,,,,,,,,,,,,,,,,,,,,,
,,5c60e5371115b4000140fb07,2023-12-14_20h04.42.289,kallum_motion_pilot,2023.2.3,Win32,144.9275362,5c60e5371115b4000140fb07,657bb317c8798c6608bceb3f,657bb41fd6d61e0ddbc39450,0.024,0.024,1,0,162,87,1,eightseven,,,,,,,,,,,,,,,,,,,,,,,,,,,,,,,,,,,,,,,,,,,,,,,,,,,,,,,,,,,,,,,,,,,,,,,,,,,,,,,,,,,,,,,,,,,,,,,,,,,,,,,,,,,,,,,,,,,,,,,,,,,,,,,,,,,,,,,
,,5c60e5371115b4000140fb07,2023-12-14_20h04.42.289,kallum_motion_pilot,2023.2.3,Win32,144.9275362,5c60e5371115b4000140fb07,657bb317c8798c6608bceb3f,657bb41fd6d61e0ddbc39450,0.0241,0.0241,1,1,163,23,1,fourthree,,,,,,,,,,,,,,,,,,,,,,,,,,,,,,,,,,,,,,,,,,,,,,,,,,,,,,,,,,,,,,,,,,,,,,,,,,,,,,,,,,,,,,,,,,,,,,,,,,,,,,,,,,,,,,,,,,,,,,,,,,,,,,,,,,,,,,,
,,5c60e5371115b4000140fb07,2023-12-14_20h04.42.289,kallum_motion_pilot,2023.2.3,Win32,144.9275362,5c60e5371115b4000140fb07,657bb317c8798c6608bceb3f,657bb41fd6d61e0ddbc39450,0.0242,0.0242,1,2,164,21,1,threefour,,,,,,,,,,,,,,,,,,,,,,,,,,,,,,,,,,,,,,,,,,,,,,,,,,,,,,,,,,,,,,,,,,,,,,,,,,,,,,,,,,,,,,,,,,,,,,,,,,,,,,,,,,,,,,,,,,,,,,,,,,,,,,,,,,,,,,,
,,5c60e5371115b4000140fb07,2023-12-14_20h04.42.289,kallum_motion_pilot,2023.2.3,Win32,144.9275362,5c60e5371115b4000140fb07,657bb317c8798c6608bceb3f,657bb41fd6d61e0ddbc39450,0.0242,0.0243,1,3,165,56,1,onetwo,,,,,,,,,,,,,,,,,,,,,,,,,,,,,,,,,,,,,,,,,,,,,,,,,,,,,,,,,,,,,,,,,,,,,,,,,,,,,,,,,,,,,,,,,,,,,,,,,,,,,,,,,,,,,,,,,,,,,,,,,,,,,,,,,,,,,,,
,,5c60e5371115b4000140fb07,2023-12-14_20h04.42.289,kallum_motion_pilot,2023.2.3,Win32,144.9275362,5c60e5371115b4000140fb07,657bb317c8798c6608bceb3f,657bb41fd6d61e0ddbc39450,0.0244,0.0244,1,4,166,158,1,eightsix,,,,,,,,,,,,,,,,,,,,,,,,,,,,,,,,,,,,,,,,,,,,,,,,,,,,,,,,,,,,,,,,,,,,,,,,,,,,,,,,,,,,,,,,,,,,,,,,,,,,,,,,,,,,,,,,,,,,,,,,,,,,,,,,,,,,,,,
,,5c60e5371115b4000140fb07,2023-12-14_20h04.42.289,kallum_motion_pilot,2023.2.3,Win32,144.9275362,5c60e5371115b4000140fb07,657bb317c8798c6608bceb3f,657bb41fd6d61e0ddbc39450,0.0244,0.0244,1,5,167,18,1,twoone,,,,,,,,,,,,,,,,,,,,,,,,,,,,,,,,,,,,,,,,,,,,,,,,,,,,,,,,,,,,,,,,,,,,,,,,,,,,,,,,,,,,,,,,,,,,,,,,,,,,,,,,,,,,,,,,,,,,,,,,,,,,,,,,,,,,,,,
,,5c60e5371115b4000140fb07,2023-12-14_20h04.42.289,kallum_motion_pilot,2023.2.3,Win32,144.9275362,5c60e5371115b4000140fb07,657bb317c8798c6608bceb3f,657bb41fd6d61e0ddbc39450,0.0244,0.0244,1,6,168,160,1,fivesix,,,,,,,,,,,,,,,,,,,,,,,,,,,,,,,,,,,,,,,,,,,,,,,,,,,,,,,,,,,,,,,,,,,,,,,,,,,,,,,,,,,,,,,,,,,,,,,,,,,,,,,,,,,,,,,,,,,,,,,,,,,,,,,,,,,,,,,
,,5c60e5371115b4000140fb07,2023-12-14_20h04.42.289,kallum_motion_pilot,2023.2.3,Win32,144.9275362,5c60e5371115b4000140fb07,657bb317c8798c6608bceb3f,657bb41fd6d61e0ddbc39450,0.0245,0.0245,1,7,169,90,1,sixfive,,,,,,,,,,,,,,,,,,,,,,,,,,,,,,,,,,,,,,,,,,,,,,,,,,,,,,,,,,,,,,,,,,,,,,,,,,,,,,,,,,,,,,,,,,,,,,,,,,,,,,,,,,,,,,,,,,,,,,,,,,,,,,,,,,,,,,,
,,5c60e5371115b4000140fb07,2023-12-14_20h04.42.289,kallum_motion_pilot,2023.2.3,Win32,144.9275362,5c60e5371115b4000140fb07,657bb317c8798c6608bceb3f,657bb41fd6d61e0ddbc39450,0.0247,0.0247,1,8,170,161,1,fiveseven,,,,,,,,,,,,,,,,,,,,,,,,,,,,,,,,,,,,,,,,,,,,,,,,,,,,,,,,,,,,,,,,,,,,,,,,,,,,,,,,,,,,,,,,,,,,,,,,,,,,,,,,,,,,,,,,,,,,,,,,,,,,,,,,,,,,,,,
,,5c60e5371115b4000140fb07,2023-12-14_20h04.42.289,kallum_motion_pilot,2023.2.3,Win32,144.9275362,5c60e5371115b4000140fb07,657bb317c8798c6608bceb3f,657bb41fd6d61e0ddbc39450,0.0247,0.0247,1,9,171,30,1,fourtwo,,,,,,,,,,,,,,,,,,,,,,,,,,,,,,,,,,,,,,,,,,,,,,,,,,,,,,,,,,,,,,,,,,,,,,,,,,,,,,,,,,,,,,,,,,,,,,,,,,,,,,,,,,,,,,,,,,,,,,,,,,,,,,,,,,,,,,,
,,5c60e5371115b4000140fb07,2023-12-14_20h04.42.289,kallum_motion_pilot,2023.2.3,Win32,144.9275362,5c60e5371115b4000140fb07,657bb317c8798c6608bceb3f,657bb41fd6d61e0ddbc39450,0.0247,0.0247,1,10,172,66,1,twoone,,,,,,,,,,,,,,,,,,,,,,,,,,,,,,,,,,,,,,,,,,,,,,,,,,,,,,,,,,,,,,,,,,,,,,,,,,,,,,,,,,,,,,,,,,,,,,,,,,,,,,,,,,,,,,,,,,,,,,,,,,,,,,,,,,,,,,,
,,5c60e5371115b4000140fb07,2023-12-14_20h04.42.289,kallum_motion_pilot,2023.2.3,Win32,144.9275362,5c60e5371115b4000140fb07,657bb317c8798c6608bceb3f,657bb41fd6d61e0ddbc39450,0.0248,0.0249,1,11,173,85,1,seveneight,,,,,,,,,,,,,,,,,,,,,,,,,,,,,,,,,,,,,,,,,,,,,,,,,,,,,,,,,,,,,,,,,,,,,,,,,,,,,,,,,,,,,,,,,,,,,,,,,,,,,,,,,,,,,,,,,,,,,,,,,,,,,,,,,,,,,,,
,,5c60e5371115b4000140fb07,2023-12-14_20h04.42.289,kallum_motion_pilot,2023.2.3,Win32,144.9275362,5c60e5371115b4000140fb07,657bb317c8798c6608bceb3f,657bb41fd6d61e0ddbc39450,0.0249,0.0249,1,12,174,50,1,twoone,,,,,,,,,,,,,,,,,,,,,,,,,,,,,,,,,,,,,,,,,,,,,,,,,,,,,,,,,,,,,,,,,,,,,,,,,,,,,,,,,,,,,,,,,,,,,,,,,,,,,,,,,,,,,,,,,,,,,,,,,,,,,,,,,,,,,,,
,,5c60e5371115b4000140fb07,2023-12-14_20h04.42.289,kallum_motion_pilot,2023.2.3,Win32,144.9275362,5c60e5371115b4000140fb07,657bb317c8798c6608bceb3f,657bb41fd6d61e0ddbc39450,0.0249,0.025,1,13,175,99,1,sixeight,,,,,,,,,,,,,,,,,,,,,,,,,,,,,,,,,,,,,,,,,,,,,,,,,,,,,,,,,,,,,,,,,,,,,,,,,,,,,,,,,,,,,,,,,,,,,,,,,,,,,,,,,,,,,,,,,,,,,,,,,,,,,,,,,,,,,,,
,,5c60e5371115b4000140fb07,2023-12-14_20h04.42.289,kallum_motion_pilot,2023.2.3,Win32,144.9275362,5c60e5371115b4000140fb07,657bb317c8798c6608bceb3f,657bb41fd6d61e0ddbc39450,0.0251,0.0251,1,14,176,91,1,sixeight,,,,,,,,,,,,,,,,,,,,,,,,,,,,,,,,,,,,,,,,,,,,,,,,,,,,,,,,,,,,,,,,,,,,,,,,,,,,,,,,,,,,,,,,,,,,,,,,,,,,,,,,,,,,,,,,,,,,,,,,,,,,,,,,,,,,,,,
,,5c60e5371115b4000140fb07,2023-12-14_20h04.42.289,kallum_motion_pilot,2023.2.3,Win32,144.9275362,5c60e5371115b4000140fb07,657bb317c8798c6608bceb3f,657bb41fd6d61e0ddbc39450,0.0251,0.0251,1,15,177,70,1,fourtwo,,,,,,,,,,,,,,,,,,,,,,,,,,,,,,,,,,,,,,,,,,,,,,,,,,,,,,,,,,,,,,,,,,,,,,,,,,,,,,,,,,,,,,,,,,,,,,,,,,,,,,,,,,,,,,,,,,,,,,,,,,,,,,,,,,,,,,,
,,5c60e5371115b4000140fb07,2023-12-14_20h04.42.289,kallum_motion_pilot,2023.2.3,Win32,144.9275362,5c60e5371115b4000140fb07,657bb317c8798c6608bceb3f,657bb41fd6d61e0ddbc39450,0.0252,0.0253,1,16,178,117,1,seveneight,,,,,,,,,,,,,,,,,,,,,,,,,,,,,,,,,,,,,,,,,,,,,,,,,,,,,,,,,,,,,,,,,,,,,,,,,,,,,,,,,,,,,,,,,,,,,,,,,,,,,,,,,,,,,,,,,,,,,,,,,,,,,,,,,,,,,,,
,,5c60e5371115b4000140fb07,2023-12-14_20h04.42.289,kallum_motion_pilot,2023.2.3,Win32,144.9275362,5c60e5371115b4000140fb07,657bb317c8798c6608bceb3f,657bb41fd6d61e0ddbc39450,0.0253,0.0253,1,17,179,8,1,onetwo,,,,,,,,,,,,,,,,,,,,,,,,,,,,,,,,,,,,,,,,,,,,,,,,,,,,,,,,,,,,,,,,,,,,,,,,,,,,,,,,,,,,,,,,,,,,,,,,,,,,,,,,,,,,,,,,,,,,,,,,,,,,,,,,,,,,,,,
,,5c60e5371115b4000140fb07,2023-12-14_20h04.42.289,kallum_motion_pilot,2023.2.3,Win32,144.9275362,5c60e5371115b4000140fb07,657bb317c8798c6608bceb3f,657bb41fd6d61e0ddbc39450,0.0254,0.0254,1,18,180,135,1,eightseven,,,,,,,,,,,,,,,,,,,,,,,,,,,,,,,,,,,,,,,,,,,,,,,,,,,,,,,,,,,,,,,,,,,,,,,,,,,,,,,,,,,,,,,,,,,,,,,,,,,,,,,,,,,,,,,,,,,,,,,,,,,,,,,,,,,,,,,
,,5c60e5371115b4000140fb07,2023-12-14_20h04.42.289,kallum_motion_pilot,2023.2.3,Win32,144.9275362,5c60e5371115b4000140fb07,657bb317c8798c6608bceb3f,657bb41fd6d61e0ddbc39450,0.0254,0.0254,1,19,181,128,1,fivesix,,,,,,,,,,,,,,,,,,,,,,,,,,,,,,,,,,,,,,,,,,,,,,,,,,,,,,,,,,,,,,,,,,,,,,,,,,,,,,,,,,,,,,,,,,,,,,,,,,,,,,,,,,,,,,,,,,,,,,,,,,,,,,,,,,,,,,,
,,5c60e5371115b4000140fb07,2023-12-14_20h04.42.289,kallum_motion_pilot,2023.2.3,Win32,144.9275362,5c60e5371115b4000140fb07,657bb317c8798c6608bceb3f,657bb41fd6d61e0ddbc39450,0.0255,0.0255,1,20,182,119,1,eightseven,,,,,,,,,,,,,,,,,,,,,,,,,,,,,,,,,,,,,,,,,,,,,,,,,,,,,,,,,,,,,,,,,,,,,,,,,,,,,,,,,,,,,,,,,,,,,,,,,,,,,,,,,,,,,,,,,,,,,,,,,,,,,,,,,,,,,,,
,,5c60e5371115b4000140fb07,2023-12-14_20h04.42.289,kallum_motion_pilot,2023.2.3,Win32,144.9275362,5c60e5371115b4000140fb07,657bb317c8798c6608bceb3f,657bb41fd6d61e0ddbc39450,0.0255,0.0256,1,21,183,7,1,fourthree,,,,,,,,,,,,,,,,,,,,,,,,,,,,,,,,,,,,,,,,,,,,,,,,,,,,,,,,,,,,,,,,,,,,,,,,,,,,,,,,,,,,,,,,,,,,,,,,,,,,,,,,,,,,,,,,,,,,,,,,,,,,,,,,,,,,,,,
,,5c60e5371115b4000140fb07,2023-12-14_20h04.42.289,kallum_motion_pilot,2023.2.3,Win32,144.9275362,5c60e5371115b4000140fb07,657bb317c8798c6608bceb3f,657bb41fd6d61e0ddbc39450,0.0256,0.0257,1,22,184,41,1,onethree,,,,,,,,,,,,,,,,,,,,,,,,,,,,,,,,,,,,,,,,,,,,,,,,,,,,,,,,,,,,,,,,,,,,,,,,,,,,,,,,,,,,,,,,,,,,,,,,,,,,,,,,,,,,,,,,,,,,,,,,,,,,,,,,,,,,,,,
,,5c60e5371115b4000140fb07,2023-12-14_20h04.42.289,kallum_motion_pilot,2023.2.3,Win32,144.9275362,5c60e5371115b4000140fb07,657bb317c8798c6608bceb3f,657bb41fd6d61e0ddbc39450,0.0257,0.0257,1,23,185,81,1,fiveseven,,,,,,,,,,,,,,,,,,,,,,,,,,,,,,,,,,,,,,,,,,,,,,,,,,,,,,,,,,,,,,,,,,,,,,,,,,,,,,,,,,,,,,,,,,,,,,,,,,,,,,,,,,,,,,,,,,,,,,,,,,,,,,,,,,,,,,,
,,5c60e5371115b4000140fb07,2023-12-14_20h04.42.289,kallum_motion_pilot,2023.2.3,Win32,144.9275362,5c60e5371115b4000140fb07,657bb317c8798c6608bceb3f,657bb41fd6d61e0ddbc39450,0.0257,0.0258,1,24,186,149,1,seveneight,,,,,,,,,,,,,,,,,,,,,,,,,,,,,,,,,,,,,,,,,,,,,,,,,,,,,,,,,,,,,,,,,,,,,,,,,,,,,,,,,,,,,,,,,,,,,,,,,,,,,,,,,,,,,,,,,,,,,,,,,,,,,,,,,,,,,,,
,,5c60e5371115b4000140fb07,2023-12-14_20h04.42.289,kallum_motion_pilot,2023.2.3,Win32,144.9275362,5c60e5371115b4000140fb07,657bb317c8798c6608bceb3f,657bb41fd6d61e0ddbc39450,0.0259,0.0259,1,25,187,58,1,twoone,,,,,,,,,,,,,,,,,,,,,,,,,,,,,,,,,,,,,,,,,,,,,,,,,,,,,,,,,,,,,,,,,,,,,,,,,,,,,,,,,,,,,,,,,,,,,,,,,,,,,,,,,,,,,,,,,,,,,,,,,,,,,,,,,,,,,,,
,,5c60e5371115b4000140fb07,2023-12-14_20h04.42.289,kallum_motion_pilot,2023.2.3,Win32,144.9275362,5c60e5371115b4000140fb07,657bb317c8798c6608bceb3f,657bb41fd6d61e0ddbc39450,0.0259,0.0259,1,26,188,80,1,fivesix,,,,,,,,,,,,,,,,,,,,,,,,,,,,,,,,,,,,,,,,,,,,,,,,,,,,,,,,,,,,,,,,,,,,,,,,,,,,,,,,,,,,,,,,,,,,,,,,,,,,,,,,,,,,,,,,,,,,,,,,,,,,,,,,,,,,,,,
,,5c60e5371115b4000140fb07,2023-12-14_20h04.42.289,kallum_motion_pilot,2023.2.3,Win32,144.9275362,5c60e5371115b4000140fb07,657bb317c8798c6608bceb3f,657bb41fd6d61e0ddbc39450,0.026,0.026,1,27,189,102,1,eightsix,,,,,,,,,,,,,,,,,,,,,,,,,,,,,,,,,,,,,,,,,,,,,,,,,,,,,,,,,,,,,,,,,,,,,,,,,,,,,,,,,,,,,,,,,,,,,,,,,,,,,,,,,,,,,,,,,,,,,,,,,,,,,,,,,,,,,,,
,,5c60e5371115b4000140fb07,2023-12-14_20h04.42.289,kallum_motion_pilot,2023.2.3,Win32,144.9275362,5c60e5371115b4000140fb07,657bb317c8798c6608bceb3f,657bb41fd6d61e0ddbc39450,0.0261,0.0261,1,28,190,94,1,eightsix,,,,,,,,,,,,,,,,,,,,,,,,,,,,,,,,,,,,,,,,,,,,,,,,,,,,,,,,,,,,,,,,,,,,,,,,,,,,,,,,,,,,,,,,,,,,,,,,,,,,,,,,,,,,,,,,,,,,,,,,,,,,,,,,,,,,,,,
,,5c60e5371115b4000140fb07,2023-12-14_20h04.42.289,kallum_motion_pilot,2023.2.3,Win32,144.9275362,5c60e5371115b4000140fb07,657bb317c8798c6608bceb3f,657bb41fd6d61e0ddbc39450,0.0262,0.0263,1,29,191,20,1,threeone,,,,,,,,,,,,,,,,,,,,,,,,,,,,,,,,,,,,,,,,,,,,,,,,,,,,,,,,,,,,,,,,,,,,,,,,,,,,,,,,,,,,,,,,,,,,,,,,,,,,,,,,,,,,,,,,,,,,,,,,,,,,,,,,,,,,,,,
,,5c60e5371115b4000140fb07,2023-12-14_20h04.42.289,kallum_motion_pilot,2023.2.3,Win32,144.9275362,5c60e5371115b4000140fb07,657bb317c8798c6608bceb3f,657bb41fd6d61e0ddbc39450,0.0263,0.0263,1,30,192,45,1,threefour,,,,,,,,,,,,,,,,,,,,,,,,,,,,,,,,,,,,,,,,,,,,,,,,,,,,,,,,,,,,,,,,,,,,,,,,,,,,,,,,,,,,,,,,,,,,,,,,,,,,,,,,,,,,,,,,,,,,,,,,,,,,,,,,,,,,,,,
,,5c60e5371115b4000140fb07,2023-12-14_20h04.42.289,kallum_motion_pilot,2023.2.3,Win32,144.9275362,5c60e5371115b4000140fb07,657bb317c8798c6608bceb3f,657bb41fd6d61e0ddbc39450,0.0263,0.0263,1,31,193,121,1,fiveseven,,,,,,,,,,,,,,,,,,,,,,,,,,,,,,,,,,,,,,,,,,,,,,,,,,,,,,,,,,,,,,,,,,,,,,,,,,,,,,,,,,,,,,,,,,,,,,,,,,,,,,,,,,,,,,,,,,,,,,,,,,,,,,,,,,,,,,,
,,5c60e5371115b4000140fb07,2023-12-14_20h04.42.289,kallum_motion_pilot,2023.2.3,Win32,144.9275362,5c60e5371115b4000140fb07,657bb317c8798c6608bceb3f,657bb41fd6d61e0ddbc39450,0.0264,0.0264,1,32,194,43,1,twofour,,,,,,,,,,,,,,,,,,,,,,,,,,,,,,,,,,,,,,,,,,,,,,,,,,,,,,,,,,,,,,,,,,,,,,,,,,,,,,,,,,,,,,,,,,,,,,,,,,,,,,,,,,,,,,,,,,,,,,,,,,,,,,,,,,,,,,,
,,5c60e5371115b4000140fb07,2023-12-14_20h04.42.289,kallum_motion_pilot,2023.2.3,Win32,144.9275362,5c60e5371115b4000140fb07,657bb317c8798c6608bceb3f,657bb41fd6d61e0ddbc39450,0.0264,0.0265,1,33,195,144,1,fivesix,,,,,,,,,,,,,,,,,,,,,,,,,,,,,,,,,,,,,,,,,,,,,,,,,,,,,,,,,,,,,,,,,,,,,,,,,,,,,,,,,,,,,,,,,,,,,,,,,,,,,,,,,,,,,,,,,,,,,,,,,,,,,,,,,,,,,,,
,,5c60e5371115b4000140fb07,2023-12-14_20h04.42.289,kallum_motion_pilot,2023.2.3,Win32,144.9275362,5c60e5371115b4000140fb07,657bb317c8798c6608bceb3f,657bb41fd6d61e0ddbc39450,0.0266,0.0266,1,34,196,74,1,twoone,,,,,,,,,,,,,,,,,,,,,,,,,,,,,,,,,,,,,,,,,,,,,,,,,,,,,,,,,,,,,,,,,,,,,,,,,,,,,,,,,,,,,,,,,,,,,,,,,,,,,,,,,,,,,,,,,,,,,,,,,,,,,,,,,,,,,,,
,,5c60e5371115b4000140fb07,2023-12-14_20h04.42.289,kallum_motion_pilot,2023.2.3,Win32,144.9275362,5c60e5371115b4000140fb07,657bb317c8798c6608bceb3f,657bb41fd6d61e0ddbc39450,0.0266,0.0266,1,35,197,131,1,sixeight,,,,,,,,,,,,,,,,,,,,,,,,,,,,,,,,,,,,,,,,,,,,,,,,,,,,,,,,,,,,,,,,,,,,,,,,,,,,,,,,,,,,,,,,,,,,,,,,,,,,,,,,,,,,,,,,,,,,,,,,,,,,,,,,,,,,,,,
,,5c60e5371115b4000140fb07,2023-12-14_20h04.42.289,kallum_motion_pilot,2023.2.3,Win32,144.9275362,5c60e5371115b4000140fb07,657bb317c8798c6608bceb3f,657bb41fd6d61e0ddbc39450,0.0266,0.0267,1,36,198,145,1,fiveseven,,,,,,,,,,,,,,,,,,,,,,,,,,,,,,,,,,,,,,,,,,,,,,,,,,,,,,,,,,,,,,,,,,,,,,,,,,,,,,,,,,,,,,,,,,,,,,,,,,,,,,,,,,,,,,,,,,,,,,,,,,,,,,,,,,,,,,,
,,5c60e5371115b4000140fb07,2023-12-14_20h04.42.289,kallum_motion_pilot,2023.2.3,Win32,144.9275362,5c60e5371115b4000140fb07,657bb317c8798c6608bceb3f,657bb41fd6d61e0ddbc39450,0.0267,0.0268,1,37,199,104,1,fivesix,,,,,,,,,,,,,,,,,,,,,,,,,,,,,,,,,,,,,,,,,,,,,,,,,,,,,,,,,,,,,,,,,,,,,,,,,,,,,,,,,,,,,,,,,,,,,,,,,,,,,,,,,,,,,,,,,,,,,,,,,,,,,,,,,,,,,,,
,,5c60e5371115b4000140fb07,2023-12-14_20h04.42.289,kallum_motion_pilot,2023.2.3,Win32,144.9275362,5c60e5371115b4000140fb07,657bb317c8798c6608bceb3f,657bb41fd6d61e0ddbc39450,0.0268,0.0268,1,38,200,139,1,sixeight,,,,,,,,,,,,,,,,,,,,,,,,,,,,,,,,,,,,,,,,,,,,,,,,,,,,,,,,,,,,,,,,,,,,,,,,,,,,,,,,,,,,,,,,,,,,,,,,,,,,,,,,,,,,,,,,,,,,,,,,,,,,,,,,,,,,,,,
,,5c60e5371115b4000140fb07,2023-12-14_20h04.42.289,kallum_motion_pilot,2023.2.3,Win32,144.9275362,5c60e5371115b4000140fb07,657bb317c8798c6608bceb3f,657bb41fd6d61e0ddbc39450,0.0269,0.027,1,39,201,11,1,twofour,,,,,,,,,,,,,,,,,,,,,,,,,,,,,,,,,,,,,,,,,,,,,,,,,,,,,,,,,,,,,,,,,,,,,,,,,,,,,,,,,,,,,,,,,,,,,,,,,,,,,,,,,,,,,,,,,,,,,,,,,,,,,,,,,,,,,,,
,,5c60e5371115b4000140fb07,2023-12-14_20h04.42.289,kallum_motion_pilot,2023.2.3,Win32,144.9275362,5c60e5371115b4000140fb07,657bb317c8798c6608bceb3f,657bb41fd6d61e0ddbc39450,0.027,0.027,1,40,202,14,1,fourtwo,,,,,,,,,,,,,,,,,,,,,,,,,,,,,,,,,,,,,,,,,,,,,,,,,,,,,,,,,,,,,,,,,,,,,,,,,,,,,,,,,,,,,,,,,,,,,,,,,,,,,,,,,,,,,,,,,,,,,,,,,,,,,,,,,,,,,,,
,,5c60e5371115b4000140fb07,2023-12-14_20h04.42.289,kallum_motion_pilot,2023.2.3,Win32,144.9275362,5c60e5371115b4000140fb07,657bb317c8798c6608bceb3f,657bb41fd6d61e0ddbc39450,0.0271,0.0271,1,41,203,22,1,fourtwo,,,,,,,,,,,,,,,,,,,,,,,,,,,,,,,,,,,,,,,,,,,,,,,,,,,,,,,,,,,,,,,,,,,,,,,,,,,,,,,,,,,,,,,,,,,,,,,,,,,,,,,,,,,,,,,,,,,,,,,,,,,,,,,,,,,,,,,
,,5c60e5371115b4000140fb07,2023-12-14_20h04.42.289,kallum_motion_pilot,2023.2.3,Win32,144.9275362,5c60e5371115b4000140fb07,657bb317c8798c6608bceb3f,657bb41fd6d61e0ddbc39450,0.0272,0.0272,1,42,204,31,1,fourthree,,,,,,,,,,,,,,,,,,,,,,,,,,,,,,,,,,,,,,,,,,,,,,,,,,,,,,,,,,,,,,,,,,,,,,,,,,,,,,,,,,,,,,,,,,,,,,,,,,,,,,,,,,,,,,,,,,,,,,,,,,,,,,,,,,,,,,,
,,5c60e5371115b4000140fb07,2023-12-14_20h04.42.289,kallum_motion_pilot,2023.2.3,Win32,144.9275362,5c60e5371115b4000140fb07,657bb317c8798c6608bceb3f,657bb41fd6d61e0ddbc39450,0.0272,0.0273,1,43,205,110,1,eightsix,,,,,,,,,,,,,,,,,,,,,,,,,,,,,,,,,,,,,,,,,,,,,,,,,,,,,,,,,,,,,,,,,,,,,,,,,,,,,,,,,,,,,,,,,,,,,,,,,,,,,,,,,,,,,,,,,,,,,,,,,,,,,,,,,,,,,,,
,,5c60e5371115b4000140fb07,2023-12-14_20h04.42.289,kallum_motion_pilot,2023.2.3,Win32,144.9275362,5c60e5371115b4000140fb07,657bb317c8798c6608bceb3f,657bb41fd6d61e0ddbc39450,0.0273,0.0273,1,44,206,157,1,seveneight,,,,,,,,,,,,,,,,,,,,,,,,,,,,,,,,,,,,,,,,,,,,,,,,,,,,,,,,,,,,,,,,,,,,,,,,,,,,,,,,,,,,,,,,,,,,,,,,,,,,,,,,,,,,,,,,,,,,,,,,,,,,,,,,,,,,,,,
,,5c60e5371115b4000140fb07,2023-12-14_20h04.42.289,kallum_motion_pilot,2023.2.3,Win32,144.9275362,5c60e5371115b4000140fb07,657bb317c8798c6608bceb3f,657bb41fd6d61e0ddbc39450,0.0273,0.0274,1,45,207,151,1,eightseven,,,,,,,,,,,,,,,,,,,,,,,,,,,,,,,,,,,,,,,,,,,,,,,,,,,,,,,,,,,,,,,,,,,,,,,,,,,,,,,,,,,,,,,,,,,,,,,,,,,,,,,,,,,,,,,,,,,,,,,,,,,,,,,,,,,,,,,
,,5c60e5371115b4000140fb07,2023-12-14_20h04.42.289,kallum_motion_pilot,2023.2.3,Win32,144.9275362,5c60e5371115b4000140fb07,657bb317c8798c6608bceb3f,657bb41fd6d61e0ddbc39450,0.0274,0.0274,1,46,208,107,1,sixeight,,,,,,,,,,,,,,,,,,,,,,,,,,,,,,,,,,,,,,,,,,,,,,,,,,,,,,,,,,,,,,,,,,,,,,,,,,,,,,,,,,,,,,,,,,,,,,,,,,,,,,,,,,,,,,,,,,,,,,,,,,,,,,,,,,,,,,,
,,5c60e5371115b4000140fb07,2023-12-14_20h04.42.289,kallum_motion_pilot,2023.2.3,Win32,144.9275362,5c60e5371115b4000140fb07,657bb317c8798c6608bceb3f,657bb41fd6d61e0ddbc39450,0.0275,0.0275,1,47,209,46,1,fourtwo,,,,,,,,,,,,,,,,,,,,,,,,,,,,,,,,,,,,,,,,,,,,,,,,,,,,,,,,,,,,,,,,,,,,,,,,,,,,,,,,,,,,,,,,,,,,,,,,,,,,,,,,,,,,,,,,,,,,,,,,,,,,,,,,,,,,,,,
,,5c60e5371115b4000140fb07,2023-12-14_20h04.42.289,kallum_motion_pilot,2023.2.3,Win32,144.9275362,5c60e5371115b4000140fb07,657bb317c8798c6608bceb3f,657bb41fd6d61e0ddbc39450,0.0276,0.0276,1,48,210,36,1,threeone,,,,,,,,,,,,,,,,,,,,,,,,,,,,,,,,,,,,,,,,,,,,,,,,,,,,,,,,,,,,,,,,,,,,,,,,,,,,,,,,,,,,,,,,,,,,,,,,,,,,,,,,,,,,,,,,,,,,,,,,,,,,,,,,,,,,,,,
,,5c60e5371115b4000140fb07,2023-12-14_20h04.42.289,kallum_motion_pilot,2023.2.3,Win32,144.9275362,5c60e5371115b4000140fb07,657bb317c8798c6608bceb3f,657bb41fd6d61e0ddbc39450,0.0276,0.0278,1,49,211,132,1,sevenfive,,,,,,,,,,,,,,,,,,,,,,,,,,,,,,,,,,,,,,,,,,,,,,,,,,,,,,,,,,,,,,,,,,,,,,,,,,,,,,,,,,,,,,,,,,,,,,,,,,,,,,,,,,,,,,,,,,,,,,,,,,,,,,,,,,,,,,,
,,5c60e5371115b4000140fb07,2023-12-14_20h04.42.289,kallum_motion_pilot,2023.2.3,Win32,144.9275362,5c60e5371115b4000140fb07,657bb317c8798c6608bceb3f,657bb41fd6d61e0ddbc39450,0.0278,0.0279,1,50,212,65,1,onethree,,,,,,,,,,,,,,,,,,,,,,,,,,,,,,,,,,,,,,,,,,,,,,,,,,,,,,,,,,,,,,,,,,,,,,,,,,,,,,,,,,,,,,,,,,,,,,,,,,,,,,,,,,,,,,,,,,,,,,,,,,,,,,,,,,,,,,,
,,5c60e5371115b4000140fb07,2023-12-14_20h04.42.289,kallum_motion_pilot,2023.2.3,Win32,144.9275362,5c60e5371115b4000140fb07,657bb317c8798c6608bceb3f,657bb41fd6d61e0ddbc39450,0.0279,0.028,1,51,213,3,1,twofour,,,,,,,,,,,,,,,,,,,,,,,,,,,,,,,,,,,,,,,,,,,,,,,,,,,,,,,,,,,,,,,,,,,,,,,,,,,,,,,,,,,,,,,,,,,,,,,,,,,,,,,,,,,,,,,,,,,,,,,,,,,,,,,,,,,,,,,
,,5c60e5371115b4000140fb07,2023-12-14_20h04.42.289,kallum_motion_pilot,2023.2.3,Win32,144.9275362,5c60e5371115b4000140fb07,657bb317c8798c6608bceb3f,657bb41fd6d61e0ddbc39450,0.028,0.028,1,52,214,101,1,seveneight,,,,,,,,,,,,,,,,,,,,,,,,,,,,,,,,,,,,,,,,,,,,,,,,,,,,,,,,,,,,,,,,,,,,,,,,,,,,,,,,,,,,,,,,,,,,,,,,,,,,,,,,,,,,,,,,,,,,,,,,,,,,,,,,,,,,,,,
,,5c60e5371115b4000140fb07,2023-12-14_20h04.42.289,kallum_motion_pilot,2023.2.3,Win32,144.9275362,5c60e5371115b4000140fb07,657bb317c8798c6608bceb3f,657bb41fd6d61e0ddbc39450,0.0281,0.0281,1,53,215,63,1,fourthree,,,,,,,,,,,,,,,,,,,,,,,,,,,,,,,,,,,,,,,,,,,,,,,,,,,,,,,,,,,,,,,,,,,,,,,,,,,,,,,,,,,,,,,,,,,,,,,,,,,,,,,,,,,,,,,,,,,,,,,,,,,,,,,,,,,,,,,
,,5c60e5371115b4000140fb07,2023-12-14_20h04.42.289,kallum_motion_pilot,2023.2.3,Win32,144.9275362,5c60e5371115b4000140fb07,657bb317c8798c6608bceb3f,657bb41fd6d61e0ddbc39450,0.0281,0.0281,1,54,216,35,1,twofour,,,,,,,,,,,,,,,,,,,,,,,,,,,,,,,,,,,,,,,,,,,,,,,,,,,,,,,,,,,,,,,,,,,,,,,,,,,,,,,,,,,,,,,,,,,,,,,,,,,,,,,,,,,,,,,,,,,,,,,,,,,,,,,,,,,,,,,
,,5c60e5371115b4000140fb07,2023-12-14_20h04.42.289,kallum_motion_pilot,2023.2.3,Win32,144.9275362,5c60e5371115b4000140fb07,657bb317c8798c6608bceb3f,657bb41fd6d61e0ddbc39450,0.0283,0.0283,1,55,217,52,1,threeone,,,,,,,,,,,,,,,,,,,,,,,,,,,,,,,,,,,,,,,,,,,,,,,,,,,,,,,,,,,,,,,,,,,,,,,,,,,,,,,,,,,,,,,,,,,,,,,,,,,,,,,,,,,,,,,,,,,,,,,,,,,,,,,,,,,,,,,
,,5c60e5371115b4000140fb07,2023-12-14_20h04.42.289,kallum_motion_pilot,2023.2.3,Win32,144.9275362,5c60e5371115b4000140fb07,657bb317c8798c6608bceb3f,657bb41fd6d61e0ddbc39450,0.0284,0.0284,1,56,218,42,1,twoone,,,,,,,,,,,,,,,,,,,,,,,,,,,,,,,,,,,,,,,,,,,,,,,,,,,,,,,,,,,,,,,,,,,,,,,,,,,,,,,,,,,,,,,,,,,,,,,,,,,,,,,,,,,,,,,,,,,,,,,,,,,,,,,,,,,,,,,
,,5c60e5371115b4000140fb07,2023-12-14_20h04.42.289,kallum_motion_pilot,2023.2.3,Win32,144.9275362,5c60e5371115b4000140fb07,657bb317c8798c6608bceb3f,657bb41fd6d61e0ddbc39450,0.0285,0.0286,1,57,219,82,1,sixfive,,,,,,,,,,,,,,,,,,,,,,,,,,,,,,,,,,,,,,,,,,,,,,,,,,,,,,,,,,,,,,,,,,,,,,,,,,,,,,,,,,,,,,,,,,,,,,,,,,,,,,,,,,,,,,,,,,,,,,,,,,,,,,,,,,,,,,,
,,5c60e5371115b4000140fb07,2023-12-14_20h04.42.289,kallum_motion_pilot,2023.2.3,Win32,144.9275362,5c60e5371115b4000140fb07,657bb317c8798c6608bceb3f,657bb41fd6d61e0ddbc39450,0.0287,0.0287,1,58,220,39,1,fourthree,,,,,,,,,,,,,,,,,,,,,,,,,,,,,,,,,,,,,,,,,,,,,,,,,,,,,,,,,,,,,,,,,,,,,,,,,,,,,,,,,,,,,,,,,,,,,,,,,,,,,,,,,,,,,,,,,,,,,,,,,,,,,,,,,,,,,,,
,,5c60e5371115b4000140fb07,2023-12-14_20h04.42.289,kallum_motion_pilot,2023.2.3,Win32,144.9275362,5c60e5371115b4000140fb07,657bb317c8798c6608bceb3f,657bb41fd6d61e0ddbc39450,0.0288,0.0289,1,59,221,25,1,onethree,,,,,,,,,,,,,,,,,,,,,,,,,,,,,,,,,,,,,,,,,,,,,,,,,,,,,,,,,,,,,,,,,,,,,,,,,,,,,,,,,,,,,,,,,,,,,,,,,,,,,,,,,,,,,,,,,,,,,,,,,,,,,,,,,,,,,,,
,,5c60e5371115b4000140fb07,2023-12-14_20h04.42.289,kallum_motion_pilot,2023.2.3,Win32,144.9275362,5c60e5371115b4000140fb07,657bb317c8798c6608bceb3f,657bb41fd6d61e0ddbc39450,0.0289,0.0289,1,60,222,76,1,threeone,,,,,,,,,,,,,,,,,,,,,,,,,,,,,,,,,,,,,,,,,,,,,,,,,,,,,,,,,,,,,,,,,,,,,,,,,,,,,,,,,,,,,,,,,,,,,,,,,,,,,,,,,,,,,,,,,,,,,,,,,,,,,,,,,,,,,,,
,,5c60e5371115b4000140fb07,2023-12-14_20h04.42.289,kallum_motion_pilot,2023.2.3,Win32,144.9275362,5c60e5371115b4000140fb07,657bb317c8798c6608bceb3f,657bb41fd6d61e0ddbc39450,0.0289,0.029,1,61,223,12,1,threeone,,,,,,,,,,,,,,,,,,,,,,,,,,,,,,,,,,,,,,,,,,,,,,,,,,,,,,,,,,,,,,,,,,,,,,,,,,,,,,,,,,,,,,,,,,,,,,,,,,,,,,,,,,,,,,,,,,,,,,,,,,,,,,,,,,,,,,,
,,5c60e5371115b4000140fb07,2023-12-14_20h04.42.289,kallum_motion_pilot,2023.2.3,Win32,144.9275362,5c60e5371115b4000140fb07,657bb317c8798c6608bceb3f,657bb41fd6d61e0ddbc39450,0.0291,0.0291,1,62,224,114,1,sixfive,,,,,,,,,,,,,,,,,,,,,,,,,,,,,,,,,,,,,,,,,,,,,,,,,,,,,,,,,,,,,,,,,,,,,,,,,,,,,,,,,,,,,,,,,,,,,,,,,,,,,,,,,,,,,,,,,,,,,,,,,,,,,,,,,,,,,,,
,,5c60e5371115b4000140fb07,2023-12-14_20h04.42.289,kallum_motion_pilot,2023.2.3,Win32,144.9275362,5c60e5371115b4000140fb07,657bb317c8798c6608bceb3f,657bb41fd6d61e0ddbc39450,0.0291,0.0292,1,63,225,111,1,eightseven,,,,,,,,,,,,,,,,,,,,,,,,,,,,,,,,,,,,,,,,,,,,,,,,,,,,,,,,,,,,,,,,,,,,,,,,,,,,,,,,,,,,,,,,,,,,,,,,,,,,,,,,,,,,,,,,,,,,,,,,,,,,,,,,,,,,,,,
,,5c60e5371115b4000140fb07,2023-12-14_20h04.42.289,kallum_motion_pilot,2023.2.3,Win32,144.9275362,5c60e5371115b4000140fb07,657bb317c8798c6608bceb3f,657bb41fd6d61e0ddbc39450,0.0292,0.0292,1,64,226,15,1,fourthree,,,,,,,,,,,,,,,,,,,,,,,,,,,,,,,,,,,,,,,,,,,,,,,,,,,,,,,,,,,,,,,,,,,,,,,,,,,,,,,,,,,,,,,,,,,,,,,,,,,,,,,,,,,,,,,,,,,,,,,,,,,,,,,,,,,,,,,
,,5c60e5371115b4000140fb07,2023-12-14_20h04.42.289,kallum_motion_pilot,2023.2.3,Win32,144.9275362,5c60e5371115b4000140fb07,657bb317c8798c6608bceb3f,657bb41fd6d61e0ddbc39450,0.0293,0.0293,1,65,227,95,1,eightseven,,,,,,,,,,,,,,,,,,,,,,,,,,,,,,,,,,,,,,,,,,,,,,,,,,,,,,,,,,,,,,,,,,,,,,,,,,,,,,,,,,,,,,,,,,,,,,,,,,,,,,,,,,,,,,,,,,,,,,,,,,,,,,,,,,,,,,,
,,5c60e5371115b4000140fb07,2023-12-14_20h04.42.289,kallum_motion_pilot,2023.2.3,Win32,144.9275362,5c60e5371115b4000140fb07,657bb317c8798c6608bceb3f,657bb41fd6d61e0ddbc39450,0.0295,0.0295,1,66,228,75,1,twofour,,,,,,,,,,,,,,,,,,,,,,,,,,,,,,,,,,,,,,,,,,,,,,,,,,,,,,,,,,,,,,,,,,,,,,,,,,,,,,,,,,,,,,,,,,,,,,,,,,,,,,,,,,,,,,,,,,,,,,,,,,,,,,,,,,,,,,,
,,5c60e5371115b4000140fb07,2023-12-14_20h04.42.289,kallum_motion_pilot,2023.2.3,Win32,144.9275362,5c60e5371115b4000140fb07,657bb317c8798c6608bceb3f,657bb41fd6d61e0ddbc39450,0.0296,0.0296,1,67,229,51,1,twofour,,,,,,,,,,,,,,,,,,,,,,,,,,,,,,,,,,,,,,,,,,,,,,,,,,,,,,,,,,,,,,,,,,,,,,,,,,,,,,,,,,,,,,,,,,,,,,,,,,,,,,,,,,,,,,,,,,,,,,,,,,,,,,,,,,,,,,,
,,5c60e5371115b4000140fb07,2023-12-14_20h04.42.289,kallum_motion_pilot,2023.2.3,Win32,144.9275362,5c60e5371115b4000140fb07,657bb317c8798c6608bceb3f,657bb41fd6d61e0ddbc39450,0.0296,0.0296,1,68,230,147,1,sixeight,,,,,,,,,,,,,,,,,,,,,,,,,,,,,,,,,,,,,,,,,,,,,,,,,,,,,,,,,,,,,,,,,,,,,,,,,,,,,,,,,,,,,,,,,,,,,,,,,,,,,,,,,,,,,,,,,,,,,,,,,,,,,,,,,,,,,,,
,,5c60e5371115b4000140fb07,2023-12-14_20h04.42.289,kallum_motion_pilot,2023.2.3,Win32,144.9275362,5c60e5371115b4000140fb07,657bb317c8798c6608bceb3f,657bb41fd6d61e0ddbc39450,0.0298,0.0298,1,69,231,64,1,onetwo,,,,,,,,,,,,,,,,,,,,,,,,,,,,,,,,,,,,,,,,,,,,,,,,,,,,,,,,,,,,,,,,,,,,,,,,,,,,,,,,,,,,,,,,,,,,,,,,,,,,,,,,,,,,,,,,,,,,,,,,,,,,,,,,,,,,,,,
,,5c60e5371115b4000140fb07,2023-12-14_20h04.42.289,kallum_motion_pilot,2023.2.3,Win32,144.9275362,5c60e5371115b4000140fb07,657bb317c8798c6608bceb3f,657bb41fd6d61e0ddbc39450,0.0298,0.0298,1,70,232,103,1,eightseven,,,,,,,,,,,,,,,,,,,,,,,,,,,,,,,,,,,,,,,,,,,,,,,,,,,,,,,,,,,,,,,,,,,,,,,,,,,,,,,,,,,,,,,,,,,,,,,,,,,,,,,,,,,,,,,,,,,,,,,,,,,,,,,,,,,,,,,
,,5c60e5371115b4000140fb07,2023-12-14_20h04.42.289,kallum_motion_pilot,2023.2.3,Win32,144.9275362,5c60e5371115b4000140fb07,657bb317c8798c6608bceb3f,657bb41fd6d61e0ddbc39450,0.0298,0.03,1,71,233,143,1,eightseven,,,,,,,,,,,,,,,,,,,,,,,,,,,,,,,,,,,,,,,,,,,,,,,,,,,,,,,,,,,,,,,,,,,,,,,,,,,,,,,,,,,,,,,,,,,,,,,,,,,,,,,,,,,,,,,,,,,,,,,,,,,,,,,,,,,,,,,
,,5c60e5371115b4000140fb07,2023-12-14_20h04.42.289,kallum_motion_pilot,2023.2.3,Win32,144.9275362,5c60e5371115b4000140fb07,657bb317c8798c6608bceb3f,657bb41fd6d61e0ddbc39450,0.03,0.03,1,72,234,86,1,eightsix,,,,,,,,,,,,,,,,,,,,,,,,,,,,,,,,,,,,,,,,,,,,,,,,,,,,,,,,,,,,,,,,,,,,,,,,,,,,,,,,,,,,,,,,,,,,,,,,,,,,,,,,,,,,,,,,,,,,,,,,,,,,,,,,,,,,,,,
,,5c60e5371115b4000140fb07,2023-12-14_20h04.42.289,kallum_motion_pilot,2023.2.3,Win32,144.9275362,5c60e5371115b4000140fb07,657bb317c8798c6608bceb3f,657bb41fd6d61e0ddbc39450,0.03,0.0301,1,73,235,24,1,onetwo,,,,,,,,,,,,,,,,,,,,,,,,,,,,,,,,,,,,,,,,,,,,,,,,,,,,,,,,,,,,,,,,,,,,,,,,,,,,,,,,,,,,,,,,,,,,,,,,,,,,,,,,,,,,,,,,,,,,,,,,,,,,,,,,,,,,,,,
,,5c60e5371115b4000140fb07,2023-12-14_20h04.42.289,kallum_motion_pilot,2023.2.3,Win32,144.9275362,5c60e5371115b4000140fb07,657bb317c8798c6608bceb3f,657bb41fd6d61e0ddbc39450,0.0301,0.0301,1,74,236,13,1,threefour,,,,,,,,,,,,,,,,,,,,,,,,,,,,,,,,,,,,,,,,,,,,,,,,,,,,,,,,,,,,,,,,,,,,,,,,,,,,,,,,,,,,,,,,,,,,,,,,,,,,,,,,,,,,,,,,,,,,,,,,,,,,,,,,,,,,,,,
,,5c60e5371115b4000140fb07,2023-12-14_20h04.42.289,kallum_motion_pilot,2023.2.3,Win32,144.9275362,5c60e5371115b4000140fb07,657bb317c8798c6608bceb3f,657bb41fd6d61e0ddbc39450,0.0302,0.0303,1,75,237,108,1,sevenfive,,,,,,,,,,,,,,,,,,,,,,,,,,,,,,,,,,,,,,,,,,,,,,,,,,,,,,,,,,,,,,,,,,,,,,,,,,,,,,,,,,,,,,,,,,,,,,,,,,,,,,,,,,,,,,,,,,,,,,,,,,,,,,,,,,,,,,,
,,5c60e5371115b4000140fb07,2023-12-14_20h04.42.289,kallum_motion_pilot,2023.2.3,Win32,144.9275362,5c60e5371115b4000140fb07,657bb317c8798c6608bceb3f,657bb41fd6d61e0ddbc39450,0.0303,0.0303,1,76,238,37,1,threefour,,,,,,,,,,,,,,,,,,,,,,,,,,,,,,,,,,,,,,,,,,,,,,,,,,,,,,,,,,,,,,,,,,,,,,,,,,,,,,,,,,,,,,,,,,,,,,,,,,,,,,,,,,,,,,,,,,,,,,,,,,,,,,,,,,,,,,,
,,5c60e5371115b4000140fb07,2023-12-14_20h04.42.289,kallum_motion_pilot,2023.2.3,Win32,144.9275362,5c60e5371115b4000140fb07,657bb317c8798c6608bceb3f,657bb41fd6d61e0ddbc39450,0.0303,0.0303,1,77,239,6,1,fourtwo,,,,,,,,,,,,,,,,,,,,,,,,,,,,,,,,,,,,,,,,,,,,,,,,,,,,,,,,,,,,,,,,,,,,,,,,,,,,,,,,,,,,,,,,,,,,,,,,,,,,,,,,,,,,,,,,,,,,,,,,,,,,,,,,,,,,,,,
,,5c60e5371115b4000140fb07,2023-12-14_20h04.42.289,kallum_motion_pilot,2023.2.3,Win32,144.9275362,5c60e5371115b4000140fb07,657bb317c8798c6608bceb3f,657bb41fd6d61e0ddbc39450,0.0304,0.0305,1,78,240,124,1,sevenfive,,,,,,,,,,,,,,,,,,,,,,,,,,,,,,,,,,,,,,,,,,,,,,,,,,,,,,,,,,,,,,,,,,,,,,,,,,,,,,,,,,,,,,,,,,,,,,,,,,,,,,,,,,,,,,,,,,,,,,,,,,,,,,,,,,,,,,,
,,5c60e5371115b4000140fb07,2023-12-14_20h04.42.289,kallum_motion_pilot,2023.2.3,Win32,144.9275362,5c60e5371115b4000140fb07,657bb317c8798c6608bceb3f,657bb41fd6d61e0ddbc39450,0.0305,0.0305,1,79,241,93,1,seveneight,,,,,,,,,,,,,,,,,,,,,,,,,,,,,,,,,,,,,,,,,,,,,,,,,,,,,,,,,,,,,,,,,,,,,,,,,,,,,,,,,,,,,,,,,,,,,,,,,,,,,,,,,,,,,,,,,,,,,,,,,,,,,,,,,,,,,,,
,,5c60e5371115b4000140fb07,2023-12-14_20h04.42.289,kallum_motion_pilot,2023.2.3,Win32,144.9275362,5c60e5371115b4000140fb07,657bb317c8798c6608bceb3f,657bb41fd6d61e0ddbc39450,0.0306,0.0306,1,80,242,138,1,sixfive,,,,,,,,,,,,,,,,,,,,,,,,,,,,,,,,,,,,,,,,,,,,,,,,,,,,,,,,,,,,,,,,,,,,,,,,,,,,,,,,,,,,,,,,,,,,,,,,,,,,,,,,,,,,,,,,,,,,,,,,,,,,,,,,,,,,,,,
,,5c60e5371115b4000140fb07,2023-12-14_20h04.42.289,kallum_motion_pilot,2023.2.3,Win32,144.9275362,5c60e5371115b4000140fb07,657bb317c8798c6608bceb3f,657bb41fd6d61e0ddbc39450,0.0307,0.0307,1,81,243,155,1,sixeight,,,,,,,,,,,,,,,,,,,,,,,,,,,,,,,,,,,,,,,,,,,,,,,,,,,,,,,,,,,,,,,,,,,,,,,,,,,,,,,,,,,,,,,,,,,,,,,,,,,,,,,,,,,,,,,,,,,,,,,,,,,,,,,,,,,,,,,
,,5c60e5371115b4000140fb07,2023-12-14_20h04.42.289,kallum_motion_pilot,2023.2.3,Win32,144.9275362,5c60e5371115b4000140fb07,657bb317c8798c6608bceb3f,657bb41fd6d61e0ddbc39450,0.0307,0.0307,1,82,244,89,1,fiveseven,,,,,,,,,,,,,,,,,,,,,,,,,,,,,,,,,,,,,,,,,,,,,,,,,,,,,,,,,,,,,,,,,,,,,,,,,,,,,,,,,,,,,,,,,,,,,,,,,,,,,,,,,,,,,,,,,,,,,,,,,,,,,,,,,,,,,,,
,,5c60e5371115b4000140fb07,2023-12-14_20h04.42.289,kallum_motion_pilot,2023.2.3,Win32,144.9275362,5c60e5371115b4000140fb07,657bb317c8798c6608bceb3f,657bb41fd6d61e0ddbc39450,0.0308,0.0308,1,83,245,77,1,threefour,,,,,,,,,,,,,,,,,,,,,,,,,,,,,,,,,,,,,,,,,,,,,,,,,,,,,,,,,,,,,,,,,,,,,,,,,,,,,,,,,,,,,,,,,,,,,,,,,,,,,,,,,,,,,,,,,,,,,,,,,,,,,,,,,,,,,,,
,,5c60e5371115b4000140fb07,2023-12-14_20h04.42.289,kallum_motion_pilot,2023.2.3,Win32,144.9275362,5c60e5371115b4000140fb07,657bb317c8798c6608bceb3f,657bb41fd6d61e0ddbc39450,0.0308,0.0309,1,84,246,28,1,threeone,,,,,,,,,,,,,,,,,,,,,,,,,,,,,,,,,,,,,,,,,,,,,,,,,,,,,,,,,,,,,,,,,,,,,,,,,,,,,,,,,,,,,,,,,,,,,,,,,,,,,,,,,,,,,,,,,,,,,,,,,,,,,,,,,,,,,,,
,,5c60e5371115b4000140fb07,2023-12-14_20h04.42.289,kallum_motion_pilot,2023.2.3,Win32,144.9275362,5c60e5371115b4000140fb07,657bb317c8798c6608bceb3f,657bb41fd6d61e0ddbc39450,0.0309,0.031,1,85,247,61,1,threefour,,,,,,,,,,,,,,,,,,,,,,,,,,,,,,,,,,,,,,,,,,,,,,,,,,,,,,,,,,,,,,,,,,,,,,,,,,,,,,,,,,,,,,,,,,,,,,,,,,,,,,,,,,,,,,,,,,,,,,,,,,,,,,,,,,,,,,,
,,5c60e5371115b4000140fb07,2023-12-14_20h04.42.289,kallum_motion_pilot,2023.2.3,Win32,144.9275362,5c60e5371115b4000140fb07,657bb317c8798c6608bceb3f,657bb41fd6d61e0ddbc39450,0.031,0.031,1,86,248,38,1,fourtwo,,,,,,,,,,,,,,,,,,,,,,,,,,,,,,,,,,,,,,,,,,,,,,,,,,,,,,,,,,,,,,,,,,,,,,,,,,,,,,,,,,,,,,,,,,,,,,,,,,,,,,,,,,,,,,,,,,,,,,,,,,,,,,,,,,,,,,,
,,5c60e5371115b4000140fb07,2023-12-14_20h04.42.289,kallum_motion_pilot,2023.2.3,Win32,144.9275362,5c60e5371115b4000140fb07,657bb317c8798c6608bceb3f,657bb41fd6d61e0ddbc39450,0.0311,0.0311,1,87,249,17,1,onethree,,,,,,,,,,,,,,,,,,,,,,,,,,,,,,,,,,,,,,,,,,,,,,,,,,,,,,,,,,,,,,,,,,,,,,,,,,,,,,,,,,,,,,,,,,,,,,,,,,,,,,,,,,,,,,,,,,,,,,,,,,,,,,,,,,,,,,,
,,5c60e5371115b4000140fb07,2023-12-14_20h04.42.289,kallum_motion_pilot,2023.2.3,Win32,144.9275362,5c60e5371115b4000140fb07,657bb317c8798c6608bceb3f,657bb41fd6d61e0ddbc39450,0.0311,0.0312,1,88,250,98,1,sixfive,,,,,,,,,,,,,,,,,,,,,,,,,,,,,,,,,,,,,,,,,,,,,,,,,,,,,,,,,,,,,,,,,,,,,,,,,,,,,,,,,,,,,,,,,,,,,,,,,,,,,,,,,,,,,,,,,,,,,,,,,,,,,,,,,,,,,,,
,,5c60e5371115b4000140fb07,2023-12-14_20h04.42.289,kallum_motion_pilot,2023.2.3,Win32,144.9275362,5c60e5371115b4000140fb07,657bb317c8798c6608bceb3f,657bb41fd6d61e0ddbc39450,0.0312,0.0313,1,89,251,129,1,fiveseven,,,,,,,,,,,,,,,,,,,,,,,,,,,,,,,,,,,,,,,,,,,,,,,,,,,,,,,,,,,,,,,,,,,,,,,,,,,,,,,,,,,,,,,,,,,,,,,,,,,,,,,,,,,,,,,,,,,,,,,,,,,,,,,,,,,,,,,
,,5c60e5371115b4000140fb07,2023-12-14_20h04.42.289,kallum_motion_pilot,2023.2.3,Win32,144.9275362,5c60e5371115b4000140fb07,657bb317c8798c6608bceb3f,657bb41fd6d61e0ddbc39450,0.0313,0.0314,1,90,252,154,1,sixfive,,,,,,,,,,,,,,,,,,,,,,,,,,,,,,,,,,,,,,,,,,,,,,,,,,,,,,,,,,,,,,,,,,,,,,,,,,,,,,,,,,,,,,,,,,,,,,,,,,,,,,,,,,,,,,,,,,,,,,,,,,,,,,,,,,,,,,,
,,5c60e5371115b4000140fb07,2023-12-14_20h04.42.289,kallum_motion_pilot,2023.2.3,Win32,144.9275362,5c60e5371115b4000140fb07,657bb317c8798c6608bceb3f,657bb41fd6d61e0ddbc39450,0.0314,0.0314,1,91,253,71,1,fourthree,,,,,,,,,,,,,,,,,,,,,,,,,,,,,,,,,,,,,,,,,,,,,,,,,,,,,,,,,,,,,,,,,,,,,,,,,,,,,,,,,,,,,,,,,,,,,,,,,,,,,,,,,,,,,,,,,,,,,,,,,,,,,,,,,,,,,,,
,,5c60e5371115b4000140fb07,2023-12-14_20h04.42.289,kallum_motion_pilot,2023.2.3,Win32,144.9275362,5c60e5371115b4000140fb07,657bb317c8798c6608bceb3f,657bb41fd6d61e0ddbc39450,0.0314,0.0315,1,92,254,97,1,fiveseven,,,,,,,,,,,,,,,,,,,,,,,,,,,,,,,,,,,,,,,,,,,,,,,,,,,,,,,,,,,,,,,,,,,,,,,,,,,,,,,,,,,,,,,,,,,,,,,,,,,,,,,,,,,,,,,,,,,,,,,,,,,,,,,,,,,,,,,
,,5c60e5371115b4000140fb07,2023-12-14_20h04.42.289,kallum_motion_pilot,2023.2.3,Win32,144.9275362,5c60e5371115b4000140fb07,657bb317c8798c6608bceb3f,657bb41fd6d61e0ddbc39450,0.0316,0.0317,1,93,255,34,1,twoone,,,,,,,,,,,,,,,,,,,,,,,,,,,,,,,,,,,,,,,,,,,,,,,,,,,,,,,,,,,,,,,,,,,,,,,,,,,,,,,,,,,,,,,,,,,,,,,,,,,,,,,,,,,,,,,,,,,,,,,,,,,,,,,,,,,,,,,
,,5c60e5371115b4000140fb07,2023-12-14_20h04.42.289,kallum_motion_pilot,2023.2.3,Win32,144.9275362,5c60e5371115b4000140fb07,657bb317c8798c6608bceb3f,657bb41fd6d61e0ddbc39450,0.0317,0.0317,1,94,256,120,1,fivesix,,,,,,,,,,,,,,,,,,,,,,,,,,,,,,,,,,,,,,,,,,,,,,,,,,,,,,,,,,,,,,,,,,,,,,,,,,,,,,,,,,,,,,,,,,,,,,,,,,,,,,,,,,,,,,,,,,,,,,,,,,,,,,,,,,,,,,,
,,5c60e5371115b4000140fb07,2023-12-14_20h04.42.289,kallum_motion_pilot,2023.2.3,Win32,144.9275362,5c60e5371115b4000140fb07,657bb317c8798c6608bceb3f,657bb41fd6d61e0ddbc39450,0.0317,0.0317,1,95,257,19,1,twofour,,,,,,,,,,,,,,,,,,,,,,,,,,,,,,,,,,,,,,,,,,,,,,,,,,,,,,,,,,,,,,,,,,,,,,,,,,,,,,,,,,,,,,,,,,,,,,,,,,,,,,,,,,,,,,,,,,,,,,,,,,,,,,,,,,,,,,,
,,5c60e5371115b4000140fb07,2023-12-14_20h04.42.289,kallum_motion_pilot,2023.2.3,Win32,144.9275362,5c60e5371115b4000140fb07,657bb317c8798c6608bceb3f,657bb41fd6d61e0ddbc39450,0.0318,0.0319,1,96,258,54,1,fourtwo,,,,,,,,,,,,,,,,,,,,,,,,,,,,,,,,,,,,,,,,,,,,,,,,,,,,,,,,,,,,,,,,,,,,,,,,,,,,,,,,,,,,,,,,,,,,,,,,,,,,,,,,,,,,,,,,,,,,,,,,,,,,,,,,,,,,,,,
,,5c60e5371115b4000140fb07,2023-12-14_20h04.42.289,kallum_motion_pilot,2023.2.3,Win32,144.9275362,5c60e5371115b4000140fb07,657bb317c8798c6608bceb3f,657bb41fd6d61e0ddbc39450,0.0319,0.0319,1,97,259,116,1,sevenfive,,,,,,,,,,,,,,,,,,,,,,,,,,,,,,,,,,,,,,,,,,,,,,,,,,,,,,,,,,,,,,,,,,,,,,,,,,,,,,,,,,,,,,,,,,,,,,,,,,,,,,,,,,,,,,,,,,,,,,,,,,,,,,,,,,,,,,,
,,5c60e5371115b4000140fb07,2023-12-14_20h04.42.289,kallum_motion_pilot,2023.2.3,Win32,144.9275362,5c60e5371115b4000140fb07,657bb317c8798c6608bceb3f,657bb41fd6d61e0ddbc39450,0.032,0.032,1,98,260,1,1,onethree,,,,,,,,,,,,,,,,,,,,,,,,,,,,,,,,,,,,,,,,,,,,,,,,,,,,,,,,,,,,,,,,,,,,,,,,,,,,,,,,,,,,,,,,,,,,,,,,,,,,,,,,,,,,,,,,,,,,,,,,,,,,,,,,,,,,,,,
,,5c60e5371115b4000140fb07,2023-12-14_20h04.42.289,kallum_motion_pilot,2023.2.3,Win32,144.9275362,5c60e5371115b4000140fb07,657bb317c8798c6608bceb3f,657bb41fd6d61e0ddbc39450,0.032,0.0321,1,99,261,125,1,seveneight,,,,,,,,,,,,,,,,,,,,,,,,,,,,,,,,,,,,,,,,,,,,,,,,,,,,,,,,,,,,,,,,,,,,,,,,,,,,,,,,,,,,,,,,,,,,,,,,,,,,,,,,,,,,,,,,,,,,,,,,,,,,,,,,,,,,,,,
,,5c60e5371115b4000140fb07,2023-12-14_20h04.42.289,kallum_motion_pilot,2023.2.3,Win32,144.9275362,5c60e5371115b4000140fb07,657bb317c8798c6608bceb3f,657bb41fd6d61e0ddbc39450,0.0321,0.0321,1,100,262,44,1,threeone,,,,,,,,,,,,,,,,,,,,,,,,,,,,,,,,,,,,,,,,,,,,,,,,,,,,,,,,,,,,,,,,,,,,,,,,,,,,,,,,,,,,,,,,,,,,,,,,,,,,,,,,,,,,,,,,,,,,,,,,,,,,,,,,,,,,,,,
,,5c60e5371115b4000140fb07,2023-12-14_20h04.42.289,kallum_motion_pilot,2023.2.3,Win32,144.9275362,5c60e5371115b4000140fb07,657bb317c8798c6608bceb3f,657bb41fd6d61e0ddbc39450,0.0322,0.0322,1,101,263,27,1,twofour,,,,,,,,,,,,,,,,,,,,,,,,,,,,,,,,,,,,,,,,,,,,,,,,,,,,,,,,,,,,,,,,,,,,,,,,,,,,,,,,,,,,,,,,,,,,,,,,,,,,,,,,,,,,,,,,,,,,,,,,,,,,,,,,,,,,,,,
,,5c60e5371115b4000140fb07,2023-12-14_20h04.42.289,kallum_motion_pilot,2023.2.3,Win32,144.9275362,5c60e5371115b4000140fb07,657bb317c8798c6608bceb3f,657bb41fd6d61e0ddbc39450,0.0322,0.0323,1,102,264,156,1,sevenfive,,,,,,,,,,,,,,,,,,,,,,,,,,,,,,,,,,,,,,,,,,,,,,,,,,,,,,,,,,,,,,,,,,,,,,,,,,,,,,,,,,,,,,,,,,,,,,,,,,,,,,,,,,,,,,,,,,,,,,,,,,,,,,,,,,,,,,,
,,5c60e5371115b4000140fb07,2023-12-14_20h04.42.289,kallum_motion_pilot,2023.2.3,Win32,144.9275362,5c60e5371115b4000140fb07,657bb317c8798c6608bceb3f,657bb41fd6d61e0ddbc39450,0.0323,0.0324,1,103,265,92,1,sevenfive,,,,,,,,,,,,,,,,,,,,,,,,,,,,,,,,,,,,,,,,,,,,,,,,,,,,,,,,,,,,,,,,,,,,,,,,,,,,,,,,,,,,,,,,,,,,,,,,,,,,,,,,,,,,,,,,,,,,,,,,,,,,,,,,,,,,,,,
,,5c60e5371115b4000140fb07,2023-12-14_20h04.42.289,kallum_motion_pilot,2023.2.3,Win32,144.9275362,5c60e5371115b4000140fb07,657bb317c8798c6608bceb3f,657bb41fd6d61e0ddbc39450,0.0324,0.0325,1,104,266,122,1,sixfive,,,,,,,,,,,,,,,,,,,,,,,,,,,,,,,,,,,,,,,,,,,,,,,,,,,,,,,,,,,,,,,,,,,,,,,,,,,,,,,,,,,,,,,,,,,,,,,,,,,,,,,,,,,,,,,,,,,,,,,,,,,,,,,,,,,,,,,
,,5c60e5371115b4000140fb07,2023-12-14_20h04.42.289,kallum_motion_pilot,2023.2.3,Win32,144.9275362,5c60e5371115b4000140fb07,657bb317c8798c6608bceb3f,657bb41fd6d61e0ddbc39450,0.0325,0.0325,1,105,267,55,1,fourthree,,,,,,,,,,,,,,,,,,,,,,,,,,,,,,,,,,,,,,,,,,,,,,,,,,,,,,,,,,,,,,,,,,,,,,,,,,,,,,,,,,,,,,,,,,,,,,,,,,,,,,,,,,,,,,,,,,,,,,,,,,,,,,,,,,,,,,,
,,5c60e5371115b4000140fb07,2023-12-14_20h04.42.289,kallum_motion_pilot,2023.2.3,Win32,144.9275362,5c60e5371115b4000140fb07,657bb317c8798c6608bceb3f,657bb41fd6d61e0ddbc39450,0.0325,0.0327,1,106,268,148,1,sevenfive,,,,,,,,,,,,,,,,,,,,,,,,,,,,,,,,,,,,,,,,,,,,,,,,,,,,,,,,,,,,,,,,,,,,,,,,,,,,,,,,,,,,,,,,,,,,,,,,,,,,,,,,,,,,,,,,,,,,,,,,,,,,,,,,,,,,,,,
,,5c60e5371115b4000140fb07,2023-12-14_20h04.42.289,kallum_motion_pilot,2023.2.3,Win32,144.9275362,5c60e5371115b4000140fb07,657bb317c8798c6608bceb3f,657bb41fd6d61e0ddbc39450,0.0327,0.0327,1,107,269,96,1,fivesix,,,,,,,,,,,,,,,,,,,,,,,,,,,,,,,,,,,,,,,,,,,,,,,,,,,,,,,,,,,,,,,,,,,,,,,,,,,,,,,,,,,,,,,,,,,,,,,,,,,,,,,,,,,,,,,,,,,,,,,,,,,,,,,,,,,,,,,
,,5c60e5371115b4000140fb07,2023-12-14_20h04.42.289,kallum_motion_pilot,2023.2.3,Win32,144.9275362,5c60e5371115b4000140fb07,657bb317c8798c6608bceb3f,657bb41fd6d61e0ddbc39450,0.0327,0.0327,1,108,270,130,1,sixfive,,,,,,,,,,,,,,,,,,,,,,,,,,,,,,,,,,,,,,,,,,,,,,,,,,,,,,,,,,,,,,,,,,,,,,,,,,,,,,,,,,,,,,,,,,,,,,,,,,,,,,,,,,,,,,,,,,,,,,,,,,,,,,,,,,,,,,,
,,5c60e5371115b4000140fb07,2023-12-14_20h04.42.289,kallum_motion_pilot,2023.2.3,Win32,144.9275362,5c60e5371115b4000140fb07,657bb317c8798c6608bceb3f,657bb41fd6d61e0ddbc39450,0.0328,0.0328,1,109,271,150,1,eightsix,,,,,,,,,,,,,,,,,,,,,,,,,,,,,,,,,,,,,,,,,,,,,,,,,,,,,,,,,,,,,,,,,,,,,,,,,,,,,,,,,,,,,,,,,,,,,,,,,,,,,,,,,,,,,,,,,,,,,,,,,,,,,,,,,,,,,,,
,,5c60e5371115b4000140fb07,2023-12-14_20h04.42.289,kallum_motion_pilot,2023.2.3,Win32,144.9275362,5c60e5371115b4000140fb07,657bb317c8798c6608bceb3f,657bb41fd6d61e0ddbc39450,0.0328,0.0329,1,110,272,57,1,onethree,,,,,,,,,,,,,,,,,,,,,,,,,,,,,,,,,,,,,,,,,,,,,,,,,,,,,,,,,,,,,,,,,,,,,,,,,,,,,,,,,,,,,,,,,,,,,,,,,,,,,,,,,,,,,,,,,,,,,,,,,,,,,,,,,,,,,,,
,,5c60e5371115b4000140fb07,2023-12-14_20h04.42.289,kallum_motion_pilot,2023.2.3,Win32,144.9275362,5c60e5371115b4000140fb07,657bb317c8798c6608bceb3f,657bb41fd6d61e0ddbc39450,0.0329,0.033,1,111,273,69,1,threefour,,,,,,,,,,,,,,,,,,,,,,,,,,,,,,,,,,,,,,,,,,,,,,,,,,,,,,,,,,,,,,,,,,,,,,,,,,,,,,,,,,,,,,,,,,,,,,,,,,,,,,,,,,,,,,,,,,,,,,,,,,,,,,,,,,,,,,,
,,5c60e5371115b4000140fb07,2023-12-14_20h04.42.289,kallum_motion_pilot,2023.2.3,Win32,144.9275362,5c60e5371115b4000140fb07,657bb317c8798c6608bceb3f,657bb41fd6d61e0ddbc39450,0.033,0.0331,1,112,274,118,1,eightsix,,,,,,,,,,,,,,,,,,,,,,,,,,,,,,,,,,,,,,,,,,,,,,,,,,,,,,,,,,,,,,,,,,,,,,,,,,,,,,,,,,,,,,,,,,,,,,,,,,,,,,,,,,,,,,,,,,,,,,,,,,,,,,,,,,,,,,,
,,5c60e5371115b4000140fb07,2023-12-14_20h04.42.289,kallum_motion_pilot,2023.2.3,Win32,144.9275362,5c60e5371115b4000140fb07,657bb317c8798c6608bceb3f,657bb41fd6d61e0ddbc39450,0.0331,0.0332,1,113,275,62,1,fourtwo,,,,,,,,,,,,,,,,,,,,,,,,,,,,,,,,,,,,,,,,,,,,,,,,,,,,,,,,,,,,,,,,,,,,,,,,,,,,,,,,,,,,,,,,,,,,,,,,,,,,,,,,,,,,,,,,,,,,,,,,,,,,,,,,,,,,,,,
,,5c60e5371115b4000140fb07,2023-12-14_20h04.42.289,kallum_motion_pilot,2023.2.3,Win32,144.9275362,5c60e5371115b4000140fb07,657bb317c8798c6608bceb3f,657bb41fd6d61e0ddbc39450,0.0332,0.0333,1,114,276,2,1,twoone,,,,,,,,,,,,,,,,,,,,,,,,,,,,,,,,,,,,,,,,,,,,,,,,,,,,,,,,,,,,,,,,,,,,,,,,,,,,,,,,,,,,,,,,,,,,,,,,,,,,,,,,,,,,,,,,,,,,,,,,,,,,,,,,,,,,,,,
,,5c60e5371115b4000140fb07,2023-12-14_20h04.42.289,kallum_motion_pilot,2023.2.3,Win32,144.9275362,5c60e5371115b4000140fb07,657bb317c8798c6608bceb3f,657bb41fd6d61e0ddbc39450,0.0333,0.0333,1,115,277,5,1,threefour,,,,,,,,,,,,,,,,,,,,,,,,,,,,,,,,,,,,,,,,,,,,,,,,,,,,,,,,,,,,,,,,,,,,,,,,,,,,,,,,,,,,,,,,,,,,,,,,,,,,,,,,,,,,,,,,,,,,,,,,,,,,,,,,,,,,,,,
,,5c60e5371115b4000140fb07,2023-12-14_20h04.42.289,kallum_motion_pilot,2023.2.3,Win32,144.9275362,5c60e5371115b4000140fb07,657bb317c8798c6608bceb3f,657bb41fd6d61e0ddbc39450,0.0333,0.0334,1,116,278,105,1,fiveseven,,,,,,,,,,,,,,,,,,,,,,,,,,,,,,,,,,,,,,,,,,,,,,,,,,,,,,,,,,,,,,,,,,,,,,,,,,,,,,,,,,,,,,,,,,,,,,,,,,,,,,,,,,,,,,,,,,,,,,,,,,,,,,,,,,,,,,,
,,5c60e5371115b4000140fb07,2023-12-14_20h04.42.289,kallum_motion_pilot,2023.2.3,Win32,144.9275362,5c60e5371115b4000140fb07,657bb317c8798c6608bceb3f,657bb41fd6d61e0ddbc39450,0.0334,0.0335,1,117,279,109,1,seveneight,,,,,,,,,,,,,,,,,,,,,,,,,,,,,,,,,,,,,,,,,,,,,,,,,,,,,,,,,,,,,,,,,,,,,,,,,,,,,,,,,,,,,,,,,,,,,,,,,,,,,,,,,,,,,,,,,,,,,,,,,,,,,,,,,,,,,,,
