startup.started,startup.stopped,Prolific ID*,date,expName,psychopyVersion,OS,frameRate,participant,study_id,session,stimpositions.started,stimpositions.stopped,hardcoded_stimulus_positions.thisRepN,hardcoded_stimulus_positions.thisTrialN,hardcoded_stimulus_positions.thisN,hardcoded_stimulus_positions.thisIndex,hardcoded_stimulus_positions.ran,StimulusPos,stimorientation.started,stimorientation.stopped,prac_stimorientation_import_loop.thisRepN,prac_stimorientation_import_loop.thisTrialN,prac_stimorientation_import_loop.thisN,prac_stimorientation_import_loop.thisIndex,prac_stimorientation_import_loop.ran,Stimorientation,welcome_instr.started,welcome_instr.stopped,key_resp.keys,key_resp.rt,key_resp.duration,response_steppedout_1.started,response_steppedout_1.stopped,key_resp_20.keys,key_resp_20.rt,key_resp_20.duration,response_steppedout_2.started,response_steppedout_2.stopped,key_resp_19.keys,key_resp_19.rt,key_resp_19.duration,stim_response_instr.started,stim_response_instr.stopped,key_resp_15.keys,key_resp_15.rt,key_resp_15.duration,direction_instr_2.started,direction_instr_2.stopped,key_resp_9.keys,key_resp_9.rt,key_resp_9.duration,instr_prac.started,instr_prac.stopped,key_resp_10.keys,key_resp_10.rt,key_resp_10.duration,Stim1_display_prac.started,Stim1_display_prac.stopped,Ecc,Circle1_ori,Circle2_ori,response_prac.started,similarity,response_time,response_prac.stopped,mouse_5.x,mouse_5.y,mouse_5.leftButton,mouse_5.midButton,mouse_5.rightButton,mouse_5.clicked_name,responseprac_feedback.started,responseprac_feedback.stopped,summary2_prac.started,summary2_prac.stopped,mouse_6.x,mouse_6.y,mouse_6.leftButton,mouse_6.midButton,mouse_6.rightButton,mouse_6.clicked_name,duringprac.thisRepN,duringprac.thisTrialN,duringprac.thisN,duringprac.thisIndex,duringprac.ran,begin.started,begin.stopped,key_resp_22.keys,key_resp_22.rt,key_resp_22.duration,Stim1_display.started,Stim1_display.stopped,circle1_ori,circle2_ori,blank.started,blank.stopped,response.started,response.stopped,mouse.x,mouse.y,mouse.leftButton,mouse.midButton,mouse.rightButton,mouse.clicked_name,response_2.started,response_2.stopped,mouse_2.x,mouse_2.y,mouse_2.leftButton,mouse_2.midButton,mouse_2.rightButton,mouse_2.clicked_name,special_trial.started,special_trial.stopped,catch_1.started,catch_1.stopped,mouse_3.x,mouse_3.y,mouse_3.leftButton,mouse_3.midButton,mouse_3.rightButton,catchresponse,catchnumber,response_time_catch,Catch,response_sum.started,response_sum.stopped,mouse_11.x,mouse_11.y,mouse_11.leftButton,mouse_11.midButton,mouse_11.rightButton,main_trial.thisRepN,main_trial.thisTrialN,main_trial.thisN,main_trial.thisIndex,main_trial.ran,Orientationtrialno,xcircle1_ori,xcircle2_ori,flip_presentation_sequence_for_double_pass.started,flip_presentation_sequence_for_double_pass.stopped,double_pass.thisRepN,double_pass.thisTrialN,double_pass.thisN,double_pass.thisIndex,double_pass.ran,goodbye.started,goodbye.stopped,key_resp_3.keys,key_resp_3.rt,key_resp_3.duration
1E-04,0.0002,5e9257d7a7264858bf6701e7,2023-12-14_23h04.26.329,kallum_motion_pilot,2023.2.3,MacIntel,59.88023952,5e9257d7a7264858bf6701e7,657bb317c8798c6608bceb3f,657bb40ecf7c2f51c5bb0bf5,,,,,,,,,,,,,,,,,,,,,,,,,,,,,,,,,,,,,,,,,,,,,,,,,,,,,,,,,,,,,,,,,,,,,,,,,,,,,,,,,,,,,,,,,,,,,,,,,,,,,,,,,,,,,,,,,,,,,,,,,,,,,,,,,,,,,,,,,,,,,,,
,,5e9257d7a7264858bf6701e7,2023-12-14_23h04.26.329,kallum_motion_pilot,2023.2.3,MacIntel,59.88023952,5e9257d7a7264858bf6701e7,657bb317c8798c6608bceb3f,657bb40ecf7c2f51c5bb0bf5,0.0116,0.0116,0,0,0,129,1,fiveseven,,,,,,,,,,,,,,,,,,,,,,,,,,,,,,,,,,,,,,,,,,,,,,,,,,,,,,,,,,,,,,,,,,,,,,,,,,,,,,,,,,,,,,,,,,,,,,,,,,,,,,,,,,,,,,,,,,,,,,,,,,,,,,,,,,,,,,,
,,5e9257d7a7264858bf6701e7,2023-12-14_23h04.26.329,kallum_motion_pilot,2023.2.3,MacIntel,59.88023952,5e9257d7a7264858bf6701e7,657bb317c8798c6608bceb3f,657bb40ecf7c2f51c5bb0bf5,0.0118,0.0118,0,1,1,91,1,sixeight,,,,,,,,,,,,,,,,,,,,,,,,,,,,,,,,,,,,,,,,,,,,,,,,,,,,,,,,,,,,,,,,,,,,,,,,,,,,,,,,,,,,,,,,,,,,,,,,,,,,,,,,,,,,,,,,,,,,,,,,,,,,,,,,,,,,,,,
,,5e9257d7a7264858bf6701e7,2023-12-14_23h04.26.329,kallum_motion_pilot,2023.2.3,MacIntel,59.88023952,5e9257d7a7264858bf6701e7,657bb317c8798c6608bceb3f,657bb40ecf7c2f51c5bb0bf5,0.0118,0.0118,0,2,2,49,1,onethree,,,,,,,,,,,,,,,,,,,,,,,,,,,,,,,,,,,,,,,,,,,,,,,,,,,,,,,,,,,,,,,,,,,,,,,,,,,,,,,,,,,,,,,,,,,,,,,,,,,,,,,,,,,,,,,,,,,,,,,,,,,,,,,,,,,,,,,
,,5e9257d7a7264858bf6701e7,2023-12-14_23h04.26.329,kallum_motion_pilot,2023.2.3,MacIntel,59.88023952,5e9257d7a7264858bf6701e7,657bb317c8798c6608bceb3f,657bb40ecf7c2f51c5bb0bf5,0.0119,0.0119,0,3,3,30,1,fourtwo,,,,,,,,,,,,,,,,,,,,,,,,,,,,,,,,,,,,,,,,,,,,,,,,,,,,,,,,,,,,,,,,,,,,,,,,,,,,,,,,,,,,,,,,,,,,,,,,,,,,,,,,,,,,,,,,,,,,,,,,,,,,,,,,,,,,,,,
,,5e9257d7a7264858bf6701e7,2023-12-14_23h04.26.329,kallum_motion_pilot,2023.2.3,MacIntel,59.88023952,5e9257d7a7264858bf6701e7,657bb317c8798c6608bceb3f,657bb40ecf7c2f51c5bb0bf5,0.012,0.012,0,4,4,76,1,threeone,,,,,,,,,,,,,,,,,,,,,,,,,,,,,,,,,,,,,,,,,,,,,,,,,,,,,,,,,,,,,,,,,,,,,,,,,,,,,,,,,,,,,,,,,,,,,,,,,,,,,,,,,,,,,,,,,,,,,,,,,,,,,,,,,,,,,,,
,,5e9257d7a7264858bf6701e7,2023-12-14_23h04.26.329,kallum_motion_pilot,2023.2.3,MacIntel,59.88023952,5e9257d7a7264858bf6701e7,657bb317c8798c6608bceb3f,657bb40ecf7c2f51c5bb0bf5,0.012,0.012,0,5,5,92,1,sevenfive,,,,,,,,,,,,,,,,,,,,,,,,,,,,,,,,,,,,,,,,,,,,,,,,,,,,,,,,,,,,,,,,,,,,,,,,,,,,,,,,,,,,,,,,,,,,,,,,,,,,,,,,,,,,,,,,,,,,,,,,,,,,,,,,,,,,,,,
,,5e9257d7a7264858bf6701e7,2023-12-14_23h04.26.329,kallum_motion_pilot,2023.2.3,MacIntel,59.88023952,5e9257d7a7264858bf6701e7,657bb317c8798c6608bceb3f,657bb40ecf7c2f51c5bb0bf5,0.012,0.012,0,6,6,145,1,fiveseven,,,,,,,,,,,,,,,,,,,,,,,,,,,,,,,,,,,,,,,,,,,,,,,,,,,,,,,,,,,,,,,,,,,,,,,,,,,,,,,,,,,,,,,,,,,,,,,,,,,,,,,,,,,,,,,,,,,,,,,,,,,,,,,,,,,,,,,
,,5e9257d7a7264858bf6701e7,2023-12-14_23h04.26.329,kallum_motion_pilot,2023.2.3,MacIntel,59.88023952,5e9257d7a7264858bf6701e7,657bb317c8798c6608bceb3f,657bb40ecf7c2f51c5bb0bf5,0.0121,0.0121,0,7,7,17,1,onethree,,,,,,,,,,,,,,,,,,,,,,,,,,,,,,,,,,,,,,,,,,,,,,,,,,,,,,,,,,,,,,,,,,,,,,,,,,,,,,,,,,,,,,,,,,,,,,,,,,,,,,,,,,,,,,,,,,,,,,,,,,,,,,,,,,,,,,,
,,5e9257d7a7264858bf6701e7,2023-12-14_23h04.26.329,kallum_motion_pilot,2023.2.3,MacIntel,59.88023952,5e9257d7a7264858bf6701e7,657bb317c8798c6608bceb3f,657bb40ecf7c2f51c5bb0bf5,0.0121,0.0121,0,8,8,2,1,twoone,,,,,,,,,,,,,,,,,,,,,,,,,,,,,,,,,,,,,,,,,,,,,,,,,,,,,,,,,,,,,,,,,,,,,,,,,,,,,,,,,,,,,,,,,,,,,,,,,,,,,,,,,,,,,,,,,,,,,,,,,,,,,,,,,,,,,,,
,,5e9257d7a7264858bf6701e7,2023-12-14_23h04.26.329,kallum_motion_pilot,2023.2.3,MacIntel,59.88023952,5e9257d7a7264858bf6701e7,657bb317c8798c6608bceb3f,657bb40ecf7c2f51c5bb0bf5,0.0122,0.0122,0,9,9,75,1,twofour,,,,,,,,,,,,,,,,,,,,,,,,,,,,,,,,,,,,,,,,,,,,,,,,,,,,,,,,,,,,,,,,,,,,,,,,,,,,,,,,,,,,,,,,,,,,,,,,,,,,,,,,,,,,,,,,,,,,,,,,,,,,,,,,,,,,,,,
,,5e9257d7a7264858bf6701e7,2023-12-14_23h04.26.329,kallum_motion_pilot,2023.2.3,MacIntel,59.88023952,5e9257d7a7264858bf6701e7,657bb317c8798c6608bceb3f,657bb40ecf7c2f51c5bb0bf5,0.0123,0.0123,0,10,10,54,1,fourtwo,,,,,,,,,,,,,,,,,,,,,,,,,,,,,,,,,,,,,,,,,,,,,,,,,,,,,,,,,,,,,,,,,,,,,,,,,,,,,,,,,,,,,,,,,,,,,,,,,,,,,,,,,,,,,,,,,,,,,,,,,,,,,,,,,,,,,,,
,,5e9257d7a7264858bf6701e7,2023-12-14_23h04.26.329,kallum_motion_pilot,2023.2.3,MacIntel,59.88023952,5e9257d7a7264858bf6701e7,657bb317c8798c6608bceb3f,657bb40ecf7c2f51c5bb0bf5,0.0123,0.0123,0,11,11,31,1,fourthree,,,,,,,,,,,,,,,,,,,,,,,,,,,,,,,,,,,,,,,,,,,,,,,,,,,,,,,,,,,,,,,,,,,,,,,,,,,,,,,,,,,,,,,,,,,,,,,,,,,,,,,,,,,,,,,,,,,,,,,,,,,,,,,,,,,,,,,
,,5e9257d7a7264858bf6701e7,2023-12-14_23h04.26.329,kallum_motion_pilot,2023.2.3,MacIntel,59.88023952,5e9257d7a7264858bf6701e7,657bb317c8798c6608bceb3f,657bb40ecf7c2f51c5bb0bf5,0.0123,0.0123,0,12,12,52,1,threeone,,,,,,,,,,,,,,,,,,,,,,,,,,,,,,,,,,,,,,,,,,,,,,,,,,,,,,,,,,,,,,,,,,,,,,,,,,,,,,,,,,,,,,,,,,,,,,,,,,,,,,,,,,,,,,,,,,,,,,,,,,,,,,,,,,,,,,,
,,5e9257d7a7264858bf6701e7,2023-12-14_23h04.26.329,kallum_motion_pilot,2023.2.3,MacIntel,59.88023952,5e9257d7a7264858bf6701e7,657bb317c8798c6608bceb3f,657bb40ecf7c2f51c5bb0bf5,0.0123,0.0123,0,13,13,65,1,onethree,,,,,,,,,,,,,,,,,,,,,,,,,,,,,,,,,,,,,,,,,,,,,,,,,,,,,,,,,,,,,,,,,,,,,,,,,,,,,,,,,,,,,,,,,,,,,,,,,,,,,,,,,,,,,,,,,,,,,,,,,,,,,,,,,,,,,,,
,,5e9257d7a7264858bf6701e7,2023-12-14_23h04.26.329,kallum_motion_pilot,2023.2.3,MacIntel,59.88023952,5e9257d7a7264858bf6701e7,657bb317c8798c6608bceb3f,657bb40ecf7c2f51c5bb0bf5,0.0124,0.0124,0,14,14,24,1,onetwo,,,,,,,,,,,,,,,,,,,,,,,,,,,,,,,,,,,,,,,,,,,,,,,,,,,,,,,,,,,,,,,,,,,,,,,,,,,,,,,,,,,,,,,,,,,,,,,,,,,,,,,,,,,,,,,,,,,,,,,,,,,,,,,,,,,,,,,
,,5e9257d7a7264858bf6701e7,2023-12-14_23h04.26.329,kallum_motion_pilot,2023.2.3,MacIntel,59.88023952,5e9257d7a7264858bf6701e7,657bb317c8798c6608bceb3f,657bb40ecf7c2f51c5bb0bf5,0.0124,0.0124,0,15,15,99,1,sixeight,,,,,,,,,,,,,,,,,,,,,,,,,,,,,,,,,,,,,,,,,,,,,,,,,,,,,,,,,,,,,,,,,,,,,,,,,,,,,,,,,,,,,,,,,,,,,,,,,,,,,,,,,,,,,,,,,,,,,,,,,,,,,,,,,,,,,,,
,,5e9257d7a7264858bf6701e7,2023-12-14_23h04.26.329,kallum_motion_pilot,2023.2.3,MacIntel,59.88023952,5e9257d7a7264858bf6701e7,657bb317c8798c6608bceb3f,657bb40ecf7c2f51c5bb0bf5,0.0124,0.0124,0,16,16,20,1,threeone,,,,,,,,,,,,,,,,,,,,,,,,,,,,,,,,,,,,,,,,,,,,,,,,,,,,,,,,,,,,,,,,,,,,,,,,,,,,,,,,,,,,,,,,,,,,,,,,,,,,,,,,,,,,,,,,,,,,,,,,,,,,,,,,,,,,,,,
,,5e9257d7a7264858bf6701e7,2023-12-14_23h04.26.329,kallum_motion_pilot,2023.2.3,MacIntel,59.88023952,5e9257d7a7264858bf6701e7,657bb317c8798c6608bceb3f,657bb40ecf7c2f51c5bb0bf5,0.0125,0.0125,0,17,17,116,1,sevenfive,,,,,,,,,,,,,,,,,,,,,,,,,,,,,,,,,,,,,,,,,,,,,,,,,,,,,,,,,,,,,,,,,,,,,,,,,,,,,,,,,,,,,,,,,,,,,,,,,,,,,,,,,,,,,,,,,,,,,,,,,,,,,,,,,,,,,,,
,,5e9257d7a7264858bf6701e7,2023-12-14_23h04.26.329,kallum_motion_pilot,2023.2.3,MacIntel,59.88023952,5e9257d7a7264858bf6701e7,657bb317c8798c6608bceb3f,657bb40ecf7c2f51c5bb0bf5,0.0125,0.0125,0,18,18,50,1,twoone,,,,,,,,,,,,,,,,,,,,,,,,,,,,,,,,,,,,,,,,,,,,,,,,,,,,,,,,,,,,,,,,,,,,,,,,,,,,,,,,,,,,,,,,,,,,,,,,,,,,,,,,,,,,,,,,,,,,,,,,,,,,,,,,,,,,,,,
,,5e9257d7a7264858bf6701e7,2023-12-14_23h04.26.329,kallum_motion_pilot,2023.2.3,MacIntel,59.88023952,5e9257d7a7264858bf6701e7,657bb317c8798c6608bceb3f,657bb40ecf7c2f51c5bb0bf5,0.0126,0.0126,0,19,19,51,1,twofour,,,,,,,,,,,,,,,,,,,,,,,,,,,,,,,,,,,,,,,,,,,,,,,,,,,,,,,,,,,,,,,,,,,,,,,,,,,,,,,,,,,,,,,,,,,,,,,,,,,,,,,,,,,,,,,,,,,,,,,,,,,,,,,,,,,,,,,
,,5e9257d7a7264858bf6701e7,2023-12-14_23h04.26.329,kallum_motion_pilot,2023.2.3,MacIntel,59.88023952,5e9257d7a7264858bf6701e7,657bb317c8798c6608bceb3f,657bb40ecf7c2f51c5bb0bf5,0.0126,0.0126,0,20,20,161,1,fiveseven,,,,,,,,,,,,,,,,,,,,,,,,,,,,,,,,,,,,,,,,,,,,,,,,,,,,,,,,,,,,,,,,,,,,,,,,,,,,,,,,,,,,,,,,,,,,,,,,,,,,,,,,,,,,,,,,,,,,,,,,,,,,,,,,,,,,,,,
,,5e9257d7a7264858bf6701e7,2023-12-14_23h04.26.329,kallum_motion_pilot,2023.2.3,MacIntel,59.88023952,5e9257d7a7264858bf6701e7,657bb317c8798c6608bceb3f,657bb40ecf7c2f51c5bb0bf5,0.0126,0.0126,0,21,21,67,1,twofour,,,,,,,,,,,,,,,,,,,,,,,,,,,,,,,,,,,,,,,,,,,,,,,,,,,,,,,,,,,,,,,,,,,,,,,,,,,,,,,,,,,,,,,,,,,,,,,,,,,,,,,,,,,,,,,,,,,,,,,,,,,,,,,,,,,,,,,
,,5e9257d7a7264858bf6701e7,2023-12-14_23h04.26.329,kallum_motion_pilot,2023.2.3,MacIntel,59.88023952,5e9257d7a7264858bf6701e7,657bb317c8798c6608bceb3f,657bb40ecf7c2f51c5bb0bf5,0.0128,0.0128,0,22,22,60,1,threeone,,,,,,,,,,,,,,,,,,,,,,,,,,,,,,,,,,,,,,,,,,,,,,,,,,,,,,,,,,,,,,,,,,,,,,,,,,,,,,,,,,,,,,,,,,,,,,,,,,,,,,,,,,,,,,,,,,,,,,,,,,,,,,,,,,,,,,,
,,5e9257d7a7264858bf6701e7,2023-12-14_23h04.26.329,kallum_motion_pilot,2023.2.3,MacIntel,59.88023952,5e9257d7a7264858bf6701e7,657bb317c8798c6608bceb3f,657bb40ecf7c2f51c5bb0bf5,0.0128,0.0128,0,23,23,95,1,eightseven,,,,,,,,,,,,,,,,,,,,,,,,,,,,,,,,,,,,,,,,,,,,,,,,,,,,,,,,,,,,,,,,,,,,,,,,,,,,,,,,,,,,,,,,,,,,,,,,,,,,,,,,,,,,,,,,,,,,,,,,,,,,,,,,,,,,,,,
,,5e9257d7a7264858bf6701e7,2023-12-14_23h04.26.329,kallum_motion_pilot,2023.2.3,MacIntel,59.88023952,5e9257d7a7264858bf6701e7,657bb317c8798c6608bceb3f,657bb40ecf7c2f51c5bb0bf5,0.0128,0.0128,0,24,24,0,1,onetwo,,,,,,,,,,,,,,,,,,,,,,,,,,,,,,,,,,,,,,,,,,,,,,,,,,,,,,,,,,,,,,,,,,,,,,,,,,,,,,,,,,,,,,,,,,,,,,,,,,,,,,,,,,,,,,,,,,,,,,,,,,,,,,,,,,,,,,,
,,5e9257d7a7264858bf6701e7,2023-12-14_23h04.26.329,kallum_motion_pilot,2023.2.3,MacIntel,59.88023952,5e9257d7a7264858bf6701e7,657bb317c8798c6608bceb3f,657bb40ecf7c2f51c5bb0bf5,0.0128,0.0129,0,25,25,3,1,twofour,,,,,,,,,,,,,,,,,,,,,,,,,,,,,,,,,,,,,,,,,,,,,,,,,,,,,,,,,,,,,,,,,,,,,,,,,,,,,,,,,,,,,,,,,,,,,,,,,,,,,,,,,,,,,,,,,,,,,,,,,,,,,,,,,,,,,,,
,,5e9257d7a7264858bf6701e7,2023-12-14_23h04.26.329,kallum_motion_pilot,2023.2.3,MacIntel,59.88023952,5e9257d7a7264858bf6701e7,657bb317c8798c6608bceb3f,657bb40ecf7c2f51c5bb0bf5,0.0129,0.0129,0,26,26,111,1,eightseven,,,,,,,,,,,,,,,,,,,,,,,,,,,,,,,,,,,,,,,,,,,,,,,,,,,,,,,,,,,,,,,,,,,,,,,,,,,,,,,,,,,,,,,,,,,,,,,,,,,,,,,,,,,,,,,,,,,,,,,,,,,,,,,,,,,,,,,
,,5e9257d7a7264858bf6701e7,2023-12-14_23h04.26.329,kallum_motion_pilot,2023.2.3,MacIntel,59.88023952,5e9257d7a7264858bf6701e7,657bb317c8798c6608bceb3f,657bb40ecf7c2f51c5bb0bf5,0.0129,0.0129,0,27,27,134,1,eightsix,,,,,,,,,,,,,,,,,,,,,,,,,,,,,,,,,,,,,,,,,,,,,,,,,,,,,,,,,,,,,,,,,,,,,,,,,,,,,,,,,,,,,,,,,,,,,,,,,,,,,,,,,,,,,,,,,,,,,,,,,,,,,,,,,,,,,,,
,,5e9257d7a7264858bf6701e7,2023-12-14_23h04.26.329,kallum_motion_pilot,2023.2.3,MacIntel,59.88023952,5e9257d7a7264858bf6701e7,657bb317c8798c6608bceb3f,657bb40ecf7c2f51c5bb0bf5,0.0129,0.0129,0,28,28,82,1,sixfive,,,,,,,,,,,,,,,,,,,,,,,,,,,,,,,,,,,,,,,,,,,,,,,,,,,,,,,,,,,,,,,,,,,,,,,,,,,,,,,,,,,,,,,,,,,,,,,,,,,,,,,,,,,,,,,,,,,,,,,,,,,,,,,,,,,,,,,
,,5e9257d7a7264858bf6701e7,2023-12-14_23h04.26.329,kallum_motion_pilot,2023.2.3,MacIntel,59.88023952,5e9257d7a7264858bf6701e7,657bb317c8798c6608bceb3f,657bb40ecf7c2f51c5bb0bf5,0.013,0.013,0,29,29,139,1,sixeight,,,,,,,,,,,,,,,,,,,,,,,,,,,,,,,,,,,,,,,,,,,,,,,,,,,,,,,,,,,,,,,,,,,,,,,,,,,,,,,,,,,,,,,,,,,,,,,,,,,,,,,,,,,,,,,,,,,,,,,,,,,,,,,,,,,,,,,
,,5e9257d7a7264858bf6701e7,2023-12-14_23h04.26.329,kallum_motion_pilot,2023.2.3,MacIntel,59.88023952,5e9257d7a7264858bf6701e7,657bb317c8798c6608bceb3f,657bb40ecf7c2f51c5bb0bf5,0.013,0.013,0,30,30,40,1,onetwo,,,,,,,,,,,,,,,,,,,,,,,,,,,,,,,,,,,,,,,,,,,,,,,,,,,,,,,,,,,,,,,,,,,,,,,,,,,,,,,,,,,,,,,,,,,,,,,,,,,,,,,,,,,,,,,,,,,,,,,,,,,,,,,,,,,,,,,
,,5e9257d7a7264858bf6701e7,2023-12-14_23h04.26.329,kallum_motion_pilot,2023.2.3,MacIntel,59.88023952,5e9257d7a7264858bf6701e7,657bb317c8798c6608bceb3f,657bb40ecf7c2f51c5bb0bf5,0.0131,0.0131,0,31,31,96,1,fivesix,,,,,,,,,,,,,,,,,,,,,,,,,,,,,,,,,,,,,,,,,,,,,,,,,,,,,,,,,,,,,,,,,,,,,,,,,,,,,,,,,,,,,,,,,,,,,,,,,,,,,,,,,,,,,,,,,,,,,,,,,,,,,,,,,,,,,,,
,,5e9257d7a7264858bf6701e7,2023-12-14_23h04.26.329,kallum_motion_pilot,2023.2.3,MacIntel,59.88023952,5e9257d7a7264858bf6701e7,657bb317c8798c6608bceb3f,657bb40ecf7c2f51c5bb0bf5,0.0131,0.0132,0,32,32,131,1,sixeight,,,,,,,,,,,,,,,,,,,,,,,,,,,,,,,,,,,,,,,,,,,,,,,,,,,,,,,,,,,,,,,,,,,,,,,,,,,,,,,,,,,,,,,,,,,,,,,,,,,,,,,,,,,,,,,,,,,,,,,,,,,,,,,,,,,,,,,
,,5e9257d7a7264858bf6701e7,2023-12-14_23h04.26.329,kallum_motion_pilot,2023.2.3,MacIntel,59.88023952,5e9257d7a7264858bf6701e7,657bb317c8798c6608bceb3f,657bb40ecf7c2f51c5bb0bf5,0.0132,0.0132,0,33,33,108,1,sevenfive,,,,,,,,,,,,,,,,,,,,,,,,,,,,,,,,,,,,,,,,,,,,,,,,,,,,,,,,,,,,,,,,,,,,,,,,,,,,,,,,,,,,,,,,,,,,,,,,,,,,,,,,,,,,,,,,,,,,,,,,,,,,,,,,,,,,,,,
,,5e9257d7a7264858bf6701e7,2023-12-14_23h04.26.329,kallum_motion_pilot,2023.2.3,MacIntel,59.88023952,5e9257d7a7264858bf6701e7,657bb317c8798c6608bceb3f,657bb40ecf7c2f51c5bb0bf5,0.0132,0.0132,0,34,34,152,1,fivesix,,,,,,,,,,,,,,,,,,,,,,,,,,,,,,,,,,,,,,,,,,,,,,,,,,,,,,,,,,,,,,,,,,,,,,,,,,,,,,,,,,,,,,,,,,,,,,,,,,,,,,,,,,,,,,,,,,,,,,,,,,,,,,,,,,,,,,,
,,5e9257d7a7264858bf6701e7,2023-12-14_23h04.26.329,kallum_motion_pilot,2023.2.3,MacIntel,59.88023952,5e9257d7a7264858bf6701e7,657bb317c8798c6608bceb3f,657bb40ecf7c2f51c5bb0bf5,0.0132,0.0132,0,35,35,7,1,fourthree,,,,,,,,,,,,,,,,,,,,,,,,,,,,,,,,,,,,,,,,,,,,,,,,,,,,,,,,,,,,,,,,,,,,,,,,,,,,,,,,,,,,,,,,,,,,,,,,,,,,,,,,,,,,,,,,,,,,,,,,,,,,,,,,,,,,,,,
,,5e9257d7a7264858bf6701e7,2023-12-14_23h04.26.329,kallum_motion_pilot,2023.2.3,MacIntel,59.88023952,5e9257d7a7264858bf6701e7,657bb317c8798c6608bceb3f,657bb40ecf7c2f51c5bb0bf5,0.0133,0.0134,0,36,36,86,1,eightsix,,,,,,,,,,,,,,,,,,,,,,,,,,,,,,,,,,,,,,,,,,,,,,,,,,,,,,,,,,,,,,,,,,,,,,,,,,,,,,,,,,,,,,,,,,,,,,,,,,,,,,,,,,,,,,,,,,,,,,,,,,,,,,,,,,,,,,,
,,5e9257d7a7264858bf6701e7,2023-12-14_23h04.26.329,kallum_motion_pilot,2023.2.3,MacIntel,59.88023952,5e9257d7a7264858bf6701e7,657bb317c8798c6608bceb3f,657bb40ecf7c2f51c5bb0bf5,0.0134,0.0134,0,37,37,14,1,fourtwo,,,,,,,,,,,,,,,,,,,,,,,,,,,,,,,,,,,,,,,,,,,,,,,,,,,,,,,,,,,,,,,,,,,,,,,,,,,,,,,,,,,,,,,,,,,,,,,,,,,,,,,,,,,,,,,,,,,,,,,,,,,,,,,,,,,,,,,
,,5e9257d7a7264858bf6701e7,2023-12-14_23h04.26.329,kallum_motion_pilot,2023.2.3,MacIntel,59.88023952,5e9257d7a7264858bf6701e7,657bb317c8798c6608bceb3f,657bb40ecf7c2f51c5bb0bf5,0.0134,0.0134,0,38,38,101,1,seveneight,,,,,,,,,,,,,,,,,,,,,,,,,,,,,,,,,,,,,,,,,,,,,,,,,,,,,,,,,,,,,,,,,,,,,,,,,,,,,,,,,,,,,,,,,,,,,,,,,,,,,,,,,,,,,,,,,,,,,,,,,,,,,,,,,,,,,,,
,,5e9257d7a7264858bf6701e7,2023-12-14_23h04.26.329,kallum_motion_pilot,2023.2.3,MacIntel,59.88023952,5e9257d7a7264858bf6701e7,657bb317c8798c6608bceb3f,657bb40ecf7c2f51c5bb0bf5,0.0134,0.0134,0,39,39,154,1,sixfive,,,,,,,,,,,,,,,,,,,,,,,,,,,,,,,,,,,,,,,,,,,,,,,,,,,,,,,,,,,,,,,,,,,,,,,,,,,,,,,,,,,,,,,,,,,,,,,,,,,,,,,,,,,,,,,,,,,,,,,,,,,,,,,,,,,,,,,
,,5e9257d7a7264858bf6701e7,2023-12-14_23h04.26.329,kallum_motion_pilot,2023.2.3,MacIntel,59.88023952,5e9257d7a7264858bf6701e7,657bb317c8798c6608bceb3f,657bb40ecf7c2f51c5bb0bf5,0.0135,0.0135,0,40,40,113,1,fiveseven,,,,,,,,,,,,,,,,,,,,,,,,,,,,,,,,,,,,,,,,,,,,,,,,,,,,,,,,,,,,,,,,,,,,,,,,,,,,,,,,,,,,,,,,,,,,,,,,,,,,,,,,,,,,,,,,,,,,,,,,,,,,,,,,,,,,,,,
,,5e9257d7a7264858bf6701e7,2023-12-14_23h04.26.329,kallum_motion_pilot,2023.2.3,MacIntel,59.88023952,5e9257d7a7264858bf6701e7,657bb317c8798c6608bceb3f,657bb40ecf7c2f51c5bb0bf5,0.0136,0.0136,0,41,41,126,1,eightsix,,,,,,,,,,,,,,,,,,,,,,,,,,,,,,,,,,,,,,,,,,,,,,,,,,,,,,,,,,,,,,,,,,,,,,,,,,,,,,,,,,,,,,,,,,,,,,,,,,,,,,,,,,,,,,,,,,,,,,,,,,,,,,,,,,,,,,,
,,5e9257d7a7264858bf6701e7,2023-12-14_23h04.26.329,kallum_motion_pilot,2023.2.3,MacIntel,59.88023952,5e9257d7a7264858bf6701e7,657bb317c8798c6608bceb3f,657bb40ecf7c2f51c5bb0bf5,0.0139,0.014,0,42,42,16,1,onetwo,,,,,,,,,,,,,,,,,,,,,,,,,,,,,,,,,,,,,,,,,,,,,,,,,,,,,,,,,,,,,,,,,,,,,,,,,,,,,,,,,,,,,,,,,,,,,,,,,,,,,,,,,,,,,,,,,,,,,,,,,,,,,,,,,,,,,,,
,,5e9257d7a7264858bf6701e7,2023-12-14_23h04.26.329,kallum_motion_pilot,2023.2.3,MacIntel,59.88023952,5e9257d7a7264858bf6701e7,657bb317c8798c6608bceb3f,657bb40ecf7c2f51c5bb0bf5,0.014,0.014,0,43,43,132,1,sevenfive,,,,,,,,,,,,,,,,,,,,,,,,,,,,,,,,,,,,,,,,,,,,,,,,,,,,,,,,,,,,,,,,,,,,,,,,,,,,,,,,,,,,,,,,,,,,,,,,,,,,,,,,,,,,,,,,,,,,,,,,,,,,,,,,,,,,,,,
,,5e9257d7a7264858bf6701e7,2023-12-14_23h04.26.329,kallum_motion_pilot,2023.2.3,MacIntel,59.88023952,5e9257d7a7264858bf6701e7,657bb317c8798c6608bceb3f,657bb40ecf7c2f51c5bb0bf5,0.0141,0.0141,0,44,44,104,1,fivesix,,,,,,,,,,,,,,,,,,,,,,,,,,,,,,,,,,,,,,,,,,,,,,,,,,,,,,,,,,,,,,,,,,,,,,,,,,,,,,,,,,,,,,,,,,,,,,,,,,,,,,,,,,,,,,,,,,,,,,,,,,,,,,,,,,,,,,,
,,5e9257d7a7264858bf6701e7,2023-12-14_23h04.26.329,kallum_motion_pilot,2023.2.3,MacIntel,59.88023952,5e9257d7a7264858bf6701e7,657bb317c8798c6608bceb3f,657bb40ecf7c2f51c5bb0bf5,0.0141,0.0141,0,45,45,146,1,sixfive,,,,,,,,,,,,,,,,,,,,,,,,,,,,,,,,,,,,,,,,,,,,,,,,,,,,,,,,,,,,,,,,,,,,,,,,,,,,,,,,,,,,,,,,,,,,,,,,,,,,,,,,,,,,,,,,,,,,,,,,,,,,,,,,,,,,,,,
,,5e9257d7a7264858bf6701e7,2023-12-14_23h04.26.329,kallum_motion_pilot,2023.2.3,MacIntel,59.88023952,5e9257d7a7264858bf6701e7,657bb317c8798c6608bceb3f,657bb40ecf7c2f51c5bb0bf5,0.0141,0.0141,0,46,46,15,1,fourthree,,,,,,,,,,,,,,,,,,,,,,,,,,,,,,,,,,,,,,,,,,,,,,,,,,,,,,,,,,,,,,,,,,,,,,,,,,,,,,,,,,,,,,,,,,,,,,,,,,,,,,,,,,,,,,,,,,,,,,,,,,,,,,,,,,,,,,,
,,5e9257d7a7264858bf6701e7,2023-12-14_23h04.26.329,kallum_motion_pilot,2023.2.3,MacIntel,59.88023952,5e9257d7a7264858bf6701e7,657bb317c8798c6608bceb3f,657bb40ecf7c2f51c5bb0bf5,0.0142,0.0142,0,47,47,121,1,fiveseven,,,,,,,,,,,,,,,,,,,,,,,,,,,,,,,,,,,,,,,,,,,,,,,,,,,,,,,,,,,,,,,,,,,,,,,,,,,,,,,,,,,,,,,,,,,,,,,,,,,,,,,,,,,,,,,,,,,,,,,,,,,,,,,,,,,,,,,
,,5e9257d7a7264858bf6701e7,2023-12-14_23h04.26.329,kallum_motion_pilot,2023.2.3,MacIntel,59.88023952,5e9257d7a7264858bf6701e7,657bb317c8798c6608bceb3f,657bb40ecf7c2f51c5bb0bf5,0.0143,0.0143,0,48,48,135,1,eightseven,,,,,,,,,,,,,,,,,,,,,,,,,,,,,,,,,,,,,,,,,,,,,,,,,,,,,,,,,,,,,,,,,,,,,,,,,,,,,,,,,,,,,,,,,,,,,,,,,,,,,,,,,,,,,,,,,,,,,,,,,,,,,,,,,,,,,,,
,,5e9257d7a7264858bf6701e7,2023-12-14_23h04.26.329,kallum_motion_pilot,2023.2.3,MacIntel,59.88023952,5e9257d7a7264858bf6701e7,657bb317c8798c6608bceb3f,657bb40ecf7c2f51c5bb0bf5,0.0143,0.0143,0,49,49,159,1,eightseven,,,,,,,,,,,,,,,,,,,,,,,,,,,,,,,,,,,,,,,,,,,,,,,,,,,,,,,,,,,,,,,,,,,,,,,,,,,,,,,,,,,,,,,,,,,,,,,,,,,,,,,,,,,,,,,,,,,,,,,,,,,,,,,,,,,,,,,
,,5e9257d7a7264858bf6701e7,2023-12-14_23h04.26.329,kallum_motion_pilot,2023.2.3,MacIntel,59.88023952,5e9257d7a7264858bf6701e7,657bb317c8798c6608bceb3f,657bb40ecf7c2f51c5bb0bf5,0.0143,0.0143,0,50,50,13,1,threefour,,,,,,,,,,,,,,,,,,,,,,,,,,,,,,,,,,,,,,,,,,,,,,,,,,,,,,,,,,,,,,,,,,,,,,,,,,,,,,,,,,,,,,,,,,,,,,,,,,,,,,,,,,,,,,,,,,,,,,,,,,,,,,,,,,,,,,,
,,5e9257d7a7264858bf6701e7,2023-12-14_23h04.26.329,kallum_motion_pilot,2023.2.3,MacIntel,59.88023952,5e9257d7a7264858bf6701e7,657bb317c8798c6608bceb3f,657bb40ecf7c2f51c5bb0bf5,0.0143,0.0143,0,51,51,117,1,seveneight,,,,,,,,,,,,,,,,,,,,,,,,,,,,,,,,,,,,,,,,,,,,,,,,,,,,,,,,,,,,,,,,,,,,,,,,,,,,,,,,,,,,,,,,,,,,,,,,,,,,,,,,,,,,,,,,,,,,,,,,,,,,,,,,,,,,,,,
,,5e9257d7a7264858bf6701e7,2023-12-14_23h04.26.329,kallum_motion_pilot,2023.2.3,MacIntel,59.88023952,5e9257d7a7264858bf6701e7,657bb317c8798c6608bceb3f,657bb40ecf7c2f51c5bb0bf5,0.0144,0.0144,0,52,52,48,1,onetwo,,,,,,,,,,,,,,,,,,,,,,,,,,,,,,,,,,,,,,,,,,,,,,,,,,,,,,,,,,,,,,,,,,,,,,,,,,,,,,,,,,,,,,,,,,,,,,,,,,,,,,,,,,,,,,,,,,,,,,,,,,,,,,,,,,,,,,,
,,5e9257d7a7264858bf6701e7,2023-12-14_23h04.26.329,kallum_motion_pilot,2023.2.3,MacIntel,59.88023952,5e9257d7a7264858bf6701e7,657bb317c8798c6608bceb3f,657bb40ecf7c2f51c5bb0bf5,0.0144,0.0145,0,53,53,120,1,fivesix,,,,,,,,,,,,,,,,,,,,,,,,,,,,,,,,,,,,,,,,,,,,,,,,,,,,,,,,,,,,,,,,,,,,,,,,,,,,,,,,,,,,,,,,,,,,,,,,,,,,,,,,,,,,,,,,,,,,,,,,,,,,,,,,,,,,,,,
,,5e9257d7a7264858bf6701e7,2023-12-14_23h04.26.329,kallum_motion_pilot,2023.2.3,MacIntel,59.88023952,5e9257d7a7264858bf6701e7,657bb317c8798c6608bceb3f,657bb40ecf7c2f51c5bb0bf5,0.0145,0.0145,0,54,54,41,1,onethree,,,,,,,,,,,,,,,,,,,,,,,,,,,,,,,,,,,,,,,,,,,,,,,,,,,,,,,,,,,,,,,,,,,,,,,,,,,,,,,,,,,,,,,,,,,,,,,,,,,,,,,,,,,,,,,,,,,,,,,,,,,,,,,,,,,,,,,
,,5e9257d7a7264858bf6701e7,2023-12-14_23h04.26.329,kallum_motion_pilot,2023.2.3,MacIntel,59.88023952,5e9257d7a7264858bf6701e7,657bb317c8798c6608bceb3f,657bb40ecf7c2f51c5bb0bf5,0.0145,0.0145,0,55,55,64,1,onetwo,,,,,,,,,,,,,,,,,,,,,,,,,,,,,,,,,,,,,,,,,,,,,,,,,,,,,,,,,,,,,,,,,,,,,,,,,,,,,,,,,,,,,,,,,,,,,,,,,,,,,,,,,,,,,,,,,,,,,,,,,,,,,,,,,,,,,,,
,,5e9257d7a7264858bf6701e7,2023-12-14_23h04.26.329,kallum_motion_pilot,2023.2.3,MacIntel,59.88023952,5e9257d7a7264858bf6701e7,657bb317c8798c6608bceb3f,657bb40ecf7c2f51c5bb0bf5,0.0146,0.0146,0,56,56,128,1,fivesix,,,,,,,,,,,,,,,,,,,,,,,,,,,,,,,,,,,,,,,,,,,,,,,,,,,,,,,,,,,,,,,,,,,,,,,,,,,,,,,,,,,,,,,,,,,,,,,,,,,,,,,,,,,,,,,,,,,,,,,,,,,,,,,,,,,,,,,
,,5e9257d7a7264858bf6701e7,2023-12-14_23h04.26.329,kallum_motion_pilot,2023.2.3,MacIntel,59.88023952,5e9257d7a7264858bf6701e7,657bb317c8798c6608bceb3f,657bb40ecf7c2f51c5bb0bf5,0.0146,0.0146,0,57,57,122,1,sixfive,,,,,,,,,,,,,,,,,,,,,,,,,,,,,,,,,,,,,,,,,,,,,,,,,,,,,,,,,,,,,,,,,,,,,,,,,,,,,,,,,,,,,,,,,,,,,,,,,,,,,,,,,,,,,,,,,,,,,,,,,,,,,,,,,,,,,,,
,,5e9257d7a7264858bf6701e7,2023-12-14_23h04.26.329,kallum_motion_pilot,2023.2.3,MacIntel,59.88023952,5e9257d7a7264858bf6701e7,657bb317c8798c6608bceb3f,657bb40ecf7c2f51c5bb0bf5,0.0146,0.0147,0,58,58,133,1,seveneight,,,,,,,,,,,,,,,,,,,,,,,,,,,,,,,,,,,,,,,,,,,,,,,,,,,,,,,,,,,,,,,,,,,,,,,,,,,,,,,,,,,,,,,,,,,,,,,,,,,,,,,,,,,,,,,,,,,,,,,,,,,,,,,,,,,,,,,
,,5e9257d7a7264858bf6701e7,2023-12-14_23h04.26.329,kallum_motion_pilot,2023.2.3,MacIntel,59.88023952,5e9257d7a7264858bf6701e7,657bb317c8798c6608bceb3f,657bb40ecf7c2f51c5bb0bf5,0.0147,0.0147,0,59,59,63,1,fourthree,,,,,,,,,,,,,,,,,,,,,,,,,,,,,,,,,,,,,,,,,,,,,,,,,,,,,,,,,,,,,,,,,,,,,,,,,,,,,,,,,,,,,,,,,,,,,,,,,,,,,,,,,,,,,,,,,,,,,,,,,,,,,,,,,,,,,,,
,,5e9257d7a7264858bf6701e7,2023-12-14_23h04.26.329,kallum_motion_pilot,2023.2.3,MacIntel,59.88023952,5e9257d7a7264858bf6701e7,657bb317c8798c6608bceb3f,657bb40ecf7c2f51c5bb0bf5,0.0147,0.0147,0,60,60,22,1,fourtwo,,,,,,,,,,,,,,,,,,,,,,,,,,,,,,,,,,,,,,,,,,,,,,,,,,,,,,,,,,,,,,,,,,,,,,,,,,,,,,,,,,,,,,,,,,,,,,,,,,,,,,,,,,,,,,,,,,,,,,,,,,,,,,,,,,,,,,,
,,5e9257d7a7264858bf6701e7,2023-12-14_23h04.26.329,kallum_motion_pilot,2023.2.3,MacIntel,59.88023952,5e9257d7a7264858bf6701e7,657bb317c8798c6608bceb3f,657bb40ecf7c2f51c5bb0bf5,0.0148,0.0148,0,61,61,151,1,eightseven,,,,,,,,,,,,,,,,,,,,,,,,,,,,,,,,,,,,,,,,,,,,,,,,,,,,,,,,,,,,,,,,,,,,,,,,,,,,,,,,,,,,,,,,,,,,,,,,,,,,,,,,,,,,,,,,,,,,,,,,,,,,,,,,,,,,,,,
,,5e9257d7a7264858bf6701e7,2023-12-14_23h04.26.329,kallum_motion_pilot,2023.2.3,MacIntel,59.88023952,5e9257d7a7264858bf6701e7,657bb317c8798c6608bceb3f,657bb40ecf7c2f51c5bb0bf5,0.0148,0.0149,0,62,62,94,1,eightsix,,,,,,,,,,,,,,,,,,,,,,,,,,,,,,,,,,,,,,,,,,,,,,,,,,,,,,,,,,,,,,,,,,,,,,,,,,,,,,,,,,,,,,,,,,,,,,,,,,,,,,,,,,,,,,,,,,,,,,,,,,,,,,,,,,,,,,,
,,5e9257d7a7264858bf6701e7,2023-12-14_23h04.26.329,kallum_motion_pilot,2023.2.3,MacIntel,59.88023952,5e9257d7a7264858bf6701e7,657bb317c8798c6608bceb3f,657bb40ecf7c2f51c5bb0bf5,0.0149,0.0149,0,63,63,11,1,twofour,,,,,,,,,,,,,,,,,,,,,,,,,,,,,,,,,,,,,,,,,,,,,,,,,,,,,,,,,,,,,,,,,,,,,,,,,,,,,,,,,,,,,,,,,,,,,,,,,,,,,,,,,,,,,,,,,,,,,,,,,,,,,,,,,,,,,,,
,,5e9257d7a7264858bf6701e7,2023-12-14_23h04.26.329,kallum_motion_pilot,2023.2.3,MacIntel,59.88023952,5e9257d7a7264858bf6701e7,657bb317c8798c6608bceb3f,657bb40ecf7c2f51c5bb0bf5,0.0149,0.0149,0,64,64,97,1,fiveseven,,,,,,,,,,,,,,,,,,,,,,,,,,,,,,,,,,,,,,,,,,,,,,,,,,,,,,,,,,,,,,,,,,,,,,,,,,,,,,,,,,,,,,,,,,,,,,,,,,,,,,,,,,,,,,,,,,,,,,,,,,,,,,,,,,,,,,,
,,5e9257d7a7264858bf6701e7,2023-12-14_23h04.26.329,kallum_motion_pilot,2023.2.3,MacIntel,59.88023952,5e9257d7a7264858bf6701e7,657bb317c8798c6608bceb3f,657bb40ecf7c2f51c5bb0bf5,0.0149,0.0149,0,65,65,137,1,fiveseven,,,,,,,,,,,,,,,,,,,,,,,,,,,,,,,,,,,,,,,,,,,,,,,,,,,,,,,,,,,,,,,,,,,,,,,,,,,,,,,,,,,,,,,,,,,,,,,,,,,,,,,,,,,,,,,,,,,,,,,,,,,,,,,,,,,,,,,
,,5e9257d7a7264858bf6701e7,2023-12-14_23h04.26.329,kallum_motion_pilot,2023.2.3,MacIntel,59.88023952,5e9257d7a7264858bf6701e7,657bb317c8798c6608bceb3f,657bb40ecf7c2f51c5bb0bf5,0.015,0.015,0,66,66,43,1,twofour,,,,,,,,,,,,,,,,,,,,,,,,,,,,,,,,,,,,,,,,,,,,,,,,,,,,,,,,,,,,,,,,,,,,,,,,,,,,,,,,,,,,,,,,,,,,,,,,,,,,,,,,,,,,,,,,,,,,,,,,,,,,,,,,,,,,,,,
,,5e9257d7a7264858bf6701e7,2023-12-14_23h04.26.329,kallum_motion_pilot,2023.2.3,MacIntel,59.88023952,5e9257d7a7264858bf6701e7,657bb317c8798c6608bceb3f,657bb40ecf7c2f51c5bb0bf5,0.0151,0.0151,0,67,67,74,1,twoone,,,,,,,,,,,,,,,,,,,,,,,,,,,,,,,,,,,,,,,,,,,,,,,,,,,,,,,,,,,,,,,,,,,,,,,,,,,,,,,,,,,,,,,,,,,,,,,,,,,,,,,,,,,,,,,,,,,,,,,,,,,,,,,,,,,,,,,
,,5e9257d7a7264858bf6701e7,2023-12-14_23h04.26.329,kallum_motion_pilot,2023.2.3,MacIntel,59.88023952,5e9257d7a7264858bf6701e7,657bb317c8798c6608bceb3f,657bb40ecf7c2f51c5bb0bf5,0.0152,0.0152,0,68,68,62,1,fourtwo,,,,,,,,,,,,,,,,,,,,,,,,,,,,,,,,,,,,,,,,,,,,,,,,,,,,,,,,,,,,,,,,,,,,,,,,,,,,,,,,,,,,,,,,,,,,,,,,,,,,,,,,,,,,,,,,,,,,,,,,,,,,,,,,,,,,,,,
,,5e9257d7a7264858bf6701e7,2023-12-14_23h04.26.329,kallum_motion_pilot,2023.2.3,MacIntel,59.88023952,5e9257d7a7264858bf6701e7,657bb317c8798c6608bceb3f,657bb40ecf7c2f51c5bb0bf5,0.0152,0.0152,0,69,69,141,1,seveneight,,,,,,,,,,,,,,,,,,,,,,,,,,,,,,,,,,,,,,,,,,,,,,,,,,,,,,,,,,,,,,,,,,,,,,,,,,,,,,,,,,,,,,,,,,,,,,,,,,,,,,,,,,,,,,,,,,,,,,,,,,,,,,,,,,,,,,,
,,5e9257d7a7264858bf6701e7,2023-12-14_23h04.26.329,kallum_motion_pilot,2023.2.3,MacIntel,59.88023952,5e9257d7a7264858bf6701e7,657bb317c8798c6608bceb3f,657bb40ecf7c2f51c5bb0bf5,0.0152,0.0152,0,70,70,110,1,eightsix,,,,,,,,,,,,,,,,,,,,,,,,,,,,,,,,,,,,,,,,,,,,,,,,,,,,,,,,,,,,,,,,,,,,,,,,,,,,,,,,,,,,,,,,,,,,,,,,,,,,,,,,,,,,,,,,,,,,,,,,,,,,,,,,,,,,,,,
,,5e9257d7a7264858bf6701e7,2023-12-14_23h04.26.329,kallum_motion_pilot,2023.2.3,MacIntel,59.88023952,5e9257d7a7264858bf6701e7,657bb317c8798c6608bceb3f,657bb40ecf7c2f51c5bb0bf5,0.0152,0.0152,0,71,71,58,1,twoone,,,,,,,,,,,,,,,,,,,,,,,,,,,,,,,,,,,,,,,,,,,,,,,,,,,,,,,,,,,,,,,,,,,,,,,,,,,,,,,,,,,,,,,,,,,,,,,,,,,,,,,,,,,,,,,,,,,,,,,,,,,,,,,,,,,,,,,
,,5e9257d7a7264858bf6701e7,2023-12-14_23h04.26.329,kallum_motion_pilot,2023.2.3,MacIntel,59.88023952,5e9257d7a7264858bf6701e7,657bb317c8798c6608bceb3f,657bb40ecf7c2f51c5bb0bf5,0.0153,0.0153,0,72,72,80,1,fivesix,,,,,,,,,,,,,,,,,,,,,,,,,,,,,,,,,,,,,,,,,,,,,,,,,,,,,,,,,,,,,,,,,,,,,,,,,,,,,,,,,,,,,,,,,,,,,,,,,,,,,,,,,,,,,,,,,,,,,,,,,,,,,,,,,,,,,,,
,,5e9257d7a7264858bf6701e7,2023-12-14_23h04.26.329,kallum_motion_pilot,2023.2.3,MacIntel,59.88023952,5e9257d7a7264858bf6701e7,657bb317c8798c6608bceb3f,657bb40ecf7c2f51c5bb0bf5,0.0153,0.0153,0,73,73,88,1,fivesix,,,,,,,,,,,,,,,,,,,,,,,,,,,,,,,,,,,,,,,,,,,,,,,,,,,,,,,,,,,,,,,,,,,,,,,,,,,,,,,,,,,,,,,,,,,,,,,,,,,,,,,,,,,,,,,,,,,,,,,,,,,,,,,,,,,,,,,
,,5e9257d7a7264858bf6701e7,2023-12-14_23h04.26.329,kallum_motion_pilot,2023.2.3,MacIntel,59.88023952,5e9257d7a7264858bf6701e7,657bb317c8798c6608bceb3f,657bb40ecf7c2f51c5bb0bf5,0.0154,0.0154,0,74,74,147,1,sixeight,,,,,,,,,,,,,,,,,,,,,,,,,,,,,,,,,,,,,,,,,,,,,,,,,,,,,,,,,,,,,,,,,,,,,,,,,,,,,,,,,,,,,,,,,,,,,,,,,,,,,,,,,,,,,,,,,,,,,,,,,,,,,,,,,,,,,,,
,,5e9257d7a7264858bf6701e7,2023-12-14_23h04.26.329,kallum_motion_pilot,2023.2.3,MacIntel,59.88023952,5e9257d7a7264858bf6701e7,657bb317c8798c6608bceb3f,657bb40ecf7c2f51c5bb0bf5,0.0155,0.0155,0,75,75,33,1,onethree,,,,,,,,,,,,,,,,,,,,,,,,,,,,,,,,,,,,,,,,,,,,,,,,,,,,,,,,,,,,,,,,,,,,,,,,,,,,,,,,,,,,,,,,,,,,,,,,,,,,,,,,,,,,,,,,,,,,,,,,,,,,,,,,,,,,,,,
,,5e9257d7a7264858bf6701e7,2023-12-14_23h04.26.329,kallum_motion_pilot,2023.2.3,MacIntel,59.88023952,5e9257d7a7264858bf6701e7,657bb317c8798c6608bceb3f,657bb40ecf7c2f51c5bb0bf5,0.0155,0.0155,0,76,76,72,1,onetwo,,,,,,,,,,,,,,,,,,,,,,,,,,,,,,,,,,,,,,,,,,,,,,,,,,,,,,,,,,,,,,,,,,,,,,,,,,,,,,,,,,,,,,,,,,,,,,,,,,,,,,,,,,,,,,,,,,,,,,,,,,,,,,,,,,,,,,,
,,5e9257d7a7264858bf6701e7,2023-12-14_23h04.26.329,kallum_motion_pilot,2023.2.3,MacIntel,59.88023952,5e9257d7a7264858bf6701e7,657bb317c8798c6608bceb3f,657bb40ecf7c2f51c5bb0bf5,0.0155,0.0155,0,77,77,87,1,eightseven,,,,,,,,,,,,,,,,,,,,,,,,,,,,,,,,,,,,,,,,,,,,,,,,,,,,,,,,,,,,,,,,,,,,,,,,,,,,,,,,,,,,,,,,,,,,,,,,,,,,,,,,,,,,,,,,,,,,,,,,,,,,,,,,,,,,,,,
,,5e9257d7a7264858bf6701e7,2023-12-14_23h04.26.329,kallum_motion_pilot,2023.2.3,MacIntel,59.88023952,5e9257d7a7264858bf6701e7,657bb317c8798c6608bceb3f,657bb40ecf7c2f51c5bb0bf5,0.0156,0.0156,0,78,78,68,1,threeone,,,,,,,,,,,,,,,,,,,,,,,,,,,,,,,,,,,,,,,,,,,,,,,,,,,,,,,,,,,,,,,,,,,,,,,,,,,,,,,,,,,,,,,,,,,,,,,,,,,,,,,,,,,,,,,,,,,,,,,,,,,,,,,,,,,,,,,
,,5e9257d7a7264858bf6701e7,2023-12-14_23h04.26.329,kallum_motion_pilot,2023.2.3,MacIntel,59.88023952,5e9257d7a7264858bf6701e7,657bb317c8798c6608bceb3f,657bb40ecf7c2f51c5bb0bf5,0.0156,0.0156,0,79,79,9,1,onethree,,,,,,,,,,,,,,,,,,,,,,,,,,,,,,,,,,,,,,,,,,,,,,,,,,,,,,,,,,,,,,,,,,,,,,,,,,,,,,,,,,,,,,,,,,,,,,,,,,,,,,,,,,,,,,,,,,,,,,,,,,,,,,,,,,,,,,,
,,5e9257d7a7264858bf6701e7,2023-12-14_23h04.26.329,kallum_motion_pilot,2023.2.3,MacIntel,59.88023952,5e9257d7a7264858bf6701e7,657bb317c8798c6608bceb3f,657bb40ecf7c2f51c5bb0bf5,0.0157,0.0157,0,80,80,160,1,fivesix,,,,,,,,,,,,,,,,,,,,,,,,,,,,,,,,,,,,,,,,,,,,,,,,,,,,,,,,,,,,,,,,,,,,,,,,,,,,,,,,,,,,,,,,,,,,,,,,,,,,,,,,,,,,,,,,,,,,,,,,,,,,,,,,,,,,,,,
,,5e9257d7a7264858bf6701e7,2023-12-14_23h04.26.329,kallum_motion_pilot,2023.2.3,MacIntel,59.88023952,5e9257d7a7264858bf6701e7,657bb317c8798c6608bceb3f,657bb40ecf7c2f51c5bb0bf5,0.0157,0.0157,0,81,81,157,1,seveneight,,,,,,,,,,,,,,,,,,,,,,,,,,,,,,,,,,,,,,,,,,,,,,,,,,,,,,,,,,,,,,,,,,,,,,,,,,,,,,,,,,,,,,,,,,,,,,,,,,,,,,,,,,,,,,,,,,,,,,,,,,,,,,,,,,,,,,,
,,5e9257d7a7264858bf6701e7,2023-12-14_23h04.26.329,kallum_motion_pilot,2023.2.3,MacIntel,59.88023952,5e9257d7a7264858bf6701e7,657bb317c8798c6608bceb3f,657bb40ecf7c2f51c5bb0bf5,0.0157,0.0157,0,82,82,125,1,seveneight,,,,,,,,,,,,,,,,,,,,,,,,,,,,,,,,,,,,,,,,,,,,,,,,,,,,,,,,,,,,,,,,,,,,,,,,,,,,,,,,,,,,,,,,,,,,,,,,,,,,,,,,,,,,,,,,,,,,,,,,,,,,,,,,,,,,,,,
,,5e9257d7a7264858bf6701e7,2023-12-14_23h04.26.329,kallum_motion_pilot,2023.2.3,MacIntel,59.88023952,5e9257d7a7264858bf6701e7,657bb317c8798c6608bceb3f,657bb40ecf7c2f51c5bb0bf5,0.0158,0.0158,0,83,83,70,1,fourtwo,,,,,,,,,,,,,,,,,,,,,,,,,,,,,,,,,,,,,,,,,,,,,,,,,,,,,,,,,,,,,,,,,,,,,,,,,,,,,,,,,,,,,,,,,,,,,,,,,,,,,,,,,,,,,,,,,,,,,,,,,,,,,,,,,,,,,,,
,,5e9257d7a7264858bf6701e7,2023-12-14_23h04.26.329,kallum_motion_pilot,2023.2.3,MacIntel,59.88023952,5e9257d7a7264858bf6701e7,657bb317c8798c6608bceb3f,657bb40ecf7c2f51c5bb0bf5,0.0159,0.0159,0,84,84,156,1,sevenfive,,,,,,,,,,,,,,,,,,,,,,,,,,,,,,,,,,,,,,,,,,,,,,,,,,,,,,,,,,,,,,,,,,,,,,,,,,,,,,,,,,,,,,,,,,,,,,,,,,,,,,,,,,,,,,,,,,,,,,,,,,,,,,,,,,,,,,,
,,5e9257d7a7264858bf6701e7,2023-12-14_23h04.26.329,kallum_motion_pilot,2023.2.3,MacIntel,59.88023952,5e9257d7a7264858bf6701e7,657bb317c8798c6608bceb3f,657bb40ecf7c2f51c5bb0bf5,0.0159,0.0159,0,85,85,25,1,onethree,,,,,,,,,,,,,,,,,,,,,,,,,,,,,,,,,,,,,,,,,,,,,,,,,,,,,,,,,,,,,,,,,,,,,,,,,,,,,,,,,,,,,,,,,,,,,,,,,,,,,,,,,,,,,,,,,,,,,,,,,,,,,,,,,,,,,,,
,,5e9257d7a7264858bf6701e7,2023-12-14_23h04.26.329,kallum_motion_pilot,2023.2.3,MacIntel,59.88023952,5e9257d7a7264858bf6701e7,657bb317c8798c6608bceb3f,657bb40ecf7c2f51c5bb0bf5,0.0159,0.016,0,86,86,130,1,sixfive,,,,,,,,,,,,,,,,,,,,,,,,,,,,,,,,,,,,,,,,,,,,,,,,,,,,,,,,,,,,,,,,,,,,,,,,,,,,,,,,,,,,,,,,,,,,,,,,,,,,,,,,,,,,,,,,,,,,,,,,,,,,,,,,,,,,,,,
,,5e9257d7a7264858bf6701e7,2023-12-14_23h04.26.329,kallum_motion_pilot,2023.2.3,MacIntel,59.88023952,5e9257d7a7264858bf6701e7,657bb317c8798c6608bceb3f,657bb40ecf7c2f51c5bb0bf5,0.016,0.0161,0,87,87,102,1,eightsix,,,,,,,,,,,,,,,,,,,,,,,,,,,,,,,,,,,,,,,,,,,,,,,,,,,,,,,,,,,,,,,,,,,,,,,,,,,,,,,,,,,,,,,,,,,,,,,,,,,,,,,,,,,,,,,,,,,,,,,,,,,,,,,,,,,,,,,
,,5e9257d7a7264858bf6701e7,2023-12-14_23h04.26.329,kallum_motion_pilot,2023.2.3,MacIntel,59.88023952,5e9257d7a7264858bf6701e7,657bb317c8798c6608bceb3f,657bb40ecf7c2f51c5bb0bf5,0.0161,0.0161,0,88,88,90,1,sixfive,,,,,,,,,,,,,,,,,,,,,,,,,,,,,,,,,,,,,,,,,,,,,,,,,,,,,,,,,,,,,,,,,,,,,,,,,,,,,,,,,,,,,,,,,,,,,,,,,,,,,,,,,,,,,,,,,,,,,,,,,,,,,,,,,,,,,,,
,,5e9257d7a7264858bf6701e7,2023-12-14_23h04.26.329,kallum_motion_pilot,2023.2.3,MacIntel,59.88023952,5e9257d7a7264858bf6701e7,657bb317c8798c6608bceb3f,657bb40ecf7c2f51c5bb0bf5,0.0161,0.0161,0,89,89,32,1,onetwo,,,,,,,,,,,,,,,,,,,,,,,,,,,,,,,,,,,,,,,,,,,,,,,,,,,,,,,,,,,,,,,,,,,,,,,,,,,,,,,,,,,,,,,,,,,,,,,,,,,,,,,,,,,,,,,,,,,,,,,,,,,,,,,,,,,,,,,
,,5e9257d7a7264858bf6701e7,2023-12-14_23h04.26.329,kallum_motion_pilot,2023.2.3,MacIntel,59.88023952,5e9257d7a7264858bf6701e7,657bb317c8798c6608bceb3f,657bb40ecf7c2f51c5bb0bf5,0.0162,0.0162,0,90,90,73,1,onethree,,,,,,,,,,,,,,,,,,,,,,,,,,,,,,,,,,,,,,,,,,,,,,,,,,,,,,,,,,,,,,,,,,,,,,,,,,,,,,,,,,,,,,,,,,,,,,,,,,,,,,,,,,,,,,,,,,,,,,,,,,,,,,,,,,,,,,,
,,5e9257d7a7264858bf6701e7,2023-12-14_23h04.26.329,kallum_motion_pilot,2023.2.3,MacIntel,59.88023952,5e9257d7a7264858bf6701e7,657bb317c8798c6608bceb3f,657bb40ecf7c2f51c5bb0bf5,0.0163,0.0163,0,91,91,46,1,fourtwo,,,,,,,,,,,,,,,,,,,,,,,,,,,,,,,,,,,,,,,,,,,,,,,,,,,,,,,,,,,,,,,,,,,,,,,,,,,,,,,,,,,,,,,,,,,,,,,,,,,,,,,,,,,,,,,,,,,,,,,,,,,,,,,,,,,,,,,
,,5e9257d7a7264858bf6701e7,2023-12-14_23h04.26.329,kallum_motion_pilot,2023.2.3,MacIntel,59.88023952,5e9257d7a7264858bf6701e7,657bb317c8798c6608bceb3f,657bb40ecf7c2f51c5bb0bf5,0.0163,0.0163,0,92,92,23,1,fourthree,,,,,,,,,,,,,,,,,,,,,,,,,,,,,,,,,,,,,,,,,,,,,,,,,,,,,,,,,,,,,,,,,,,,,,,,,,,,,,,,,,,,,,,,,,,,,,,,,,,,,,,,,,,,,,,,,,,,,,,,,,,,,,,,,,,,,,,
,,5e9257d7a7264858bf6701e7,2023-12-14_23h04.26.329,kallum_motion_pilot,2023.2.3,MacIntel,59.88023952,5e9257d7a7264858bf6701e7,657bb317c8798c6608bceb3f,657bb40ecf7c2f51c5bb0bf5,0.0163,0.0163,0,93,93,37,1,threefour,,,,,,,,,,,,,,,,,,,,,,,,,,,,,,,,,,,,,,,,,,,,,,,,,,,,,,,,,,,,,,,,,,,,,,,,,,,,,,,,,,,,,,,,,,,,,,,,,,,,,,,,,,,,,,,,,,,,,,,,,,,,,,,,,,,,,,,
,,5e9257d7a7264858bf6701e7,2023-12-14_23h04.26.329,kallum_motion_pilot,2023.2.3,MacIntel,59.88023952,5e9257d7a7264858bf6701e7,657bb317c8798c6608bceb3f,657bb40ecf7c2f51c5bb0bf5,0.0163,0.0163,0,94,94,29,1,threefour,,,,,,,,,,,,,,,,,,,,,,,,,,,,,,,,,,,,,,,,,,,,,,,,,,,,,,,,,,,,,,,,,,,,,,,,,,,,,,,,,,,,,,,,,,,,,,,,,,,,,,,,,,,,,,,,,,,,,,,,,,,,,,,,,,,,,,,
,,5e9257d7a7264858bf6701e7,2023-12-14_23h04.26.329,kallum_motion_pilot,2023.2.3,MacIntel,59.88023952,5e9257d7a7264858bf6701e7,657bb317c8798c6608bceb3f,657bb40ecf7c2f51c5bb0bf5,0.0165,0.0165,0,95,95,155,1,sixeight,,,,,,,,,,,,,,,,,,,,,,,,,,,,,,,,,,,,,,,,,,,,,,,,,,,,,,,,,,,,,,,,,,,,,,,,,,,,,,,,,,,,,,,,,,,,,,,,,,,,,,,,,,,,,,,,,,,,,,,,,,,,,,,,,,,,,,,
,,5e9257d7a7264858bf6701e7,2023-12-14_23h04.26.329,kallum_motion_pilot,2023.2.3,MacIntel,59.88023952,5e9257d7a7264858bf6701e7,657bb317c8798c6608bceb3f,657bb40ecf7c2f51c5bb0bf5,0.0165,0.0165,0,96,96,39,1,fourthree,,,,,,,,,,,,,,,,,,,,,,,,,,,,,,,,,,,,,,,,,,,,,,,,,,,,,,,,,,,,,,,,,,,,,,,,,,,,,,,,,,,,,,,,,,,,,,,,,,,,,,,,,,,,,,,,,,,,,,,,,,,,,,,,,,,,,,,
,,5e9257d7a7264858bf6701e7,2023-12-14_23h04.26.329,kallum_motion_pilot,2023.2.3,MacIntel,59.88023952,5e9257d7a7264858bf6701e7,657bb317c8798c6608bceb3f,657bb40ecf7c2f51c5bb0bf5,0.0165,0.0165,0,97,97,115,1,sixeight,,,,,,,,,,,,,,,,,,,,,,,,,,,,,,,,,,,,,,,,,,,,,,,,,,,,,,,,,,,,,,,,,,,,,,,,,,,,,,,,,,,,,,,,,,,,,,,,,,,,,,,,,,,,,,,,,,,,,,,,,,,,,,,,,,,,,,,
,,5e9257d7a7264858bf6701e7,2023-12-14_23h04.26.329,kallum_motion_pilot,2023.2.3,MacIntel,59.88023952,5e9257d7a7264858bf6701e7,657bb317c8798c6608bceb3f,657bb40ecf7c2f51c5bb0bf5,0.0166,0.0166,0,98,98,142,1,eightsix,,,,,,,,,,,,,,,,,,,,,,,,,,,,,,,,,,,,,,,,,,,,,,,,,,,,,,,,,,,,,,,,,,,,,,,,,,,,,,,,,,,,,,,,,,,,,,,,,,,,,,,,,,,,,,,,,,,,,,,,,,,,,,,,,,,,,,,
,,5e9257d7a7264858bf6701e7,2023-12-14_23h04.26.329,kallum_motion_pilot,2023.2.3,MacIntel,59.88023952,5e9257d7a7264858bf6701e7,657bb317c8798c6608bceb3f,657bb40ecf7c2f51c5bb0bf5,0.0167,0.0167,0,99,99,103,1,eightseven,,,,,,,,,,,,,,,,,,,,,,,,,,,,,,,,,,,,,,,,,,,,,,,,,,,,,,,,,,,,,,,,,,,,,,,,,,,,,,,,,,,,,,,,,,,,,,,,,,,,,,,,,,,,,,,,,,,,,,,,,,,,,,,,,,,,,,,
,,5e9257d7a7264858bf6701e7,2023-12-14_23h04.26.329,kallum_motion_pilot,2023.2.3,MacIntel,59.88023952,5e9257d7a7264858bf6701e7,657bb317c8798c6608bceb3f,657bb40ecf7c2f51c5bb0bf5,0.0167,0.0167,0,100,100,119,1,eightseven,,,,,,,,,,,,,,,,,,,,,,,,,,,,,,,,,,,,,,,,,,,,,,,,,,,,,,,,,,,,,,,,,,,,,,,,,,,,,,,,,,,,,,,,,,,,,,,,,,,,,,,,,,,,,,,,,,,,,,,,,,,,,,,,,,,,,,,
,,5e9257d7a7264858bf6701e7,2023-12-14_23h04.26.329,kallum_motion_pilot,2023.2.3,MacIntel,59.88023952,5e9257d7a7264858bf6701e7,657bb317c8798c6608bceb3f,657bb40ecf7c2f51c5bb0bf5,0.0167,0.0167,0,101,101,27,1,twofour,,,,,,,,,,,,,,,,,,,,,,,,,,,,,,,,,,,,,,,,,,,,,,,,,,,,,,,,,,,,,,,,,,,,,,,,,,,,,,,,,,,,,,,,,,,,,,,,,,,,,,,,,,,,,,,,,,,,,,,,,,,,,,,,,,,,,,,
,,5e9257d7a7264858bf6701e7,2023-12-14_23h04.26.329,kallum_motion_pilot,2023.2.3,MacIntel,59.88023952,5e9257d7a7264858bf6701e7,657bb317c8798c6608bceb3f,657bb40ecf7c2f51c5bb0bf5,0.0168,0.0168,0,102,102,36,1,threeone,,,,,,,,,,,,,,,,,,,,,,,,,,,,,,,,,,,,,,,,,,,,,,,,,,,,,,,,,,,,,,,,,,,,,,,,,,,,,,,,,,,,,,,,,,,,,,,,,,,,,,,,,,,,,,,,,,,,,,,,,,,,,,,,,,,,,,,
,,5e9257d7a7264858bf6701e7,2023-12-14_23h04.26.329,kallum_motion_pilot,2023.2.3,MacIntel,59.88023952,5e9257d7a7264858bf6701e7,657bb317c8798c6608bceb3f,657bb40ecf7c2f51c5bb0bf5,0.0168,0.0168,0,103,103,28,1,threeone,,,,,,,,,,,,,,,,,,,,,,,,,,,,,,,,,,,,,,,,,,,,,,,,,,,,,,,,,,,,,,,,,,,,,,,,,,,,,,,,,,,,,,,,,,,,,,,,,,,,,,,,,,,,,,,,,,,,,,,,,,,,,,,,,,,,,,,
,,5e9257d7a7264858bf6701e7,2023-12-14_23h04.26.329,kallum_motion_pilot,2023.2.3,MacIntel,59.88023952,5e9257d7a7264858bf6701e7,657bb317c8798c6608bceb3f,657bb40ecf7c2f51c5bb0bf5,0.0169,0.0169,0,104,104,144,1,fivesix,,,,,,,,,,,,,,,,,,,,,,,,,,,,,,,,,,,,,,,,,,,,,,,,,,,,,,,,,,,,,,,,,,,,,,,,,,,,,,,,,,,,,,,,,,,,,,,,,,,,,,,,,,,,,,,,,,,,,,,,,,,,,,,,,,,,,,,
,,5e9257d7a7264858bf6701e7,2023-12-14_23h04.26.329,kallum_motion_pilot,2023.2.3,MacIntel,59.88023952,5e9257d7a7264858bf6701e7,657bb317c8798c6608bceb3f,657bb40ecf7c2f51c5bb0bf5,0.0169,0.0169,0,105,105,85,1,seveneight,,,,,,,,,,,,,,,,,,,,,,,,,,,,,,,,,,,,,,,,,,,,,,,,,,,,,,,,,,,,,,,,,,,,,,,,,,,,,,,,,,,,,,,,,,,,,,,,,,,,,,,,,,,,,,,,,,,,,,,,,,,,,,,,,,,,,,,
,,5e9257d7a7264858bf6701e7,2023-12-14_23h04.26.329,kallum_motion_pilot,2023.2.3,MacIntel,59.88023952,5e9257d7a7264858bf6701e7,657bb317c8798c6608bceb3f,657bb40ecf7c2f51c5bb0bf5,0.017,0.017,0,106,106,66,1,twoone,,,,,,,,,,,,,,,,,,,,,,,,,,,,,,,,,,,,,,,,,,,,,,,,,,,,,,,,,,,,,,,,,,,,,,,,,,,,,,,,,,,,,,,,,,,,,,,,,,,,,,,,,,,,,,,,,,,,,,,,,,,,,,,,,,,,,,,
,,5e9257d7a7264858bf6701e7,2023-12-14_23h04.26.329,kallum_motion_pilot,2023.2.3,MacIntel,59.88023952,5e9257d7a7264858bf6701e7,657bb317c8798c6608bceb3f,657bb40ecf7c2f51c5bb0bf5,0.017,0.0171,0,107,107,107,1,sixeight,,,,,,,,,,,,,,,,,,,,,,,,,,,,,,,,,,,,,,,,,,,,,,,,,,,,,,,,,,,,,,,,,,,,,,,,,,,,,,,,,,,,,,,,,,,,,,,,,,,,,,,,,,,,,,,,,,,,,,,,,,,,,,,,,,,,,,,
,,5e9257d7a7264858bf6701e7,2023-12-14_23h04.26.329,kallum_motion_pilot,2023.2.3,MacIntel,59.88023952,5e9257d7a7264858bf6701e7,657bb317c8798c6608bceb3f,657bb40ecf7c2f51c5bb0bf5,0.0171,0.0171,0,108,108,59,1,twofour,,,,,,,,,,,,,,,,,,,,,,,,,,,,,,,,,,,,,,,,,,,,,,,,,,,,,,,,,,,,,,,,,,,,,,,,,,,,,,,,,,,,,,,,,,,,,,,,,,,,,,,,,,,,,,,,,,,,,,,,,,,,,,,,,,,,,,,
,,5e9257d7a7264858bf6701e7,2023-12-14_23h04.26.329,kallum_motion_pilot,2023.2.3,MacIntel,59.88023952,5e9257d7a7264858bf6701e7,657bb317c8798c6608bceb3f,657bb40ecf7c2f51c5bb0bf5,0.0172,0.0172,0,109,109,5,1,threefour,,,,,,,,,,,,,,,,,,,,,,,,,,,,,,,,,,,,,,,,,,,,,,,,,,,,,,,,,,,,,,,,,,,,,,,,,,,,,,,,,,,,,,,,,,,,,,,,,,,,,,,,,,,,,,,,,,,,,,,,,,,,,,,,,,,,,,,
,,5e9257d7a7264858bf6701e7,2023-12-14_23h04.26.329,kallum_motion_pilot,2023.2.3,MacIntel,59.88023952,5e9257d7a7264858bf6701e7,657bb317c8798c6608bceb3f,657bb40ecf7c2f51c5bb0bf5,0.0173,0.0173,0,110,110,4,1,threeone,,,,,,,,,,,,,,,,,,,,,,,,,,,,,,,,,,,,,,,,,,,,,,,,,,,,,,,,,,,,,,,,,,,,,,,,,,,,,,,,,,,,,,,,,,,,,,,,,,,,,,,,,,,,,,,,,,,,,,,,,,,,,,,,,,,,,,,
,,5e9257d7a7264858bf6701e7,2023-12-14_23h04.26.329,kallum_motion_pilot,2023.2.3,MacIntel,59.88023952,5e9257d7a7264858bf6701e7,657bb317c8798c6608bceb3f,657bb40ecf7c2f51c5bb0bf5,0.0173,0.0173,0,111,111,45,1,threefour,,,,,,,,,,,,,,,,,,,,,,,,,,,,,,,,,,,,,,,,,,,,,,,,,,,,,,,,,,,,,,,,,,,,,,,,,,,,,,,,,,,,,,,,,,,,,,,,,,,,,,,,,,,,,,,,,,,,,,,,,,,,,,,,,,,,,,,
,,5e9257d7a7264858bf6701e7,2023-12-14_23h04.26.329,kallum_motion_pilot,2023.2.3,MacIntel,59.88023952,5e9257d7a7264858bf6701e7,657bb317c8798c6608bceb3f,657bb40ecf7c2f51c5bb0bf5,0.0173,0.0173,0,112,112,47,1,fourthree,,,,,,,,,,,,,,,,,,,,,,,,,,,,,,,,,,,,,,,,,,,,,,,,,,,,,,,,,,,,,,,,,,,,,,,,,,,,,,,,,,,,,,,,,,,,,,,,,,,,,,,,,,,,,,,,,,,,,,,,,,,,,,,,,,,,,,,
,,5e9257d7a7264858bf6701e7,2023-12-14_23h04.26.329,kallum_motion_pilot,2023.2.3,MacIntel,59.88023952,5e9257d7a7264858bf6701e7,657bb317c8798c6608bceb3f,657bb40ecf7c2f51c5bb0bf5,0.0174,0.0174,0,113,113,83,1,sixeight,,,,,,,,,,,,,,,,,,,,,,,,,,,,,,,,,,,,,,,,,,,,,,,,,,,,,,,,,,,,,,,,,,,,,,,,,,,,,,,,,,,,,,,,,,,,,,,,,,,,,,,,,,,,,,,,,,,,,,,,,,,,,,,,,,,,,,,
,,5e9257d7a7264858bf6701e7,2023-12-14_23h04.26.329,kallum_motion_pilot,2023.2.3,MacIntel,59.88023952,5e9257d7a7264858bf6701e7,657bb317c8798c6608bceb3f,657bb40ecf7c2f51c5bb0bf5,0.0174,0.0174,0,114,114,150,1,eightsix,,,,,,,,,,,,,,,,,,,,,,,,,,,,,,,,,,,,,,,,,,,,,,,,,,,,,,,,,,,,,,,,,,,,,,,,,,,,,,,,,,,,,,,,,,,,,,,,,,,,,,,,,,,,,,,,,,,,,,,,,,,,,,,,,,,,,,,
,,5e9257d7a7264858bf6701e7,2023-12-14_23h04.26.329,kallum_motion_pilot,2023.2.3,MacIntel,59.88023952,5e9257d7a7264858bf6701e7,657bb317c8798c6608bceb3f,657bb40ecf7c2f51c5bb0bf5,0.0175,0.0175,0,115,115,118,1,eightsix,,,,,,,,,,,,,,,,,,,,,,,,,,,,,,,,,,,,,,,,,,,,,,,,,,,,,,,,,,,,,,,,,,,,,,,,,,,,,,,,,,,,,,,,,,,,,,,,,,,,,,,,,,,,,,,,,,,,,,,,,,,,,,,,,,,,,,,
,,5e9257d7a7264858bf6701e7,2023-12-14_23h04.26.329,kallum_motion_pilot,2023.2.3,MacIntel,59.88023952,5e9257d7a7264858bf6701e7,657bb317c8798c6608bceb3f,657bb40ecf7c2f51c5bb0bf5,0.0175,0.0175,0,116,116,84,1,sevenfive,,,,,,,,,,,,,,,,,,,,,,,,,,,,,,,,,,,,,,,,,,,,,,,,,,,,,,,,,,,,,,,,,,,,,,,,,,,,,,,,,,,,,,,,,,,,,,,,,,,,,,,,,,,,,,,,,,,,,,,,,,,,,,,,,,,,,,,
,,5e9257d7a7264858bf6701e7,2023-12-14_23h04.26.329,kallum_motion_pilot,2023.2.3,MacIntel,59.88023952,5e9257d7a7264858bf6701e7,657bb317c8798c6608bceb3f,657bb40ecf7c2f51c5bb0bf5,0.0175,0.0176,0,117,117,42,1,twoone,,,,,,,,,,,,,,,,,,,,,,,,,,,,,,,,,,,,,,,,,,,,,,,,,,,,,,,,,,,,,,,,,,,,,,,,,,,,,,,,,,,,,,,,,,,,,,,,,,,,,,,,,,,,,,,,,,,,,,,,,,,,,,,,,,,,,,,
,,5e9257d7a7264858bf6701e7,2023-12-14_23h04.26.329,kallum_motion_pilot,2023.2.3,MacIntel,59.88023952,5e9257d7a7264858bf6701e7,657bb317c8798c6608bceb3f,657bb40ecf7c2f51c5bb0bf5,0.0176,0.0176,0,118,118,19,1,twofour,,,,,,,,,,,,,,,,,,,,,,,,,,,,,,,,,,,,,,,,,,,,,,,,,,,,,,,,,,,,,,,,,,,,,,,,,,,,,,,,,,,,,,,,,,,,,,,,,,,,,,,,,,,,,,,,,,,,,,,,,,,,,,,,,,,,,,,
,,5e9257d7a7264858bf6701e7,2023-12-14_23h04.26.329,kallum_motion_pilot,2023.2.3,MacIntel,59.88023952,5e9257d7a7264858bf6701e7,657bb317c8798c6608bceb3f,657bb40ecf7c2f51c5bb0bf5,0.0176,0.0177,0,119,119,69,1,threefour,,,,,,,,,,,,,,,,,,,,,,,,,,,,,,,,,,,,,,,,,,,,,,,,,,,,,,,,,,,,,,,,,,,,,,,,,,,,,,,,,,,,,,,,,,,,,,,,,,,,,,,,,,,,,,,,,,,,,,,,,,,,,,,,,,,,,,,
,,5e9257d7a7264858bf6701e7,2023-12-14_23h04.26.329,kallum_motion_pilot,2023.2.3,MacIntel,59.88023952,5e9257d7a7264858bf6701e7,657bb317c8798c6608bceb3f,657bb40ecf7c2f51c5bb0bf5,0.0178,0.0178,0,120,120,8,1,onetwo,,,,,,,,,,,,,,,,,,,,,,,,,,,,,,,,,,,,,,,,,,,,,,,,,,,,,,,,,,,,,,,,,,,,,,,,,,,,,,,,,,,,,,,,,,,,,,,,,,,,,,,,,,,,,,,,,,,,,,,,,,,,,,,,,,,,,,,
,,5e9257d7a7264858bf6701e7,2023-12-14_23h04.26.329,kallum_motion_pilot,2023.2.3,MacIntel,59.88023952,5e9257d7a7264858bf6701e7,657bb317c8798c6608bceb3f,657bb40ecf7c2f51c5bb0bf5,0.0178,0.0179,0,121,121,148,1,sevenfive,,,,,,,,,,,,,,,,,,,,,,,,,,,,,,,,,,,,,,,,,,,,,,,,,,,,,,,,,,,,,,,,,,,,,,,,,,,,,,,,,,,,,,,,,,,,,,,,,,,,,,,,,,,,,,,,,,,,,,,,,,,,,,,,,,,,,,,
,,5e9257d7a7264858bf6701e7,2023-12-14_23h04.26.329,kallum_motion_pilot,2023.2.3,MacIntel,59.88023952,5e9257d7a7264858bf6701e7,657bb317c8798c6608bceb3f,657bb40ecf7c2f51c5bb0bf5,0.0179,0.0179,0,122,122,140,1,sevenfive,,,,,,,,,,,,,,,,,,,,,,,,,,,,,,,,,,,,,,,,,,,,,,,,,,,,,,,,,,,,,,,,,,,,,,,,,,,,,,,,,,,,,,,,,,,,,,,,,,,,,,,,,,,,,,,,,,,,,,,,,,,,,,,,,,,,,,,
,,5e9257d7a7264858bf6701e7,2023-12-14_23h04.26.329,kallum_motion_pilot,2023.2.3,MacIntel,59.88023952,5e9257d7a7264858bf6701e7,657bb317c8798c6608bceb3f,657bb40ecf7c2f51c5bb0bf5,0.0179,0.0179,0,123,123,57,1,onethree,,,,,,,,,,,,,,,,,,,,,,,,,,,,,,,,,,,,,,,,,,,,,,,,,,,,,,,,,,,,,,,,,,,,,,,,,,,,,,,,,,,,,,,,,,,,,,,,,,,,,,,,,,,,,,,,,,,,,,,,,,,,,,,,,,,,,,,
,,5e9257d7a7264858bf6701e7,2023-12-14_23h04.26.329,kallum_motion_pilot,2023.2.3,MacIntel,59.88023952,5e9257d7a7264858bf6701e7,657bb317c8798c6608bceb3f,657bb40ecf7c2f51c5bb0bf5,0.0179,0.018,0,124,124,81,1,fiveseven,,,,,,,,,,,,,,,,,,,,,,,,,,,,,,,,,,,,,,,,,,,,,,,,,,,,,,,,,,,,,,,,,,,,,,,,,,,,,,,,,,,,,,,,,,,,,,,,,,,,,,,,,,,,,,,,,,,,,,,,,,,,,,,,,,,,,,,
,,5e9257d7a7264858bf6701e7,2023-12-14_23h04.26.329,kallum_motion_pilot,2023.2.3,MacIntel,59.88023952,5e9257d7a7264858bf6701e7,657bb317c8798c6608bceb3f,657bb40ecf7c2f51c5bb0bf5,0.0181,0.0181,0,125,125,105,1,fiveseven,,,,,,,,,,,,,,,,,,,,,,,,,,,,,,,,,,,,,,,,,,,,,,,,,,,,,,,,,,,,,,,,,,,,,,,,,,,,,,,,,,,,,,,,,,,,,,,,,,,,,,,,,,,,,,,,,,,,,,,,,,,,,,,,,,,,,,,
,,5e9257d7a7264858bf6701e7,2023-12-14_23h04.26.329,kallum_motion_pilot,2023.2.3,MacIntel,59.88023952,5e9257d7a7264858bf6701e7,657bb317c8798c6608bceb3f,657bb40ecf7c2f51c5bb0bf5,0.0181,0.0181,0,126,126,138,1,sixfive,,,,,,,,,,,,,,,,,,,,,,,,,,,,,,,,,,,,,,,,,,,,,,,,,,,,,,,,,,,,,,,,,,,,,,,,,,,,,,,,,,,,,,,,,,,,,,,,,,,,,,,,,,,,,,,,,,,,,,,,,,,,,,,,,,,,,,,
,,5e9257d7a7264858bf6701e7,2023-12-14_23h04.26.329,kallum_motion_pilot,2023.2.3,MacIntel,59.88023952,5e9257d7a7264858bf6701e7,657bb317c8798c6608bceb3f,657bb40ecf7c2f51c5bb0bf5,0.0181,0.0182,0,127,127,1,1,onethree,,,,,,,,,,,,,,,,,,,,,,,,,,,,,,,,,,,,,,,,,,,,,,,,,,,,,,,,,,,,,,,,,,,,,,,,,,,,,,,,,,,,,,,,,,,,,,,,,,,,,,,,,,,,,,,,,,,,,,,,,,,,,,,,,,,,,,,
,,5e9257d7a7264858bf6701e7,2023-12-14_23h04.26.329,kallum_motion_pilot,2023.2.3,MacIntel,59.88023952,5e9257d7a7264858bf6701e7,657bb317c8798c6608bceb3f,657bb40ecf7c2f51c5bb0bf5,0.0182,0.0183,0,128,128,109,1,seveneight,,,,,,,,,,,,,,,,,,,,,,,,,,,,,,,,,,,,,,,,,,,,,,,,,,,,,,,,,,,,,,,,,,,,,,,,,,,,,,,,,,,,,,,,,,,,,,,,,,,,,,,,,,,,,,,,,,,,,,,,,,,,,,,,,,,,,,,
,,5e9257d7a7264858bf6701e7,2023-12-14_23h04.26.329,kallum_motion_pilot,2023.2.3,MacIntel,59.88023952,5e9257d7a7264858bf6701e7,657bb317c8798c6608bceb3f,657bb40ecf7c2f51c5bb0bf5,0.0183,0.0183,0,129,129,127,1,eightseven,,,,,,,,,,,,,,,,,,,,,,,,,,,,,,,,,,,,,,,,,,,,,,,,,,,,,,,,,,,,,,,,,,,,,,,,,,,,,,,,,,,,,,,,,,,,,,,,,,,,,,,,,,,,,,,,,,,,,,,,,,,,,,,,,,,,,,,
,,5e9257d7a7264858bf6701e7,2023-12-14_23h04.26.329,kallum_motion_pilot,2023.2.3,MacIntel,59.88023952,5e9257d7a7264858bf6701e7,657bb317c8798c6608bceb3f,657bb40ecf7c2f51c5bb0bf5,0.0183,0.0183,0,130,130,78,1,fourtwo,,,,,,,,,,,,,,,,,,,,,,,,,,,,,,,,,,,,,,,,,,,,,,,,,,,,,,,,,,,,,,,,,,,,,,,,,,,,,,,,,,,,,,,,,,,,,,,,,,,,,,,,,,,,,,,,,,,,,,,,,,,,,,,,,,,,,,,
,,5e9257d7a7264858bf6701e7,2023-12-14_23h04.26.329,kallum_motion_pilot,2023.2.3,MacIntel,59.88023952,5e9257d7a7264858bf6701e7,657bb317c8798c6608bceb3f,657bb40ecf7c2f51c5bb0bf5,0.0183,0.0183,0,131,131,77,1,threefour,,,,,,,,,,,,,,,,,,,,,,,,,,,,,,,,,,,,,,,,,,,,,,,,,,,,,,,,,,,,,,,,,,,,,,,,,,,,,,,,,,,,,,,,,,,,,,,,,,,,,,,,,,,,,,,,,,,,,,,,,,,,,,,,,,,,,,,
,,5e9257d7a7264858bf6701e7,2023-12-14_23h04.26.329,kallum_motion_pilot,2023.2.3,MacIntel,59.88023952,5e9257d7a7264858bf6701e7,657bb317c8798c6608bceb3f,657bb40ecf7c2f51c5bb0bf5,0.0184,0.0184,0,132,132,6,1,fourtwo,,,,,,,,,,,,,,,,,,,,,,,,,,,,,,,,,,,,,,,,,,,,,,,,,,,,,,,,,,,,,,,,,,,,,,,,,,,,,,,,,,,,,,,,,,,,,,,,,,,,,,,,,,,,,,,,,,,,,,,,,,,,,,,,,,,,,,,
,,5e9257d7a7264858bf6701e7,2023-12-14_23h04.26.329,kallum_motion_pilot,2023.2.3,MacIntel,59.88023952,5e9257d7a7264858bf6701e7,657bb317c8798c6608bceb3f,657bb40ecf7c2f51c5bb0bf5,0.0184,0.0185,0,133,133,98,1,sixfive,,,,,,,,,,,,,,,,,,,,,,,,,,,,,,,,,,,,,,,,,,,,,,,,,,,,,,,,,,,,,,,,,,,,,,,,,,,,,,,,,,,,,,,,,,,,,,,,,,,,,,,,,,,,,,,,,,,,,,,,,,,,,,,,,,,,,,,
,,5e9257d7a7264858bf6701e7,2023-12-14_23h04.26.329,kallum_motion_pilot,2023.2.3,MacIntel,59.88023952,5e9257d7a7264858bf6701e7,657bb317c8798c6608bceb3f,657bb40ecf7c2f51c5bb0bf5,0.0185,0.0185,0,134,134,56,1,onetwo,,,,,,,,,,,,,,,,,,,,,,,,,,,,,,,,,,,,,,,,,,,,,,,,,,,,,,,,,,,,,,,,,,,,,,,,,,,,,,,,,,,,,,,,,,,,,,,,,,,,,,,,,,,,,,,,,,,,,,,,,,,,,,,,,,,,,,,
,,5e9257d7a7264858bf6701e7,2023-12-14_23h04.26.329,kallum_motion_pilot,2023.2.3,MacIntel,59.88023952,5e9257d7a7264858bf6701e7,657bb317c8798c6608bceb3f,657bb40ecf7c2f51c5bb0bf5,0.0186,0.0186,0,135,135,34,1,twoone,,,,,,,,,,,,,,,,,,,,,,,,,,,,,,,,,,,,,,,,,,,,,,,,,,,,,,,,,,,,,,,,,,,,,,,,,,,,,,,,,,,,,,,,,,,,,,,,,,,,,,,,,,,,,,,,,,,,,,,,,,,,,,,,,,,,,,,
,,5e9257d7a7264858bf6701e7,2023-12-14_23h04.26.329,kallum_motion_pilot,2023.2.3,MacIntel,59.88023952,5e9257d7a7264858bf6701e7,657bb317c8798c6608bceb3f,657bb40ecf7c2f51c5bb0bf5,0.0187,0.0187,0,136,136,100,1,sevenfive,,,,,,,,,,,,,,,,,,,,,,,,,,,,,,,,,,,,,,,,,,,,,,,,,,,,,,,,,,,,,,,,,,,,,,,,,,,,,,,,,,,,,,,,,,,,,,,,,,,,,,,,,,,,,,,,,,,,,,,,,,,,,,,,,,,,,,,
,,5e9257d7a7264858bf6701e7,2023-12-14_23h04.26.329,kallum_motion_pilot,2023.2.3,MacIntel,59.88023952,5e9257d7a7264858bf6701e7,657bb317c8798c6608bceb3f,657bb40ecf7c2f51c5bb0bf5,0.0187,0.0187,0,137,137,21,1,threefour,,,,,,,,,,,,,,,,,,,,,,,,,,,,,,,,,,,,,,,,,,,,,,,,,,,,,,,,,,,,,,,,,,,,,,,,,,,,,,,,,,,,,,,,,,,,,,,,,,,,,,,,,,,,,,,,,,,,,,,,,,,,,,,,,,,,,,,
,,5e9257d7a7264858bf6701e7,2023-12-14_23h04.26.329,kallum_motion_pilot,2023.2.3,MacIntel,59.88023952,5e9257d7a7264858bf6701e7,657bb317c8798c6608bceb3f,657bb40ecf7c2f51c5bb0bf5,0.0187,0.0188,0,138,138,61,1,threefour,,,,,,,,,,,,,,,,,,,,,,,,,,,,,,,,,,,,,,,,,,,,,,,,,,,,,,,,,,,,,,,,,,,,,,,,,,,,,,,,,,,,,,,,,,,,,,,,,,,,,,,,,,,,,,,,,,,,,,,,,,,,,,,,,,,,,,,
,,5e9257d7a7264858bf6701e7,2023-12-14_23h04.26.329,kallum_motion_pilot,2023.2.3,MacIntel,59.88023952,5e9257d7a7264858bf6701e7,657bb317c8798c6608bceb3f,657bb40ecf7c2f51c5bb0bf5,0.0188,0.0188,0,139,139,12,1,threeone,,,,,,,,,,,,,,,,,,,,,,,,,,,,,,,,,,,,,,,,,,,,,,,,,,,,,,,,,,,,,,,,,,,,,,,,,,,,,,,,,,,,,,,,,,,,,,,,,,,,,,,,,,,,,,,,,,,,,,,,,,,,,,,,,,,,,,,
,,5e9257d7a7264858bf6701e7,2023-12-14_23h04.26.329,kallum_motion_pilot,2023.2.3,MacIntel,59.88023952,5e9257d7a7264858bf6701e7,657bb317c8798c6608bceb3f,657bb40ecf7c2f51c5bb0bf5,0.0188,0.0188,0,140,140,53,1,threefour,,,,,,,,,,,,,,,,,,,,,,,,,,,,,,,,,,,,,,,,,,,,,,,,,,,,,,,,,,,,,,,,,,,,,,,,,,,,,,,,,,,,,,,,,,,,,,,,,,,,,,,,,,,,,,,,,,,,,,,,,,,,,,,,,,,,,,,
,,5e9257d7a7264858bf6701e7,2023-12-14_23h04.26.329,kallum_motion_pilot,2023.2.3,MacIntel,59.88023952,5e9257d7a7264858bf6701e7,657bb317c8798c6608bceb3f,657bb40ecf7c2f51c5bb0bf5,0.0189,0.0189,0,141,141,26,1,twoone,,,,,,,,,,,,,,,,,,,,,,,,,,,,,,,,,,,,,,,,,,,,,,,,,,,,,,,,,,,,,,,,,,,,,,,,,,,,,,,,,,,,,,,,,,,,,,,,,,,,,,,,,,,,,,,,,,,,,,,,,,,,,,,,,,,,,,,
,,5e9257d7a7264858bf6701e7,2023-12-14_23h04.26.329,kallum_motion_pilot,2023.2.3,MacIntel,59.88023952,5e9257d7a7264858bf6701e7,657bb317c8798c6608bceb3f,657bb40ecf7c2f51c5bb0bf5,0.0189,0.019,0,142,142,143,1,eightseven,,,,,,,,,,,,,,,,,,,,,,,,,,,,,,,,,,,,,,,,,,,,,,,,,,,,,,,,,,,,,,,,,,,,,,,,,,,,,,,,,,,,,,,,,,,,,,,,,,,,,,,,,,,,,,,,,,,,,,,,,,,,,,,,,,,,,,,
,,5e9257d7a7264858bf6701e7,2023-12-14_23h04.26.329,kallum_motion_pilot,2023.2.3,MacIntel,59.88023952,5e9257d7a7264858bf6701e7,657bb317c8798c6608bceb3f,657bb40ecf7c2f51c5bb0bf5,0.019,0.019,0,143,143,89,1,fiveseven,,,,,,,,,,,,,,,,,,,,,,,,,,,,,,,,,,,,,,,,,,,,,,,,,,,,,,,,,,,,,,,,,,,,,,,,,,,,,,,,,,,,,,,,,,,,,,,,,,,,,,,,,,,,,,,,,,,,,,,,,,,,,,,,,,,,,,,
,,5e9257d7a7264858bf6701e7,2023-12-14_23h04.26.329,kallum_motion_pilot,2023.2.3,MacIntel,59.88023952,5e9257d7a7264858bf6701e7,657bb317c8798c6608bceb3f,657bb40ecf7c2f51c5bb0bf5,0.0191,0.0191,0,144,144,71,1,fourthree,,,,,,,,,,,,,,,,,,,,,,,,,,,,,,,,,,,,,,,,,,,,,,,,,,,,,,,,,,,,,,,,,,,,,,,,,,,,,,,,,,,,,,,,,,,,,,,,,,,,,,,,,,,,,,,,,,,,,,,,,,,,,,,,,,,,,,,
,,5e9257d7a7264858bf6701e7,2023-12-14_23h04.26.329,kallum_motion_pilot,2023.2.3,MacIntel,59.88023952,5e9257d7a7264858bf6701e7,657bb317c8798c6608bceb3f,657bb40ecf7c2f51c5bb0bf5,0.0191,0.0191,0,145,145,79,1,eightseven,,,,,,,,,,,,,,,,,,,,,,,,,,,,,,,,,,,,,,,,,,,,,,,,,,,,,,,,,,,,,,,,,,,,,,,,,,,,,,,,,,,,,,,,,,,,,,,,,,,,,,,,,,,,,,,,,,,,,,,,,,,,,,,,,,,,,,,
,,5e9257d7a7264858bf6701e7,2023-12-14_23h04.26.329,kallum_motion_pilot,2023.2.3,MacIntel,59.88023952,5e9257d7a7264858bf6701e7,657bb317c8798c6608bceb3f,657bb40ecf7c2f51c5bb0bf5,0.0191,0.0192,0,146,146,44,1,threeone,,,,,,,,,,,,,,,,,,,,,,,,,,,,,,,,,,,,,,,,,,,,,,,,,,,,,,,,,,,,,,,,,,,,,,,,,,,,,,,,,,,,,,,,,,,,,,,,,,,,,,,,,,,,,,,,,,,,,,,,,,,,,,,,,,,,,,,
,,5e9257d7a7264858bf6701e7,2023-12-14_23h04.26.329,kallum_motion_pilot,2023.2.3,MacIntel,59.88023952,5e9257d7a7264858bf6701e7,657bb317c8798c6608bceb3f,657bb40ecf7c2f51c5bb0bf5,0.0192,0.0192,0,147,147,10,1,twoone,,,,,,,,,,,,,,,,,,,,,,,,,,,,,,,,,,,,,,,,,,,,,,,,,,,,,,,,,,,,,,,,,,,,,,,,,,,,,,,,,,,,,,,,,,,,,,,,,,,,,,,,,,,,,,,,,,,,,,,,,,,,,,,,,,,,,,,
,,5e9257d7a7264858bf6701e7,2023-12-14_23h04.26.329,kallum_motion_pilot,2023.2.3,MacIntel,59.88023952,5e9257d7a7264858bf6701e7,657bb317c8798c6608bceb3f,657bb40ecf7c2f51c5bb0bf5,0.0192,0.0193,0,148,148,55,1,fourthree,,,,,,,,,,,,,,,,,,,,,,,,,,,,,,,,,,,,,,,,,,,,,,,,,,,,,,,,,,,,,,,,,,,,,,,,,,,,,,,,,,,,,,,,,,,,,,,,,,,,,,,,,,,,,,,,,,,,,,,,,,,,,,,,,,,,,,,
,,5e9257d7a7264858bf6701e7,2023-12-14_23h04.26.329,kallum_motion_pilot,2023.2.3,MacIntel,59.88023952,5e9257d7a7264858bf6701e7,657bb317c8798c6608bceb3f,657bb40ecf7c2f51c5bb0bf5,0.0193,0.0193,0,149,149,123,1,sixeight,,,,,,,,,,,,,,,,,,,,,,,,,,,,,,,,,,,,,,,,,,,,,,,,,,,,,,,,,,,,,,,,,,,,,,,,,,,,,,,,,,,,,,,,,,,,,,,,,,,,,,,,,,,,,,,,,,,,,,,,,,,,,,,,,,,,,,,
,,5e9257d7a7264858bf6701e7,2023-12-14_23h04.26.329,kallum_motion_pilot,2023.2.3,MacIntel,59.88023952,5e9257d7a7264858bf6701e7,657bb317c8798c6608bceb3f,657bb40ecf7c2f51c5bb0bf5,0.0194,0.0194,0,150,150,106,1,sixfive,,,,,,,,,,,,,,,,,,,,,,,,,,,,,,,,,,,,,,,,,,,,,,,,,,,,,,,,,,,,,,,,,,,,,,,,,,,,,,,,,,,,,,,,,,,,,,,,,,,,,,,,,,,,,,,,,,,,,,,,,,,,,,,,,,,,,,,
,,5e9257d7a7264858bf6701e7,2023-12-14_23h04.26.329,kallum_motion_pilot,2023.2.3,MacIntel,59.88023952,5e9257d7a7264858bf6701e7,657bb317c8798c6608bceb3f,657bb40ecf7c2f51c5bb0bf5,0.0194,0.0194,0,151,151,124,1,sevenfive,,,,,,,,,,,,,,,,,,,,,,,,,,,,,,,,,,,,,,,,,,,,,,,,,,,,,,,,,,,,,,,,,,,,,,,,,,,,,,,,,,,,,,,,,,,,,,,,,,,,,,,,,,,,,,,,,,,,,,,,,,,,,,,,,,,,,,,
,,5e9257d7a7264858bf6701e7,2023-12-14_23h04.26.329,kallum_motion_pilot,2023.2.3,MacIntel,59.88023952,5e9257d7a7264858bf6701e7,657bb317c8798c6608bceb3f,657bb40ecf7c2f51c5bb0bf5,0.0195,0.0195,0,152,152,93,1,seveneight,,,,,,,,,,,,,,,,,,,,,,,,,,,,,,,,,,,,,,,,,,,,,,,,,,,,,,,,,,,,,,,,,,,,,,,,,,,,,,,,,,,,,,,,,,,,,,,,,,,,,,,,,,,,,,,,,,,,,,,,,,,,,,,,,,,,,,,
,,5e9257d7a7264858bf6701e7,2023-12-14_23h04.26.329,kallum_motion_pilot,2023.2.3,MacIntel,59.88023952,5e9257d7a7264858bf6701e7,657bb317c8798c6608bceb3f,657bb40ecf7c2f51c5bb0bf5,0.0196,0.0196,0,153,153,38,1,fourtwo,,,,,,,,,,,,,,,,,,,,,,,,,,,,,,,,,,,,,,,,,,,,,,,,,,,,,,,,,,,,,,,,,,,,,,,,,,,,,,,,,,,,,,,,,,,,,,,,,,,,,,,,,,,,,,,,,,,,,,,,,,,,,,,,,,,,,,,
,,5e9257d7a7264858bf6701e7,2023-12-14_23h04.26.329,kallum_motion_pilot,2023.2.3,MacIntel,59.88023952,5e9257d7a7264858bf6701e7,657bb317c8798c6608bceb3f,657bb40ecf7c2f51c5bb0bf5,0.0196,0.0196,0,154,154,149,1,seveneight,,,,,,,,,,,,,,,,,,,,,,,,,,,,,,,,,,,,,,,,,,,,,,,,,,,,,,,,,,,,,,,,,,,,,,,,,,,,,,,,,,,,,,,,,,,,,,,,,,,,,,,,,,,,,,,,,,,,,,,,,,,,,,,,,,,,,,,
,,5e9257d7a7264858bf6701e7,2023-12-14_23h04.26.329,kallum_motion_pilot,2023.2.3,MacIntel,59.88023952,5e9257d7a7264858bf6701e7,657bb317c8798c6608bceb3f,657bb40ecf7c2f51c5bb0bf5,0.0197,0.0197,0,155,155,112,1,fivesix,,,,,,,,,,,,,,,,,,,,,,,,,,,,,,,,,,,,,,,,,,,,,,,,,,,,,,,,,,,,,,,,,,,,,,,,,,,,,,,,,,,,,,,,,,,,,,,,,,,,,,,,,,,,,,,,,,,,,,,,,,,,,,,,,,,,,,,
,,5e9257d7a7264858bf6701e7,2023-12-14_23h04.26.329,kallum_motion_pilot,2023.2.3,MacIntel,59.88023952,5e9257d7a7264858bf6701e7,657bb317c8798c6608bceb3f,657bb40ecf7c2f51c5bb0bf5,0.0197,0.0198,0,156,156,18,1,twoone,,,,,,,,,,,,,,,,,,,,,,,,,,,,,,,,,,,,,,,,,,,,,,,,,,,,,,,,,,,,,,,,,,,,,,,,,,,,,,,,,,,,,,,,,,,,,,,,,,,,,,,,,,,,,,,,,,,,,,,,,,,,,,,,,,,,,,,
,,5e9257d7a7264858bf6701e7,2023-12-14_23h04.26.329,kallum_motion_pilot,2023.2.3,MacIntel,59.88023952,5e9257d7a7264858bf6701e7,657bb317c8798c6608bceb3f,657bb40ecf7c2f51c5bb0bf5,0.0198,0.0198,0,157,157,158,1,eightsix,,,,,,,,,,,,,,,,,,,,,,,,,,,,,,,,,,,,,,,,,,,,,,,,,,,,,,,,,,,,,,,,,,,,,,,,,,,,,,,,,,,,,,,,,,,,,,,,,,,,,,,,,,,,,,,,,,,,,,,,,,,,,,,,,,,,,,,
,,5e9257d7a7264858bf6701e7,2023-12-14_23h04.26.329,kallum_motion_pilot,2023.2.3,MacIntel,59.88023952,5e9257d7a7264858bf6701e7,657bb317c8798c6608bceb3f,657bb40ecf7c2f51c5bb0bf5,0.0198,0.0199,0,158,158,153,1,fiveseven,,,,,,,,,,,,,,,,,,,,,,,,,,,,,,,,,,,,,,,,,,,,,,,,,,,,,,,,,,,,,,,,,,,,,,,,,,,,,,,,,,,,,,,,,,,,,,,,,,,,,,,,,,,,,,,,,,,,,,,,,,,,,,,,,,,,,,,
,,5e9257d7a7264858bf6701e7,2023-12-14_23h04.26.329,kallum_motion_pilot,2023.2.3,MacIntel,59.88023952,5e9257d7a7264858bf6701e7,657bb317c8798c6608bceb3f,657bb40ecf7c2f51c5bb0bf5,0.0199,0.0199,0,159,159,136,1,fivesix,,,,,,,,,,,,,,,,,,,,,,,,,,,,,,,,,,,,,,,,,,,,,,,,,,,,,,,,,,,,,,,,,,,,,,,,,,,,,,,,,,,,,,,,,,,,,,,,,,,,,,,,,,,,,,,,,,,,,,,,,,,,,,,,,,,,,,,
,,5e9257d7a7264858bf6701e7,2023-12-14_23h04.26.329,kallum_motion_pilot,2023.2.3,MacIntel,59.88023952,5e9257d7a7264858bf6701e7,657bb317c8798c6608bceb3f,657bb40ecf7c2f51c5bb0bf5,0.02,0.02,0,160,160,35,1,twofour,,,,,,,,,,,,,,,,,,,,,,,,,,,,,,,,,,,,,,,,,,,,,,,,,,,,,,,,,,,,,,,,,,,,,,,,,,,,,,,,,,,,,,,,,,,,,,,,,,,,,,,,,,,,,,,,,,,,,,,,,,,,,,,,,,,,,,,
,,5e9257d7a7264858bf6701e7,2023-12-14_23h04.26.329,kallum_motion_pilot,2023.2.3,MacIntel,59.88023952,5e9257d7a7264858bf6701e7,657bb317c8798c6608bceb3f,657bb40ecf7c2f51c5bb0bf5,0.02,0.02,0,161,161,114,1,sixfive,,,,,,,,,,,,,,,,,,,,,,,,,,,,,,,,,,,,,,,,,,,,,,,,,,,,,,,,,,,,,,,,,,,,,,,,,,,,,,,,,,,,,,,,,,,,,,,,,,,,,,,,,,,,,,,,,,,,,,,,,,,,,,,,,,,,,,,
,,5e9257d7a7264858bf6701e7,2023-12-14_23h04.26.329,kallum_motion_pilot,2023.2.3,MacIntel,59.88023952,5e9257d7a7264858bf6701e7,657bb317c8798c6608bceb3f,657bb40ecf7c2f51c5bb0bf5,0.02,0.0201,1,0,162,104,1,fivesix,,,,,,,,,,,,,,,,,,,,,,,,,,,,,,,,,,,,,,,,,,,,,,,,,,,,,,,,,,,,,,,,,,,,,,,,,,,,,,,,,,,,,,,,,,,,,,,,,,,,,,,,,,,,,,,,,,,,,,,,,,,,,,,,,,,,,,,
,,5e9257d7a7264858bf6701e7,2023-12-14_23h04.26.329,kallum_motion_pilot,2023.2.3,MacIntel,59.88023952,5e9257d7a7264858bf6701e7,657bb317c8798c6608bceb3f,657bb40ecf7c2f51c5bb0bf5,0.0201,0.0201,1,1,163,103,1,eightseven,,,,,,,,,,,,,,,,,,,,,,,,,,,,,,,,,,,,,,,,,,,,,,,,,,,,,,,,,,,,,,,,,,,,,,,,,,,,,,,,,,,,,,,,,,,,,,,,,,,,,,,,,,,,,,,,,,,,,,,,,,,,,,,,,,,,,,,
,,5e9257d7a7264858bf6701e7,2023-12-14_23h04.26.329,kallum_motion_pilot,2023.2.3,MacIntel,59.88023952,5e9257d7a7264858bf6701e7,657bb317c8798c6608bceb3f,657bb40ecf7c2f51c5bb0bf5,0.0201,0.0202,1,2,164,29,1,threefour,,,,,,,,,,,,,,,,,,,,,,,,,,,,,,,,,,,,,,,,,,,,,,,,,,,,,,,,,,,,,,,,,,,,,,,,,,,,,,,,,,,,,,,,,,,,,,,,,,,,,,,,,,,,,,,,,,,,,,,,,,,,,,,,,,,,,,,
,,5e9257d7a7264858bf6701e7,2023-12-14_23h04.26.329,kallum_motion_pilot,2023.2.3,MacIntel,59.88023952,5e9257d7a7264858bf6701e7,657bb317c8798c6608bceb3f,657bb40ecf7c2f51c5bb0bf5,0.0202,0.0203,1,3,165,102,1,eightsix,,,,,,,,,,,,,,,,,,,,,,,,,,,,,,,,,,,,,,,,,,,,,,,,,,,,,,,,,,,,,,,,,,,,,,,,,,,,,,,,,,,,,,,,,,,,,,,,,,,,,,,,,,,,,,,,,,,,,,,,,,,,,,,,,,,,,,,
,,5e9257d7a7264858bf6701e7,2023-12-14_23h04.26.329,kallum_motion_pilot,2023.2.3,MacIntel,59.88023952,5e9257d7a7264858bf6701e7,657bb317c8798c6608bceb3f,657bb40ecf7c2f51c5bb0bf5,0.0203,0.0203,1,4,166,132,1,sevenfive,,,,,,,,,,,,,,,,,,,,,,,,,,,,,,,,,,,,,,,,,,,,,,,,,,,,,,,,,,,,,,,,,,,,,,,,,,,,,,,,,,,,,,,,,,,,,,,,,,,,,,,,,,,,,,,,,,,,,,,,,,,,,,,,,,,,,,,
,,5e9257d7a7264858bf6701e7,2023-12-14_23h04.26.329,kallum_motion_pilot,2023.2.3,MacIntel,59.88023952,5e9257d7a7264858bf6701e7,657bb317c8798c6608bceb3f,657bb40ecf7c2f51c5bb0bf5,0.0203,0.0203,1,5,167,112,1,fivesix,,,,,,,,,,,,,,,,,,,,,,,,,,,,,,,,,,,,,,,,,,,,,,,,,,,,,,,,,,,,,,,,,,,,,,,,,,,,,,,,,,,,,,,,,,,,,,,,,,,,,,,,,,,,,,,,,,,,,,,,,,,,,,,,,,,,,,,
,,5e9257d7a7264858bf6701e7,2023-12-14_23h04.26.329,kallum_motion_pilot,2023.2.3,MacIntel,59.88023952,5e9257d7a7264858bf6701e7,657bb317c8798c6608bceb3f,657bb40ecf7c2f51c5bb0bf5,0.0204,0.0204,1,6,168,5,1,threefour,,,,,,,,,,,,,,,,,,,,,,,,,,,,,,,,,,,,,,,,,,,,,,,,,,,,,,,,,,,,,,,,,,,,,,,,,,,,,,,,,,,,,,,,,,,,,,,,,,,,,,,,,,,,,,,,,,,,,,,,,,,,,,,,,,,,,,,
,,5e9257d7a7264858bf6701e7,2023-12-14_23h04.26.329,kallum_motion_pilot,2023.2.3,MacIntel,59.88023952,5e9257d7a7264858bf6701e7,657bb317c8798c6608bceb3f,657bb40ecf7c2f51c5bb0bf5,0.0204,0.0206,1,7,169,60,1,threeone,,,,,,,,,,,,,,,,,,,,,,,,,,,,,,,,,,,,,,,,,,,,,,,,,,,,,,,,,,,,,,,,,,,,,,,,,,,,,,,,,,,,,,,,,,,,,,,,,,,,,,,,,,,,,,,,,,,,,,,,,,,,,,,,,,,,,,,
,,5e9257d7a7264858bf6701e7,2023-12-14_23h04.26.329,kallum_motion_pilot,2023.2.3,MacIntel,59.88023952,5e9257d7a7264858bf6701e7,657bb317c8798c6608bceb3f,657bb40ecf7c2f51c5bb0bf5,0.0206,0.0206,1,8,170,135,1,eightseven,,,,,,,,,,,,,,,,,,,,,,,,,,,,,,,,,,,,,,,,,,,,,,,,,,,,,,,,,,,,,,,,,,,,,,,,,,,,,,,,,,,,,,,,,,,,,,,,,,,,,,,,,,,,,,,,,,,,,,,,,,,,,,,,,,,,,,,
,,5e9257d7a7264858bf6701e7,2023-12-14_23h04.26.329,kallum_motion_pilot,2023.2.3,MacIntel,59.88023952,5e9257d7a7264858bf6701e7,657bb317c8798c6608bceb3f,657bb40ecf7c2f51c5bb0bf5,0.0206,0.0206,1,9,171,23,1,fourthree,,,,,,,,,,,,,,,,,,,,,,,,,,,,,,,,,,,,,,,,,,,,,,,,,,,,,,,,,,,,,,,,,,,,,,,,,,,,,,,,,,,,,,,,,,,,,,,,,,,,,,,,,,,,,,,,,,,,,,,,,,,,,,,,,,,,,,,
,,5e9257d7a7264858bf6701e7,2023-12-14_23h04.26.329,kallum_motion_pilot,2023.2.3,MacIntel,59.88023952,5e9257d7a7264858bf6701e7,657bb317c8798c6608bceb3f,657bb40ecf7c2f51c5bb0bf5,0.0206,0.0207,1,10,172,85,1,seveneight,,,,,,,,,,,,,,,,,,,,,,,,,,,,,,,,,,,,,,,,,,,,,,,,,,,,,,,,,,,,,,,,,,,,,,,,,,,,,,,,,,,,,,,,,,,,,,,,,,,,,,,,,,,,,,,,,,,,,,,,,,,,,,,,,,,,,,,
,,5e9257d7a7264858bf6701e7,2023-12-14_23h04.26.329,kallum_motion_pilot,2023.2.3,MacIntel,59.88023952,5e9257d7a7264858bf6701e7,657bb317c8798c6608bceb3f,657bb40ecf7c2f51c5bb0bf5,0.0207,0.0207,1,11,173,51,1,twofour,,,,,,,,,,,,,,,,,,,,,,,,,,,,,,,,,,,,,,,,,,,,,,,,,,,,,,,,,,,,,,,,,,,,,,,,,,,,,,,,,,,,,,,,,,,,,,,,,,,,,,,,,,,,,,,,,,,,,,,,,,,,,,,,,,,,,,,
,,5e9257d7a7264858bf6701e7,2023-12-14_23h04.26.329,kallum_motion_pilot,2023.2.3,MacIntel,59.88023952,5e9257d7a7264858bf6701e7,657bb317c8798c6608bceb3f,657bb40ecf7c2f51c5bb0bf5,0.0208,0.0208,1,12,174,108,1,sevenfive,,,,,,,,,,,,,,,,,,,,,,,,,,,,,,,,,,,,,,,,,,,,,,,,,,,,,,,,,,,,,,,,,,,,,,,,,,,,,,,,,,,,,,,,,,,,,,,,,,,,,,,,,,,,,,,,,,,,,,,,,,,,,,,,,,,,,,,
,,5e9257d7a7264858bf6701e7,2023-12-14_23h04.26.329,kallum_motion_pilot,2023.2.3,MacIntel,59.88023952,5e9257d7a7264858bf6701e7,657bb317c8798c6608bceb3f,657bb40ecf7c2f51c5bb0bf5,0.0209,0.0209,1,13,175,54,1,fourtwo,,,,,,,,,,,,,,,,,,,,,,,,,,,,,,,,,,,,,,,,,,,,,,,,,,,,,,,,,,,,,,,,,,,,,,,,,,,,,,,,,,,,,,,,,,,,,,,,,,,,,,,,,,,,,,,,,,,,,,,,,,,,,,,,,,,,,,,
,,5e9257d7a7264858bf6701e7,2023-12-14_23h04.26.329,kallum_motion_pilot,2023.2.3,MacIntel,59.88023952,5e9257d7a7264858bf6701e7,657bb317c8798c6608bceb3f,657bb40ecf7c2f51c5bb0bf5,0.0209,0.0209,1,14,176,43,1,twofour,,,,,,,,,,,,,,,,,,,,,,,,,,,,,,,,,,,,,,,,,,,,,,,,,,,,,,,,,,,,,,,,,,,,,,,,,,,,,,,,,,,,,,,,,,,,,,,,,,,,,,,,,,,,,,,,,,,,,,,,,,,,,,,,,,,,,,,
,,5e9257d7a7264858bf6701e7,2023-12-14_23h04.26.329,kallum_motion_pilot,2023.2.3,MacIntel,59.88023952,5e9257d7a7264858bf6701e7,657bb317c8798c6608bceb3f,657bb40ecf7c2f51c5bb0bf5,0.021,0.021,1,15,177,63,1,fourthree,,,,,,,,,,,,,,,,,,,,,,,,,,,,,,,,,,,,,,,,,,,,,,,,,,,,,,,,,,,,,,,,,,,,,,,,,,,,,,,,,,,,,,,,,,,,,,,,,,,,,,,,,,,,,,,,,,,,,,,,,,,,,,,,,,,,,,,
,,5e9257d7a7264858bf6701e7,2023-12-14_23h04.26.329,kallum_motion_pilot,2023.2.3,MacIntel,59.88023952,5e9257d7a7264858bf6701e7,657bb317c8798c6608bceb3f,657bb40ecf7c2f51c5bb0bf5,0.021,0.0211,1,16,178,7,1,fourthree,,,,,,,,,,,,,,,,,,,,,,,,,,,,,,,,,,,,,,,,,,,,,,,,,,,,,,,,,,,,,,,,,,,,,,,,,,,,,,,,,,,,,,,,,,,,,,,,,,,,,,,,,,,,,,,,,,,,,,,,,,,,,,,,,,,,,,,
,,5e9257d7a7264858bf6701e7,2023-12-14_23h04.26.329,kallum_motion_pilot,2023.2.3,MacIntel,59.88023952,5e9257d7a7264858bf6701e7,657bb317c8798c6608bceb3f,657bb40ecf7c2f51c5bb0bf5,0.0211,0.0211,1,17,179,128,1,fivesix,,,,,,,,,,,,,,,,,,,,,,,,,,,,,,,,,,,,,,,,,,,,,,,,,,,,,,,,,,,,,,,,,,,,,,,,,,,,,,,,,,,,,,,,,,,,,,,,,,,,,,,,,,,,,,,,,,,,,,,,,,,,,,,,,,,,,,,
,,5e9257d7a7264858bf6701e7,2023-12-14_23h04.26.329,kallum_motion_pilot,2023.2.3,MacIntel,59.88023952,5e9257d7a7264858bf6701e7,657bb317c8798c6608bceb3f,657bb40ecf7c2f51c5bb0bf5,0.0212,0.0212,1,18,180,143,1,eightseven,,,,,,,,,,,,,,,,,,,,,,,,,,,,,,,,,,,,,,,,,,,,,,,,,,,,,,,,,,,,,,,,,,,,,,,,,,,,,,,,,,,,,,,,,,,,,,,,,,,,,,,,,,,,,,,,,,,,,,,,,,,,,,,,,,,,,,,
,,5e9257d7a7264858bf6701e7,2023-12-14_23h04.26.329,kallum_motion_pilot,2023.2.3,MacIntel,59.88023952,5e9257d7a7264858bf6701e7,657bb317c8798c6608bceb3f,657bb40ecf7c2f51c5bb0bf5,0.0213,0.0213,1,19,181,14,1,fourtwo,,,,,,,,,,,,,,,,,,,,,,,,,,,,,,,,,,,,,,,,,,,,,,,,,,,,,,,,,,,,,,,,,,,,,,,,,,,,,,,,,,,,,,,,,,,,,,,,,,,,,,,,,,,,,,,,,,,,,,,,,,,,,,,,,,,,,,,
,,5e9257d7a7264858bf6701e7,2023-12-14_23h04.26.329,kallum_motion_pilot,2023.2.3,MacIntel,59.88023952,5e9257d7a7264858bf6701e7,657bb317c8798c6608bceb3f,657bb40ecf7c2f51c5bb0bf5,0.0213,0.0213,1,20,182,136,1,fivesix,,,,,,,,,,,,,,,,,,,,,,,,,,,,,,,,,,,,,,,,,,,,,,,,,,,,,,,,,,,,,,,,,,,,,,,,,,,,,,,,,,,,,,,,,,,,,,,,,,,,,,,,,,,,,,,,,,,,,,,,,,,,,,,,,,,,,,,
,,5e9257d7a7264858bf6701e7,2023-12-14_23h04.26.329,kallum_motion_pilot,2023.2.3,MacIntel,59.88023952,5e9257d7a7264858bf6701e7,657bb317c8798c6608bceb3f,657bb40ecf7c2f51c5bb0bf5,0.0214,0.0214,1,21,183,64,1,onetwo,,,,,,,,,,,,,,,,,,,,,,,,,,,,,,,,,,,,,,,,,,,,,,,,,,,,,,,,,,,,,,,,,,,,,,,,,,,,,,,,,,,,,,,,,,,,,,,,,,,,,,,,,,,,,,,,,,,,,,,,,,,,,,,,,,,,,,,
,,5e9257d7a7264858bf6701e7,2023-12-14_23h04.26.329,kallum_motion_pilot,2023.2.3,MacIntel,59.88023952,5e9257d7a7264858bf6701e7,657bb317c8798c6608bceb3f,657bb40ecf7c2f51c5bb0bf5,0.0214,0.0215,1,22,184,22,1,fourtwo,,,,,,,,,,,,,,,,,,,,,,,,,,,,,,,,,,,,,,,,,,,,,,,,,,,,,,,,,,,,,,,,,,,,,,,,,,,,,,,,,,,,,,,,,,,,,,,,,,,,,,,,,,,,,,,,,,,,,,,,,,,,,,,,,,,,,,,
,,5e9257d7a7264858bf6701e7,2023-12-14_23h04.26.329,kallum_motion_pilot,2023.2.3,MacIntel,59.88023952,5e9257d7a7264858bf6701e7,657bb317c8798c6608bceb3f,657bb40ecf7c2f51c5bb0bf5,0.0216,0.0216,1,23,185,32,1,onetwo,,,,,,,,,,,,,,,,,,,,,,,,,,,,,,,,,,,,,,,,,,,,,,,,,,,,,,,,,,,,,,,,,,,,,,,,,,,,,,,,,,,,,,,,,,,,,,,,,,,,,,,,,,,,,,,,,,,,,,,,,,,,,,,,,,,,,,,
,,5e9257d7a7264858bf6701e7,2023-12-14_23h04.26.329,kallum_motion_pilot,2023.2.3,MacIntel,59.88023952,5e9257d7a7264858bf6701e7,657bb317c8798c6608bceb3f,657bb40ecf7c2f51c5bb0bf5,0.0216,0.0216,1,24,186,21,1,threefour,,,,,,,,,,,,,,,,,,,,,,,,,,,,,,,,,,,,,,,,,,,,,,,,,,,,,,,,,,,,,,,,,,,,,,,,,,,,,,,,,,,,,,,,,,,,,,,,,,,,,,,,,,,,,,,,,,,,,,,,,,,,,,,,,,,,,,,
,,5e9257d7a7264858bf6701e7,2023-12-14_23h04.26.329,kallum_motion_pilot,2023.2.3,MacIntel,59.88023952,5e9257d7a7264858bf6701e7,657bb317c8798c6608bceb3f,657bb40ecf7c2f51c5bb0bf5,0.0216,0.0216,1,25,187,106,1,sixfive,,,,,,,,,,,,,,,,,,,,,,,,,,,,,,,,,,,,,,,,,,,,,,,,,,,,,,,,,,,,,,,,,,,,,,,,,,,,,,,,,,,,,,,,,,,,,,,,,,,,,,,,,,,,,,,,,,,,,,,,,,,,,,,,,,,,,,,
,,5e9257d7a7264858bf6701e7,2023-12-14_23h04.26.329,kallum_motion_pilot,2023.2.3,MacIntel,59.88023952,5e9257d7a7264858bf6701e7,657bb317c8798c6608bceb3f,657bb40ecf7c2f51c5bb0bf5,0.0217,0.0217,1,26,188,119,1,eightseven,,,,,,,,,,,,,,,,,,,,,,,,,,,,,,,,,,,,,,,,,,,,,,,,,,,,,,,,,,,,,,,,,,,,,,,,,,,,,,,,,,,,,,,,,,,,,,,,,,,,,,,,,,,,,,,,,,,,,,,,,,,,,,,,,,,,,,,
,,5e9257d7a7264858bf6701e7,2023-12-14_23h04.26.329,kallum_motion_pilot,2023.2.3,MacIntel,59.88023952,5e9257d7a7264858bf6701e7,657bb317c8798c6608bceb3f,657bb40ecf7c2f51c5bb0bf5,0.0217,0.0218,1,27,189,66,1,twoone,,,,,,,,,,,,,,,,,,,,,,,,,,,,,,,,,,,,,,,,,,,,,,,,,,,,,,,,,,,,,,,,,,,,,,,,,,,,,,,,,,,,,,,,,,,,,,,,,,,,,,,,,,,,,,,,,,,,,,,,,,,,,,,,,,,,,,,
,,5e9257d7a7264858bf6701e7,2023-12-14_23h04.26.329,kallum_motion_pilot,2023.2.3,MacIntel,59.88023952,5e9257d7a7264858bf6701e7,657bb317c8798c6608bceb3f,657bb40ecf7c2f51c5bb0bf5,0.0219,0.0219,1,28,190,131,1,sixeight,,,,,,,,,,,,,,,,,,,,,,,,,,,,,,,,,,,,,,,,,,,,,,,,,,,,,,,,,,,,,,,,,,,,,,,,,,,,,,,,,,,,,,,,,,,,,,,,,,,,,,,,,,,,,,,,,,,,,,,,,,,,,,,,,,,,,,,
,,5e9257d7a7264858bf6701e7,2023-12-14_23h04.26.329,kallum_motion_pilot,2023.2.3,MacIntel,59.88023952,5e9257d7a7264858bf6701e7,657bb317c8798c6608bceb3f,657bb40ecf7c2f51c5bb0bf5,0.0219,0.0219,1,29,191,4,1,threeone,,,,,,,,,,,,,,,,,,,,,,,,,,,,,,,,,,,,,,,,,,,,,,,,,,,,,,,,,,,,,,,,,,,,,,,,,,,,,,,,,,,,,,,,,,,,,,,,,,,,,,,,,,,,,,,,,,,,,,,,,,,,,,,,,,,,,,,
,,5e9257d7a7264858bf6701e7,2023-12-14_23h04.26.329,kallum_motion_pilot,2023.2.3,MacIntel,59.88023952,5e9257d7a7264858bf6701e7,657bb317c8798c6608bceb3f,657bb40ecf7c2f51c5bb0bf5,0.0219,0.022,1,30,192,65,1,onethree,,,,,,,,,,,,,,,,,,,,,,,,,,,,,,,,,,,,,,,,,,,,,,,,,,,,,,,,,,,,,,,,,,,,,,,,,,,,,,,,,,,,,,,,,,,,,,,,,,,,,,,,,,,,,,,,,,,,,,,,,,,,,,,,,,,,,,,
,,5e9257d7a7264858bf6701e7,2023-12-14_23h04.26.329,kallum_motion_pilot,2023.2.3,MacIntel,59.88023952,5e9257d7a7264858bf6701e7,657bb317c8798c6608bceb3f,657bb40ecf7c2f51c5bb0bf5,0.022,0.022,1,31,193,15,1,fourthree,,,,,,,,,,,,,,,,,,,,,,,,,,,,,,,,,,,,,,,,,,,,,,,,,,,,,,,,,,,,,,,,,,,,,,,,,,,,,,,,,,,,,,,,,,,,,,,,,,,,,,,,,,,,,,,,,,,,,,,,,,,,,,,,,,,,,,,
,,5e9257d7a7264858bf6701e7,2023-12-14_23h04.26.329,kallum_motion_pilot,2023.2.3,MacIntel,59.88023952,5e9257d7a7264858bf6701e7,657bb317c8798c6608bceb3f,657bb40ecf7c2f51c5bb0bf5,0.0221,0.0221,1,32,194,20,1,threeone,,,,,,,,,,,,,,,,,,,,,,,,,,,,,,,,,,,,,,,,,,,,,,,,,,,,,,,,,,,,,,,,,,,,,,,,,,,,,,,,,,,,,,,,,,,,,,,,,,,,,,,,,,,,,,,,,,,,,,,,,,,,,,,,,,,,,,,
,,5e9257d7a7264858bf6701e7,2023-12-14_23h04.26.329,kallum_motion_pilot,2023.2.3,MacIntel,59.88023952,5e9257d7a7264858bf6701e7,657bb317c8798c6608bceb3f,657bb40ecf7c2f51c5bb0bf5,0.0221,0.0221,1,33,195,17,1,onethree,,,,,,,,,,,,,,,,,,,,,,,,,,,,,,,,,,,,,,,,,,,,,,,,,,,,,,,,,,,,,,,,,,,,,,,,,,,,,,,,,,,,,,,,,,,,,,,,,,,,,,,,,,,,,,,,,,,,,,,,,,,,,,,,,,,,,,,
,,5e9257d7a7264858bf6701e7,2023-12-14_23h04.26.329,kallum_motion_pilot,2023.2.3,MacIntel,59.88023952,5e9257d7a7264858bf6701e7,657bb317c8798c6608bceb3f,657bb40ecf7c2f51c5bb0bf5,0.0221,0.0222,1,34,196,88,1,fivesix,,,,,,,,,,,,,,,,,,,,,,,,,,,,,,,,,,,,,,,,,,,,,,,,,,,,,,,,,,,,,,,,,,,,,,,,,,,,,,,,,,,,,,,,,,,,,,,,,,,,,,,,,,,,,,,,,,,,,,,,,,,,,,,,,,,,,,,
,,5e9257d7a7264858bf6701e7,2023-12-14_23h04.26.329,kallum_motion_pilot,2023.2.3,MacIntel,59.88023952,5e9257d7a7264858bf6701e7,657bb317c8798c6608bceb3f,657bb40ecf7c2f51c5bb0bf5,0.0225,0.0225,1,35,197,139,1,sixeight,,,,,,,,,,,,,,,,,,,,,,,,,,,,,,,,,,,,,,,,,,,,,,,,,,,,,,,,,,,,,,,,,,,,,,,,,,,,,,,,,,,,,,,,,,,,,,,,,,,,,,,,,,,,,,,,,,,,,,,,,,,,,,,,,,,,,,,
,,5e9257d7a7264858bf6701e7,2023-12-14_23h04.26.329,kallum_motion_pilot,2023.2.3,MacIntel,59.88023952,5e9257d7a7264858bf6701e7,657bb317c8798c6608bceb3f,657bb40ecf7c2f51c5bb0bf5,0.0226,0.0226,1,36,198,100,1,sevenfive,,,,,,,,,,,,,,,,,,,,,,,,,,,,,,,,,,,,,,,,,,,,,,,,,,,,,,,,,,,,,,,,,,,,,,,,,,,,,,,,,,,,,,,,,,,,,,,,,,,,,,,,,,,,,,,,,,,,,,,,,,,,,,,,,,,,,,,
,,5e9257d7a7264858bf6701e7,2023-12-14_23h04.26.329,kallum_motion_pilot,2023.2.3,MacIntel,59.88023952,5e9257d7a7264858bf6701e7,657bb317c8798c6608bceb3f,657bb40ecf7c2f51c5bb0bf5,0.0226,0.0227,1,37,199,146,1,sixfive,,,,,,,,,,,,,,,,,,,,,,,,,,,,,,,,,,,,,,,,,,,,,,,,,,,,,,,,,,,,,,,,,,,,,,,,,,,,,,,,,,,,,,,,,,,,,,,,,,,,,,,,,,,,,,,,,,,,,,,,,,,,,,,,,,,,,,,
,,5e9257d7a7264858bf6701e7,2023-12-14_23h04.26.329,kallum_motion_pilot,2023.2.3,MacIntel,59.88023952,5e9257d7a7264858bf6701e7,657bb317c8798c6608bceb3f,657bb40ecf7c2f51c5bb0bf5,0.0227,0.0227,1,38,200,82,1,sixfive,,,,,,,,,,,,,,,,,,,,,,,,,,,,,,,,,,,,,,,,,,,,,,,,,,,,,,,,,,,,,,,,,,,,,,,,,,,,,,,,,,,,,,,,,,,,,,,,,,,,,,,,,,,,,,,,,,,,,,,,,,,,,,,,,,,,,,,
,,5e9257d7a7264858bf6701e7,2023-12-14_23h04.26.329,kallum_motion_pilot,2023.2.3,MacIntel,59.88023952,5e9257d7a7264858bf6701e7,657bb317c8798c6608bceb3f,657bb40ecf7c2f51c5bb0bf5,0.0228,0.0228,1,39,201,98,1,sixfive,,,,,,,,,,,,,,,,,,,,,,,,,,,,,,,,,,,,,,,,,,,,,,,,,,,,,,,,,,,,,,,,,,,,,,,,,,,,,,,,,,,,,,,,,,,,,,,,,,,,,,,,,,,,,,,,,,,,,,,,,,,,,,,,,,,,,,,
,,5e9257d7a7264858bf6701e7,2023-12-14_23h04.26.329,kallum_motion_pilot,2023.2.3,MacIntel,59.88023952,5e9257d7a7264858bf6701e7,657bb317c8798c6608bceb3f,657bb40ecf7c2f51c5bb0bf5,0.0228,0.0228,1,40,202,67,1,twofour,,,,,,,,,,,,,,,,,,,,,,,,,,,,,,,,,,,,,,,,,,,,,,,,,,,,,,,,,,,,,,,,,,,,,,,,,,,,,,,,,,,,,,,,,,,,,,,,,,,,,,,,,,,,,,,,,,,,,,,,,,,,,,,,,,,,,,,
,,5e9257d7a7264858bf6701e7,2023-12-14_23h04.26.329,kallum_motion_pilot,2023.2.3,MacIntel,59.88023952,5e9257d7a7264858bf6701e7,657bb317c8798c6608bceb3f,657bb40ecf7c2f51c5bb0bf5,0.0228,0.0229,1,41,203,154,1,sixfive,,,,,,,,,,,,,,,,,,,,,,,,,,,,,,,,,,,,,,,,,,,,,,,,,,,,,,,,,,,,,,,,,,,,,,,,,,,,,,,,,,,,,,,,,,,,,,,,,,,,,,,,,,,,,,,,,,,,,,,,,,,,,,,,,,,,,,,
,,5e9257d7a7264858bf6701e7,2023-12-14_23h04.26.329,kallum_motion_pilot,2023.2.3,MacIntel,59.88023952,5e9257d7a7264858bf6701e7,657bb317c8798c6608bceb3f,657bb40ecf7c2f51c5bb0bf5,0.0229,0.023,1,42,204,138,1,sixfive,,,,,,,,,,,,,,,,,,,,,,,,,,,,,,,,,,,,,,,,,,,,,,,,,,,,,,,,,,,,,,,,,,,,,,,,,,,,,,,,,,,,,,,,,,,,,,,,,,,,,,,,,,,,,,,,,,,,,,,,,,,,,,,,,,,,,,,
,,5e9257d7a7264858bf6701e7,2023-12-14_23h04.26.329,kallum_motion_pilot,2023.2.3,MacIntel,59.88023952,5e9257d7a7264858bf6701e7,657bb317c8798c6608bceb3f,657bb40ecf7c2f51c5bb0bf5,0.023,0.023,1,43,205,55,1,fourthree,,,,,,,,,,,,,,,,,,,,,,,,,,,,,,,,,,,,,,,,,,,,,,,,,,,,,,,,,,,,,,,,,,,,,,,,,,,,,,,,,,,,,,,,,,,,,,,,,,,,,,,,,,,,,,,,,,,,,,,,,,,,,,,,,,,,,,,
,,5e9257d7a7264858bf6701e7,2023-12-14_23h04.26.329,kallum_motion_pilot,2023.2.3,MacIntel,59.88023952,5e9257d7a7264858bf6701e7,657bb317c8798c6608bceb3f,657bb40ecf7c2f51c5bb0bf5,0.023,0.0231,1,44,206,30,1,fourtwo,,,,,,,,,,,,,,,,,,,,,,,,,,,,,,,,,,,,,,,,,,,,,,,,,,,,,,,,,,,,,,,,,,,,,,,,,,,,,,,,,,,,,,,,,,,,,,,,,,,,,,,,,,,,,,,,,,,,,,,,,,,,,,,,,,,,,,,
,,5e9257d7a7264858bf6701e7,2023-12-14_23h04.26.329,kallum_motion_pilot,2023.2.3,MacIntel,59.88023952,5e9257d7a7264858bf6701e7,657bb317c8798c6608bceb3f,657bb40ecf7c2f51c5bb0bf5,0.0231,0.0231,1,45,207,150,1,eightsix,,,,,,,,,,,,,,,,,,,,,,,,,,,,,,,,,,,,,,,,,,,,,,,,,,,,,,,,,,,,,,,,,,,,,,,,,,,,,,,,,,,,,,,,,,,,,,,,,,,,,,,,,,,,,,,,,,,,,,,,,,,,,,,,,,,,,,,
,,5e9257d7a7264858bf6701e7,2023-12-14_23h04.26.329,kallum_motion_pilot,2023.2.3,MacIntel,59.88023952,5e9257d7a7264858bf6701e7,657bb317c8798c6608bceb3f,657bb40ecf7c2f51c5bb0bf5,0.0232,0.0232,1,46,208,145,1,fiveseven,,,,,,,,,,,,,,,,,,,,,,,,,,,,,,,,,,,,,,,,,,,,,,,,,,,,,,,,,,,,,,,,,,,,,,,,,,,,,,,,,,,,,,,,,,,,,,,,,,,,,,,,,,,,,,,,,,,,,,,,,,,,,,,,,,,,,,,
,,5e9257d7a7264858bf6701e7,2023-12-14_23h04.26.329,kallum_motion_pilot,2023.2.3,MacIntel,59.88023952,5e9257d7a7264858bf6701e7,657bb317c8798c6608bceb3f,657bb40ecf7c2f51c5bb0bf5,0.0232,0.0232,1,47,209,73,1,onethree,,,,,,,,,,,,,,,,,,,,,,,,,,,,,,,,,,,,,,,,,,,,,,,,,,,,,,,,,,,,,,,,,,,,,,,,,,,,,,,,,,,,,,,,,,,,,,,,,,,,,,,,,,,,,,,,,,,,,,,,,,,,,,,,,,,,,,,
,,5e9257d7a7264858bf6701e7,2023-12-14_23h04.26.329,kallum_motion_pilot,2023.2.3,MacIntel,59.88023952,5e9257d7a7264858bf6701e7,657bb317c8798c6608bceb3f,657bb40ecf7c2f51c5bb0bf5,0.0233,0.0233,1,48,210,35,1,twofour,,,,,,,,,,,,,,,,,,,,,,,,,,,,,,,,,,,,,,,,,,,,,,,,,,,,,,,,,,,,,,,,,,,,,,,,,,,,,,,,,,,,,,,,,,,,,,,,,,,,,,,,,,,,,,,,,,,,,,,,,,,,,,,,,,,,,,,
,,5e9257d7a7264858bf6701e7,2023-12-14_23h04.26.329,kallum_motion_pilot,2023.2.3,MacIntel,59.88023952,5e9257d7a7264858bf6701e7,657bb317c8798c6608bceb3f,657bb40ecf7c2f51c5bb0bf5,0.0233,0.0234,1,49,211,24,1,onetwo,,,,,,,,,,,,,,,,,,,,,,,,,,,,,,,,,,,,,,,,,,,,,,,,,,,,,,,,,,,,,,,,,,,,,,,,,,,,,,,,,,,,,,,,,,,,,,,,,,,,,,,,,,,,,,,,,,,,,,,,,,,,,,,,,,,,,,,
,,5e9257d7a7264858bf6701e7,2023-12-14_23h04.26.329,kallum_motion_pilot,2023.2.3,MacIntel,59.88023952,5e9257d7a7264858bf6701e7,657bb317c8798c6608bceb3f,657bb40ecf7c2f51c5bb0bf5,0.0234,0.0234,1,50,212,27,1,twofour,,,,,,,,,,,,,,,,,,,,,,,,,,,,,,,,,,,,,,,,,,,,,,,,,,,,,,,,,,,,,,,,,,,,,,,,,,,,,,,,,,,,,,,,,,,,,,,,,,,,,,,,,,,,,,,,,,,,,,,,,,,,,,,,,,,,,,,
,,5e9257d7a7264858bf6701e7,2023-12-14_23h04.26.329,kallum_motion_pilot,2023.2.3,MacIntel,59.88023952,5e9257d7a7264858bf6701e7,657bb317c8798c6608bceb3f,657bb40ecf7c2f51c5bb0bf5,0.0235,0.0235,1,51,213,57,1,onethree,,,,,,,,,,,,,,,,,,,,,,,,,,,,,,,,,,,,,,,,,,,,,,,,,,,,,,,,,,,,,,,,,,,,,,,,,,,,,,,,,,,,,,,,,,,,,,,,,,,,,,,,,,,,,,,,,,,,,,,,,,,,,,,,,,,,,,,
,,5e9257d7a7264858bf6701e7,2023-12-14_23h04.26.329,kallum_motion_pilot,2023.2.3,MacIntel,59.88023952,5e9257d7a7264858bf6701e7,657bb317c8798c6608bceb3f,657bb40ecf7c2f51c5bb0bf5,0.0235,0.0235,1,52,214,62,1,fourtwo,,,,,,,,,,,,,,,,,,,,,,,,,,,,,,,,,,,,,,,,,,,,,,,,,,,,,,,,,,,,,,,,,,,,,,,,,,,,,,,,,,,,,,,,,,,,,,,,,,,,,,,,,,,,,,,,,,,,,,,,,,,,,,,,,,,,,,,
,,5e9257d7a7264858bf6701e7,2023-12-14_23h04.26.329,kallum_motion_pilot,2023.2.3,MacIntel,59.88023952,5e9257d7a7264858bf6701e7,657bb317c8798c6608bceb3f,657bb40ecf7c2f51c5bb0bf5,0.0236,0.0236,1,53,215,148,1,sevenfive,,,,,,,,,,,,,,,,,,,,,,,,,,,,,,,,,,,,,,,,,,,,,,,,,,,,,,,,,,,,,,,,,,,,,,,,,,,,,,,,,,,,,,,,,,,,,,,,,,,,,,,,,,,,,,,,,,,,,,,,,,,,,,,,,,,,,,,
,,5e9257d7a7264858bf6701e7,2023-12-14_23h04.26.329,kallum_motion_pilot,2023.2.3,MacIntel,59.88023952,5e9257d7a7264858bf6701e7,657bb317c8798c6608bceb3f,657bb40ecf7c2f51c5bb0bf5,0.0236,0.0236,1,54,216,94,1,eightsix,,,,,,,,,,,,,,,,,,,,,,,,,,,,,,,,,,,,,,,,,,,,,,,,,,,,,,,,,,,,,,,,,,,,,,,,,,,,,,,,,,,,,,,,,,,,,,,,,,,,,,,,,,,,,,,,,,,,,,,,,,,,,,,,,,,,,,,
,,5e9257d7a7264858bf6701e7,2023-12-14_23h04.26.329,kallum_motion_pilot,2023.2.3,MacIntel,59.88023952,5e9257d7a7264858bf6701e7,657bb317c8798c6608bceb3f,657bb40ecf7c2f51c5bb0bf5,0.0237,0.0237,1,55,217,76,1,threeone,,,,,,,,,,,,,,,,,,,,,,,,,,,,,,,,,,,,,,,,,,,,,,,,,,,,,,,,,,,,,,,,,,,,,,,,,,,,,,,,,,,,,,,,,,,,,,,,,,,,,,,,,,,,,,,,,,,,,,,,,,,,,,,,,,,,,,,
,,5e9257d7a7264858bf6701e7,2023-12-14_23h04.26.329,kallum_motion_pilot,2023.2.3,MacIntel,59.88023952,5e9257d7a7264858bf6701e7,657bb317c8798c6608bceb3f,657bb40ecf7c2f51c5bb0bf5,0.0238,0.0238,1,56,218,9,1,onethree,,,,,,,,,,,,,,,,,,,,,,,,,,,,,,,,,,,,,,,,,,,,,,,,,,,,,,,,,,,,,,,,,,,,,,,,,,,,,,,,,,,,,,,,,,,,,,,,,,,,,,,,,,,,,,,,,,,,,,,,,,,,,,,,,,,,,,,
,,5e9257d7a7264858bf6701e7,2023-12-14_23h04.26.329,kallum_motion_pilot,2023.2.3,MacIntel,59.88023952,5e9257d7a7264858bf6701e7,657bb317c8798c6608bceb3f,657bb40ecf7c2f51c5bb0bf5,0.0238,0.0239,1,57,219,6,1,fourtwo,,,,,,,,,,,,,,,,,,,,,,,,,,,,,,,,,,,,,,,,,,,,,,,,,,,,,,,,,,,,,,,,,,,,,,,,,,,,,,,,,,,,,,,,,,,,,,,,,,,,,,,,,,,,,,,,,,,,,,,,,,,,,,,,,,,,,,,
,,5e9257d7a7264858bf6701e7,2023-12-14_23h04.26.329,kallum_motion_pilot,2023.2.3,MacIntel,59.88023952,5e9257d7a7264858bf6701e7,657bb317c8798c6608bceb3f,657bb40ecf7c2f51c5bb0bf5,0.0239,0.0239,1,58,220,72,1,onetwo,,,,,,,,,,,,,,,,,,,,,,,,,,,,,,,,,,,,,,,,,,,,,,,,,,,,,,,,,,,,,,,,,,,,,,,,,,,,,,,,,,,,,,,,,,,,,,,,,,,,,,,,,,,,,,,,,,,,,,,,,,,,,,,,,,,,,,,
,,5e9257d7a7264858bf6701e7,2023-12-14_23h04.26.329,kallum_motion_pilot,2023.2.3,MacIntel,59.88023952,5e9257d7a7264858bf6701e7,657bb317c8798c6608bceb3f,657bb40ecf7c2f51c5bb0bf5,0.0239,0.024,1,59,221,118,1,eightsix,,,,,,,,,,,,,,,,,,,,,,,,,,,,,,,,,,,,,,,,,,,,,,,,,,,,,,,,,,,,,,,,,,,,,,,,,,,,,,,,,,,,,,,,,,,,,,,,,,,,,,,,,,,,,,,,,,,,,,,,,,,,,,,,,,,,,,,
,,5e9257d7a7264858bf6701e7,2023-12-14_23h04.26.329,kallum_motion_pilot,2023.2.3,MacIntel,59.88023952,5e9257d7a7264858bf6701e7,657bb317c8798c6608bceb3f,657bb40ecf7c2f51c5bb0bf5,0.024,0.024,1,60,222,105,1,fiveseven,,,,,,,,,,,,,,,,,,,,,,,,,,,,,,,,,,,,,,,,,,,,,,,,,,,,,,,,,,,,,,,,,,,,,,,,,,,,,,,,,,,,,,,,,,,,,,,,,,,,,,,,,,,,,,,,,,,,,,,,,,,,,,,,,,,,,,,
,,5e9257d7a7264858bf6701e7,2023-12-14_23h04.26.329,kallum_motion_pilot,2023.2.3,MacIntel,59.88023952,5e9257d7a7264858bf6701e7,657bb317c8798c6608bceb3f,657bb40ecf7c2f51c5bb0bf5,0.024,0.024,1,61,223,48,1,onetwo,,,,,,,,,,,,,,,,,,,,,,,,,,,,,,,,,,,,,,,,,,,,,,,,,,,,,,,,,,,,,,,,,,,,,,,,,,,,,,,,,,,,,,,,,,,,,,,,,,,,,,,,,,,,,,,,,,,,,,,,,,,,,,,,,,,,,,,
,,5e9257d7a7264858bf6701e7,2023-12-14_23h04.26.329,kallum_motion_pilot,2023.2.3,MacIntel,59.88023952,5e9257d7a7264858bf6701e7,657bb317c8798c6608bceb3f,657bb40ecf7c2f51c5bb0bf5,0.0241,0.0242,1,62,224,16,1,onetwo,,,,,,,,,,,,,,,,,,,,,,,,,,,,,,,,,,,,,,,,,,,,,,,,,,,,,,,,,,,,,,,,,,,,,,,,,,,,,,,,,,,,,,,,,,,,,,,,,,,,,,,,,,,,,,,,,,,,,,,,,,,,,,,,,,,,,,,
,,5e9257d7a7264858bf6701e7,2023-12-14_23h04.26.329,kallum_motion_pilot,2023.2.3,MacIntel,59.88023952,5e9257d7a7264858bf6701e7,657bb317c8798c6608bceb3f,657bb40ecf7c2f51c5bb0bf5,0.0242,0.0242,1,63,225,115,1,sixeight,,,,,,,,,,,,,,,,,,,,,,,,,,,,,,,,,,,,,,,,,,,,,,,,,,,,,,,,,,,,,,,,,,,,,,,,,,,,,,,,,,,,,,,,,,,,,,,,,,,,,,,,,,,,,,,,,,,,,,,,,,,,,,,,,,,,,,,
,,5e9257d7a7264858bf6701e7,2023-12-14_23h04.26.329,kallum_motion_pilot,2023.2.3,MacIntel,59.88023952,5e9257d7a7264858bf6701e7,657bb317c8798c6608bceb3f,657bb40ecf7c2f51c5bb0bf5,0.0242,0.0243,1,64,226,59,1,twofour,,,,,,,,,,,,,,,,,,,,,,,,,,,,,,,,,,,,,,,,,,,,,,,,,,,,,,,,,,,,,,,,,,,,,,,,,,,,,,,,,,,,,,,,,,,,,,,,,,,,,,,,,,,,,,,,,,,,,,,,,,,,,,,,,,,,,,,
,,5e9257d7a7264858bf6701e7,2023-12-14_23h04.26.329,kallum_motion_pilot,2023.2.3,MacIntel,59.88023952,5e9257d7a7264858bf6701e7,657bb317c8798c6608bceb3f,657bb40ecf7c2f51c5bb0bf5,0.0243,0.0244,1,65,227,34,1,twoone,,,,,,,,,,,,,,,,,,,,,,,,,,,,,,,,,,,,,,,,,,,,,,,,,,,,,,,,,,,,,,,,,,,,,,,,,,,,,,,,,,,,,,,,,,,,,,,,,,,,,,,,,,,,,,,,,,,,,,,,,,,,,,,,,,,,,,,
,,5e9257d7a7264858bf6701e7,2023-12-14_23h04.26.329,kallum_motion_pilot,2023.2.3,MacIntel,59.88023952,5e9257d7a7264858bf6701e7,657bb317c8798c6608bceb3f,657bb40ecf7c2f51c5bb0bf5,0.0244,0.0244,1,66,228,50,1,twoone,,,,,,,,,,,,,,,,,,,,,,,,,,,,,,,,,,,,,,,,,,,,,,,,,,,,,,,,,,,,,,,,,,,,,,,,,,,,,,,,,,,,,,,,,,,,,,,,,,,,,,,,,,,,,,,,,,,,,,,,,,,,,,,,,,,,,,,
,,5e9257d7a7264858bf6701e7,2023-12-14_23h04.26.329,kallum_motion_pilot,2023.2.3,MacIntel,59.88023952,5e9257d7a7264858bf6701e7,657bb317c8798c6608bceb3f,657bb40ecf7c2f51c5bb0bf5,0.0244,0.0245,1,67,229,125,1,seveneight,,,,,,,,,,,,,,,,,,,,,,,,,,,,,,,,,,,,,,,,,,,,,,,,,,,,,,,,,,,,,,,,,,,,,,,,,,,,,,,,,,,,,,,,,,,,,,,,,,,,,,,,,,,,,,,,,,,,,,,,,,,,,,,,,,,,,,,
,,5e9257d7a7264858bf6701e7,2023-12-14_23h04.26.329,kallum_motion_pilot,2023.2.3,MacIntel,59.88023952,5e9257d7a7264858bf6701e7,657bb317c8798c6608bceb3f,657bb40ecf7c2f51c5bb0bf5,0.0245,0.0245,1,68,230,69,1,threefour,,,,,,,,,,,,,,,,,,,,,,,,,,,,,,,,,,,,,,,,,,,,,,,,,,,,,,,,,,,,,,,,,,,,,,,,,,,,,,,,,,,,,,,,,,,,,,,,,,,,,,,,,,,,,,,,,,,,,,,,,,,,,,,,,,,,,,,
,,5e9257d7a7264858bf6701e7,2023-12-14_23h04.26.329,kallum_motion_pilot,2023.2.3,MacIntel,59.88023952,5e9257d7a7264858bf6701e7,657bb317c8798c6608bceb3f,657bb40ecf7c2f51c5bb0bf5,0.0245,0.0245,1,69,231,133,1,seveneight,,,,,,,,,,,,,,,,,,,,,,,,,,,,,,,,,,,,,,,,,,,,,,,,,,,,,,,,,,,,,,,,,,,,,,,,,,,,,,,,,,,,,,,,,,,,,,,,,,,,,,,,,,,,,,,,,,,,,,,,,,,,,,,,,,,,,,,
,,5e9257d7a7264858bf6701e7,2023-12-14_23h04.26.329,kallum_motion_pilot,2023.2.3,MacIntel,59.88023952,5e9257d7a7264858bf6701e7,657bb317c8798c6608bceb3f,657bb40ecf7c2f51c5bb0bf5,0.0246,0.0246,1,70,232,130,1,sixfive,,,,,,,,,,,,,,,,,,,,,,,,,,,,,,,,,,,,,,,,,,,,,,,,,,,,,,,,,,,,,,,,,,,,,,,,,,,,,,,,,,,,,,,,,,,,,,,,,,,,,,,,,,,,,,,,,,,,,,,,,,,,,,,,,,,,,,,
,,5e9257d7a7264858bf6701e7,2023-12-14_23h04.26.329,kallum_motion_pilot,2023.2.3,MacIntel,59.88023952,5e9257d7a7264858bf6701e7,657bb317c8798c6608bceb3f,657bb40ecf7c2f51c5bb0bf5,0.0246,0.0246,1,71,233,149,1,seveneight,,,,,,,,,,,,,,,,,,,,,,,,,,,,,,,,,,,,,,,,,,,,,,,,,,,,,,,,,,,,,,,,,,,,,,,,,,,,,,,,,,,,,,,,,,,,,,,,,,,,,,,,,,,,,,,,,,,,,,,,,,,,,,,,,,,,,,,
,,5e9257d7a7264858bf6701e7,2023-12-14_23h04.26.329,kallum_motion_pilot,2023.2.3,MacIntel,59.88023952,5e9257d7a7264858bf6701e7,657bb317c8798c6608bceb3f,657bb40ecf7c2f51c5bb0bf5,0.0247,0.0247,1,72,234,110,1,eightsix,,,,,,,,,,,,,,,,,,,,,,,,,,,,,,,,,,,,,,,,,,,,,,,,,,,,,,,,,,,,,,,,,,,,,,,,,,,,,,,,,,,,,,,,,,,,,,,,,,,,,,,,,,,,,,,,,,,,,,,,,,,,,,,,,,,,,,,
,,5e9257d7a7264858bf6701e7,2023-12-14_23h04.26.329,kallum_motion_pilot,2023.2.3,MacIntel,59.88023952,5e9257d7a7264858bf6701e7,657bb317c8798c6608bceb3f,657bb40ecf7c2f51c5bb0bf5,0.0247,0.0249,1,73,235,40,1,onetwo,,,,,,,,,,,,,,,,,,,,,,,,,,,,,,,,,,,,,,,,,,,,,,,,,,,,,,,,,,,,,,,,,,,,,,,,,,,,,,,,,,,,,,,,,,,,,,,,,,,,,,,,,,,,,,,,,,,,,,,,,,,,,,,,,,,,,,,
,,5e9257d7a7264858bf6701e7,2023-12-14_23h04.26.329,kallum_motion_pilot,2023.2.3,MacIntel,59.88023952,5e9257d7a7264858bf6701e7,657bb317c8798c6608bceb3f,657bb40ecf7c2f51c5bb0bf5,0.0249,0.0249,1,74,236,37,1,threefour,,,,,,,,,,,,,,,,,,,,,,,,,,,,,,,,,,,,,,,,,,,,,,,,,,,,,,,,,,,,,,,,,,,,,,,,,,,,,,,,,,,,,,,,,,,,,,,,,,,,,,,,,,,,,,,,,,,,,,,,,,,,,,,,,,,,,,,
,,5e9257d7a7264858bf6701e7,2023-12-14_23h04.26.329,kallum_motion_pilot,2023.2.3,MacIntel,59.88023952,5e9257d7a7264858bf6701e7,657bb317c8798c6608bceb3f,657bb40ecf7c2f51c5bb0bf5,0.0249,0.0249,1,75,237,11,1,twofour,,,,,,,,,,,,,,,,,,,,,,,,,,,,,,,,,,,,,,,,,,,,,,,,,,,,,,,,,,,,,,,,,,,,,,,,,,,,,,,,,,,,,,,,,,,,,,,,,,,,,,,,,,,,,,,,,,,,,,,,,,,,,,,,,,,,,,,
,,5e9257d7a7264858bf6701e7,2023-12-14_23h04.26.329,kallum_motion_pilot,2023.2.3,MacIntel,59.88023952,5e9257d7a7264858bf6701e7,657bb317c8798c6608bceb3f,657bb40ecf7c2f51c5bb0bf5,0.0249,0.025,1,76,238,78,1,fourtwo,,,,,,,,,,,,,,,,,,,,,,,,,,,,,,,,,,,,,,,,,,,,,,,,,,,,,,,,,,,,,,,,,,,,,,,,,,,,,,,,,,,,,,,,,,,,,,,,,,,,,,,,,,,,,,,,,,,,,,,,,,,,,,,,,,,,,,,
,,5e9257d7a7264858bf6701e7,2023-12-14_23h04.26.329,kallum_motion_pilot,2023.2.3,MacIntel,59.88023952,5e9257d7a7264858bf6701e7,657bb317c8798c6608bceb3f,657bb40ecf7c2f51c5bb0bf5,0.0251,0.0251,1,77,239,53,1,threefour,,,,,,,,,,,,,,,,,,,,,,,,,,,,,,,,,,,,,,,,,,,,,,,,,,,,,,,,,,,,,,,,,,,,,,,,,,,,,,,,,,,,,,,,,,,,,,,,,,,,,,,,,,,,,,,,,,,,,,,,,,,,,,,,,,,,,,,
,,5e9257d7a7264858bf6701e7,2023-12-14_23h04.26.329,kallum_motion_pilot,2023.2.3,MacIntel,59.88023952,5e9257d7a7264858bf6701e7,657bb317c8798c6608bceb3f,657bb40ecf7c2f51c5bb0bf5,0.0251,0.0251,1,78,240,126,1,eightsix,,,,,,,,,,,,,,,,,,,,,,,,,,,,,,,,,,,,,,,,,,,,,,,,,,,,,,,,,,,,,,,,,,,,,,,,,,,,,,,,,,,,,,,,,,,,,,,,,,,,,,,,,,,,,,,,,,,,,,,,,,,,,,,,,,,,,,,
,,5e9257d7a7264858bf6701e7,2023-12-14_23h04.26.329,kallum_motion_pilot,2023.2.3,MacIntel,59.88023952,5e9257d7a7264858bf6701e7,657bb317c8798c6608bceb3f,657bb40ecf7c2f51c5bb0bf5,0.0251,0.0252,1,79,241,18,1,twoone,,,,,,,,,,,,,,,,,,,,,,,,,,,,,,,,,,,,,,,,,,,,,,,,,,,,,,,,,,,,,,,,,,,,,,,,,,,,,,,,,,,,,,,,,,,,,,,,,,,,,,,,,,,,,,,,,,,,,,,,,,,,,,,,,,,,,,,
,,5e9257d7a7264858bf6701e7,2023-12-14_23h04.26.329,kallum_motion_pilot,2023.2.3,MacIntel,59.88023952,5e9257d7a7264858bf6701e7,657bb317c8798c6608bceb3f,657bb40ecf7c2f51c5bb0bf5,0.0252,0.0253,1,80,242,117,1,seveneight,,,,,,,,,,,,,,,,,,,,,,,,,,,,,,,,,,,,,,,,,,,,,,,,,,,,,,,,,,,,,,,,,,,,,,,,,,,,,,,,,,,,,,,,,,,,,,,,,,,,,,,,,,,,,,,,,,,,,,,,,,,,,,,,,,,,,,,
,,5e9257d7a7264858bf6701e7,2023-12-14_23h04.26.329,kallum_motion_pilot,2023.2.3,MacIntel,59.88023952,5e9257d7a7264858bf6701e7,657bb317c8798c6608bceb3f,657bb40ecf7c2f51c5bb0bf5,0.0253,0.0253,1,81,243,111,1,eightseven,,,,,,,,,,,,,,,,,,,,,,,,,,,,,,,,,,,,,,,,,,,,,,,,,,,,,,,,,,,,,,,,,,,,,,,,,,,,,,,,,,,,,,,,,,,,,,,,,,,,,,,,,,,,,,,,,,,,,,,,,,,,,,,,,,,,,,,
,,5e9257d7a7264858bf6701e7,2023-12-14_23h04.26.329,kallum_motion_pilot,2023.2.3,MacIntel,59.88023952,5e9257d7a7264858bf6701e7,657bb317c8798c6608bceb3f,657bb40ecf7c2f51c5bb0bf5,0.0254,0.0254,1,82,244,71,1,fourthree,,,,,,,,,,,,,,,,,,,,,,,,,,,,,,,,,,,,,,,,,,,,,,,,,,,,,,,,,,,,,,,,,,,,,,,,,,,,,,,,,,,,,,,,,,,,,,,,,,,,,,,,,,,,,,,,,,,,,,,,,,,,,,,,,,,,,,,
,,5e9257d7a7264858bf6701e7,2023-12-14_23h04.26.329,kallum_motion_pilot,2023.2.3,MacIntel,59.88023952,5e9257d7a7264858bf6701e7,657bb317c8798c6608bceb3f,657bb40ecf7c2f51c5bb0bf5,0.0254,0.0254,1,83,245,10,1,twoone,,,,,,,,,,,,,,,,,,,,,,,,,,,,,,,,,,,,,,,,,,,,,,,,,,,,,,,,,,,,,,,,,,,,,,,,,,,,,,,,,,,,,,,,,,,,,,,,,,,,,,,,,,,,,,,,,,,,,,,,,,,,,,,,,,,,,,,
,,5e9257d7a7264858bf6701e7,2023-12-14_23h04.26.329,kallum_motion_pilot,2023.2.3,MacIntel,59.88023952,5e9257d7a7264858bf6701e7,657bb317c8798c6608bceb3f,657bb40ecf7c2f51c5bb0bf5,0.0254,0.0255,1,84,246,47,1,fourthree,,,,,,,,,,,,,,,,,,,,,,,,,,,,,,,,,,,,,,,,,,,,,,,,,,,,,,,,,,,,,,,,,,,,,,,,,,,,,,,,,,,,,,,,,,,,,,,,,,,,,,,,,,,,,,,,,,,,,,,,,,,,,,,,,,,,,,,
,,5e9257d7a7264858bf6701e7,2023-12-14_23h04.26.329,kallum_motion_pilot,2023.2.3,MacIntel,59.88023952,5e9257d7a7264858bf6701e7,657bb317c8798c6608bceb3f,657bb40ecf7c2f51c5bb0bf5,0.0255,0.0256,1,85,247,142,1,eightsix,,,,,,,,,,,,,,,,,,,,,,,,,,,,,,,,,,,,,,,,,,,,,,,,,,,,,,,,,,,,,,,,,,,,,,,,,,,,,,,,,,,,,,,,,,,,,,,,,,,,,,,,,,,,,,,,,,,,,,,,,,,,,,,,,,,,,,,
,,5e9257d7a7264858bf6701e7,2023-12-14_23h04.26.329,kallum_motion_pilot,2023.2.3,MacIntel,59.88023952,5e9257d7a7264858bf6701e7,657bb317c8798c6608bceb3f,657bb40ecf7c2f51c5bb0bf5,0.0256,0.0256,1,86,248,42,1,twoone,,,,,,,,,,,,,,,,,,,,,,,,,,,,,,,,,,,,,,,,,,,,,,,,,,,,,,,,,,,,,,,,,,,,,,,,,,,,,,,,,,,,,,,,,,,,,,,,,,,,,,,,,,,,,,,,,,,,,,,,,,,,,,,,,,,,,,,
,,5e9257d7a7264858bf6701e7,2023-12-14_23h04.26.329,kallum_motion_pilot,2023.2.3,MacIntel,59.88023952,5e9257d7a7264858bf6701e7,657bb317c8798c6608bceb3f,657bb40ecf7c2f51c5bb0bf5,0.0256,0.0257,1,87,249,157,1,seveneight,,,,,,,,,,,,,,,,,,,,,,,,,,,,,,,,,,,,,,,,,,,,,,,,,,,,,,,,,,,,,,,,,,,,,,,,,,,,,,,,,,,,,,,,,,,,,,,,,,,,,,,,,,,,,,,,,,,,,,,,,,,,,,,,,,,,,,,
,,5e9257d7a7264858bf6701e7,2023-12-14_23h04.26.329,kallum_motion_pilot,2023.2.3,MacIntel,59.88023952,5e9257d7a7264858bf6701e7,657bb317c8798c6608bceb3f,657bb40ecf7c2f51c5bb0bf5,0.0257,0.0257,1,88,250,95,1,eightseven,,,,,,,,,,,,,,,,,,,,,,,,,,,,,,,,,,,,,,,,,,,,,,,,,,,,,,,,,,,,,,,,,,,,,,,,,,,,,,,,,,,,,,,,,,,,,,,,,,,,,,,,,,,,,,,,,,,,,,,,,,,,,,,,,,,,,,,
,,5e9257d7a7264858bf6701e7,2023-12-14_23h04.26.329,kallum_motion_pilot,2023.2.3,MacIntel,59.88023952,5e9257d7a7264858bf6701e7,657bb317c8798c6608bceb3f,657bb40ecf7c2f51c5bb0bf5,0.0258,0.0258,1,89,251,155,1,sixeight,,,,,,,,,,,,,,,,,,,,,,,,,,,,,,,,,,,,,,,,,,,,,,,,,,,,,,,,,,,,,,,,,,,,,,,,,,,,,,,,,,,,,,,,,,,,,,,,,,,,,,,,,,,,,,,,,,,,,,,,,,,,,,,,,,,,,,,
,,5e9257d7a7264858bf6701e7,2023-12-14_23h04.26.329,kallum_motion_pilot,2023.2.3,MacIntel,59.88023952,5e9257d7a7264858bf6701e7,657bb317c8798c6608bceb3f,657bb40ecf7c2f51c5bb0bf5,0.0259,0.0259,1,90,252,144,1,fivesix,,,,,,,,,,,,,,,,,,,,,,,,,,,,,,,,,,,,,,,,,,,,,,,,,,,,,,,,,,,,,,,,,,,,,,,,,,,,,,,,,,,,,,,,,,,,,,,,,,,,,,,,,,,,,,,,,,,,,,,,,,,,,,,,,,,,,,,
,,5e9257d7a7264858bf6701e7,2023-12-14_23h04.26.329,kallum_motion_pilot,2023.2.3,MacIntel,59.88023952,5e9257d7a7264858bf6701e7,657bb317c8798c6608bceb3f,657bb40ecf7c2f51c5bb0bf5,0.0259,0.0259,1,91,253,12,1,threeone,,,,,,,,,,,,,,,,,,,,,,,,,,,,,,,,,,,,,,,,,,,,,,,,,,,,,,,,,,,,,,,,,,,,,,,,,,,,,,,,,,,,,,,,,,,,,,,,,,,,,,,,,,,,,,,,,,,,,,,,,,,,,,,,,,,,,,,
,,5e9257d7a7264858bf6701e7,2023-12-14_23h04.26.329,kallum_motion_pilot,2023.2.3,MacIntel,59.88023952,5e9257d7a7264858bf6701e7,657bb317c8798c6608bceb3f,657bb40ecf7c2f51c5bb0bf5,0.0259,0.0259,1,92,254,28,1,threeone,,,,,,,,,,,,,,,,,,,,,,,,,,,,,,,,,,,,,,,,,,,,,,,,,,,,,,,,,,,,,,,,,,,,,,,,,,,,,,,,,,,,,,,,,,,,,,,,,,,,,,,,,,,,,,,,,,,,,,,,,,,,,,,,,,,,,,,
,,5e9257d7a7264858bf6701e7,2023-12-14_23h04.26.329,kallum_motion_pilot,2023.2.3,MacIntel,59.88023952,5e9257d7a7264858bf6701e7,657bb317c8798c6608bceb3f,657bb40ecf7c2f51c5bb0bf5,0.026,0.026,1,93,255,147,1,sixeight,,,,,,,,,,,,,,,,,,,,,,,,,,,,,,,,,,,,,,,,,,,,,,,,,,,,,,,,,,,,,,,,,,,,,,,,,,,,,,,,,,,,,,,,,,,,,,,,,,,,,,,,,,,,,,,,,,,,,,,,,,,,,,,,,,,,,,,
,,5e9257d7a7264858bf6701e7,2023-12-14_23h04.26.329,kallum_motion_pilot,2023.2.3,MacIntel,59.88023952,5e9257d7a7264858bf6701e7,657bb317c8798c6608bceb3f,657bb40ecf7c2f51c5bb0bf5,0.026,0.0262,1,94,256,160,1,fivesix,,,,,,,,,,,,,,,,,,,,,,,,,,,,,,,,,,,,,,,,,,,,,,,,,,,,,,,,,,,,,,,,,,,,,,,,,,,,,,,,,,,,,,,,,,,,,,,,,,,,,,,,,,,,,,,,,,,,,,,,,,,,,,,,,,,,,,,
,,5e9257d7a7264858bf6701e7,2023-12-14_23h04.26.329,kallum_motion_pilot,2023.2.3,MacIntel,59.88023952,5e9257d7a7264858bf6701e7,657bb317c8798c6608bceb3f,657bb40ecf7c2f51c5bb0bf5,0.0262,0.0262,1,95,257,83,1,sixeight,,,,,,,,,,,,,,,,,,,,,,,,,,,,,,,,,,,,,,,,,,,,,,,,,,,,,,,,,,,,,,,,,,,,,,,,,,,,,,,,,,,,,,,,,,,,,,,,,,,,,,,,,,,,,,,,,,,,,,,,,,,,,,,,,,,,,,,
,,5e9257d7a7264858bf6701e7,2023-12-14_23h04.26.329,kallum_motion_pilot,2023.2.3,MacIntel,59.88023952,5e9257d7a7264858bf6701e7,657bb317c8798c6608bceb3f,657bb40ecf7c2f51c5bb0bf5,0.0262,0.0263,1,96,258,2,1,twoone,,,,,,,,,,,,,,,,,,,,,,,,,,,,,,,,,,,,,,,,,,,,,,,,,,,,,,,,,,,,,,,,,,,,,,,,,,,,,,,,,,,,,,,,,,,,,,,,,,,,,,,,,,,,,,,,,,,,,,,,,,,,,,,,,,,,,,,
,,5e9257d7a7264858bf6701e7,2023-12-14_23h04.26.329,kallum_motion_pilot,2023.2.3,MacIntel,59.88023952,5e9257d7a7264858bf6701e7,657bb317c8798c6608bceb3f,657bb40ecf7c2f51c5bb0bf5,0.0263,0.0263,1,97,259,70,1,fourtwo,,,,,,,,,,,,,,,,,,,,,,,,,,,,,,,,,,,,,,,,,,,,,,,,,,,,,,,,,,,,,,,,,,,,,,,,,,,,,,,,,,,,,,,,,,,,,,,,,,,,,,,,,,,,,,,,,,,,,,,,,,,,,,,,,,,,,,,
,,5e9257d7a7264858bf6701e7,2023-12-14_23h04.26.329,kallum_motion_pilot,2023.2.3,MacIntel,59.88023952,5e9257d7a7264858bf6701e7,657bb317c8798c6608bceb3f,657bb40ecf7c2f51c5bb0bf5,0.0264,0.0264,1,98,260,101,1,seveneight,,,,,,,,,,,,,,,,,,,,,,,,,,,,,,,,,,,,,,,,,,,,,,,,,,,,,,,,,,,,,,,,,,,,,,,,,,,,,,,,,,,,,,,,,,,,,,,,,,,,,,,,,,,,,,,,,,,,,,,,,,,,,,,,,,,,,,,
,,5e9257d7a7264858bf6701e7,2023-12-14_23h04.26.329,kallum_motion_pilot,2023.2.3,MacIntel,59.88023952,5e9257d7a7264858bf6701e7,657bb317c8798c6608bceb3f,657bb40ecf7c2f51c5bb0bf5,0.0264,0.0264,1,99,261,52,1,threeone,,,,,,,,,,,,,,,,,,,,,,,,,,,,,,,,,,,,,,,,,,,,,,,,,,,,,,,,,,,,,,,,,,,,,,,,,,,,,,,,,,,,,,,,,,,,,,,,,,,,,,,,,,,,,,,,,,,,,,,,,,,,,,,,,,,,,,,
,,5e9257d7a7264858bf6701e7,2023-12-14_23h04.26.329,kallum_motion_pilot,2023.2.3,MacIntel,59.88023952,5e9257d7a7264858bf6701e7,657bb317c8798c6608bceb3f,657bb40ecf7c2f51c5bb0bf5,0.0265,0.0265,1,100,262,44,1,threeone,,,,,,,,,,,,,,,,,,,,,,,,,,,,,,,,,,,,,,,,,,,,,,,,,,,,,,,,,,,,,,,,,,,,,,,,,,,,,,,,,,,,,,,,,,,,,,,,,,,,,,,,,,,,,,,,,,,,,,,,,,,,,,,,,,,,,,,
,,5e9257d7a7264858bf6701e7,2023-12-14_23h04.26.329,kallum_motion_pilot,2023.2.3,MacIntel,59.88023952,5e9257d7a7264858bf6701e7,657bb317c8798c6608bceb3f,657bb40ecf7c2f51c5bb0bf5,0.0266,0.0266,1,101,263,107,1,sixeight,,,,,,,,,,,,,,,,,,,,,,,,,,,,,,,,,,,,,,,,,,,,,,,,,,,,,,,,,,,,,,,,,,,,,,,,,,,,,,,,,,,,,,,,,,,,,,,,,,,,,,,,,,,,,,,,,,,,,,,,,,,,,,,,,,,,,,,
,,5e9257d7a7264858bf6701e7,2023-12-14_23h04.26.329,kallum_motion_pilot,2023.2.3,MacIntel,59.88023952,5e9257d7a7264858bf6701e7,657bb317c8798c6608bceb3f,657bb40ecf7c2f51c5bb0bf5,0.0267,0.0267,1,102,264,13,1,threefour,,,,,,,,,,,,,,,,,,,,,,,,,,,,,,,,,,,,,,,,,,,,,,,,,,,,,,,,,,,,,,,,,,,,,,,,,,,,,,,,,,,,,,,,,,,,,,,,,,,,,,,,,,,,,,,,,,,,,,,,,,,,,,,,,,,,,,,
,,5e9257d7a7264858bf6701e7,2023-12-14_23h04.26.329,kallum_motion_pilot,2023.2.3,MacIntel,59.88023952,5e9257d7a7264858bf6701e7,657bb317c8798c6608bceb3f,657bb40ecf7c2f51c5bb0bf5,0.0267,0.0268,1,103,265,97,1,fiveseven,,,,,,,,,,,,,,,,,,,,,,,,,,,,,,,,,,,,,,,,,,,,,,,,,,,,,,,,,,,,,,,,,,,,,,,,,,,,,,,,,,,,,,,,,,,,,,,,,,,,,,,,,,,,,,,,,,,,,,,,,,,,,,,,,,,,,,,
,,5e9257d7a7264858bf6701e7,2023-12-14_23h04.26.329,kallum_motion_pilot,2023.2.3,MacIntel,59.88023952,5e9257d7a7264858bf6701e7,657bb317c8798c6608bceb3f,657bb40ecf7c2f51c5bb0bf5,0.0268,0.0269,1,104,266,153,1,fiveseven,,,,,,,,,,,,,,,,,,,,,,,,,,,,,,,,,,,,,,,,,,,,,,,,,,,,,,,,,,,,,,,,,,,,,,,,,,,,,,,,,,,,,,,,,,,,,,,,,,,,,,,,,,,,,,,,,,,,,,,,,,,,,,,,,,,,,,,
,,5e9257d7a7264858bf6701e7,2023-12-14_23h04.26.329,kallum_motion_pilot,2023.2.3,MacIntel,59.88023952,5e9257d7a7264858bf6701e7,657bb317c8798c6608bceb3f,657bb40ecf7c2f51c5bb0bf5,0.0269,0.027,1,105,267,151,1,eightseven,,,,,,,,,,,,,,,,,,,,,,,,,,,,,,,,,,,,,,,,,,,,,,,,,,,,,,,,,,,,,,,,,,,,,,,,,,,,,,,,,,,,,,,,,,,,,,,,,,,,,,,,,,,,,,,,,,,,,,,,,,,,,,,,,,,,,,,
,,5e9257d7a7264858bf6701e7,2023-12-14_23h04.26.329,kallum_motion_pilot,2023.2.3,MacIntel,59.88023952,5e9257d7a7264858bf6701e7,657bb317c8798c6608bceb3f,657bb40ecf7c2f51c5bb0bf5,0.027,0.027,1,106,268,89,1,fiveseven,,,,,,,,,,,,,,,,,,,,,,,,,,,,,,,,,,,,,,,,,,,,,,,,,,,,,,,,,,,,,,,,,,,,,,,,,,,,,,,,,,,,,,,,,,,,,,,,,,,,,,,,,,,,,,,,,,,,,,,,,,,,,,,,,,,,,,,
,,5e9257d7a7264858bf6701e7,2023-12-14_23h04.26.329,kallum_motion_pilot,2023.2.3,MacIntel,59.88023952,5e9257d7a7264858bf6701e7,657bb317c8798c6608bceb3f,657bb40ecf7c2f51c5bb0bf5,0.0271,0.0271,1,107,269,120,1,fivesix,,,,,,,,,,,,,,,,,,,,,,,,,,,,,,,,,,,,,,,,,,,,,,,,,,,,,,,,,,,,,,,,,,,,,,,,,,,,,,,,,,,,,,,,,,,,,,,,,,,,,,,,,,,,,,,,,,,,,,,,,,,,,,,,,,,,,,,
,,5e9257d7a7264858bf6701e7,2023-12-14_23h04.26.329,kallum_motion_pilot,2023.2.3,MacIntel,59.88023952,5e9257d7a7264858bf6701e7,657bb317c8798c6608bceb3f,657bb40ecf7c2f51c5bb0bf5,0.0271,0.0272,1,108,270,91,1,sixeight,,,,,,,,,,,,,,,,,,,,,,,,,,,,,,,,,,,,,,,,,,,,,,,,,,,,,,,,,,,,,,,,,,,,,,,,,,,,,,,,,,,,,,,,,,,,,,,,,,,,,,,,,,,,,,,,,,,,,,,,,,,,,,,,,,,,,,,
,,5e9257d7a7264858bf6701e7,2023-12-14_23h04.26.329,kallum_motion_pilot,2023.2.3,MacIntel,59.88023952,5e9257d7a7264858bf6701e7,657bb317c8798c6608bceb3f,657bb40ecf7c2f51c5bb0bf5,0.0272,0.0272,1,109,271,87,1,eightseven,,,,,,,,,,,,,,,,,,,,,,,,,,,,,,,,,,,,,,,,,,,,,,,,,,,,,,,,,,,,,,,,,,,,,,,,,,,,,,,,,,,,,,,,,,,,,,,,,,,,,,,,,,,,,,,,,,,,,,,,,,,,,,,,,,,,,,,
,,5e9257d7a7264858bf6701e7,2023-12-14_23h04.26.329,kallum_motion_pilot,2023.2.3,MacIntel,59.88023952,5e9257d7a7264858bf6701e7,657bb317c8798c6608bceb3f,657bb40ecf7c2f51c5bb0bf5,0.0272,0.0273,1,110,272,134,1,eightsix,,,,,,,,,,,,,,,,,,,,,,,,,,,,,,,,,,,,,,,,,,,,,,,,,,,,,,,,,,,,,,,,,,,,,,,,,,,,,,,,,,,,,,,,,,,,,,,,,,,,,,,,,,,,,,,,,,,,,,,,,,,,,,,,,,,,,,,
,,5e9257d7a7264858bf6701e7,2023-12-14_23h04.26.329,kallum_motion_pilot,2023.2.3,MacIntel,59.88023952,5e9257d7a7264858bf6701e7,657bb317c8798c6608bceb3f,657bb40ecf7c2f51c5bb0bf5,0.0274,0.0274,1,111,273,158,1,eightsix,,,,,,,,,,,,,,,,,,,,,,,,,,,,,,,,,,,,,,,,,,,,,,,,,,,,,,,,,,,,,,,,,,,,,,,,,,,,,,,,,,,,,,,,,,,,,,,,,,,,,,,,,,,,,,,,,,,,,,,,,,,,,,,,,,,,,,,
,,5e9257d7a7264858bf6701e7,2023-12-14_23h04.26.329,kallum_motion_pilot,2023.2.3,MacIntel,59.88023952,5e9257d7a7264858bf6701e7,657bb317c8798c6608bceb3f,657bb40ecf7c2f51c5bb0bf5,0.0274,0.0275,1,112,274,114,1,sixfive,,,,,,,,,,,,,,,,,,,,,,,,,,,,,,,,,,,,,,,,,,,,,,,,,,,,,,,,,,,,,,,,,,,,,,,,,,,,,,,,,,,,,,,,,,,,,,,,,,,,,,,,,,,,,,,,,,,,,,,,,,,,,,,,,,,,,,,
,,5e9257d7a7264858bf6701e7,2023-12-14_23h04.26.329,kallum_motion_pilot,2023.2.3,MacIntel,59.88023952,5e9257d7a7264858bf6701e7,657bb317c8798c6608bceb3f,657bb40ecf7c2f51c5bb0bf5,0.0275,0.0275,1,113,275,80,1,fivesix,,,,,,,,,,,,,,,,,,,,,,,,,,,,,,,,,,,,,,,,,,,,,,,,,,,,,,,,,,,,,,,,,,,,,,,,,,,,,,,,,,,,,,,,,,,,,,,,,,,,,,,,,,,,,,,,,,,,,,,,,,,,,,,,,,,,,,,
,,5e9257d7a7264858bf6701e7,2023-12-14_23h04.26.329,kallum_motion_pilot,2023.2.3,MacIntel,59.88023952,5e9257d7a7264858bf6701e7,657bb317c8798c6608bceb3f,657bb40ecf7c2f51c5bb0bf5,0.0275,0.0276,1,114,276,86,1,eightsix,,,,,,,,,,,,,,,,,,,,,,,,,,,,,,,,,,,,,,,,,,,,,,,,,,,,,,,,,,,,,,,,,,,,,,,,,,,,,,,,,,,,,,,,,,,,,,,,,,,,,,,,,,,,,,,,,,,,,,,,,,,,,,,,,,,,,,,
