startup.started,startup.stopped,Prolific ID*,date,expName,psychopyVersion,OS,frameRate,participant,study_id,session,stimpositions.started,stimpositions.stopped,hardcoded_stimulus_positions.thisRepN,hardcoded_stimulus_positions.thisTrialN,hardcoded_stimulus_positions.thisN,hardcoded_stimulus_positions.thisIndex,hardcoded_stimulus_positions.ran,StimulusPos,stimorientation.started,stimorientation.stopped,prac_stimorientation_import_loop.thisRepN,prac_stimorientation_import_loop.thisTrialN,prac_stimorientation_import_loop.thisN,prac_stimorientation_import_loop.thisIndex,prac_stimorientation_import_loop.ran,Stimorientation,welcome_instr.started,welcome_instr.stopped,key_resp.keys,key_resp.rt,key_resp.duration,response_steppedout_1.started,response_steppedout_1.stopped,key_resp_20.keys,key_resp_20.rt,key_resp_20.duration,response_steppedout_2.started,response_steppedout_2.stopped,key_resp_19.keys,key_resp_19.rt,key_resp_19.duration,stim_response_instr.started,stim_response_instr.stopped,key_resp_15.keys,key_resp_15.rt,key_resp_15.duration,direction_instr_2.started,direction_instr_2.stopped,key_resp_9.keys,key_resp_9.rt,key_resp_9.duration,instr_prac.started,instr_prac.stopped,key_resp_10.keys,key_resp_10.rt,key_resp_10.duration,Stim1_display_prac.started,Stim1_display_prac.stopped,Ecc,Circle1_ori,Circle2_ori,response_prac.started,similarity,response_time,response_prac.stopped,mouse_5.x,mouse_5.y,mouse_5.leftButton,mouse_5.midButton,mouse_5.rightButton,mouse_5.clicked_name,responseprac_feedback.started,responseprac_feedback.stopped,summary2_prac.started,summary2_prac.stopped,mouse_6.x,mouse_6.y,mouse_6.leftButton,mouse_6.midButton,mouse_6.rightButton,mouse_6.clicked_name,duringprac.thisRepN,duringprac.thisTrialN,duringprac.thisN,duringprac.thisIndex,duringprac.ran,begin.started,begin.stopped,key_resp_22.keys,key_resp_22.rt,key_resp_22.duration,Stim1_display.started,Stim1_display.stopped,circle1_ori,circle2_ori,blank.started,blank.stopped,response.started,response.stopped,mouse.x,mouse.y,mouse.leftButton,mouse.midButton,mouse.rightButton,mouse.clicked_name,response_2.started,response_2.stopped,mouse_2.x,mouse_2.y,mouse_2.leftButton,mouse_2.midButton,mouse_2.rightButton,mouse_2.clicked_name,special_trial.started,special_trial.stopped,catch_1.started,catch_1.stopped,mouse_3.x,mouse_3.y,mouse_3.leftButton,mouse_3.midButton,mouse_3.rightButton,catchresponse,catchnumber,response_time_catch,Catch,response_sum.started,response_sum.stopped,mouse_11.x,mouse_11.y,mouse_11.leftButton,mouse_11.midButton,mouse_11.rightButton,main_trial.thisRepN,main_trial.thisTrialN,main_trial.thisN,main_trial.thisIndex,main_trial.ran,Orientationtrialno,xcircle1_ori,xcircle2_ori,flip_presentation_sequence_for_double_pass.started,flip_presentation_sequence_for_double_pass.stopped,double_pass.thisRepN,double_pass.thisTrialN,double_pass.thisN,double_pass.thisIndex,double_pass.ran,goodbye.started,goodbye.stopped,key_resp_3.keys,key_resp_3.rt,key_resp_3.duration
0.002,0.002,5eac4b0a1f8db726fc6060c8,2023-12-15_02h26.48.682,kallum_motion_pilot,2023.2.3,Win32,74.96251874,5eac4b0a1f8db726fc6060c8,657bb317c8798c6608bceb3f,657bb95b25000e4ba9e37fb6,,,,,,,,,,,,,,,,,,,,,,,,,,,,,,,,,,,,,,,,,,,,,,,,,,,,,,,,,,,,,,,,,,,,,,,,,,,,,,,,,,,,,,,,,,,,,,,,,,,,,,,,,,,,,,,,,,,,,,,,,,,,,,,,,,,,,,,,,,,,,,,
,,5eac4b0a1f8db726fc6060c8,2023-12-15_02h26.48.682,kallum_motion_pilot,2023.2.3,Win32,74.96251874,5eac4b0a1f8db726fc6060c8,657bb317c8798c6608bceb3f,657bb95b25000e4ba9e37fb6,0.012,0.012,0,0,0,85,1,seveneight,,,,,,,,,,,,,,,,,,,,,,,,,,,,,,,,,,,,,,,,,,,,,,,,,,,,,,,,,,,,,,,,,,,,,,,,,,,,,,,,,,,,,,,,,,,,,,,,,,,,,,,,,,,,,,,,,,,,,,,,,,,,,,,,,,,,,,,
,,5eac4b0a1f8db726fc6060c8,2023-12-15_02h26.48.682,kallum_motion_pilot,2023.2.3,Win32,74.96251874,5eac4b0a1f8db726fc6060c8,657bb317c8798c6608bceb3f,657bb95b25000e4ba9e37fb6,0.012,0.012,0,1,1,18,1,twoone,,,,,,,,,,,,,,,,,,,,,,,,,,,,,,,,,,,,,,,,,,,,,,,,,,,,,,,,,,,,,,,,,,,,,,,,,,,,,,,,,,,,,,,,,,,,,,,,,,,,,,,,,,,,,,,,,,,,,,,,,,,,,,,,,,,,,,,
,,5eac4b0a1f8db726fc6060c8,2023-12-15_02h26.48.682,kallum_motion_pilot,2023.2.3,Win32,74.96251874,5eac4b0a1f8db726fc6060c8,657bb317c8798c6608bceb3f,657bb95b25000e4ba9e37fb6,0.012,0.012,0,2,2,99,1,sixeight,,,,,,,,,,,,,,,,,,,,,,,,,,,,,,,,,,,,,,,,,,,,,,,,,,,,,,,,,,,,,,,,,,,,,,,,,,,,,,,,,,,,,,,,,,,,,,,,,,,,,,,,,,,,,,,,,,,,,,,,,,,,,,,,,,,,,,,
,,5eac4b0a1f8db726fc6060c8,2023-12-15_02h26.48.682,kallum_motion_pilot,2023.2.3,Win32,74.96251874,5eac4b0a1f8db726fc6060c8,657bb317c8798c6608bceb3f,657bb95b25000e4ba9e37fb6,0.012,0.012,0,3,3,80,1,fivesix,,,,,,,,,,,,,,,,,,,,,,,,,,,,,,,,,,,,,,,,,,,,,,,,,,,,,,,,,,,,,,,,,,,,,,,,,,,,,,,,,,,,,,,,,,,,,,,,,,,,,,,,,,,,,,,,,,,,,,,,,,,,,,,,,,,,,,,
,,5eac4b0a1f8db726fc6060c8,2023-12-15_02h26.48.682,kallum_motion_pilot,2023.2.3,Win32,74.96251874,5eac4b0a1f8db726fc6060c8,657bb317c8798c6608bceb3f,657bb95b25000e4ba9e37fb6,0.012,0.012,0,4,4,83,1,sixeight,,,,,,,,,,,,,,,,,,,,,,,,,,,,,,,,,,,,,,,,,,,,,,,,,,,,,,,,,,,,,,,,,,,,,,,,,,,,,,,,,,,,,,,,,,,,,,,,,,,,,,,,,,,,,,,,,,,,,,,,,,,,,,,,,,,,,,,
,,5eac4b0a1f8db726fc6060c8,2023-12-15_02h26.48.682,kallum_motion_pilot,2023.2.3,Win32,74.96251874,5eac4b0a1f8db726fc6060c8,657bb317c8798c6608bceb3f,657bb95b25000e4ba9e37fb6,0.012,0.012,0,5,5,2,1,twoone,,,,,,,,,,,,,,,,,,,,,,,,,,,,,,,,,,,,,,,,,,,,,,,,,,,,,,,,,,,,,,,,,,,,,,,,,,,,,,,,,,,,,,,,,,,,,,,,,,,,,,,,,,,,,,,,,,,,,,,,,,,,,,,,,,,,,,,
,,5eac4b0a1f8db726fc6060c8,2023-12-15_02h26.48.682,kallum_motion_pilot,2023.2.3,Win32,74.96251874,5eac4b0a1f8db726fc6060c8,657bb317c8798c6608bceb3f,657bb95b25000e4ba9e37fb6,0.012,0.012,0,6,6,159,1,eightseven,,,,,,,,,,,,,,,,,,,,,,,,,,,,,,,,,,,,,,,,,,,,,,,,,,,,,,,,,,,,,,,,,,,,,,,,,,,,,,,,,,,,,,,,,,,,,,,,,,,,,,,,,,,,,,,,,,,,,,,,,,,,,,,,,,,,,,,
,,5eac4b0a1f8db726fc6060c8,2023-12-15_02h26.48.682,kallum_motion_pilot,2023.2.3,Win32,74.96251874,5eac4b0a1f8db726fc6060c8,657bb317c8798c6608bceb3f,657bb95b25000e4ba9e37fb6,0.012,0.012,0,7,7,154,1,sixfive,,,,,,,,,,,,,,,,,,,,,,,,,,,,,,,,,,,,,,,,,,,,,,,,,,,,,,,,,,,,,,,,,,,,,,,,,,,,,,,,,,,,,,,,,,,,,,,,,,,,,,,,,,,,,,,,,,,,,,,,,,,,,,,,,,,,,,,
,,5eac4b0a1f8db726fc6060c8,2023-12-15_02h26.48.682,kallum_motion_pilot,2023.2.3,Win32,74.96251874,5eac4b0a1f8db726fc6060c8,657bb317c8798c6608bceb3f,657bb95b25000e4ba9e37fb6,0.012,0.012,0,8,8,49,1,onethree,,,,,,,,,,,,,,,,,,,,,,,,,,,,,,,,,,,,,,,,,,,,,,,,,,,,,,,,,,,,,,,,,,,,,,,,,,,,,,,,,,,,,,,,,,,,,,,,,,,,,,,,,,,,,,,,,,,,,,,,,,,,,,,,,,,,,,,
,,5eac4b0a1f8db726fc6060c8,2023-12-15_02h26.48.682,kallum_motion_pilot,2023.2.3,Win32,74.96251874,5eac4b0a1f8db726fc6060c8,657bb317c8798c6608bceb3f,657bb95b25000e4ba9e37fb6,0.012,0.012,0,9,9,113,1,fiveseven,,,,,,,,,,,,,,,,,,,,,,,,,,,,,,,,,,,,,,,,,,,,,,,,,,,,,,,,,,,,,,,,,,,,,,,,,,,,,,,,,,,,,,,,,,,,,,,,,,,,,,,,,,,,,,,,,,,,,,,,,,,,,,,,,,,,,,,
,,5eac4b0a1f8db726fc6060c8,2023-12-15_02h26.48.682,kallum_motion_pilot,2023.2.3,Win32,74.96251874,5eac4b0a1f8db726fc6060c8,657bb317c8798c6608bceb3f,657bb95b25000e4ba9e37fb6,0.013,0.013,0,10,10,86,1,eightsix,,,,,,,,,,,,,,,,,,,,,,,,,,,,,,,,,,,,,,,,,,,,,,,,,,,,,,,,,,,,,,,,,,,,,,,,,,,,,,,,,,,,,,,,,,,,,,,,,,,,,,,,,,,,,,,,,,,,,,,,,,,,,,,,,,,,,,,
,,5eac4b0a1f8db726fc6060c8,2023-12-15_02h26.48.682,kallum_motion_pilot,2023.2.3,Win32,74.96251874,5eac4b0a1f8db726fc6060c8,657bb317c8798c6608bceb3f,657bb95b25000e4ba9e37fb6,0.013,0.013,0,11,11,108,1,sevenfive,,,,,,,,,,,,,,,,,,,,,,,,,,,,,,,,,,,,,,,,,,,,,,,,,,,,,,,,,,,,,,,,,,,,,,,,,,,,,,,,,,,,,,,,,,,,,,,,,,,,,,,,,,,,,,,,,,,,,,,,,,,,,,,,,,,,,,,
,,5eac4b0a1f8db726fc6060c8,2023-12-15_02h26.48.682,kallum_motion_pilot,2023.2.3,Win32,74.96251874,5eac4b0a1f8db726fc6060c8,657bb317c8798c6608bceb3f,657bb95b25000e4ba9e37fb6,0.013,0.013,0,12,12,139,1,sixeight,,,,,,,,,,,,,,,,,,,,,,,,,,,,,,,,,,,,,,,,,,,,,,,,,,,,,,,,,,,,,,,,,,,,,,,,,,,,,,,,,,,,,,,,,,,,,,,,,,,,,,,,,,,,,,,,,,,,,,,,,,,,,,,,,,,,,,,
,,5eac4b0a1f8db726fc6060c8,2023-12-15_02h26.48.682,kallum_motion_pilot,2023.2.3,Win32,74.96251874,5eac4b0a1f8db726fc6060c8,657bb317c8798c6608bceb3f,657bb95b25000e4ba9e37fb6,0.013,0.013,0,13,13,146,1,sixfive,,,,,,,,,,,,,,,,,,,,,,,,,,,,,,,,,,,,,,,,,,,,,,,,,,,,,,,,,,,,,,,,,,,,,,,,,,,,,,,,,,,,,,,,,,,,,,,,,,,,,,,,,,,,,,,,,,,,,,,,,,,,,,,,,,,,,,,
,,5eac4b0a1f8db726fc6060c8,2023-12-15_02h26.48.682,kallum_motion_pilot,2023.2.3,Win32,74.96251874,5eac4b0a1f8db726fc6060c8,657bb317c8798c6608bceb3f,657bb95b25000e4ba9e37fb6,0.013,0.013,0,14,14,89,1,fiveseven,,,,,,,,,,,,,,,,,,,,,,,,,,,,,,,,,,,,,,,,,,,,,,,,,,,,,,,,,,,,,,,,,,,,,,,,,,,,,,,,,,,,,,,,,,,,,,,,,,,,,,,,,,,,,,,,,,,,,,,,,,,,,,,,,,,,,,,
,,5eac4b0a1f8db726fc6060c8,2023-12-15_02h26.48.682,kallum_motion_pilot,2023.2.3,Win32,74.96251874,5eac4b0a1f8db726fc6060c8,657bb317c8798c6608bceb3f,657bb95b25000e4ba9e37fb6,0.013,0.013,0,15,15,76,1,threeone,,,,,,,,,,,,,,,,,,,,,,,,,,,,,,,,,,,,,,,,,,,,,,,,,,,,,,,,,,,,,,,,,,,,,,,,,,,,,,,,,,,,,,,,,,,,,,,,,,,,,,,,,,,,,,,,,,,,,,,,,,,,,,,,,,,,,,,
,,5eac4b0a1f8db726fc6060c8,2023-12-15_02h26.48.682,kallum_motion_pilot,2023.2.3,Win32,74.96251874,5eac4b0a1f8db726fc6060c8,657bb317c8798c6608bceb3f,657bb95b25000e4ba9e37fb6,0.013,0.013,0,16,16,151,1,eightseven,,,,,,,,,,,,,,,,,,,,,,,,,,,,,,,,,,,,,,,,,,,,,,,,,,,,,,,,,,,,,,,,,,,,,,,,,,,,,,,,,,,,,,,,,,,,,,,,,,,,,,,,,,,,,,,,,,,,,,,,,,,,,,,,,,,,,,,
,,5eac4b0a1f8db726fc6060c8,2023-12-15_02h26.48.682,kallum_motion_pilot,2023.2.3,Win32,74.96251874,5eac4b0a1f8db726fc6060c8,657bb317c8798c6608bceb3f,657bb95b25000e4ba9e37fb6,0.013,0.013,0,17,17,92,1,sevenfive,,,,,,,,,,,,,,,,,,,,,,,,,,,,,,,,,,,,,,,,,,,,,,,,,,,,,,,,,,,,,,,,,,,,,,,,,,,,,,,,,,,,,,,,,,,,,,,,,,,,,,,,,,,,,,,,,,,,,,,,,,,,,,,,,,,,,,,
,,5eac4b0a1f8db726fc6060c8,2023-12-15_02h26.48.682,kallum_motion_pilot,2023.2.3,Win32,74.96251874,5eac4b0a1f8db726fc6060c8,657bb317c8798c6608bceb3f,657bb95b25000e4ba9e37fb6,0.013,0.013,0,18,18,15,1,fourthree,,,,,,,,,,,,,,,,,,,,,,,,,,,,,,,,,,,,,,,,,,,,,,,,,,,,,,,,,,,,,,,,,,,,,,,,,,,,,,,,,,,,,,,,,,,,,,,,,,,,,,,,,,,,,,,,,,,,,,,,,,,,,,,,,,,,,,,
,,5eac4b0a1f8db726fc6060c8,2023-12-15_02h26.48.682,kallum_motion_pilot,2023.2.3,Win32,74.96251874,5eac4b0a1f8db726fc6060c8,657bb317c8798c6608bceb3f,657bb95b25000e4ba9e37fb6,0.013,0.013,0,19,19,31,1,fourthree,,,,,,,,,,,,,,,,,,,,,,,,,,,,,,,,,,,,,,,,,,,,,,,,,,,,,,,,,,,,,,,,,,,,,,,,,,,,,,,,,,,,,,,,,,,,,,,,,,,,,,,,,,,,,,,,,,,,,,,,,,,,,,,,,,,,,,,
,,5eac4b0a1f8db726fc6060c8,2023-12-15_02h26.48.682,kallum_motion_pilot,2023.2.3,Win32,74.96251874,5eac4b0a1f8db726fc6060c8,657bb317c8798c6608bceb3f,657bb95b25000e4ba9e37fb6,0.013,0.013,0,20,20,141,1,seveneight,,,,,,,,,,,,,,,,,,,,,,,,,,,,,,,,,,,,,,,,,,,,,,,,,,,,,,,,,,,,,,,,,,,,,,,,,,,,,,,,,,,,,,,,,,,,,,,,,,,,,,,,,,,,,,,,,,,,,,,,,,,,,,,,,,,,,,,
,,5eac4b0a1f8db726fc6060c8,2023-12-15_02h26.48.682,kallum_motion_pilot,2023.2.3,Win32,74.96251874,5eac4b0a1f8db726fc6060c8,657bb317c8798c6608bceb3f,657bb95b25000e4ba9e37fb6,0.013,0.013,0,21,21,120,1,fivesix,,,,,,,,,,,,,,,,,,,,,,,,,,,,,,,,,,,,,,,,,,,,,,,,,,,,,,,,,,,,,,,,,,,,,,,,,,,,,,,,,,,,,,,,,,,,,,,,,,,,,,,,,,,,,,,,,,,,,,,,,,,,,,,,,,,,,,,
,,5eac4b0a1f8db726fc6060c8,2023-12-15_02h26.48.682,kallum_motion_pilot,2023.2.3,Win32,74.96251874,5eac4b0a1f8db726fc6060c8,657bb317c8798c6608bceb3f,657bb95b25000e4ba9e37fb6,0.013,0.013,0,22,22,131,1,sixeight,,,,,,,,,,,,,,,,,,,,,,,,,,,,,,,,,,,,,,,,,,,,,,,,,,,,,,,,,,,,,,,,,,,,,,,,,,,,,,,,,,,,,,,,,,,,,,,,,,,,,,,,,,,,,,,,,,,,,,,,,,,,,,,,,,,,,,,
,,5eac4b0a1f8db726fc6060c8,2023-12-15_02h26.48.682,kallum_motion_pilot,2023.2.3,Win32,74.96251874,5eac4b0a1f8db726fc6060c8,657bb317c8798c6608bceb3f,657bb95b25000e4ba9e37fb6,0.013,0.013,0,23,23,103,1,eightseven,,,,,,,,,,,,,,,,,,,,,,,,,,,,,,,,,,,,,,,,,,,,,,,,,,,,,,,,,,,,,,,,,,,,,,,,,,,,,,,,,,,,,,,,,,,,,,,,,,,,,,,,,,,,,,,,,,,,,,,,,,,,,,,,,,,,,,,
,,5eac4b0a1f8db726fc6060c8,2023-12-15_02h26.48.682,kallum_motion_pilot,2023.2.3,Win32,74.96251874,5eac4b0a1f8db726fc6060c8,657bb317c8798c6608bceb3f,657bb95b25000e4ba9e37fb6,0.013,0.013,0,24,24,79,1,eightseven,,,,,,,,,,,,,,,,,,,,,,,,,,,,,,,,,,,,,,,,,,,,,,,,,,,,,,,,,,,,,,,,,,,,,,,,,,,,,,,,,,,,,,,,,,,,,,,,,,,,,,,,,,,,,,,,,,,,,,,,,,,,,,,,,,,,,,,
,,5eac4b0a1f8db726fc6060c8,2023-12-15_02h26.48.682,kallum_motion_pilot,2023.2.3,Win32,74.96251874,5eac4b0a1f8db726fc6060c8,657bb317c8798c6608bceb3f,657bb95b25000e4ba9e37fb6,0.013,0.013,0,25,25,11,1,twofour,,,,,,,,,,,,,,,,,,,,,,,,,,,,,,,,,,,,,,,,,,,,,,,,,,,,,,,,,,,,,,,,,,,,,,,,,,,,,,,,,,,,,,,,,,,,,,,,,,,,,,,,,,,,,,,,,,,,,,,,,,,,,,,,,,,,,,,
,,5eac4b0a1f8db726fc6060c8,2023-12-15_02h26.48.682,kallum_motion_pilot,2023.2.3,Win32,74.96251874,5eac4b0a1f8db726fc6060c8,657bb317c8798c6608bceb3f,657bb95b25000e4ba9e37fb6,0.013,0.013,0,26,26,46,1,fourtwo,,,,,,,,,,,,,,,,,,,,,,,,,,,,,,,,,,,,,,,,,,,,,,,,,,,,,,,,,,,,,,,,,,,,,,,,,,,,,,,,,,,,,,,,,,,,,,,,,,,,,,,,,,,,,,,,,,,,,,,,,,,,,,,,,,,,,,,
,,5eac4b0a1f8db726fc6060c8,2023-12-15_02h26.48.682,kallum_motion_pilot,2023.2.3,Win32,74.96251874,5eac4b0a1f8db726fc6060c8,657bb317c8798c6608bceb3f,657bb95b25000e4ba9e37fb6,0.013,0.013,0,27,27,118,1,eightsix,,,,,,,,,,,,,,,,,,,,,,,,,,,,,,,,,,,,,,,,,,,,,,,,,,,,,,,,,,,,,,,,,,,,,,,,,,,,,,,,,,,,,,,,,,,,,,,,,,,,,,,,,,,,,,,,,,,,,,,,,,,,,,,,,,,,,,,
,,5eac4b0a1f8db726fc6060c8,2023-12-15_02h26.48.682,kallum_motion_pilot,2023.2.3,Win32,74.96251874,5eac4b0a1f8db726fc6060c8,657bb317c8798c6608bceb3f,657bb95b25000e4ba9e37fb6,0.014,0.014,0,28,28,125,1,seveneight,,,,,,,,,,,,,,,,,,,,,,,,,,,,,,,,,,,,,,,,,,,,,,,,,,,,,,,,,,,,,,,,,,,,,,,,,,,,,,,,,,,,,,,,,,,,,,,,,,,,,,,,,,,,,,,,,,,,,,,,,,,,,,,,,,,,,,,
,,5eac4b0a1f8db726fc6060c8,2023-12-15_02h26.48.682,kallum_motion_pilot,2023.2.3,Win32,74.96251874,5eac4b0a1f8db726fc6060c8,657bb317c8798c6608bceb3f,657bb95b25000e4ba9e37fb6,0.014,0.014,0,29,29,53,1,threefour,,,,,,,,,,,,,,,,,,,,,,,,,,,,,,,,,,,,,,,,,,,,,,,,,,,,,,,,,,,,,,,,,,,,,,,,,,,,,,,,,,,,,,,,,,,,,,,,,,,,,,,,,,,,,,,,,,,,,,,,,,,,,,,,,,,,,,,
,,5eac4b0a1f8db726fc6060c8,2023-12-15_02h26.48.682,kallum_motion_pilot,2023.2.3,Win32,74.96251874,5eac4b0a1f8db726fc6060c8,657bb317c8798c6608bceb3f,657bb95b25000e4ba9e37fb6,0.014,0.014,0,30,30,6,1,fourtwo,,,,,,,,,,,,,,,,,,,,,,,,,,,,,,,,,,,,,,,,,,,,,,,,,,,,,,,,,,,,,,,,,,,,,,,,,,,,,,,,,,,,,,,,,,,,,,,,,,,,,,,,,,,,,,,,,,,,,,,,,,,,,,,,,,,,,,,
,,5eac4b0a1f8db726fc6060c8,2023-12-15_02h26.48.682,kallum_motion_pilot,2023.2.3,Win32,74.96251874,5eac4b0a1f8db726fc6060c8,657bb317c8798c6608bceb3f,657bb95b25000e4ba9e37fb6,0.014,0.014,0,31,31,25,1,onethree,,,,,,,,,,,,,,,,,,,,,,,,,,,,,,,,,,,,,,,,,,,,,,,,,,,,,,,,,,,,,,,,,,,,,,,,,,,,,,,,,,,,,,,,,,,,,,,,,,,,,,,,,,,,,,,,,,,,,,,,,,,,,,,,,,,,,,,
,,5eac4b0a1f8db726fc6060c8,2023-12-15_02h26.48.682,kallum_motion_pilot,2023.2.3,Win32,74.96251874,5eac4b0a1f8db726fc6060c8,657bb317c8798c6608bceb3f,657bb95b25000e4ba9e37fb6,0.014,0.014,0,32,32,137,1,fiveseven,,,,,,,,,,,,,,,,,,,,,,,,,,,,,,,,,,,,,,,,,,,,,,,,,,,,,,,,,,,,,,,,,,,,,,,,,,,,,,,,,,,,,,,,,,,,,,,,,,,,,,,,,,,,,,,,,,,,,,,,,,,,,,,,,,,,,,,
,,5eac4b0a1f8db726fc6060c8,2023-12-15_02h26.48.682,kallum_motion_pilot,2023.2.3,Win32,74.96251874,5eac4b0a1f8db726fc6060c8,657bb317c8798c6608bceb3f,657bb95b25000e4ba9e37fb6,0.014,0.014,0,33,33,14,1,fourtwo,,,,,,,,,,,,,,,,,,,,,,,,,,,,,,,,,,,,,,,,,,,,,,,,,,,,,,,,,,,,,,,,,,,,,,,,,,,,,,,,,,,,,,,,,,,,,,,,,,,,,,,,,,,,,,,,,,,,,,,,,,,,,,,,,,,,,,,
,,5eac4b0a1f8db726fc6060c8,2023-12-15_02h26.48.682,kallum_motion_pilot,2023.2.3,Win32,74.96251874,5eac4b0a1f8db726fc6060c8,657bb317c8798c6608bceb3f,657bb95b25000e4ba9e37fb6,0.014,0.014,0,34,34,8,1,onetwo,,,,,,,,,,,,,,,,,,,,,,,,,,,,,,,,,,,,,,,,,,,,,,,,,,,,,,,,,,,,,,,,,,,,,,,,,,,,,,,,,,,,,,,,,,,,,,,,,,,,,,,,,,,,,,,,,,,,,,,,,,,,,,,,,,,,,,,
,,5eac4b0a1f8db726fc6060c8,2023-12-15_02h26.48.682,kallum_motion_pilot,2023.2.3,Win32,74.96251874,5eac4b0a1f8db726fc6060c8,657bb317c8798c6608bceb3f,657bb95b25000e4ba9e37fb6,0.014,0.014,0,35,35,153,1,fiveseven,,,,,,,,,,,,,,,,,,,,,,,,,,,,,,,,,,,,,,,,,,,,,,,,,,,,,,,,,,,,,,,,,,,,,,,,,,,,,,,,,,,,,,,,,,,,,,,,,,,,,,,,,,,,,,,,,,,,,,,,,,,,,,,,,,,,,,,
,,5eac4b0a1f8db726fc6060c8,2023-12-15_02h26.48.682,kallum_motion_pilot,2023.2.3,Win32,74.96251874,5eac4b0a1f8db726fc6060c8,657bb317c8798c6608bceb3f,657bb95b25000e4ba9e37fb6,0.014,0.014,0,36,36,136,1,fivesix,,,,,,,,,,,,,,,,,,,,,,,,,,,,,,,,,,,,,,,,,,,,,,,,,,,,,,,,,,,,,,,,,,,,,,,,,,,,,,,,,,,,,,,,,,,,,,,,,,,,,,,,,,,,,,,,,,,,,,,,,,,,,,,,,,,,,,,
,,5eac4b0a1f8db726fc6060c8,2023-12-15_02h26.48.682,kallum_motion_pilot,2023.2.3,Win32,74.96251874,5eac4b0a1f8db726fc6060c8,657bb317c8798c6608bceb3f,657bb95b25000e4ba9e37fb6,0.014,0.014,0,37,37,117,1,seveneight,,,,,,,,,,,,,,,,,,,,,,,,,,,,,,,,,,,,,,,,,,,,,,,,,,,,,,,,,,,,,,,,,,,,,,,,,,,,,,,,,,,,,,,,,,,,,,,,,,,,,,,,,,,,,,,,,,,,,,,,,,,,,,,,,,,,,,,
,,5eac4b0a1f8db726fc6060c8,2023-12-15_02h26.48.682,kallum_motion_pilot,2023.2.3,Win32,74.96251874,5eac4b0a1f8db726fc6060c8,657bb317c8798c6608bceb3f,657bb95b25000e4ba9e37fb6,0.014,0.014,0,38,38,140,1,sevenfive,,,,,,,,,,,,,,,,,,,,,,,,,,,,,,,,,,,,,,,,,,,,,,,,,,,,,,,,,,,,,,,,,,,,,,,,,,,,,,,,,,,,,,,,,,,,,,,,,,,,,,,,,,,,,,,,,,,,,,,,,,,,,,,,,,,,,,,
,,5eac4b0a1f8db726fc6060c8,2023-12-15_02h26.48.682,kallum_motion_pilot,2023.2.3,Win32,74.96251874,5eac4b0a1f8db726fc6060c8,657bb317c8798c6608bceb3f,657bb95b25000e4ba9e37fb6,0.014,0.014,0,39,39,95,1,eightseven,,,,,,,,,,,,,,,,,,,,,,,,,,,,,,,,,,,,,,,,,,,,,,,,,,,,,,,,,,,,,,,,,,,,,,,,,,,,,,,,,,,,,,,,,,,,,,,,,,,,,,,,,,,,,,,,,,,,,,,,,,,,,,,,,,,,,,,
,,5eac4b0a1f8db726fc6060c8,2023-12-15_02h26.48.682,kallum_motion_pilot,2023.2.3,Win32,74.96251874,5eac4b0a1f8db726fc6060c8,657bb317c8798c6608bceb3f,657bb95b25000e4ba9e37fb6,0.014,0.014,0,40,40,111,1,eightseven,,,,,,,,,,,,,,,,,,,,,,,,,,,,,,,,,,,,,,,,,,,,,,,,,,,,,,,,,,,,,,,,,,,,,,,,,,,,,,,,,,,,,,,,,,,,,,,,,,,,,,,,,,,,,,,,,,,,,,,,,,,,,,,,,,,,,,,
,,5eac4b0a1f8db726fc6060c8,2023-12-15_02h26.48.682,kallum_motion_pilot,2023.2.3,Win32,74.96251874,5eac4b0a1f8db726fc6060c8,657bb317c8798c6608bceb3f,657bb95b25000e4ba9e37fb6,0.014,0.014,0,41,41,60,1,threeone,,,,,,,,,,,,,,,,,,,,,,,,,,,,,,,,,,,,,,,,,,,,,,,,,,,,,,,,,,,,,,,,,,,,,,,,,,,,,,,,,,,,,,,,,,,,,,,,,,,,,,,,,,,,,,,,,,,,,,,,,,,,,,,,,,,,,,,
,,5eac4b0a1f8db726fc6060c8,2023-12-15_02h26.48.682,kallum_motion_pilot,2023.2.3,Win32,74.96251874,5eac4b0a1f8db726fc6060c8,657bb317c8798c6608bceb3f,657bb95b25000e4ba9e37fb6,0.014,0.014,0,42,42,17,1,onethree,,,,,,,,,,,,,,,,,,,,,,,,,,,,,,,,,,,,,,,,,,,,,,,,,,,,,,,,,,,,,,,,,,,,,,,,,,,,,,,,,,,,,,,,,,,,,,,,,,,,,,,,,,,,,,,,,,,,,,,,,,,,,,,,,,,,,,,
,,5eac4b0a1f8db726fc6060c8,2023-12-15_02h26.48.682,kallum_motion_pilot,2023.2.3,Win32,74.96251874,5eac4b0a1f8db726fc6060c8,657bb317c8798c6608bceb3f,657bb95b25000e4ba9e37fb6,0.014,0.014,0,43,43,32,1,onetwo,,,,,,,,,,,,,,,,,,,,,,,,,,,,,,,,,,,,,,,,,,,,,,,,,,,,,,,,,,,,,,,,,,,,,,,,,,,,,,,,,,,,,,,,,,,,,,,,,,,,,,,,,,,,,,,,,,,,,,,,,,,,,,,,,,,,,,,
,,5eac4b0a1f8db726fc6060c8,2023-12-15_02h26.48.682,kallum_motion_pilot,2023.2.3,Win32,74.96251874,5eac4b0a1f8db726fc6060c8,657bb317c8798c6608bceb3f,657bb95b25000e4ba9e37fb6,0.015,0.015,0,44,44,106,1,sixfive,,,,,,,,,,,,,,,,,,,,,,,,,,,,,,,,,,,,,,,,,,,,,,,,,,,,,,,,,,,,,,,,,,,,,,,,,,,,,,,,,,,,,,,,,,,,,,,,,,,,,,,,,,,,,,,,,,,,,,,,,,,,,,,,,,,,,,,
,,5eac4b0a1f8db726fc6060c8,2023-12-15_02h26.48.682,kallum_motion_pilot,2023.2.3,Win32,74.96251874,5eac4b0a1f8db726fc6060c8,657bb317c8798c6608bceb3f,657bb95b25000e4ba9e37fb6,0.015,0.015,0,45,45,45,1,threefour,,,,,,,,,,,,,,,,,,,,,,,,,,,,,,,,,,,,,,,,,,,,,,,,,,,,,,,,,,,,,,,,,,,,,,,,,,,,,,,,,,,,,,,,,,,,,,,,,,,,,,,,,,,,,,,,,,,,,,,,,,,,,,,,,,,,,,,
,,5eac4b0a1f8db726fc6060c8,2023-12-15_02h26.48.682,kallum_motion_pilot,2023.2.3,Win32,74.96251874,5eac4b0a1f8db726fc6060c8,657bb317c8798c6608bceb3f,657bb95b25000e4ba9e37fb6,0.015,0.015,0,46,46,72,1,onetwo,,,,,,,,,,,,,,,,,,,,,,,,,,,,,,,,,,,,,,,,,,,,,,,,,,,,,,,,,,,,,,,,,,,,,,,,,,,,,,,,,,,,,,,,,,,,,,,,,,,,,,,,,,,,,,,,,,,,,,,,,,,,,,,,,,,,,,,
,,5eac4b0a1f8db726fc6060c8,2023-12-15_02h26.48.682,kallum_motion_pilot,2023.2.3,Win32,74.96251874,5eac4b0a1f8db726fc6060c8,657bb317c8798c6608bceb3f,657bb95b25000e4ba9e37fb6,0.015,0.015,0,47,47,109,1,seveneight,,,,,,,,,,,,,,,,,,,,,,,,,,,,,,,,,,,,,,,,,,,,,,,,,,,,,,,,,,,,,,,,,,,,,,,,,,,,,,,,,,,,,,,,,,,,,,,,,,,,,,,,,,,,,,,,,,,,,,,,,,,,,,,,,,,,,,,
,,5eac4b0a1f8db726fc6060c8,2023-12-15_02h26.48.682,kallum_motion_pilot,2023.2.3,Win32,74.96251874,5eac4b0a1f8db726fc6060c8,657bb317c8798c6608bceb3f,657bb95b25000e4ba9e37fb6,0.015,0.015,0,48,48,4,1,threeone,,,,,,,,,,,,,,,,,,,,,,,,,,,,,,,,,,,,,,,,,,,,,,,,,,,,,,,,,,,,,,,,,,,,,,,,,,,,,,,,,,,,,,,,,,,,,,,,,,,,,,,,,,,,,,,,,,,,,,,,,,,,,,,,,,,,,,,
,,5eac4b0a1f8db726fc6060c8,2023-12-15_02h26.48.682,kallum_motion_pilot,2023.2.3,Win32,74.96251874,5eac4b0a1f8db726fc6060c8,657bb317c8798c6608bceb3f,657bb95b25000e4ba9e37fb6,0.015,0.015,0,49,49,27,1,twofour,,,,,,,,,,,,,,,,,,,,,,,,,,,,,,,,,,,,,,,,,,,,,,,,,,,,,,,,,,,,,,,,,,,,,,,,,,,,,,,,,,,,,,,,,,,,,,,,,,,,,,,,,,,,,,,,,,,,,,,,,,,,,,,,,,,,,,,
,,5eac4b0a1f8db726fc6060c8,2023-12-15_02h26.48.682,kallum_motion_pilot,2023.2.3,Win32,74.96251874,5eac4b0a1f8db726fc6060c8,657bb317c8798c6608bceb3f,657bb95b25000e4ba9e37fb6,0.015,0.015,0,50,50,52,1,threeone,,,,,,,,,,,,,,,,,,,,,,,,,,,,,,,,,,,,,,,,,,,,,,,,,,,,,,,,,,,,,,,,,,,,,,,,,,,,,,,,,,,,,,,,,,,,,,,,,,,,,,,,,,,,,,,,,,,,,,,,,,,,,,,,,,,,,,,
,,5eac4b0a1f8db726fc6060c8,2023-12-15_02h26.48.682,kallum_motion_pilot,2023.2.3,Win32,74.96251874,5eac4b0a1f8db726fc6060c8,657bb317c8798c6608bceb3f,657bb95b25000e4ba9e37fb6,0.015,0.015,0,51,51,98,1,sixfive,,,,,,,,,,,,,,,,,,,,,,,,,,,,,,,,,,,,,,,,,,,,,,,,,,,,,,,,,,,,,,,,,,,,,,,,,,,,,,,,,,,,,,,,,,,,,,,,,,,,,,,,,,,,,,,,,,,,,,,,,,,,,,,,,,,,,,,
,,5eac4b0a1f8db726fc6060c8,2023-12-15_02h26.48.682,kallum_motion_pilot,2023.2.3,Win32,74.96251874,5eac4b0a1f8db726fc6060c8,657bb317c8798c6608bceb3f,657bb95b25000e4ba9e37fb6,0.015,0.015,0,52,52,41,1,onethree,,,,,,,,,,,,,,,,,,,,,,,,,,,,,,,,,,,,,,,,,,,,,,,,,,,,,,,,,,,,,,,,,,,,,,,,,,,,,,,,,,,,,,,,,,,,,,,,,,,,,,,,,,,,,,,,,,,,,,,,,,,,,,,,,,,,,,,
,,5eac4b0a1f8db726fc6060c8,2023-12-15_02h26.48.682,kallum_motion_pilot,2023.2.3,Win32,74.96251874,5eac4b0a1f8db726fc6060c8,657bb317c8798c6608bceb3f,657bb95b25000e4ba9e37fb6,0.015,0.015,0,53,53,130,1,sixfive,,,,,,,,,,,,,,,,,,,,,,,,,,,,,,,,,,,,,,,,,,,,,,,,,,,,,,,,,,,,,,,,,,,,,,,,,,,,,,,,,,,,,,,,,,,,,,,,,,,,,,,,,,,,,,,,,,,,,,,,,,,,,,,,,,,,,,,
,,5eac4b0a1f8db726fc6060c8,2023-12-15_02h26.48.682,kallum_motion_pilot,2023.2.3,Win32,74.96251874,5eac4b0a1f8db726fc6060c8,657bb317c8798c6608bceb3f,657bb95b25000e4ba9e37fb6,0.015,0.015,0,54,54,39,1,fourthree,,,,,,,,,,,,,,,,,,,,,,,,,,,,,,,,,,,,,,,,,,,,,,,,,,,,,,,,,,,,,,,,,,,,,,,,,,,,,,,,,,,,,,,,,,,,,,,,,,,,,,,,,,,,,,,,,,,,,,,,,,,,,,,,,,,,,,,
,,5eac4b0a1f8db726fc6060c8,2023-12-15_02h26.48.682,kallum_motion_pilot,2023.2.3,Win32,74.96251874,5eac4b0a1f8db726fc6060c8,657bb317c8798c6608bceb3f,657bb95b25000e4ba9e37fb6,0.015,0.015,0,55,55,128,1,fivesix,,,,,,,,,,,,,,,,,,,,,,,,,,,,,,,,,,,,,,,,,,,,,,,,,,,,,,,,,,,,,,,,,,,,,,,,,,,,,,,,,,,,,,,,,,,,,,,,,,,,,,,,,,,,,,,,,,,,,,,,,,,,,,,,,,,,,,,
,,5eac4b0a1f8db726fc6060c8,2023-12-15_02h26.48.682,kallum_motion_pilot,2023.2.3,Win32,74.96251874,5eac4b0a1f8db726fc6060c8,657bb317c8798c6608bceb3f,657bb95b25000e4ba9e37fb6,0.015,0.015,0,56,56,119,1,eightseven,,,,,,,,,,,,,,,,,,,,,,,,,,,,,,,,,,,,,,,,,,,,,,,,,,,,,,,,,,,,,,,,,,,,,,,,,,,,,,,,,,,,,,,,,,,,,,,,,,,,,,,,,,,,,,,,,,,,,,,,,,,,,,,,,,,,,,,
,,5eac4b0a1f8db726fc6060c8,2023-12-15_02h26.48.682,kallum_motion_pilot,2023.2.3,Win32,74.96251874,5eac4b0a1f8db726fc6060c8,657bb317c8798c6608bceb3f,657bb95b25000e4ba9e37fb6,0.015,0.015,0,57,57,149,1,seveneight,,,,,,,,,,,,,,,,,,,,,,,,,,,,,,,,,,,,,,,,,,,,,,,,,,,,,,,,,,,,,,,,,,,,,,,,,,,,,,,,,,,,,,,,,,,,,,,,,,,,,,,,,,,,,,,,,,,,,,,,,,,,,,,,,,,,,,,
,,5eac4b0a1f8db726fc6060c8,2023-12-15_02h26.48.682,kallum_motion_pilot,2023.2.3,Win32,74.96251874,5eac4b0a1f8db726fc6060c8,657bb317c8798c6608bceb3f,657bb95b25000e4ba9e37fb6,0.015,0.015,0,58,58,50,1,twoone,,,,,,,,,,,,,,,,,,,,,,,,,,,,,,,,,,,,,,,,,,,,,,,,,,,,,,,,,,,,,,,,,,,,,,,,,,,,,,,,,,,,,,,,,,,,,,,,,,,,,,,,,,,,,,,,,,,,,,,,,,,,,,,,,,,,,,,
,,5eac4b0a1f8db726fc6060c8,2023-12-15_02h26.48.682,kallum_motion_pilot,2023.2.3,Win32,74.96251874,5eac4b0a1f8db726fc6060c8,657bb317c8798c6608bceb3f,657bb95b25000e4ba9e37fb6,0.015,0.015,0,59,59,133,1,seveneight,,,,,,,,,,,,,,,,,,,,,,,,,,,,,,,,,,,,,,,,,,,,,,,,,,,,,,,,,,,,,,,,,,,,,,,,,,,,,,,,,,,,,,,,,,,,,,,,,,,,,,,,,,,,,,,,,,,,,,,,,,,,,,,,,,,,,,,
,,5eac4b0a1f8db726fc6060c8,2023-12-15_02h26.48.682,kallum_motion_pilot,2023.2.3,Win32,74.96251874,5eac4b0a1f8db726fc6060c8,657bb317c8798c6608bceb3f,657bb95b25000e4ba9e37fb6,0.016,0.016,0,60,60,38,1,fourtwo,,,,,,,,,,,,,,,,,,,,,,,,,,,,,,,,,,,,,,,,,,,,,,,,,,,,,,,,,,,,,,,,,,,,,,,,,,,,,,,,,,,,,,,,,,,,,,,,,,,,,,,,,,,,,,,,,,,,,,,,,,,,,,,,,,,,,,,
,,5eac4b0a1f8db726fc6060c8,2023-12-15_02h26.48.682,kallum_motion_pilot,2023.2.3,Win32,74.96251874,5eac4b0a1f8db726fc6060c8,657bb317c8798c6608bceb3f,657bb95b25000e4ba9e37fb6,0.016,0.016,0,61,61,115,1,sixeight,,,,,,,,,,,,,,,,,,,,,,,,,,,,,,,,,,,,,,,,,,,,,,,,,,,,,,,,,,,,,,,,,,,,,,,,,,,,,,,,,,,,,,,,,,,,,,,,,,,,,,,,,,,,,,,,,,,,,,,,,,,,,,,,,,,,,,,
,,5eac4b0a1f8db726fc6060c8,2023-12-15_02h26.48.682,kallum_motion_pilot,2023.2.3,Win32,74.96251874,5eac4b0a1f8db726fc6060c8,657bb317c8798c6608bceb3f,657bb95b25000e4ba9e37fb6,0.016,0.016,0,62,62,56,1,onetwo,,,,,,,,,,,,,,,,,,,,,,,,,,,,,,,,,,,,,,,,,,,,,,,,,,,,,,,,,,,,,,,,,,,,,,,,,,,,,,,,,,,,,,,,,,,,,,,,,,,,,,,,,,,,,,,,,,,,,,,,,,,,,,,,,,,,,,,
,,5eac4b0a1f8db726fc6060c8,2023-12-15_02h26.48.682,kallum_motion_pilot,2023.2.3,Win32,74.96251874,5eac4b0a1f8db726fc6060c8,657bb317c8798c6608bceb3f,657bb95b25000e4ba9e37fb6,0.016,0.016,0,63,63,42,1,twoone,,,,,,,,,,,,,,,,,,,,,,,,,,,,,,,,,,,,,,,,,,,,,,,,,,,,,,,,,,,,,,,,,,,,,,,,,,,,,,,,,,,,,,,,,,,,,,,,,,,,,,,,,,,,,,,,,,,,,,,,,,,,,,,,,,,,,,,
,,5eac4b0a1f8db726fc6060c8,2023-12-15_02h26.48.682,kallum_motion_pilot,2023.2.3,Win32,74.96251874,5eac4b0a1f8db726fc6060c8,657bb317c8798c6608bceb3f,657bb95b25000e4ba9e37fb6,0.016,0.016,0,64,64,155,1,sixeight,,,,,,,,,,,,,,,,,,,,,,,,,,,,,,,,,,,,,,,,,,,,,,,,,,,,,,,,,,,,,,,,,,,,,,,,,,,,,,,,,,,,,,,,,,,,,,,,,,,,,,,,,,,,,,,,,,,,,,,,,,,,,,,,,,,,,,,
,,5eac4b0a1f8db726fc6060c8,2023-12-15_02h26.48.682,kallum_motion_pilot,2023.2.3,Win32,74.96251874,5eac4b0a1f8db726fc6060c8,657bb317c8798c6608bceb3f,657bb95b25000e4ba9e37fb6,0.016,0.016,0,65,65,24,1,onetwo,,,,,,,,,,,,,,,,,,,,,,,,,,,,,,,,,,,,,,,,,,,,,,,,,,,,,,,,,,,,,,,,,,,,,,,,,,,,,,,,,,,,,,,,,,,,,,,,,,,,,,,,,,,,,,,,,,,,,,,,,,,,,,,,,,,,,,,
,,5eac4b0a1f8db726fc6060c8,2023-12-15_02h26.48.682,kallum_motion_pilot,2023.2.3,Win32,74.96251874,5eac4b0a1f8db726fc6060c8,657bb317c8798c6608bceb3f,657bb95b25000e4ba9e37fb6,0.016,0.016,0,66,66,104,1,fivesix,,,,,,,,,,,,,,,,,,,,,,,,,,,,,,,,,,,,,,,,,,,,,,,,,,,,,,,,,,,,,,,,,,,,,,,,,,,,,,,,,,,,,,,,,,,,,,,,,,,,,,,,,,,,,,,,,,,,,,,,,,,,,,,,,,,,,,,
,,5eac4b0a1f8db726fc6060c8,2023-12-15_02h26.48.682,kallum_motion_pilot,2023.2.3,Win32,74.96251874,5eac4b0a1f8db726fc6060c8,657bb317c8798c6608bceb3f,657bb95b25000e4ba9e37fb6,0.016,0.016,0,67,67,102,1,eightsix,,,,,,,,,,,,,,,,,,,,,,,,,,,,,,,,,,,,,,,,,,,,,,,,,,,,,,,,,,,,,,,,,,,,,,,,,,,,,,,,,,,,,,,,,,,,,,,,,,,,,,,,,,,,,,,,,,,,,,,,,,,,,,,,,,,,,,,
,,5eac4b0a1f8db726fc6060c8,2023-12-15_02h26.48.682,kallum_motion_pilot,2023.2.3,Win32,74.96251874,5eac4b0a1f8db726fc6060c8,657bb317c8798c6608bceb3f,657bb95b25000e4ba9e37fb6,0.016,0.016,0,68,68,35,1,twofour,,,,,,,,,,,,,,,,,,,,,,,,,,,,,,,,,,,,,,,,,,,,,,,,,,,,,,,,,,,,,,,,,,,,,,,,,,,,,,,,,,,,,,,,,,,,,,,,,,,,,,,,,,,,,,,,,,,,,,,,,,,,,,,,,,,,,,,
,,5eac4b0a1f8db726fc6060c8,2023-12-15_02h26.48.682,kallum_motion_pilot,2023.2.3,Win32,74.96251874,5eac4b0a1f8db726fc6060c8,657bb317c8798c6608bceb3f,657bb95b25000e4ba9e37fb6,0.016,0.016,0,69,69,88,1,fivesix,,,,,,,,,,,,,,,,,,,,,,,,,,,,,,,,,,,,,,,,,,,,,,,,,,,,,,,,,,,,,,,,,,,,,,,,,,,,,,,,,,,,,,,,,,,,,,,,,,,,,,,,,,,,,,,,,,,,,,,,,,,,,,,,,,,,,,,
,,5eac4b0a1f8db726fc6060c8,2023-12-15_02h26.48.682,kallum_motion_pilot,2023.2.3,Win32,74.96251874,5eac4b0a1f8db726fc6060c8,657bb317c8798c6608bceb3f,657bb95b25000e4ba9e37fb6,0.016,0.016,0,70,70,40,1,onetwo,,,,,,,,,,,,,,,,,,,,,,,,,,,,,,,,,,,,,,,,,,,,,,,,,,,,,,,,,,,,,,,,,,,,,,,,,,,,,,,,,,,,,,,,,,,,,,,,,,,,,,,,,,,,,,,,,,,,,,,,,,,,,,,,,,,,,,,
,,5eac4b0a1f8db726fc6060c8,2023-12-15_02h26.48.682,kallum_motion_pilot,2023.2.3,Win32,74.96251874,5eac4b0a1f8db726fc6060c8,657bb317c8798c6608bceb3f,657bb95b25000e4ba9e37fb6,0.016,0.016,0,71,71,33,1,onethree,,,,,,,,,,,,,,,,,,,,,,,,,,,,,,,,,,,,,,,,,,,,,,,,,,,,,,,,,,,,,,,,,,,,,,,,,,,,,,,,,,,,,,,,,,,,,,,,,,,,,,,,,,,,,,,,,,,,,,,,,,,,,,,,,,,,,,,
,,5eac4b0a1f8db726fc6060c8,2023-12-15_02h26.48.682,kallum_motion_pilot,2023.2.3,Win32,74.96251874,5eac4b0a1f8db726fc6060c8,657bb317c8798c6608bceb3f,657bb95b25000e4ba9e37fb6,0.016,0.016,0,72,72,28,1,threeone,,,,,,,,,,,,,,,,,,,,,,,,,,,,,,,,,,,,,,,,,,,,,,,,,,,,,,,,,,,,,,,,,,,,,,,,,,,,,,,,,,,,,,,,,,,,,,,,,,,,,,,,,,,,,,,,,,,,,,,,,,,,,,,,,,,,,,,
,,5eac4b0a1f8db726fc6060c8,2023-12-15_02h26.48.682,kallum_motion_pilot,2023.2.3,Win32,74.96251874,5eac4b0a1f8db726fc6060c8,657bb317c8798c6608bceb3f,657bb95b25000e4ba9e37fb6,0.016,0.016,0,73,73,62,1,fourtwo,,,,,,,,,,,,,,,,,,,,,,,,,,,,,,,,,,,,,,,,,,,,,,,,,,,,,,,,,,,,,,,,,,,,,,,,,,,,,,,,,,,,,,,,,,,,,,,,,,,,,,,,,,,,,,,,,,,,,,,,,,,,,,,,,,,,,,,
,,5eac4b0a1f8db726fc6060c8,2023-12-15_02h26.48.682,kallum_motion_pilot,2023.2.3,Win32,74.96251874,5eac4b0a1f8db726fc6060c8,657bb317c8798c6608bceb3f,657bb95b25000e4ba9e37fb6,0.017,0.017,0,74,74,161,1,fiveseven,,,,,,,,,,,,,,,,,,,,,,,,,,,,,,,,,,,,,,,,,,,,,,,,,,,,,,,,,,,,,,,,,,,,,,,,,,,,,,,,,,,,,,,,,,,,,,,,,,,,,,,,,,,,,,,,,,,,,,,,,,,,,,,,,,,,,,,
,,5eac4b0a1f8db726fc6060c8,2023-12-15_02h26.48.682,kallum_motion_pilot,2023.2.3,Win32,74.96251874,5eac4b0a1f8db726fc6060c8,657bb317c8798c6608bceb3f,657bb95b25000e4ba9e37fb6,0.017,0.017,0,75,75,21,1,threefour,,,,,,,,,,,,,,,,,,,,,,,,,,,,,,,,,,,,,,,,,,,,,,,,,,,,,,,,,,,,,,,,,,,,,,,,,,,,,,,,,,,,,,,,,,,,,,,,,,,,,,,,,,,,,,,,,,,,,,,,,,,,,,,,,,,,,,,
,,5eac4b0a1f8db726fc6060c8,2023-12-15_02h26.48.682,kallum_motion_pilot,2023.2.3,Win32,74.96251874,5eac4b0a1f8db726fc6060c8,657bb317c8798c6608bceb3f,657bb95b25000e4ba9e37fb6,0.017,0.017,0,76,76,48,1,onetwo,,,,,,,,,,,,,,,,,,,,,,,,,,,,,,,,,,,,,,,,,,,,,,,,,,,,,,,,,,,,,,,,,,,,,,,,,,,,,,,,,,,,,,,,,,,,,,,,,,,,,,,,,,,,,,,,,,,,,,,,,,,,,,,,,,,,,,,
,,5eac4b0a1f8db726fc6060c8,2023-12-15_02h26.48.682,kallum_motion_pilot,2023.2.3,Win32,74.96251874,5eac4b0a1f8db726fc6060c8,657bb317c8798c6608bceb3f,657bb95b25000e4ba9e37fb6,0.017,0.017,0,77,77,134,1,eightsix,,,,,,,,,,,,,,,,,,,,,,,,,,,,,,,,,,,,,,,,,,,,,,,,,,,,,,,,,,,,,,,,,,,,,,,,,,,,,,,,,,,,,,,,,,,,,,,,,,,,,,,,,,,,,,,,,,,,,,,,,,,,,,,,,,,,,,,
,,5eac4b0a1f8db726fc6060c8,2023-12-15_02h26.48.682,kallum_motion_pilot,2023.2.3,Win32,74.96251874,5eac4b0a1f8db726fc6060c8,657bb317c8798c6608bceb3f,657bb95b25000e4ba9e37fb6,0.017,0.017,0,78,78,87,1,eightseven,,,,,,,,,,,,,,,,,,,,,,,,,,,,,,,,,,,,,,,,,,,,,,,,,,,,,,,,,,,,,,,,,,,,,,,,,,,,,,,,,,,,,,,,,,,,,,,,,,,,,,,,,,,,,,,,,,,,,,,,,,,,,,,,,,,,,,,
,,5eac4b0a1f8db726fc6060c8,2023-12-15_02h26.48.682,kallum_motion_pilot,2023.2.3,Win32,74.96251874,5eac4b0a1f8db726fc6060c8,657bb317c8798c6608bceb3f,657bb95b25000e4ba9e37fb6,0.017,0.017,0,79,79,70,1,fourtwo,,,,,,,,,,,,,,,,,,,,,,,,,,,,,,,,,,,,,,,,,,,,,,,,,,,,,,,,,,,,,,,,,,,,,,,,,,,,,,,,,,,,,,,,,,,,,,,,,,,,,,,,,,,,,,,,,,,,,,,,,,,,,,,,,,,,,,,
,,5eac4b0a1f8db726fc6060c8,2023-12-15_02h26.48.682,kallum_motion_pilot,2023.2.3,Win32,74.96251874,5eac4b0a1f8db726fc6060c8,657bb317c8798c6608bceb3f,657bb95b25000e4ba9e37fb6,0.017,0.017,0,80,80,147,1,sixeight,,,,,,,,,,,,,,,,,,,,,,,,,,,,,,,,,,,,,,,,,,,,,,,,,,,,,,,,,,,,,,,,,,,,,,,,,,,,,,,,,,,,,,,,,,,,,,,,,,,,,,,,,,,,,,,,,,,,,,,,,,,,,,,,,,,,,,,
,,5eac4b0a1f8db726fc6060c8,2023-12-15_02h26.48.682,kallum_motion_pilot,2023.2.3,Win32,74.96251874,5eac4b0a1f8db726fc6060c8,657bb317c8798c6608bceb3f,657bb95b25000e4ba9e37fb6,0.017,0.017,0,81,81,57,1,onethree,,,,,,,,,,,,,,,,,,,,,,,,,,,,,,,,,,,,,,,,,,,,,,,,,,,,,,,,,,,,,,,,,,,,,,,,,,,,,,,,,,,,,,,,,,,,,,,,,,,,,,,,,,,,,,,,,,,,,,,,,,,,,,,,,,,,,,,
,,5eac4b0a1f8db726fc6060c8,2023-12-15_02h26.48.682,kallum_motion_pilot,2023.2.3,Win32,74.96251874,5eac4b0a1f8db726fc6060c8,657bb317c8798c6608bceb3f,657bb95b25000e4ba9e37fb6,0.017,0.017,0,82,82,10,1,twoone,,,,,,,,,,,,,,,,,,,,,,,,,,,,,,,,,,,,,,,,,,,,,,,,,,,,,,,,,,,,,,,,,,,,,,,,,,,,,,,,,,,,,,,,,,,,,,,,,,,,,,,,,,,,,,,,,,,,,,,,,,,,,,,,,,,,,,,
,,5eac4b0a1f8db726fc6060c8,2023-12-15_02h26.48.682,kallum_motion_pilot,2023.2.3,Win32,74.96251874,5eac4b0a1f8db726fc6060c8,657bb317c8798c6608bceb3f,657bb95b25000e4ba9e37fb6,0.017,0.017,0,83,83,43,1,twofour,,,,,,,,,,,,,,,,,,,,,,,,,,,,,,,,,,,,,,,,,,,,,,,,,,,,,,,,,,,,,,,,,,,,,,,,,,,,,,,,,,,,,,,,,,,,,,,,,,,,,,,,,,,,,,,,,,,,,,,,,,,,,,,,,,,,,,,
,,5eac4b0a1f8db726fc6060c8,2023-12-15_02h26.48.682,kallum_motion_pilot,2023.2.3,Win32,74.96251874,5eac4b0a1f8db726fc6060c8,657bb317c8798c6608bceb3f,657bb95b25000e4ba9e37fb6,0.017,0.017,0,84,84,51,1,twofour,,,,,,,,,,,,,,,,,,,,,,,,,,,,,,,,,,,,,,,,,,,,,,,,,,,,,,,,,,,,,,,,,,,,,,,,,,,,,,,,,,,,,,,,,,,,,,,,,,,,,,,,,,,,,,,,,,,,,,,,,,,,,,,,,,,,,,,
,,5eac4b0a1f8db726fc6060c8,2023-12-15_02h26.48.682,kallum_motion_pilot,2023.2.3,Win32,74.96251874,5eac4b0a1f8db726fc6060c8,657bb317c8798c6608bceb3f,657bb95b25000e4ba9e37fb6,0.017,0.017,0,85,85,97,1,fiveseven,,,,,,,,,,,,,,,,,,,,,,,,,,,,,,,,,,,,,,,,,,,,,,,,,,,,,,,,,,,,,,,,,,,,,,,,,,,,,,,,,,,,,,,,,,,,,,,,,,,,,,,,,,,,,,,,,,,,,,,,,,,,,,,,,,,,,,,
,,5eac4b0a1f8db726fc6060c8,2023-12-15_02h26.48.682,kallum_motion_pilot,2023.2.3,Win32,74.96251874,5eac4b0a1f8db726fc6060c8,657bb317c8798c6608bceb3f,657bb95b25000e4ba9e37fb6,0.017,0.017,0,86,86,34,1,twoone,,,,,,,,,,,,,,,,,,,,,,,,,,,,,,,,,,,,,,,,,,,,,,,,,,,,,,,,,,,,,,,,,,,,,,,,,,,,,,,,,,,,,,,,,,,,,,,,,,,,,,,,,,,,,,,,,,,,,,,,,,,,,,,,,,,,,,,
,,5eac4b0a1f8db726fc6060c8,2023-12-15_02h26.48.682,kallum_motion_pilot,2023.2.3,Win32,74.96251874,5eac4b0a1f8db726fc6060c8,657bb317c8798c6608bceb3f,657bb95b25000e4ba9e37fb6,0.017,0.017,0,87,87,37,1,threefour,,,,,,,,,,,,,,,,,,,,,,,,,,,,,,,,,,,,,,,,,,,,,,,,,,,,,,,,,,,,,,,,,,,,,,,,,,,,,,,,,,,,,,,,,,,,,,,,,,,,,,,,,,,,,,,,,,,,,,,,,,,,,,,,,,,,,,,
,,5eac4b0a1f8db726fc6060c8,2023-12-15_02h26.48.682,kallum_motion_pilot,2023.2.3,Win32,74.96251874,5eac4b0a1f8db726fc6060c8,657bb317c8798c6608bceb3f,657bb95b25000e4ba9e37fb6,0.017,0.017,0,88,88,157,1,seveneight,,,,,,,,,,,,,,,,,,,,,,,,,,,,,,,,,,,,,,,,,,,,,,,,,,,,,,,,,,,,,,,,,,,,,,,,,,,,,,,,,,,,,,,,,,,,,,,,,,,,,,,,,,,,,,,,,,,,,,,,,,,,,,,,,,,,,,,
,,5eac4b0a1f8db726fc6060c8,2023-12-15_02h26.48.682,kallum_motion_pilot,2023.2.3,Win32,74.96251874,5eac4b0a1f8db726fc6060c8,657bb317c8798c6608bceb3f,657bb95b25000e4ba9e37fb6,0.017,0.017,0,89,89,124,1,sevenfive,,,,,,,,,,,,,,,,,,,,,,,,,,,,,,,,,,,,,,,,,,,,,,,,,,,,,,,,,,,,,,,,,,,,,,,,,,,,,,,,,,,,,,,,,,,,,,,,,,,,,,,,,,,,,,,,,,,,,,,,,,,,,,,,,,,,,,,
,,5eac4b0a1f8db726fc6060c8,2023-12-15_02h26.48.682,kallum_motion_pilot,2023.2.3,Win32,74.96251874,5eac4b0a1f8db726fc6060c8,657bb317c8798c6608bceb3f,657bb95b25000e4ba9e37fb6,0.017,0.017,0,90,90,90,1,sixfive,,,,,,,,,,,,,,,,,,,,,,,,,,,,,,,,,,,,,,,,,,,,,,,,,,,,,,,,,,,,,,,,,,,,,,,,,,,,,,,,,,,,,,,,,,,,,,,,,,,,,,,,,,,,,,,,,,,,,,,,,,,,,,,,,,,,,,,
,,5eac4b0a1f8db726fc6060c8,2023-12-15_02h26.48.682,kallum_motion_pilot,2023.2.3,Win32,74.96251874,5eac4b0a1f8db726fc6060c8,657bb317c8798c6608bceb3f,657bb95b25000e4ba9e37fb6,0.017,0.017,0,91,91,160,1,fivesix,,,,,,,,,,,,,,,,,,,,,,,,,,,,,,,,,,,,,,,,,,,,,,,,,,,,,,,,,,,,,,,,,,,,,,,,,,,,,,,,,,,,,,,,,,,,,,,,,,,,,,,,,,,,,,,,,,,,,,,,,,,,,,,,,,,,,,,
,,5eac4b0a1f8db726fc6060c8,2023-12-15_02h26.48.682,kallum_motion_pilot,2023.2.3,Win32,74.96251874,5eac4b0a1f8db726fc6060c8,657bb317c8798c6608bceb3f,657bb95b25000e4ba9e37fb6,0.017,0.017,0,92,92,64,1,onetwo,,,,,,,,,,,,,,,,,,,,,,,,,,,,,,,,,,,,,,,,,,,,,,,,,,,,,,,,,,,,,,,,,,,,,,,,,,,,,,,,,,,,,,,,,,,,,,,,,,,,,,,,,,,,,,,,,,,,,,,,,,,,,,,,,,,,,,,
,,5eac4b0a1f8db726fc6060c8,2023-12-15_02h26.48.682,kallum_motion_pilot,2023.2.3,Win32,74.96251874,5eac4b0a1f8db726fc6060c8,657bb317c8798c6608bceb3f,657bb95b25000e4ba9e37fb6,0.018,0.018,0,93,93,135,1,eightseven,,,,,,,,,,,,,,,,,,,,,,,,,,,,,,,,,,,,,,,,,,,,,,,,,,,,,,,,,,,,,,,,,,,,,,,,,,,,,,,,,,,,,,,,,,,,,,,,,,,,,,,,,,,,,,,,,,,,,,,,,,,,,,,,,,,,,,,
,,5eac4b0a1f8db726fc6060c8,2023-12-15_02h26.48.682,kallum_motion_pilot,2023.2.3,Win32,74.96251874,5eac4b0a1f8db726fc6060c8,657bb317c8798c6608bceb3f,657bb95b25000e4ba9e37fb6,0.018,0.018,0,94,94,150,1,eightsix,,,,,,,,,,,,,,,,,,,,,,,,,,,,,,,,,,,,,,,,,,,,,,,,,,,,,,,,,,,,,,,,,,,,,,,,,,,,,,,,,,,,,,,,,,,,,,,,,,,,,,,,,,,,,,,,,,,,,,,,,,,,,,,,,,,,,,,
,,5eac4b0a1f8db726fc6060c8,2023-12-15_02h26.48.682,kallum_motion_pilot,2023.2.3,Win32,74.96251874,5eac4b0a1f8db726fc6060c8,657bb317c8798c6608bceb3f,657bb95b25000e4ba9e37fb6,0.018,0.018,0,95,95,101,1,seveneight,,,,,,,,,,,,,,,,,,,,,,,,,,,,,,,,,,,,,,,,,,,,,,,,,,,,,,,,,,,,,,,,,,,,,,,,,,,,,,,,,,,,,,,,,,,,,,,,,,,,,,,,,,,,,,,,,,,,,,,,,,,,,,,,,,,,,,,
,,5eac4b0a1f8db726fc6060c8,2023-12-15_02h26.48.682,kallum_motion_pilot,2023.2.3,Win32,74.96251874,5eac4b0a1f8db726fc6060c8,657bb317c8798c6608bceb3f,657bb95b25000e4ba9e37fb6,0.018,0.018,0,96,96,142,1,eightsix,,,,,,,,,,,,,,,,,,,,,,,,,,,,,,,,,,,,,,,,,,,,,,,,,,,,,,,,,,,,,,,,,,,,,,,,,,,,,,,,,,,,,,,,,,,,,,,,,,,,,,,,,,,,,,,,,,,,,,,,,,,,,,,,,,,,,,,
,,5eac4b0a1f8db726fc6060c8,2023-12-15_02h26.48.682,kallum_motion_pilot,2023.2.3,Win32,74.96251874,5eac4b0a1f8db726fc6060c8,657bb317c8798c6608bceb3f,657bb95b25000e4ba9e37fb6,0.018,0.018,0,97,97,127,1,eightseven,,,,,,,,,,,,,,,,,,,,,,,,,,,,,,,,,,,,,,,,,,,,,,,,,,,,,,,,,,,,,,,,,,,,,,,,,,,,,,,,,,,,,,,,,,,,,,,,,,,,,,,,,,,,,,,,,,,,,,,,,,,,,,,,,,,,,,,
,,5eac4b0a1f8db726fc6060c8,2023-12-15_02h26.48.682,kallum_motion_pilot,2023.2.3,Win32,74.96251874,5eac4b0a1f8db726fc6060c8,657bb317c8798c6608bceb3f,657bb95b25000e4ba9e37fb6,0.018,0.018,0,98,98,143,1,eightseven,,,,,,,,,,,,,,,,,,,,,,,,,,,,,,,,,,,,,,,,,,,,,,,,,,,,,,,,,,,,,,,,,,,,,,,,,,,,,,,,,,,,,,,,,,,,,,,,,,,,,,,,,,,,,,,,,,,,,,,,,,,,,,,,,,,,,,,
,,5eac4b0a1f8db726fc6060c8,2023-12-15_02h26.48.682,kallum_motion_pilot,2023.2.3,Win32,74.96251874,5eac4b0a1f8db726fc6060c8,657bb317c8798c6608bceb3f,657bb95b25000e4ba9e37fb6,0.018,0.018,0,99,99,158,1,eightsix,,,,,,,,,,,,,,,,,,,,,,,,,,,,,,,,,,,,,,,,,,,,,,,,,,,,,,,,,,,,,,,,,,,,,,,,,,,,,,,,,,,,,,,,,,,,,,,,,,,,,,,,,,,,,,,,,,,,,,,,,,,,,,,,,,,,,,,
,,5eac4b0a1f8db726fc6060c8,2023-12-15_02h26.48.682,kallum_motion_pilot,2023.2.3,Win32,74.96251874,5eac4b0a1f8db726fc6060c8,657bb317c8798c6608bceb3f,657bb95b25000e4ba9e37fb6,0.018,0.018,0,100,100,0,1,onetwo,,,,,,,,,,,,,,,,,,,,,,,,,,,,,,,,,,,,,,,,,,,,,,,,,,,,,,,,,,,,,,,,,,,,,,,,,,,,,,,,,,,,,,,,,,,,,,,,,,,,,,,,,,,,,,,,,,,,,,,,,,,,,,,,,,,,,,,
,,5eac4b0a1f8db726fc6060c8,2023-12-15_02h26.48.682,kallum_motion_pilot,2023.2.3,Win32,74.96251874,5eac4b0a1f8db726fc6060c8,657bb317c8798c6608bceb3f,657bb95b25000e4ba9e37fb6,0.018,0.018,0,101,101,94,1,eightsix,,,,,,,,,,,,,,,,,,,,,,,,,,,,,,,,,,,,,,,,,,,,,,,,,,,,,,,,,,,,,,,,,,,,,,,,,,,,,,,,,,,,,,,,,,,,,,,,,,,,,,,,,,,,,,,,,,,,,,,,,,,,,,,,,,,,,,,
,,5eac4b0a1f8db726fc6060c8,2023-12-15_02h26.48.682,kallum_motion_pilot,2023.2.3,Win32,74.96251874,5eac4b0a1f8db726fc6060c8,657bb317c8798c6608bceb3f,657bb95b25000e4ba9e37fb6,0.018,0.018,0,102,102,1,1,onethree,,,,,,,,,,,,,,,,,,,,,,,,,,,,,,,,,,,,,,,,,,,,,,,,,,,,,,,,,,,,,,,,,,,,,,,,,,,,,,,,,,,,,,,,,,,,,,,,,,,,,,,,,,,,,,,,,,,,,,,,,,,,,,,,,,,,,,,
,,5eac4b0a1f8db726fc6060c8,2023-12-15_02h26.48.682,kallum_motion_pilot,2023.2.3,Win32,74.96251874,5eac4b0a1f8db726fc6060c8,657bb317c8798c6608bceb3f,657bb95b25000e4ba9e37fb6,0.018,0.018,0,103,103,105,1,fiveseven,,,,,,,,,,,,,,,,,,,,,,,,,,,,,,,,,,,,,,,,,,,,,,,,,,,,,,,,,,,,,,,,,,,,,,,,,,,,,,,,,,,,,,,,,,,,,,,,,,,,,,,,,,,,,,,,,,,,,,,,,,,,,,,,,,,,,,,
,,5eac4b0a1f8db726fc6060c8,2023-12-15_02h26.48.682,kallum_motion_pilot,2023.2.3,Win32,74.96251874,5eac4b0a1f8db726fc6060c8,657bb317c8798c6608bceb3f,657bb95b25000e4ba9e37fb6,0.018,0.018,0,104,104,78,1,fourtwo,,,,,,,,,,,,,,,,,,,,,,,,,,,,,,,,,,,,,,,,,,,,,,,,,,,,,,,,,,,,,,,,,,,,,,,,,,,,,,,,,,,,,,,,,,,,,,,,,,,,,,,,,,,,,,,,,,,,,,,,,,,,,,,,,,,,,,,
,,5eac4b0a1f8db726fc6060c8,2023-12-15_02h26.48.682,kallum_motion_pilot,2023.2.3,Win32,74.96251874,5eac4b0a1f8db726fc6060c8,657bb317c8798c6608bceb3f,657bb95b25000e4ba9e37fb6,0.018,0.018,0,105,105,82,1,sixfive,,,,,,,,,,,,,,,,,,,,,,,,,,,,,,,,,,,,,,,,,,,,,,,,,,,,,,,,,,,,,,,,,,,,,,,,,,,,,,,,,,,,,,,,,,,,,,,,,,,,,,,,,,,,,,,,,,,,,,,,,,,,,,,,,,,,,,,
,,5eac4b0a1f8db726fc6060c8,2023-12-15_02h26.48.682,kallum_motion_pilot,2023.2.3,Win32,74.96251874,5eac4b0a1f8db726fc6060c8,657bb317c8798c6608bceb3f,657bb95b25000e4ba9e37fb6,0.018,0.018,0,106,106,19,1,twofour,,,,,,,,,,,,,,,,,,,,,,,,,,,,,,,,,,,,,,,,,,,,,,,,,,,,,,,,,,,,,,,,,,,,,,,,,,,,,,,,,,,,,,,,,,,,,,,,,,,,,,,,,,,,,,,,,,,,,,,,,,,,,,,,,,,,,,,
,,5eac4b0a1f8db726fc6060c8,2023-12-15_02h26.48.682,kallum_motion_pilot,2023.2.3,Win32,74.96251874,5eac4b0a1f8db726fc6060c8,657bb317c8798c6608bceb3f,657bb95b25000e4ba9e37fb6,0.018,0.018,0,107,107,71,1,fourthree,,,,,,,,,,,,,,,,,,,,,,,,,,,,,,,,,,,,,,,,,,,,,,,,,,,,,,,,,,,,,,,,,,,,,,,,,,,,,,,,,,,,,,,,,,,,,,,,,,,,,,,,,,,,,,,,,,,,,,,,,,,,,,,,,,,,,,,
,,5eac4b0a1f8db726fc6060c8,2023-12-15_02h26.48.682,kallum_motion_pilot,2023.2.3,Win32,74.96251874,5eac4b0a1f8db726fc6060c8,657bb317c8798c6608bceb3f,657bb95b25000e4ba9e37fb6,0.018,0.018,0,108,108,144,1,fivesix,,,,,,,,,,,,,,,,,,,,,,,,,,,,,,,,,,,,,,,,,,,,,,,,,,,,,,,,,,,,,,,,,,,,,,,,,,,,,,,,,,,,,,,,,,,,,,,,,,,,,,,,,,,,,,,,,,,,,,,,,,,,,,,,,,,,,,,
,,5eac4b0a1f8db726fc6060c8,2023-12-15_02h26.48.682,kallum_motion_pilot,2023.2.3,Win32,74.96251874,5eac4b0a1f8db726fc6060c8,657bb317c8798c6608bceb3f,657bb95b25000e4ba9e37fb6,0.018,0.018,0,109,109,123,1,sixeight,,,,,,,,,,,,,,,,,,,,,,,,,,,,,,,,,,,,,,,,,,,,,,,,,,,,,,,,,,,,,,,,,,,,,,,,,,,,,,,,,,,,,,,,,,,,,,,,,,,,,,,,,,,,,,,,,,,,,,,,,,,,,,,,,,,,,,,
,,5eac4b0a1f8db726fc6060c8,2023-12-15_02h26.48.682,kallum_motion_pilot,2023.2.3,Win32,74.96251874,5eac4b0a1f8db726fc6060c8,657bb317c8798c6608bceb3f,657bb95b25000e4ba9e37fb6,0.018,0.018,0,110,110,77,1,threefour,,,,,,,,,,,,,,,,,,,,,,,,,,,,,,,,,,,,,,,,,,,,,,,,,,,,,,,,,,,,,,,,,,,,,,,,,,,,,,,,,,,,,,,,,,,,,,,,,,,,,,,,,,,,,,,,,,,,,,,,,,,,,,,,,,,,,,,
,,5eac4b0a1f8db726fc6060c8,2023-12-15_02h26.48.682,kallum_motion_pilot,2023.2.3,Win32,74.96251874,5eac4b0a1f8db726fc6060c8,657bb317c8798c6608bceb3f,657bb95b25000e4ba9e37fb6,0.018,0.018,0,111,111,5,1,threefour,,,,,,,,,,,,,,,,,,,,,,,,,,,,,,,,,,,,,,,,,,,,,,,,,,,,,,,,,,,,,,,,,,,,,,,,,,,,,,,,,,,,,,,,,,,,,,,,,,,,,,,,,,,,,,,,,,,,,,,,,,,,,,,,,,,,,,,
,,5eac4b0a1f8db726fc6060c8,2023-12-15_02h26.48.682,kallum_motion_pilot,2023.2.3,Win32,74.96251874,5eac4b0a1f8db726fc6060c8,657bb317c8798c6608bceb3f,657bb95b25000e4ba9e37fb6,0.018,0.018,0,112,112,55,1,fourthree,,,,,,,,,,,,,,,,,,,,,,,,,,,,,,,,,,,,,,,,,,,,,,,,,,,,,,,,,,,,,,,,,,,,,,,,,,,,,,,,,,,,,,,,,,,,,,,,,,,,,,,,,,,,,,,,,,,,,,,,,,,,,,,,,,,,,,,
,,5eac4b0a1f8db726fc6060c8,2023-12-15_02h26.48.682,kallum_motion_pilot,2023.2.3,Win32,74.96251874,5eac4b0a1f8db726fc6060c8,657bb317c8798c6608bceb3f,657bb95b25000e4ba9e37fb6,0.018,0.018,0,113,113,65,1,onethree,,,,,,,,,,,,,,,,,,,,,,,,,,,,,,,,,,,,,,,,,,,,,,,,,,,,,,,,,,,,,,,,,,,,,,,,,,,,,,,,,,,,,,,,,,,,,,,,,,,,,,,,,,,,,,,,,,,,,,,,,,,,,,,,,,,,,,,
,,5eac4b0a1f8db726fc6060c8,2023-12-15_02h26.48.682,kallum_motion_pilot,2023.2.3,Win32,74.96251874,5eac4b0a1f8db726fc6060c8,657bb317c8798c6608bceb3f,657bb95b25000e4ba9e37fb6,0.019,0.019,0,114,114,9,1,onethree,,,,,,,,,,,,,,,,,,,,,,,,,,,,,,,,,,,,,,,,,,,,,,,,,,,,,,,,,,,,,,,,,,,,,,,,,,,,,,,,,,,,,,,,,,,,,,,,,,,,,,,,,,,,,,,,,,,,,,,,,,,,,,,,,,,,,,,
,,5eac4b0a1f8db726fc6060c8,2023-12-15_02h26.48.682,kallum_motion_pilot,2023.2.3,Win32,74.96251874,5eac4b0a1f8db726fc6060c8,657bb317c8798c6608bceb3f,657bb95b25000e4ba9e37fb6,0.019,0.019,0,115,115,44,1,threeone,,,,,,,,,,,,,,,,,,,,,,,,,,,,,,,,,,,,,,,,,,,,,,,,,,,,,,,,,,,,,,,,,,,,,,,,,,,,,,,,,,,,,,,,,,,,,,,,,,,,,,,,,,,,,,,,,,,,,,,,,,,,,,,,,,,,,,,
,,5eac4b0a1f8db726fc6060c8,2023-12-15_02h26.48.682,kallum_motion_pilot,2023.2.3,Win32,74.96251874,5eac4b0a1f8db726fc6060c8,657bb317c8798c6608bceb3f,657bb95b25000e4ba9e37fb6,0.019,0.019,0,116,116,13,1,threefour,,,,,,,,,,,,,,,,,,,,,,,,,,,,,,,,,,,,,,,,,,,,,,,,,,,,,,,,,,,,,,,,,,,,,,,,,,,,,,,,,,,,,,,,,,,,,,,,,,,,,,,,,,,,,,,,,,,,,,,,,,,,,,,,,,,,,,,
,,5eac4b0a1f8db726fc6060c8,2023-12-15_02h26.48.682,kallum_motion_pilot,2023.2.3,Win32,74.96251874,5eac4b0a1f8db726fc6060c8,657bb317c8798c6608bceb3f,657bb95b25000e4ba9e37fb6,0.019,0.019,0,117,117,7,1,fourthree,,,,,,,,,,,,,,,,,,,,,,,,,,,,,,,,,,,,,,,,,,,,,,,,,,,,,,,,,,,,,,,,,,,,,,,,,,,,,,,,,,,,,,,,,,,,,,,,,,,,,,,,,,,,,,,,,,,,,,,,,,,,,,,,,,,,,,,
,,5eac4b0a1f8db726fc6060c8,2023-12-15_02h26.48.682,kallum_motion_pilot,2023.2.3,Win32,74.96251874,5eac4b0a1f8db726fc6060c8,657bb317c8798c6608bceb3f,657bb95b25000e4ba9e37fb6,0.019,0.019,0,118,118,58,1,twoone,,,,,,,,,,,,,,,,,,,,,,,,,,,,,,,,,,,,,,,,,,,,,,,,,,,,,,,,,,,,,,,,,,,,,,,,,,,,,,,,,,,,,,,,,,,,,,,,,,,,,,,,,,,,,,,,,,,,,,,,,,,,,,,,,,,,,,,
,,5eac4b0a1f8db726fc6060c8,2023-12-15_02h26.48.682,kallum_motion_pilot,2023.2.3,Win32,74.96251874,5eac4b0a1f8db726fc6060c8,657bb317c8798c6608bceb3f,657bb95b25000e4ba9e37fb6,0.019,0.019,0,119,119,132,1,sevenfive,,,,,,,,,,,,,,,,,,,,,,,,,,,,,,,,,,,,,,,,,,,,,,,,,,,,,,,,,,,,,,,,,,,,,,,,,,,,,,,,,,,,,,,,,,,,,,,,,,,,,,,,,,,,,,,,,,,,,,,,,,,,,,,,,,,,,,,
,,5eac4b0a1f8db726fc6060c8,2023-12-15_02h26.48.682,kallum_motion_pilot,2023.2.3,Win32,74.96251874,5eac4b0a1f8db726fc6060c8,657bb317c8798c6608bceb3f,657bb95b25000e4ba9e37fb6,0.019,0.019,0,120,120,138,1,sixfive,,,,,,,,,,,,,,,,,,,,,,,,,,,,,,,,,,,,,,,,,,,,,,,,,,,,,,,,,,,,,,,,,,,,,,,,,,,,,,,,,,,,,,,,,,,,,,,,,,,,,,,,,,,,,,,,,,,,,,,,,,,,,,,,,,,,,,,
,,5eac4b0a1f8db726fc6060c8,2023-12-15_02h26.48.682,kallum_motion_pilot,2023.2.3,Win32,74.96251874,5eac4b0a1f8db726fc6060c8,657bb317c8798c6608bceb3f,657bb95b25000e4ba9e37fb6,0.019,0.019,0,121,121,81,1,fiveseven,,,,,,,,,,,,,,,,,,,,,,,,,,,,,,,,,,,,,,,,,,,,,,,,,,,,,,,,,,,,,,,,,,,,,,,,,,,,,,,,,,,,,,,,,,,,,,,,,,,,,,,,,,,,,,,,,,,,,,,,,,,,,,,,,,,,,,,
,,5eac4b0a1f8db726fc6060c8,2023-12-15_02h26.48.682,kallum_motion_pilot,2023.2.3,Win32,74.96251874,5eac4b0a1f8db726fc6060c8,657bb317c8798c6608bceb3f,657bb95b25000e4ba9e37fb6,0.019,0.019,0,122,122,22,1,fourtwo,,,,,,,,,,,,,,,,,,,,,,,,,,,,,,,,,,,,,,,,,,,,,,,,,,,,,,,,,,,,,,,,,,,,,,,,,,,,,,,,,,,,,,,,,,,,,,,,,,,,,,,,,,,,,,,,,,,,,,,,,,,,,,,,,,,,,,,
,,5eac4b0a1f8db726fc6060c8,2023-12-15_02h26.48.682,kallum_motion_pilot,2023.2.3,Win32,74.96251874,5eac4b0a1f8db726fc6060c8,657bb317c8798c6608bceb3f,657bb95b25000e4ba9e37fb6,0.019,0.019,0,123,123,63,1,fourthree,,,,,,,,,,,,,,,,,,,,,,,,,,,,,,,,,,,,,,,,,,,,,,,,,,,,,,,,,,,,,,,,,,,,,,,,,,,,,,,,,,,,,,,,,,,,,,,,,,,,,,,,,,,,,,,,,,,,,,,,,,,,,,,,,,,,,,,
,,5eac4b0a1f8db726fc6060c8,2023-12-15_02h26.48.682,kallum_motion_pilot,2023.2.3,Win32,74.96251874,5eac4b0a1f8db726fc6060c8,657bb317c8798c6608bceb3f,657bb95b25000e4ba9e37fb6,0.019,0.019,0,124,124,36,1,threeone,,,,,,,,,,,,,,,,,,,,,,,,,,,,,,,,,,,,,,,,,,,,,,,,,,,,,,,,,,,,,,,,,,,,,,,,,,,,,,,,,,,,,,,,,,,,,,,,,,,,,,,,,,,,,,,,,,,,,,,,,,,,,,,,,,,,,,,
,,5eac4b0a1f8db726fc6060c8,2023-12-15_02h26.48.682,kallum_motion_pilot,2023.2.3,Win32,74.96251874,5eac4b0a1f8db726fc6060c8,657bb317c8798c6608bceb3f,657bb95b25000e4ba9e37fb6,0.019,0.019,0,125,125,96,1,fivesix,,,,,,,,,,,,,,,,,,,,,,,,,,,,,,,,,,,,,,,,,,,,,,,,,,,,,,,,,,,,,,,,,,,,,,,,,,,,,,,,,,,,,,,,,,,,,,,,,,,,,,,,,,,,,,,,,,,,,,,,,,,,,,,,,,,,,,,
,,5eac4b0a1f8db726fc6060c8,2023-12-15_02h26.48.682,kallum_motion_pilot,2023.2.3,Win32,74.96251874,5eac4b0a1f8db726fc6060c8,657bb317c8798c6608bceb3f,657bb95b25000e4ba9e37fb6,0.019,0.019,0,126,126,126,1,eightsix,,,,,,,,,,,,,,,,,,,,,,,,,,,,,,,,,,,,,,,,,,,,,,,,,,,,,,,,,,,,,,,,,,,,,,,,,,,,,,,,,,,,,,,,,,,,,,,,,,,,,,,,,,,,,,,,,,,,,,,,,,,,,,,,,,,,,,,
,,5eac4b0a1f8db726fc6060c8,2023-12-15_02h26.48.682,kallum_motion_pilot,2023.2.3,Win32,74.96251874,5eac4b0a1f8db726fc6060c8,657bb317c8798c6608bceb3f,657bb95b25000e4ba9e37fb6,0.019,0.019,0,127,127,121,1,fiveseven,,,,,,,,,,,,,,,,,,,,,,,,,,,,,,,,,,,,,,,,,,,,,,,,,,,,,,,,,,,,,,,,,,,,,,,,,,,,,,,,,,,,,,,,,,,,,,,,,,,,,,,,,,,,,,,,,,,,,,,,,,,,,,,,,,,,,,,
,,5eac4b0a1f8db726fc6060c8,2023-12-15_02h26.48.682,kallum_motion_pilot,2023.2.3,Win32,74.96251874,5eac4b0a1f8db726fc6060c8,657bb317c8798c6608bceb3f,657bb95b25000e4ba9e37fb6,0.019,0.019,0,128,128,73,1,onethree,,,,,,,,,,,,,,,,,,,,,,,,,,,,,,,,,,,,,,,,,,,,,,,,,,,,,,,,,,,,,,,,,,,,,,,,,,,,,,,,,,,,,,,,,,,,,,,,,,,,,,,,,,,,,,,,,,,,,,,,,,,,,,,,,,,,,,,
,,5eac4b0a1f8db726fc6060c8,2023-12-15_02h26.48.682,kallum_motion_pilot,2023.2.3,Win32,74.96251874,5eac4b0a1f8db726fc6060c8,657bb317c8798c6608bceb3f,657bb95b25000e4ba9e37fb6,0.019,0.019,0,129,129,110,1,eightsix,,,,,,,,,,,,,,,,,,,,,,,,,,,,,,,,,,,,,,,,,,,,,,,,,,,,,,,,,,,,,,,,,,,,,,,,,,,,,,,,,,,,,,,,,,,,,,,,,,,,,,,,,,,,,,,,,,,,,,,,,,,,,,,,,,,,,,,
,,5eac4b0a1f8db726fc6060c8,2023-12-15_02h26.48.682,kallum_motion_pilot,2023.2.3,Win32,74.96251874,5eac4b0a1f8db726fc6060c8,657bb317c8798c6608bceb3f,657bb95b25000e4ba9e37fb6,0.019,0.019,0,130,130,66,1,twoone,,,,,,,,,,,,,,,,,,,,,,,,,,,,,,,,,,,,,,,,,,,,,,,,,,,,,,,,,,,,,,,,,,,,,,,,,,,,,,,,,,,,,,,,,,,,,,,,,,,,,,,,,,,,,,,,,,,,,,,,,,,,,,,,,,,,,,,
,,5eac4b0a1f8db726fc6060c8,2023-12-15_02h26.48.682,kallum_motion_pilot,2023.2.3,Win32,74.96251874,5eac4b0a1f8db726fc6060c8,657bb317c8798c6608bceb3f,657bb95b25000e4ba9e37fb6,0.019,0.019,0,131,131,67,1,twofour,,,,,,,,,,,,,,,,,,,,,,,,,,,,,,,,,,,,,,,,,,,,,,,,,,,,,,,,,,,,,,,,,,,,,,,,,,,,,,,,,,,,,,,,,,,,,,,,,,,,,,,,,,,,,,,,,,,,,,,,,,,,,,,,,,,,,,,
,,5eac4b0a1f8db726fc6060c8,2023-12-15_02h26.48.682,kallum_motion_pilot,2023.2.3,Win32,74.96251874,5eac4b0a1f8db726fc6060c8,657bb317c8798c6608bceb3f,657bb95b25000e4ba9e37fb6,0.019,0.019,0,132,132,20,1,threeone,,,,,,,,,,,,,,,,,,,,,,,,,,,,,,,,,,,,,,,,,,,,,,,,,,,,,,,,,,,,,,,,,,,,,,,,,,,,,,,,,,,,,,,,,,,,,,,,,,,,,,,,,,,,,,,,,,,,,,,,,,,,,,,,,,,,,,,
,,5eac4b0a1f8db726fc6060c8,2023-12-15_02h26.48.682,kallum_motion_pilot,2023.2.3,Win32,74.96251874,5eac4b0a1f8db726fc6060c8,657bb317c8798c6608bceb3f,657bb95b25000e4ba9e37fb6,0.019,0.019,0,133,133,29,1,threefour,,,,,,,,,,,,,,,,,,,,,,,,,,,,,,,,,,,,,,,,,,,,,,,,,,,,,,,,,,,,,,,,,,,,,,,,,,,,,,,,,,,,,,,,,,,,,,,,,,,,,,,,,,,,,,,,,,,,,,,,,,,,,,,,,,,,,,,
,,5eac4b0a1f8db726fc6060c8,2023-12-15_02h26.48.682,kallum_motion_pilot,2023.2.3,Win32,74.96251874,5eac4b0a1f8db726fc6060c8,657bb317c8798c6608bceb3f,657bb95b25000e4ba9e37fb6,0.019,0.019,0,134,134,47,1,fourthree,,,,,,,,,,,,,,,,,,,,,,,,,,,,,,,,,,,,,,,,,,,,,,,,,,,,,,,,,,,,,,,,,,,,,,,,,,,,,,,,,,,,,,,,,,,,,,,,,,,,,,,,,,,,,,,,,,,,,,,,,,,,,,,,,,,,,,,
,,5eac4b0a1f8db726fc6060c8,2023-12-15_02h26.48.682,kallum_motion_pilot,2023.2.3,Win32,74.96251874,5eac4b0a1f8db726fc6060c8,657bb317c8798c6608bceb3f,657bb95b25000e4ba9e37fb6,0.02,0.02,0,135,135,93,1,seveneight,,,,,,,,,,,,,,,,,,,,,,,,,,,,,,,,,,,,,,,,,,,,,,,,,,,,,,,,,,,,,,,,,,,,,,,,,,,,,,,,,,,,,,,,,,,,,,,,,,,,,,,,,,,,,,,,,,,,,,,,,,,,,,,,,,,,,,,
,,5eac4b0a1f8db726fc6060c8,2023-12-15_02h26.48.682,kallum_motion_pilot,2023.2.3,Win32,74.96251874,5eac4b0a1f8db726fc6060c8,657bb317c8798c6608bceb3f,657bb95b25000e4ba9e37fb6,0.02,0.02,0,136,136,145,1,fiveseven,,,,,,,,,,,,,,,,,,,,,,,,,,,,,,,,,,,,,,,,,,,,,,,,,,,,,,,,,,,,,,,,,,,,,,,,,,,,,,,,,,,,,,,,,,,,,,,,,,,,,,,,,,,,,,,,,,,,,,,,,,,,,,,,,,,,,,,
,,5eac4b0a1f8db726fc6060c8,2023-12-15_02h26.48.682,kallum_motion_pilot,2023.2.3,Win32,74.96251874,5eac4b0a1f8db726fc6060c8,657bb317c8798c6608bceb3f,657bb95b25000e4ba9e37fb6,0.02,0.02,0,137,137,156,1,sevenfive,,,,,,,,,,,,,,,,,,,,,,,,,,,,,,,,,,,,,,,,,,,,,,,,,,,,,,,,,,,,,,,,,,,,,,,,,,,,,,,,,,,,,,,,,,,,,,,,,,,,,,,,,,,,,,,,,,,,,,,,,,,,,,,,,,,,,,,
,,5eac4b0a1f8db726fc6060c8,2023-12-15_02h26.48.682,kallum_motion_pilot,2023.2.3,Win32,74.96251874,5eac4b0a1f8db726fc6060c8,657bb317c8798c6608bceb3f,657bb95b25000e4ba9e37fb6,0.02,0.02,0,138,138,59,1,twofour,,,,,,,,,,,,,,,,,,,,,,,,,,,,,,,,,,,,,,,,,,,,,,,,,,,,,,,,,,,,,,,,,,,,,,,,,,,,,,,,,,,,,,,,,,,,,,,,,,,,,,,,,,,,,,,,,,,,,,,,,,,,,,,,,,,,,,,
,,5eac4b0a1f8db726fc6060c8,2023-12-15_02h26.48.682,kallum_motion_pilot,2023.2.3,Win32,74.96251874,5eac4b0a1f8db726fc6060c8,657bb317c8798c6608bceb3f,657bb95b25000e4ba9e37fb6,0.02,0.02,0,139,139,26,1,twoone,,,,,,,,,,,,,,,,,,,,,,,,,,,,,,,,,,,,,,,,,,,,,,,,,,,,,,,,,,,,,,,,,,,,,,,,,,,,,,,,,,,,,,,,,,,,,,,,,,,,,,,,,,,,,,,,,,,,,,,,,,,,,,,,,,,,,,,
,,5eac4b0a1f8db726fc6060c8,2023-12-15_02h26.48.682,kallum_motion_pilot,2023.2.3,Win32,74.96251874,5eac4b0a1f8db726fc6060c8,657bb317c8798c6608bceb3f,657bb95b25000e4ba9e37fb6,0.02,0.02,0,140,140,129,1,fiveseven,,,,,,,,,,,,,,,,,,,,,,,,,,,,,,,,,,,,,,,,,,,,,,,,,,,,,,,,,,,,,,,,,,,,,,,,,,,,,,,,,,,,,,,,,,,,,,,,,,,,,,,,,,,,,,,,,,,,,,,,,,,,,,,,,,,,,,,
,,5eac4b0a1f8db726fc6060c8,2023-12-15_02h26.48.682,kallum_motion_pilot,2023.2.3,Win32,74.96251874,5eac4b0a1f8db726fc6060c8,657bb317c8798c6608bceb3f,657bb95b25000e4ba9e37fb6,0.02,0.02,0,141,141,75,1,twofour,,,,,,,,,,,,,,,,,,,,,,,,,,,,,,,,,,,,,,,,,,,,,,,,,,,,,,,,,,,,,,,,,,,,,,,,,,,,,,,,,,,,,,,,,,,,,,,,,,,,,,,,,,,,,,,,,,,,,,,,,,,,,,,,,,,,,,,
,,5eac4b0a1f8db726fc6060c8,2023-12-15_02h26.48.682,kallum_motion_pilot,2023.2.3,Win32,74.96251874,5eac4b0a1f8db726fc6060c8,657bb317c8798c6608bceb3f,657bb95b25000e4ba9e37fb6,0.02,0.02,0,142,142,54,1,fourtwo,,,,,,,,,,,,,,,,,,,,,,,,,,,,,,,,,,,,,,,,,,,,,,,,,,,,,,,,,,,,,,,,,,,,,,,,,,,,,,,,,,,,,,,,,,,,,,,,,,,,,,,,,,,,,,,,,,,,,,,,,,,,,,,,,,,,,,,
,,5eac4b0a1f8db726fc6060c8,2023-12-15_02h26.48.682,kallum_motion_pilot,2023.2.3,Win32,74.96251874,5eac4b0a1f8db726fc6060c8,657bb317c8798c6608bceb3f,657bb95b25000e4ba9e37fb6,0.02,0.02,0,143,143,16,1,onetwo,,,,,,,,,,,,,,,,,,,,,,,,,,,,,,,,,,,,,,,,,,,,,,,,,,,,,,,,,,,,,,,,,,,,,,,,,,,,,,,,,,,,,,,,,,,,,,,,,,,,,,,,,,,,,,,,,,,,,,,,,,,,,,,,,,,,,,,
,,5eac4b0a1f8db726fc6060c8,2023-12-15_02h26.48.682,kallum_motion_pilot,2023.2.3,Win32,74.96251874,5eac4b0a1f8db726fc6060c8,657bb317c8798c6608bceb3f,657bb95b25000e4ba9e37fb6,0.02,0.02,0,144,144,74,1,twoone,,,,,,,,,,,,,,,,,,,,,,,,,,,,,,,,,,,,,,,,,,,,,,,,,,,,,,,,,,,,,,,,,,,,,,,,,,,,,,,,,,,,,,,,,,,,,,,,,,,,,,,,,,,,,,,,,,,,,,,,,,,,,,,,,,,,,,,
,,5eac4b0a1f8db726fc6060c8,2023-12-15_02h26.48.682,kallum_motion_pilot,2023.2.3,Win32,74.96251874,5eac4b0a1f8db726fc6060c8,657bb317c8798c6608bceb3f,657bb95b25000e4ba9e37fb6,0.02,0.02,0,145,145,122,1,sixfive,,,,,,,,,,,,,,,,,,,,,,,,,,,,,,,,,,,,,,,,,,,,,,,,,,,,,,,,,,,,,,,,,,,,,,,,,,,,,,,,,,,,,,,,,,,,,,,,,,,,,,,,,,,,,,,,,,,,,,,,,,,,,,,,,,,,,,,
,,5eac4b0a1f8db726fc6060c8,2023-12-15_02h26.48.682,kallum_motion_pilot,2023.2.3,Win32,74.96251874,5eac4b0a1f8db726fc6060c8,657bb317c8798c6608bceb3f,657bb95b25000e4ba9e37fb6,0.02,0.02,0,146,146,116,1,sevenfive,,,,,,,,,,,,,,,,,,,,,,,,,,,,,,,,,,,,,,,,,,,,,,,,,,,,,,,,,,,,,,,,,,,,,,,,,,,,,,,,,,,,,,,,,,,,,,,,,,,,,,,,,,,,,,,,,,,,,,,,,,,,,,,,,,,,,,,
,,5eac4b0a1f8db726fc6060c8,2023-12-15_02h26.48.682,kallum_motion_pilot,2023.2.3,Win32,74.96251874,5eac4b0a1f8db726fc6060c8,657bb317c8798c6608bceb3f,657bb95b25000e4ba9e37fb6,0.02,0.02,0,147,147,23,1,fourthree,,,,,,,,,,,,,,,,,,,,,,,,,,,,,,,,,,,,,,,,,,,,,,,,,,,,,,,,,,,,,,,,,,,,,,,,,,,,,,,,,,,,,,,,,,,,,,,,,,,,,,,,,,,,,,,,,,,,,,,,,,,,,,,,,,,,,,,
,,5eac4b0a1f8db726fc6060c8,2023-12-15_02h26.48.682,kallum_motion_pilot,2023.2.3,Win32,74.96251874,5eac4b0a1f8db726fc6060c8,657bb317c8798c6608bceb3f,657bb95b25000e4ba9e37fb6,0.02,0.02,0,148,148,68,1,threeone,,,,,,,,,,,,,,,,,,,,,,,,,,,,,,,,,,,,,,,,,,,,,,,,,,,,,,,,,,,,,,,,,,,,,,,,,,,,,,,,,,,,,,,,,,,,,,,,,,,,,,,,,,,,,,,,,,,,,,,,,,,,,,,,,,,,,,,
,,5eac4b0a1f8db726fc6060c8,2023-12-15_02h26.48.682,kallum_motion_pilot,2023.2.3,Win32,74.96251874,5eac4b0a1f8db726fc6060c8,657bb317c8798c6608bceb3f,657bb95b25000e4ba9e37fb6,0.02,0.02,0,149,149,84,1,sevenfive,,,,,,,,,,,,,,,,,,,,,,,,,,,,,,,,,,,,,,,,,,,,,,,,,,,,,,,,,,,,,,,,,,,,,,,,,,,,,,,,,,,,,,,,,,,,,,,,,,,,,,,,,,,,,,,,,,,,,,,,,,,,,,,,,,,,,,,
,,5eac4b0a1f8db726fc6060c8,2023-12-15_02h26.48.682,kallum_motion_pilot,2023.2.3,Win32,74.96251874,5eac4b0a1f8db726fc6060c8,657bb317c8798c6608bceb3f,657bb95b25000e4ba9e37fb6,0.02,0.02,0,150,150,3,1,twofour,,,,,,,,,,,,,,,,,,,,,,,,,,,,,,,,,,,,,,,,,,,,,,,,,,,,,,,,,,,,,,,,,,,,,,,,,,,,,,,,,,,,,,,,,,,,,,,,,,,,,,,,,,,,,,,,,,,,,,,,,,,,,,,,,,,,,,,
,,5eac4b0a1f8db726fc6060c8,2023-12-15_02h26.48.682,kallum_motion_pilot,2023.2.3,Win32,74.96251874,5eac4b0a1f8db726fc6060c8,657bb317c8798c6608bceb3f,657bb95b25000e4ba9e37fb6,0.02,0.02,0,151,151,91,1,sixeight,,,,,,,,,,,,,,,,,,,,,,,,,,,,,,,,,,,,,,,,,,,,,,,,,,,,,,,,,,,,,,,,,,,,,,,,,,,,,,,,,,,,,,,,,,,,,,,,,,,,,,,,,,,,,,,,,,,,,,,,,,,,,,,,,,,,,,,
,,5eac4b0a1f8db726fc6060c8,2023-12-15_02h26.48.682,kallum_motion_pilot,2023.2.3,Win32,74.96251874,5eac4b0a1f8db726fc6060c8,657bb317c8798c6608bceb3f,657bb95b25000e4ba9e37fb6,0.02,0.02,0,152,152,69,1,threefour,,,,,,,,,,,,,,,,,,,,,,,,,,,,,,,,,,,,,,,,,,,,,,,,,,,,,,,,,,,,,,,,,,,,,,,,,,,,,,,,,,,,,,,,,,,,,,,,,,,,,,,,,,,,,,,,,,,,,,,,,,,,,,,,,,,,,,,
,,5eac4b0a1f8db726fc6060c8,2023-12-15_02h26.48.682,kallum_motion_pilot,2023.2.3,Win32,74.96251874,5eac4b0a1f8db726fc6060c8,657bb317c8798c6608bceb3f,657bb95b25000e4ba9e37fb6,0.02,0.02,0,153,153,112,1,fivesix,,,,,,,,,,,,,,,,,,,,,,,,,,,,,,,,,,,,,,,,,,,,,,,,,,,,,,,,,,,,,,,,,,,,,,,,,,,,,,,,,,,,,,,,,,,,,,,,,,,,,,,,,,,,,,,,,,,,,,,,,,,,,,,,,,,,,,,
,,5eac4b0a1f8db726fc6060c8,2023-12-15_02h26.48.682,kallum_motion_pilot,2023.2.3,Win32,74.96251874,5eac4b0a1f8db726fc6060c8,657bb317c8798c6608bceb3f,657bb95b25000e4ba9e37fb6,0.02,0.02,0,154,154,30,1,fourtwo,,,,,,,,,,,,,,,,,,,,,,,,,,,,,,,,,,,,,,,,,,,,,,,,,,,,,,,,,,,,,,,,,,,,,,,,,,,,,,,,,,,,,,,,,,,,,,,,,,,,,,,,,,,,,,,,,,,,,,,,,,,,,,,,,,,,,,,
,,5eac4b0a1f8db726fc6060c8,2023-12-15_02h26.48.682,kallum_motion_pilot,2023.2.3,Win32,74.96251874,5eac4b0a1f8db726fc6060c8,657bb317c8798c6608bceb3f,657bb95b25000e4ba9e37fb6,0.02,0.02,0,155,155,114,1,sixfive,,,,,,,,,,,,,,,,,,,,,,,,,,,,,,,,,,,,,,,,,,,,,,,,,,,,,,,,,,,,,,,,,,,,,,,,,,,,,,,,,,,,,,,,,,,,,,,,,,,,,,,,,,,,,,,,,,,,,,,,,,,,,,,,,,,,,,,
,,5eac4b0a1f8db726fc6060c8,2023-12-15_02h26.48.682,kallum_motion_pilot,2023.2.3,Win32,74.96251874,5eac4b0a1f8db726fc6060c8,657bb317c8798c6608bceb3f,657bb95b25000e4ba9e37fb6,0.02,0.02,0,156,156,148,1,sevenfive,,,,,,,,,,,,,,,,,,,,,,,,,,,,,,,,,,,,,,,,,,,,,,,,,,,,,,,,,,,,,,,,,,,,,,,,,,,,,,,,,,,,,,,,,,,,,,,,,,,,,,,,,,,,,,,,,,,,,,,,,,,,,,,,,,,,,,,
,,5eac4b0a1f8db726fc6060c8,2023-12-15_02h26.48.682,kallum_motion_pilot,2023.2.3,Win32,74.96251874,5eac4b0a1f8db726fc6060c8,657bb317c8798c6608bceb3f,657bb95b25000e4ba9e37fb6,0.02,0.02,0,157,157,100,1,sevenfive,,,,,,,,,,,,,,,,,,,,,,,,,,,,,,,,,,,,,,,,,,,,,,,,,,,,,,,,,,,,,,,,,,,,,,,,,,,,,,,,,,,,,,,,,,,,,,,,,,,,,,,,,,,,,,,,,,,,,,,,,,,,,,,,,,,,,,,
,,5eac4b0a1f8db726fc6060c8,2023-12-15_02h26.48.682,kallum_motion_pilot,2023.2.3,Win32,74.96251874,5eac4b0a1f8db726fc6060c8,657bb317c8798c6608bceb3f,657bb95b25000e4ba9e37fb6,0.02,0.02,0,158,158,12,1,threeone,,,,,,,,,,,,,,,,,,,,,,,,,,,,,,,,,,,,,,,,,,,,,,,,,,,,,,,,,,,,,,,,,,,,,,,,,,,,,,,,,,,,,,,,,,,,,,,,,,,,,,,,,,,,,,,,,,,,,,,,,,,,,,,,,,,,,,,
,,5eac4b0a1f8db726fc6060c8,2023-12-15_02h26.48.682,kallum_motion_pilot,2023.2.3,Win32,74.96251874,5eac4b0a1f8db726fc6060c8,657bb317c8798c6608bceb3f,657bb95b25000e4ba9e37fb6,0.02,0.02,0,159,159,152,1,fivesix,,,,,,,,,,,,,,,,,,,,,,,,,,,,,,,,,,,,,,,,,,,,,,,,,,,,,,,,,,,,,,,,,,,,,,,,,,,,,,,,,,,,,,,,,,,,,,,,,,,,,,,,,,,,,,,,,,,,,,,,,,,,,,,,,,,,,,,
,,5eac4b0a1f8db726fc6060c8,2023-12-15_02h26.48.682,kallum_motion_pilot,2023.2.3,Win32,74.96251874,5eac4b0a1f8db726fc6060c8,657bb317c8798c6608bceb3f,657bb95b25000e4ba9e37fb6,0.02,0.02,0,160,160,61,1,threefour,,,,,,,,,,,,,,,,,,,,,,,,,,,,,,,,,,,,,,,,,,,,,,,,,,,,,,,,,,,,,,,,,,,,,,,,,,,,,,,,,,,,,,,,,,,,,,,,,,,,,,,,,,,,,,,,,,,,,,,,,,,,,,,,,,,,,,,
,,5eac4b0a1f8db726fc6060c8,2023-12-15_02h26.48.682,kallum_motion_pilot,2023.2.3,Win32,74.96251874,5eac4b0a1f8db726fc6060c8,657bb317c8798c6608bceb3f,657bb95b25000e4ba9e37fb6,0.021,0.021,0,161,161,107,1,sixeight,,,,,,,,,,,,,,,,,,,,,,,,,,,,,,,,,,,,,,,,,,,,,,,,,,,,,,,,,,,,,,,,,,,,,,,,,,,,,,,,,,,,,,,,,,,,,,,,,,,,,,,,,,,,,,,,,,,,,,,,,,,,,,,,,,,,,,,
,,5eac4b0a1f8db726fc6060c8,2023-12-15_02h26.48.682,kallum_motion_pilot,2023.2.3,Win32,74.96251874,5eac4b0a1f8db726fc6060c8,657bb317c8798c6608bceb3f,657bb95b25000e4ba9e37fb6,0.021,0.021,1,0,162,32,1,onetwo,,,,,,,,,,,,,,,,,,,,,,,,,,,,,,,,,,,,,,,,,,,,,,,,,,,,,,,,,,,,,,,,,,,,,,,,,,,,,,,,,,,,,,,,,,,,,,,,,,,,,,,,,,,,,,,,,,,,,,,,,,,,,,,,,,,,,,,
,,5eac4b0a1f8db726fc6060c8,2023-12-15_02h26.48.682,kallum_motion_pilot,2023.2.3,Win32,74.96251874,5eac4b0a1f8db726fc6060c8,657bb317c8798c6608bceb3f,657bb95b25000e4ba9e37fb6,0.021,0.021,1,1,163,22,1,fourtwo,,,,,,,,,,,,,,,,,,,,,,,,,,,,,,,,,,,,,,,,,,,,,,,,,,,,,,,,,,,,,,,,,,,,,,,,,,,,,,,,,,,,,,,,,,,,,,,,,,,,,,,,,,,,,,,,,,,,,,,,,,,,,,,,,,,,,,,
,,5eac4b0a1f8db726fc6060c8,2023-12-15_02h26.48.682,kallum_motion_pilot,2023.2.3,Win32,74.96251874,5eac4b0a1f8db726fc6060c8,657bb317c8798c6608bceb3f,657bb95b25000e4ba9e37fb6,0.021,0.021,1,2,164,65,1,onethree,,,,,,,,,,,,,,,,,,,,,,,,,,,,,,,,,,,,,,,,,,,,,,,,,,,,,,,,,,,,,,,,,,,,,,,,,,,,,,,,,,,,,,,,,,,,,,,,,,,,,,,,,,,,,,,,,,,,,,,,,,,,,,,,,,,,,,,
,,5eac4b0a1f8db726fc6060c8,2023-12-15_02h26.48.682,kallum_motion_pilot,2023.2.3,Win32,74.96251874,5eac4b0a1f8db726fc6060c8,657bb317c8798c6608bceb3f,657bb95b25000e4ba9e37fb6,0.021,0.021,1,3,165,95,1,eightseven,,,,,,,,,,,,,,,,,,,,,,,,,,,,,,,,,,,,,,,,,,,,,,,,,,,,,,,,,,,,,,,,,,,,,,,,,,,,,,,,,,,,,,,,,,,,,,,,,,,,,,,,,,,,,,,,,,,,,,,,,,,,,,,,,,,,,,,
,,5eac4b0a1f8db726fc6060c8,2023-12-15_02h26.48.682,kallum_motion_pilot,2023.2.3,Win32,74.96251874,5eac4b0a1f8db726fc6060c8,657bb317c8798c6608bceb3f,657bb95b25000e4ba9e37fb6,0.021,0.021,1,4,166,39,1,fourthree,,,,,,,,,,,,,,,,,,,,,,,,,,,,,,,,,,,,,,,,,,,,,,,,,,,,,,,,,,,,,,,,,,,,,,,,,,,,,,,,,,,,,,,,,,,,,,,,,,,,,,,,,,,,,,,,,,,,,,,,,,,,,,,,,,,,,,,
,,5eac4b0a1f8db726fc6060c8,2023-12-15_02h26.48.682,kallum_motion_pilot,2023.2.3,Win32,74.96251874,5eac4b0a1f8db726fc6060c8,657bb317c8798c6608bceb3f,657bb95b25000e4ba9e37fb6,0.021,0.021,1,5,167,20,1,threeone,,,,,,,,,,,,,,,,,,,,,,,,,,,,,,,,,,,,,,,,,,,,,,,,,,,,,,,,,,,,,,,,,,,,,,,,,,,,,,,,,,,,,,,,,,,,,,,,,,,,,,,,,,,,,,,,,,,,,,,,,,,,,,,,,,,,,,,
,,5eac4b0a1f8db726fc6060c8,2023-12-15_02h26.48.682,kallum_motion_pilot,2023.2.3,Win32,74.96251874,5eac4b0a1f8db726fc6060c8,657bb317c8798c6608bceb3f,657bb95b25000e4ba9e37fb6,0.021,0.021,1,6,168,94,1,eightsix,,,,,,,,,,,,,,,,,,,,,,,,,,,,,,,,,,,,,,,,,,,,,,,,,,,,,,,,,,,,,,,,,,,,,,,,,,,,,,,,,,,,,,,,,,,,,,,,,,,,,,,,,,,,,,,,,,,,,,,,,,,,,,,,,,,,,,,
,,5eac4b0a1f8db726fc6060c8,2023-12-15_02h26.48.682,kallum_motion_pilot,2023.2.3,Win32,74.96251874,5eac4b0a1f8db726fc6060c8,657bb317c8798c6608bceb3f,657bb95b25000e4ba9e37fb6,0.021,0.021,1,7,169,67,1,twofour,,,,,,,,,,,,,,,,,,,,,,,,,,,,,,,,,,,,,,,,,,,,,,,,,,,,,,,,,,,,,,,,,,,,,,,,,,,,,,,,,,,,,,,,,,,,,,,,,,,,,,,,,,,,,,,,,,,,,,,,,,,,,,,,,,,,,,,
,,5eac4b0a1f8db726fc6060c8,2023-12-15_02h26.48.682,kallum_motion_pilot,2023.2.3,Win32,74.96251874,5eac4b0a1f8db726fc6060c8,657bb317c8798c6608bceb3f,657bb95b25000e4ba9e37fb6,0.021,0.021,1,8,170,0,1,onetwo,,,,,,,,,,,,,,,,,,,,,,,,,,,,,,,,,,,,,,,,,,,,,,,,,,,,,,,,,,,,,,,,,,,,,,,,,,,,,,,,,,,,,,,,,,,,,,,,,,,,,,,,,,,,,,,,,,,,,,,,,,,,,,,,,,,,,,,
,,5eac4b0a1f8db726fc6060c8,2023-12-15_02h26.48.682,kallum_motion_pilot,2023.2.3,Win32,74.96251874,5eac4b0a1f8db726fc6060c8,657bb317c8798c6608bceb3f,657bb95b25000e4ba9e37fb6,0.021,0.021,1,9,171,24,1,onetwo,,,,,,,,,,,,,,,,,,,,,,,,,,,,,,,,,,,,,,,,,,,,,,,,,,,,,,,,,,,,,,,,,,,,,,,,,,,,,,,,,,,,,,,,,,,,,,,,,,,,,,,,,,,,,,,,,,,,,,,,,,,,,,,,,,,,,,,
,,5eac4b0a1f8db726fc6060c8,2023-12-15_02h26.48.682,kallum_motion_pilot,2023.2.3,Win32,74.96251874,5eac4b0a1f8db726fc6060c8,657bb317c8798c6608bceb3f,657bb95b25000e4ba9e37fb6,0.021,0.021,1,10,172,12,1,threeone,,,,,,,,,,,,,,,,,,,,,,,,,,,,,,,,,,,,,,,,,,,,,,,,,,,,,,,,,,,,,,,,,,,,,,,,,,,,,,,,,,,,,,,,,,,,,,,,,,,,,,,,,,,,,,,,,,,,,,,,,,,,,,,,,,,,,,,
,,5eac4b0a1f8db726fc6060c8,2023-12-15_02h26.48.682,kallum_motion_pilot,2023.2.3,Win32,74.96251874,5eac4b0a1f8db726fc6060c8,657bb317c8798c6608bceb3f,657bb95b25000e4ba9e37fb6,0.021,0.021,1,11,173,44,1,threeone,,,,,,,,,,,,,,,,,,,,,,,,,,,,,,,,,,,,,,,,,,,,,,,,,,,,,,,,,,,,,,,,,,,,,,,,,,,,,,,,,,,,,,,,,,,,,,,,,,,,,,,,,,,,,,,,,,,,,,,,,,,,,,,,,,,,,,,
,,5eac4b0a1f8db726fc6060c8,2023-12-15_02h26.48.682,kallum_motion_pilot,2023.2.3,Win32,74.96251874,5eac4b0a1f8db726fc6060c8,657bb317c8798c6608bceb3f,657bb95b25000e4ba9e37fb6,0.021,0.021,1,12,174,58,1,twoone,,,,,,,,,,,,,,,,,,,,,,,,,,,,,,,,,,,,,,,,,,,,,,,,,,,,,,,,,,,,,,,,,,,,,,,,,,,,,,,,,,,,,,,,,,,,,,,,,,,,,,,,,,,,,,,,,,,,,,,,,,,,,,,,,,,,,,,
,,5eac4b0a1f8db726fc6060c8,2023-12-15_02h26.48.682,kallum_motion_pilot,2023.2.3,Win32,74.96251874,5eac4b0a1f8db726fc6060c8,657bb317c8798c6608bceb3f,657bb95b25000e4ba9e37fb6,0.021,0.021,1,13,175,60,1,threeone,,,,,,,,,,,,,,,,,,,,,,,,,,,,,,,,,,,,,,,,,,,,,,,,,,,,,,,,,,,,,,,,,,,,,,,,,,,,,,,,,,,,,,,,,,,,,,,,,,,,,,,,,,,,,,,,,,,,,,,,,,,,,,,,,,,,,,,
,,5eac4b0a1f8db726fc6060c8,2023-12-15_02h26.48.682,kallum_motion_pilot,2023.2.3,Win32,74.96251874,5eac4b0a1f8db726fc6060c8,657bb317c8798c6608bceb3f,657bb95b25000e4ba9e37fb6,0.021,0.021,1,14,176,18,1,twoone,,,,,,,,,,,,,,,,,,,,,,,,,,,,,,,,,,,,,,,,,,,,,,,,,,,,,,,,,,,,,,,,,,,,,,,,,,,,,,,,,,,,,,,,,,,,,,,,,,,,,,,,,,,,,,,,,,,,,,,,,,,,,,,,,,,,,,,
,,5eac4b0a1f8db726fc6060c8,2023-12-15_02h26.48.682,kallum_motion_pilot,2023.2.3,Win32,74.96251874,5eac4b0a1f8db726fc6060c8,657bb317c8798c6608bceb3f,657bb95b25000e4ba9e37fb6,0.021,0.021,1,15,177,89,1,fiveseven,,,,,,,,,,,,,,,,,,,,,,,,,,,,,,,,,,,,,,,,,,,,,,,,,,,,,,,,,,,,,,,,,,,,,,,,,,,,,,,,,,,,,,,,,,,,,,,,,,,,,,,,,,,,,,,,,,,,,,,,,,,,,,,,,,,,,,,
,,5eac4b0a1f8db726fc6060c8,2023-12-15_02h26.48.682,kallum_motion_pilot,2023.2.3,Win32,74.96251874,5eac4b0a1f8db726fc6060c8,657bb317c8798c6608bceb3f,657bb95b25000e4ba9e37fb6,0.021,0.021,1,16,178,56,1,onetwo,,,,,,,,,,,,,,,,,,,,,,,,,,,,,,,,,,,,,,,,,,,,,,,,,,,,,,,,,,,,,,,,,,,,,,,,,,,,,,,,,,,,,,,,,,,,,,,,,,,,,,,,,,,,,,,,,,,,,,,,,,,,,,,,,,,,,,,
,,5eac4b0a1f8db726fc6060c8,2023-12-15_02h26.48.682,kallum_motion_pilot,2023.2.3,Win32,74.96251874,5eac4b0a1f8db726fc6060c8,657bb317c8798c6608bceb3f,657bb95b25000e4ba9e37fb6,0.021,0.021,1,17,179,99,1,sixeight,,,,,,,,,,,,,,,,,,,,,,,,,,,,,,,,,,,,,,,,,,,,,,,,,,,,,,,,,,,,,,,,,,,,,,,,,,,,,,,,,,,,,,,,,,,,,,,,,,,,,,,,,,,,,,,,,,,,,,,,,,,,,,,,,,,,,,,
,,5eac4b0a1f8db726fc6060c8,2023-12-15_02h26.48.682,kallum_motion_pilot,2023.2.3,Win32,74.96251874,5eac4b0a1f8db726fc6060c8,657bb317c8798c6608bceb3f,657bb95b25000e4ba9e37fb6,0.021,0.021,1,18,180,78,1,fourtwo,,,,,,,,,,,,,,,,,,,,,,,,,,,,,,,,,,,,,,,,,,,,,,,,,,,,,,,,,,,,,,,,,,,,,,,,,,,,,,,,,,,,,,,,,,,,,,,,,,,,,,,,,,,,,,,,,,,,,,,,,,,,,,,,,,,,,,,
,,5eac4b0a1f8db726fc6060c8,2023-12-15_02h26.48.682,kallum_motion_pilot,2023.2.3,Win32,74.96251874,5eac4b0a1f8db726fc6060c8,657bb317c8798c6608bceb3f,657bb95b25000e4ba9e37fb6,0.021,0.021,1,19,181,19,1,twofour,,,,,,,,,,,,,,,,,,,,,,,,,,,,,,,,,,,,,,,,,,,,,,,,,,,,,,,,,,,,,,,,,,,,,,,,,,,,,,,,,,,,,,,,,,,,,,,,,,,,,,,,,,,,,,,,,,,,,,,,,,,,,,,,,,,,,,,
,,5eac4b0a1f8db726fc6060c8,2023-12-15_02h26.48.682,kallum_motion_pilot,2023.2.3,Win32,74.96251874,5eac4b0a1f8db726fc6060c8,657bb317c8798c6608bceb3f,657bb95b25000e4ba9e37fb6,0.021,0.021,1,20,182,119,1,eightseven,,,,,,,,,,,,,,,,,,,,,,,,,,,,,,,,,,,,,,,,,,,,,,,,,,,,,,,,,,,,,,,,,,,,,,,,,,,,,,,,,,,,,,,,,,,,,,,,,,,,,,,,,,,,,,,,,,,,,,,,,,,,,,,,,,,,,,,
,,5eac4b0a1f8db726fc6060c8,2023-12-15_02h26.48.682,kallum_motion_pilot,2023.2.3,Win32,74.96251874,5eac4b0a1f8db726fc6060c8,657bb317c8798c6608bceb3f,657bb95b25000e4ba9e37fb6,0.021,0.021,1,21,183,105,1,fiveseven,,,,,,,,,,,,,,,,,,,,,,,,,,,,,,,,,,,,,,,,,,,,,,,,,,,,,,,,,,,,,,,,,,,,,,,,,,,,,,,,,,,,,,,,,,,,,,,,,,,,,,,,,,,,,,,,,,,,,,,,,,,,,,,,,,,,,,,
,,5eac4b0a1f8db726fc6060c8,2023-12-15_02h26.48.682,kallum_motion_pilot,2023.2.3,Win32,74.96251874,5eac4b0a1f8db726fc6060c8,657bb317c8798c6608bceb3f,657bb95b25000e4ba9e37fb6,0.021,0.021,1,22,184,52,1,threeone,,,,,,,,,,,,,,,,,,,,,,,,,,,,,,,,,,,,,,,,,,,,,,,,,,,,,,,,,,,,,,,,,,,,,,,,,,,,,,,,,,,,,,,,,,,,,,,,,,,,,,,,,,,,,,,,,,,,,,,,,,,,,,,,,,,,,,,
,,5eac4b0a1f8db726fc6060c8,2023-12-15_02h26.48.682,kallum_motion_pilot,2023.2.3,Win32,74.96251874,5eac4b0a1f8db726fc6060c8,657bb317c8798c6608bceb3f,657bb95b25000e4ba9e37fb6,0.021,0.021,1,23,185,7,1,fourthree,,,,,,,,,,,,,,,,,,,,,,,,,,,,,,,,,,,,,,,,,,,,,,,,,,,,,,,,,,,,,,,,,,,,,,,,,,,,,,,,,,,,,,,,,,,,,,,,,,,,,,,,,,,,,,,,,,,,,,,,,,,,,,,,,,,,,,,
,,5eac4b0a1f8db726fc6060c8,2023-12-15_02h26.48.682,kallum_motion_pilot,2023.2.3,Win32,74.96251874,5eac4b0a1f8db726fc6060c8,657bb317c8798c6608bceb3f,657bb95b25000e4ba9e37fb6,0.021,0.021,1,24,186,35,1,twofour,,,,,,,,,,,,,,,,,,,,,,,,,,,,,,,,,,,,,,,,,,,,,,,,,,,,,,,,,,,,,,,,,,,,,,,,,,,,,,,,,,,,,,,,,,,,,,,,,,,,,,,,,,,,,,,,,,,,,,,,,,,,,,,,,,,,,,,
,,5eac4b0a1f8db726fc6060c8,2023-12-15_02h26.48.682,kallum_motion_pilot,2023.2.3,Win32,74.96251874,5eac4b0a1f8db726fc6060c8,657bb317c8798c6608bceb3f,657bb95b25000e4ba9e37fb6,0.022,0.022,1,25,187,123,1,sixeight,,,,,,,,,,,,,,,,,,,,,,,,,,,,,,,,,,,,,,,,,,,,,,,,,,,,,,,,,,,,,,,,,,,,,,,,,,,,,,,,,,,,,,,,,,,,,,,,,,,,,,,,,,,,,,,,,,,,,,,,,,,,,,,,,,,,,,,
,,5eac4b0a1f8db726fc6060c8,2023-12-15_02h26.48.682,kallum_motion_pilot,2023.2.3,Win32,74.96251874,5eac4b0a1f8db726fc6060c8,657bb317c8798c6608bceb3f,657bb95b25000e4ba9e37fb6,0.022,0.022,1,26,188,86,1,eightsix,,,,,,,,,,,,,,,,,,,,,,,,,,,,,,,,,,,,,,,,,,,,,,,,,,,,,,,,,,,,,,,,,,,,,,,,,,,,,,,,,,,,,,,,,,,,,,,,,,,,,,,,,,,,,,,,,,,,,,,,,,,,,,,,,,,,,,,
,,5eac4b0a1f8db726fc6060c8,2023-12-15_02h26.48.682,kallum_motion_pilot,2023.2.3,Win32,74.96251874,5eac4b0a1f8db726fc6060c8,657bb317c8798c6608bceb3f,657bb95b25000e4ba9e37fb6,0.022,0.022,1,27,189,61,1,threefour,,,,,,,,,,,,,,,,,,,,,,,,,,,,,,,,,,,,,,,,,,,,,,,,,,,,,,,,,,,,,,,,,,,,,,,,,,,,,,,,,,,,,,,,,,,,,,,,,,,,,,,,,,,,,,,,,,,,,,,,,,,,,,,,,,,,,,,
,,5eac4b0a1f8db726fc6060c8,2023-12-15_02h26.48.682,kallum_motion_pilot,2023.2.3,Win32,74.96251874,5eac4b0a1f8db726fc6060c8,657bb317c8798c6608bceb3f,657bb95b25000e4ba9e37fb6,0.022,0.022,1,28,190,16,1,onetwo,,,,,,,,,,,,,,,,,,,,,,,,,,,,,,,,,,,,,,,,,,,,,,,,,,,,,,,,,,,,,,,,,,,,,,,,,,,,,,,,,,,,,,,,,,,,,,,,,,,,,,,,,,,,,,,,,,,,,,,,,,,,,,,,,,,,,,,
,,5eac4b0a1f8db726fc6060c8,2023-12-15_02h26.48.682,kallum_motion_pilot,2023.2.3,Win32,74.96251874,5eac4b0a1f8db726fc6060c8,657bb317c8798c6608bceb3f,657bb95b25000e4ba9e37fb6,0.022,0.022,1,29,191,104,1,fivesix,,,,,,,,,,,,,,,,,,,,,,,,,,,,,,,,,,,,,,,,,,,,,,,,,,,,,,,,,,,,,,,,,,,,,,,,,,,,,,,,,,,,,,,,,,,,,,,,,,,,,,,,,,,,,,,,,,,,,,,,,,,,,,,,,,,,,,,
,,5eac4b0a1f8db726fc6060c8,2023-12-15_02h26.48.682,kallum_motion_pilot,2023.2.3,Win32,74.96251874,5eac4b0a1f8db726fc6060c8,657bb317c8798c6608bceb3f,657bb95b25000e4ba9e37fb6,0.022,0.022,1,30,192,91,1,sixeight,,,,,,,,,,,,,,,,,,,,,,,,,,,,,,,,,,,,,,,,,,,,,,,,,,,,,,,,,,,,,,,,,,,,,,,,,,,,,,,,,,,,,,,,,,,,,,,,,,,,,,,,,,,,,,,,,,,,,,,,,,,,,,,,,,,,,,,
,,5eac4b0a1f8db726fc6060c8,2023-12-15_02h26.48.682,kallum_motion_pilot,2023.2.3,Win32,74.96251874,5eac4b0a1f8db726fc6060c8,657bb317c8798c6608bceb3f,657bb95b25000e4ba9e37fb6,0.022,0.022,1,31,193,88,1,fivesix,,,,,,,,,,,,,,,,,,,,,,,,,,,,,,,,,,,,,,,,,,,,,,,,,,,,,,,,,,,,,,,,,,,,,,,,,,,,,,,,,,,,,,,,,,,,,,,,,,,,,,,,,,,,,,,,,,,,,,,,,,,,,,,,,,,,,,,
,,5eac4b0a1f8db726fc6060c8,2023-12-15_02h26.48.682,kallum_motion_pilot,2023.2.3,Win32,74.96251874,5eac4b0a1f8db726fc6060c8,657bb317c8798c6608bceb3f,657bb95b25000e4ba9e37fb6,0.022,0.022,1,32,194,13,1,threefour,,,,,,,,,,,,,,,,,,,,,,,,,,,,,,,,,,,,,,,,,,,,,,,,,,,,,,,,,,,,,,,,,,,,,,,,,,,,,,,,,,,,,,,,,,,,,,,,,,,,,,,,,,,,,,,,,,,,,,,,,,,,,,,,,,,,,,,
,,5eac4b0a1f8db726fc6060c8,2023-12-15_02h26.48.682,kallum_motion_pilot,2023.2.3,Win32,74.96251874,5eac4b0a1f8db726fc6060c8,657bb317c8798c6608bceb3f,657bb95b25000e4ba9e37fb6,0.022,0.022,1,33,195,143,1,eightseven,,,,,,,,,,,,,,,,,,,,,,,,,,,,,,,,,,,,,,,,,,,,,,,,,,,,,,,,,,,,,,,,,,,,,,,,,,,,,,,,,,,,,,,,,,,,,,,,,,,,,,,,,,,,,,,,,,,,,,,,,,,,,,,,,,,,,,,
,,5eac4b0a1f8db726fc6060c8,2023-12-15_02h26.48.682,kallum_motion_pilot,2023.2.3,Win32,74.96251874,5eac4b0a1f8db726fc6060c8,657bb317c8798c6608bceb3f,657bb95b25000e4ba9e37fb6,0.022,0.022,1,34,196,147,1,sixeight,,,,,,,,,,,,,,,,,,,,,,,,,,,,,,,,,,,,,,,,,,,,,,,,,,,,,,,,,,,,,,,,,,,,,,,,,,,,,,,,,,,,,,,,,,,,,,,,,,,,,,,,,,,,,,,,,,,,,,,,,,,,,,,,,,,,,,,
,,5eac4b0a1f8db726fc6060c8,2023-12-15_02h26.48.682,kallum_motion_pilot,2023.2.3,Win32,74.96251874,5eac4b0a1f8db726fc6060c8,657bb317c8798c6608bceb3f,657bb95b25000e4ba9e37fb6,0.022,0.022,1,35,197,2,1,twoone,,,,,,,,,,,,,,,,,,,,,,,,,,,,,,,,,,,,,,,,,,,,,,,,,,,,,,,,,,,,,,,,,,,,,,,,,,,,,,,,,,,,,,,,,,,,,,,,,,,,,,,,,,,,,,,,,,,,,,,,,,,,,,,,,,,,,,,
,,5eac4b0a1f8db726fc6060c8,2023-12-15_02h26.48.682,kallum_motion_pilot,2023.2.3,Win32,74.96251874,5eac4b0a1f8db726fc6060c8,657bb317c8798c6608bceb3f,657bb95b25000e4ba9e37fb6,0.022,0.022,1,36,198,79,1,eightseven,,,,,,,,,,,,,,,,,,,,,,,,,,,,,,,,,,,,,,,,,,,,,,,,,,,,,,,,,,,,,,,,,,,,,,,,,,,,,,,,,,,,,,,,,,,,,,,,,,,,,,,,,,,,,,,,,,,,,,,,,,,,,,,,,,,,,,,
,,5eac4b0a1f8db726fc6060c8,2023-12-15_02h26.48.682,kallum_motion_pilot,2023.2.3,Win32,74.96251874,5eac4b0a1f8db726fc6060c8,657bb317c8798c6608bceb3f,657bb95b25000e4ba9e37fb6,0.022,0.022,1,37,199,100,1,sevenfive,,,,,,,,,,,,,,,,,,,,,,,,,,,,,,,,,,,,,,,,,,,,,,,,,,,,,,,,,,,,,,,,,,,,,,,,,,,,,,,,,,,,,,,,,,,,,,,,,,,,,,,,,,,,,,,,,,,,,,,,,,,,,,,,,,,,,,,
,,5eac4b0a1f8db726fc6060c8,2023-12-15_02h26.48.682,kallum_motion_pilot,2023.2.3,Win32,74.96251874,5eac4b0a1f8db726fc6060c8,657bb317c8798c6608bceb3f,657bb95b25000e4ba9e37fb6,0.022,0.022,1,38,200,93,1,seveneight,,,,,,,,,,,,,,,,,,,,,,,,,,,,,,,,,,,,,,,,,,,,,,,,,,,,,,,,,,,,,,,,,,,,,,,,,,,,,,,,,,,,,,,,,,,,,,,,,,,,,,,,,,,,,,,,,,,,,,,,,,,,,,,,,,,,,,,
,,5eac4b0a1f8db726fc6060c8,2023-12-15_02h26.48.682,kallum_motion_pilot,2023.2.3,Win32,74.96251874,5eac4b0a1f8db726fc6060c8,657bb317c8798c6608bceb3f,657bb95b25000e4ba9e37fb6,0.022,0.022,1,39,201,40,1,onetwo,,,,,,,,,,,,,,,,,,,,,,,,,,,,,,,,,,,,,,,,,,,,,,,,,,,,,,,,,,,,,,,,,,,,,,,,,,,,,,,,,,,,,,,,,,,,,,,,,,,,,,,,,,,,,,,,,,,,,,,,,,,,,,,,,,,,,,,
,,5eac4b0a1f8db726fc6060c8,2023-12-15_02h26.48.682,kallum_motion_pilot,2023.2.3,Win32,74.96251874,5eac4b0a1f8db726fc6060c8,657bb317c8798c6608bceb3f,657bb95b25000e4ba9e37fb6,0.023,0.023,1,40,202,36,1,threeone,,,,,,,,,,,,,,,,,,,,,,,,,,,,,,,,,,,,,,,,,,,,,,,,,,,,,,,,,,,,,,,,,,,,,,,,,,,,,,,,,,,,,,,,,,,,,,,,,,,,,,,,,,,,,,,,,,,,,,,,,,,,,,,,,,,,,,,
,,5eac4b0a1f8db726fc6060c8,2023-12-15_02h26.48.682,kallum_motion_pilot,2023.2.3,Win32,74.96251874,5eac4b0a1f8db726fc6060c8,657bb317c8798c6608bceb3f,657bb95b25000e4ba9e37fb6,0.023,0.023,1,41,203,128,1,fivesix,,,,,,,,,,,,,,,,,,,,,,,,,,,,,,,,,,,,,,,,,,,,,,,,,,,,,,,,,,,,,,,,,,,,,,,,,,,,,,,,,,,,,,,,,,,,,,,,,,,,,,,,,,,,,,,,,,,,,,,,,,,,,,,,,,,,,,,
,,5eac4b0a1f8db726fc6060c8,2023-12-15_02h26.48.682,kallum_motion_pilot,2023.2.3,Win32,74.96251874,5eac4b0a1f8db726fc6060c8,657bb317c8798c6608bceb3f,657bb95b25000e4ba9e37fb6,0.023,0.023,1,42,204,113,1,fiveseven,,,,,,,,,,,,,,,,,,,,,,,,,,,,,,,,,,,,,,,,,,,,,,,,,,,,,,,,,,,,,,,,,,,,,,,,,,,,,,,,,,,,,,,,,,,,,,,,,,,,,,,,,,,,,,,,,,,,,,,,,,,,,,,,,,,,,,,
,,5eac4b0a1f8db726fc6060c8,2023-12-15_02h26.48.682,kallum_motion_pilot,2023.2.3,Win32,74.96251874,5eac4b0a1f8db726fc6060c8,657bb317c8798c6608bceb3f,657bb95b25000e4ba9e37fb6,0.023,0.023,1,43,205,87,1,eightseven,,,,,,,,,,,,,,,,,,,,,,,,,,,,,,,,,,,,,,,,,,,,,,,,,,,,,,,,,,,,,,,,,,,,,,,,,,,,,,,,,,,,,,,,,,,,,,,,,,,,,,,,,,,,,,,,,,,,,,,,,,,,,,,,,,,,,,,
,,5eac4b0a1f8db726fc6060c8,2023-12-15_02h26.48.682,kallum_motion_pilot,2023.2.3,Win32,74.96251874,5eac4b0a1f8db726fc6060c8,657bb317c8798c6608bceb3f,657bb95b25000e4ba9e37fb6,0.023,0.023,1,44,206,74,1,twoone,,,,,,,,,,,,,,,,,,,,,,,,,,,,,,,,,,,,,,,,,,,,,,,,,,,,,,,,,,,,,,,,,,,,,,,,,,,,,,,,,,,,,,,,,,,,,,,,,,,,,,,,,,,,,,,,,,,,,,,,,,,,,,,,,,,,,,,
,,5eac4b0a1f8db726fc6060c8,2023-12-15_02h26.48.682,kallum_motion_pilot,2023.2.3,Win32,74.96251874,5eac4b0a1f8db726fc6060c8,657bb317c8798c6608bceb3f,657bb95b25000e4ba9e37fb6,0.023,0.023,1,45,207,107,1,sixeight,,,,,,,,,,,,,,,,,,,,,,,,,,,,,,,,,,,,,,,,,,,,,,,,,,,,,,,,,,,,,,,,,,,,,,,,,,,,,,,,,,,,,,,,,,,,,,,,,,,,,,,,,,,,,,,,,,,,,,,,,,,,,,,,,,,,,,,
,,5eac4b0a1f8db726fc6060c8,2023-12-15_02h26.48.682,kallum_motion_pilot,2023.2.3,Win32,74.96251874,5eac4b0a1f8db726fc6060c8,657bb317c8798c6608bceb3f,657bb95b25000e4ba9e37fb6,0.023,0.023,1,46,208,144,1,fivesix,,,,,,,,,,,,,,,,,,,,,,,,,,,,,,,,,,,,,,,,,,,,,,,,,,,,,,,,,,,,,,,,,,,,,,,,,,,,,,,,,,,,,,,,,,,,,,,,,,,,,,,,,,,,,,,,,,,,,,,,,,,,,,,,,,,,,,,
,,5eac4b0a1f8db726fc6060c8,2023-12-15_02h26.48.682,kallum_motion_pilot,2023.2.3,Win32,74.96251874,5eac4b0a1f8db726fc6060c8,657bb317c8798c6608bceb3f,657bb95b25000e4ba9e37fb6,0.023,0.023,1,47,209,31,1,fourthree,,,,,,,,,,,,,,,,,,,,,,,,,,,,,,,,,,,,,,,,,,,,,,,,,,,,,,,,,,,,,,,,,,,,,,,,,,,,,,,,,,,,,,,,,,,,,,,,,,,,,,,,,,,,,,,,,,,,,,,,,,,,,,,,,,,,,,,
,,5eac4b0a1f8db726fc6060c8,2023-12-15_02h26.48.682,kallum_motion_pilot,2023.2.3,Win32,74.96251874,5eac4b0a1f8db726fc6060c8,657bb317c8798c6608bceb3f,657bb95b25000e4ba9e37fb6,0.023,0.023,1,48,210,102,1,eightsix,,,,,,,,,,,,,,,,,,,,,,,,,,,,,,,,,,,,,,,,,,,,,,,,,,,,,,,,,,,,,,,,,,,,,,,,,,,,,,,,,,,,,,,,,,,,,,,,,,,,,,,,,,,,,,,,,,,,,,,,,,,,,,,,,,,,,,,
,,5eac4b0a1f8db726fc6060c8,2023-12-15_02h26.48.682,kallum_motion_pilot,2023.2.3,Win32,74.96251874,5eac4b0a1f8db726fc6060c8,657bb317c8798c6608bceb3f,657bb95b25000e4ba9e37fb6,0.023,0.023,1,49,211,126,1,eightsix,,,,,,,,,,,,,,,,,,,,,,,,,,,,,,,,,,,,,,,,,,,,,,,,,,,,,,,,,,,,,,,,,,,,,,,,,,,,,,,,,,,,,,,,,,,,,,,,,,,,,,,,,,,,,,,,,,,,,,,,,,,,,,,,,,,,,,,
,,5eac4b0a1f8db726fc6060c8,2023-12-15_02h26.48.682,kallum_motion_pilot,2023.2.3,Win32,74.96251874,5eac4b0a1f8db726fc6060c8,657bb317c8798c6608bceb3f,657bb95b25000e4ba9e37fb6,0.023,0.023,1,50,212,133,1,seveneight,,,,,,,,,,,,,,,,,,,,,,,,,,,,,,,,,,,,,,,,,,,,,,,,,,,,,,,,,,,,,,,,,,,,,,,,,,,,,,,,,,,,,,,,,,,,,,,,,,,,,,,,,,,,,,,,,,,,,,,,,,,,,,,,,,,,,,,
,,5eac4b0a1f8db726fc6060c8,2023-12-15_02h26.48.682,kallum_motion_pilot,2023.2.3,Win32,74.96251874,5eac4b0a1f8db726fc6060c8,657bb317c8798c6608bceb3f,657bb95b25000e4ba9e37fb6,0.023,0.023,1,51,213,145,1,fiveseven,,,,,,,,,,,,,,,,,,,,,,,,,,,,,,,,,,,,,,,,,,,,,,,,,,,,,,,,,,,,,,,,,,,,,,,,,,,,,,,,,,,,,,,,,,,,,,,,,,,,,,,,,,,,,,,,,,,,,,,,,,,,,,,,,,,,,,,
,,5eac4b0a1f8db726fc6060c8,2023-12-15_02h26.48.682,kallum_motion_pilot,2023.2.3,Win32,74.96251874,5eac4b0a1f8db726fc6060c8,657bb317c8798c6608bceb3f,657bb95b25000e4ba9e37fb6,0.023,0.023,1,52,214,8,1,onetwo,,,,,,,,,,,,,,,,,,,,,,,,,,,,,,,,,,,,,,,,,,,,,,,,,,,,,,,,,,,,,,,,,,,,,,,,,,,,,,,,,,,,,,,,,,,,,,,,,,,,,,,,,,,,,,,,,,,,,,,,,,,,,,,,,,,,,,,
,,5eac4b0a1f8db726fc6060c8,2023-12-15_02h26.48.682,kallum_motion_pilot,2023.2.3,Win32,74.96251874,5eac4b0a1f8db726fc6060c8,657bb317c8798c6608bceb3f,657bb95b25000e4ba9e37fb6,0.023,0.023,1,53,215,156,1,sevenfive,,,,,,,,,,,,,,,,,,,,,,,,,,,,,,,,,,,,,,,,,,,,,,,,,,,,,,,,,,,,,,,,,,,,,,,,,,,,,,,,,,,,,,,,,,,,,,,,,,,,,,,,,,,,,,,,,,,,,,,,,,,,,,,,,,,,,,,
,,5eac4b0a1f8db726fc6060c8,2023-12-15_02h26.48.682,kallum_motion_pilot,2023.2.3,Win32,74.96251874,5eac4b0a1f8db726fc6060c8,657bb317c8798c6608bceb3f,657bb95b25000e4ba9e37fb6,0.023,0.023,1,54,216,48,1,onetwo,,,,,,,,,,,,,,,,,,,,,,,,,,,,,,,,,,,,,,,,,,,,,,,,,,,,,,,,,,,,,,,,,,,,,,,,,,,,,,,,,,,,,,,,,,,,,,,,,,,,,,,,,,,,,,,,,,,,,,,,,,,,,,,,,,,,,,,
,,5eac4b0a1f8db726fc6060c8,2023-12-15_02h26.48.682,kallum_motion_pilot,2023.2.3,Win32,74.96251874,5eac4b0a1f8db726fc6060c8,657bb317c8798c6608bceb3f,657bb95b25000e4ba9e37fb6,0.023,0.023,1,55,217,139,1,sixeight,,,,,,,,,,,,,,,,,,,,,,,,,,,,,,,,,,,,,,,,,,,,,,,,,,,,,,,,,,,,,,,,,,,,,,,,,,,,,,,,,,,,,,,,,,,,,,,,,,,,,,,,,,,,,,,,,,,,,,,,,,,,,,,,,,,,,,,
,,5eac4b0a1f8db726fc6060c8,2023-12-15_02h26.48.682,kallum_motion_pilot,2023.2.3,Win32,74.96251874,5eac4b0a1f8db726fc6060c8,657bb317c8798c6608bceb3f,657bb95b25000e4ba9e37fb6,0.023,0.023,1,56,218,131,1,sixeight,,,,,,,,,,,,,,,,,,,,,,,,,,,,,,,,,,,,,,,,,,,,,,,,,,,,,,,,,,,,,,,,,,,,,,,,,,,,,,,,,,,,,,,,,,,,,,,,,,,,,,,,,,,,,,,,,,,,,,,,,,,,,,,,,,,,,,,
,,5eac4b0a1f8db726fc6060c8,2023-12-15_02h26.48.682,kallum_motion_pilot,2023.2.3,Win32,74.96251874,5eac4b0a1f8db726fc6060c8,657bb317c8798c6608bceb3f,657bb95b25000e4ba9e37fb6,0.023,0.023,1,57,219,158,1,eightsix,,,,,,,,,,,,,,,,,,,,,,,,,,,,,,,,,,,,,,,,,,,,,,,,,,,,,,,,,,,,,,,,,,,,,,,,,,,,,,,,,,,,,,,,,,,,,,,,,,,,,,,,,,,,,,,,,,,,,,,,,,,,,,,,,,,,,,,
,,5eac4b0a1f8db726fc6060c8,2023-12-15_02h26.48.682,kallum_motion_pilot,2023.2.3,Win32,74.96251874,5eac4b0a1f8db726fc6060c8,657bb317c8798c6608bceb3f,657bb95b25000e4ba9e37fb6,0.023,0.023,1,58,220,149,1,seveneight,,,,,,,,,,,,,,,,,,,,,,,,,,,,,,,,,,,,,,,,,,,,,,,,,,,,,,,,,,,,,,,,,,,,,,,,,,,,,,,,,,,,,,,,,,,,,,,,,,,,,,,,,,,,,,,,,,,,,,,,,,,,,,,,,,,,,,,
,,5eac4b0a1f8db726fc6060c8,2023-12-15_02h26.48.682,kallum_motion_pilot,2023.2.3,Win32,74.96251874,5eac4b0a1f8db726fc6060c8,657bb317c8798c6608bceb3f,657bb95b25000e4ba9e37fb6,0.023,0.023,1,59,221,137,1,fiveseven,,,,,,,,,,,,,,,,,,,,,,,,,,,,,,,,,,,,,,,,,,,,,,,,,,,,,,,,,,,,,,,,,,,,,,,,,,,,,,,,,,,,,,,,,,,,,,,,,,,,,,,,,,,,,,,,,,,,,,,,,,,,,,,,,,,,,,,
,,5eac4b0a1f8db726fc6060c8,2023-12-15_02h26.48.682,kallum_motion_pilot,2023.2.3,Win32,74.96251874,5eac4b0a1f8db726fc6060c8,657bb317c8798c6608bceb3f,657bb95b25000e4ba9e37fb6,0.023,0.023,1,60,222,136,1,fivesix,,,,,,,,,,,,,,,,,,,,,,,,,,,,,,,,,,,,,,,,,,,,,,,,,,,,,,,,,,,,,,,,,,,,,,,,,,,,,,,,,,,,,,,,,,,,,,,,,,,,,,,,,,,,,,,,,,,,,,,,,,,,,,,,,,,,,,,
,,5eac4b0a1f8db726fc6060c8,2023-12-15_02h26.48.682,kallum_motion_pilot,2023.2.3,Win32,74.96251874,5eac4b0a1f8db726fc6060c8,657bb317c8798c6608bceb3f,657bb95b25000e4ba9e37fb6,0.023,0.023,1,61,223,14,1,fourtwo,,,,,,,,,,,,,,,,,,,,,,,,,,,,,,,,,,,,,,,,,,,,,,,,,,,,,,,,,,,,,,,,,,,,,,,,,,,,,,,,,,,,,,,,,,,,,,,,,,,,,,,,,,,,,,,,,,,,,,,,,,,,,,,,,,,,,,,
,,5eac4b0a1f8db726fc6060c8,2023-12-15_02h26.48.682,kallum_motion_pilot,2023.2.3,Win32,74.96251874,5eac4b0a1f8db726fc6060c8,657bb317c8798c6608bceb3f,657bb95b25000e4ba9e37fb6,0.023,0.023,1,62,224,53,1,threefour,,,,,,,,,,,,,,,,,,,,,,,,,,,,,,,,,,,,,,,,,,,,,,,,,,,,,,,,,,,,,,,,,,,,,,,,,,,,,,,,,,,,,,,,,,,,,,,,,,,,,,,,,,,,,,,,,,,,,,,,,,,,,,,,,,,,,,,
,,5eac4b0a1f8db726fc6060c8,2023-12-15_02h26.48.682,kallum_motion_pilot,2023.2.3,Win32,74.96251874,5eac4b0a1f8db726fc6060c8,657bb317c8798c6608bceb3f,657bb95b25000e4ba9e37fb6,0.023,0.023,1,63,225,9,1,onethree,,,,,,,,,,,,,,,,,,,,,,,,,,,,,,,,,,,,,,,,,,,,,,,,,,,,,,,,,,,,,,,,,,,,,,,,,,,,,,,,,,,,,,,,,,,,,,,,,,,,,,,,,,,,,,,,,,,,,,,,,,,,,,,,,,,,,,,
,,5eac4b0a1f8db726fc6060c8,2023-12-15_02h26.48.682,kallum_motion_pilot,2023.2.3,Win32,74.96251874,5eac4b0a1f8db726fc6060c8,657bb317c8798c6608bceb3f,657bb95b25000e4ba9e37fb6,0.023,0.023,1,64,226,77,1,threefour,,,,,,,,,,,,,,,,,,,,,,,,,,,,,,,,,,,,,,,,,,,,,,,,,,,,,,,,,,,,,,,,,,,,,,,,,,,,,,,,,,,,,,,,,,,,,,,,,,,,,,,,,,,,,,,,,,,,,,,,,,,,,,,,,,,,,,,
,,5eac4b0a1f8db726fc6060c8,2023-12-15_02h26.48.682,kallum_motion_pilot,2023.2.3,Win32,74.96251874,5eac4b0a1f8db726fc6060c8,657bb317c8798c6608bceb3f,657bb95b25000e4ba9e37fb6,0.023,0.023,1,65,227,82,1,sixfive,,,,,,,,,,,,,,,,,,,,,,,,,,,,,,,,,,,,,,,,,,,,,,,,,,,,,,,,,,,,,,,,,,,,,,,,,,,,,,,,,,,,,,,,,,,,,,,,,,,,,,,,,,,,,,,,,,,,,,,,,,,,,,,,,,,,,,,
,,5eac4b0a1f8db726fc6060c8,2023-12-15_02h26.48.682,kallum_motion_pilot,2023.2.3,Win32,74.96251874,5eac4b0a1f8db726fc6060c8,657bb317c8798c6608bceb3f,657bb95b25000e4ba9e37fb6,0.023,0.023,1,66,228,132,1,sevenfive,,,,,,,,,,,,,,,,,,,,,,,,,,,,,,,,,,,,,,,,,,,,,,,,,,,,,,,,,,,,,,,,,,,,,,,,,,,,,,,,,,,,,,,,,,,,,,,,,,,,,,,,,,,,,,,,,,,,,,,,,,,,,,,,,,,,,,,
,,5eac4b0a1f8db726fc6060c8,2023-12-15_02h26.48.682,kallum_motion_pilot,2023.2.3,Win32,74.96251874,5eac4b0a1f8db726fc6060c8,657bb317c8798c6608bceb3f,657bb95b25000e4ba9e37fb6,0.023,0.023,1,67,229,127,1,eightseven,,,,,,,,,,,,,,,,,,,,,,,,,,,,,,,,,,,,,,,,,,,,,,,,,,,,,,,,,,,,,,,,,,,,,,,,,,,,,,,,,,,,,,,,,,,,,,,,,,,,,,,,,,,,,,,,,,,,,,,,,,,,,,,,,,,,,,,
,,5eac4b0a1f8db726fc6060c8,2023-12-15_02h26.48.682,kallum_motion_pilot,2023.2.3,Win32,74.96251874,5eac4b0a1f8db726fc6060c8,657bb317c8798c6608bceb3f,657bb95b25000e4ba9e37fb6,0.023,0.023,1,68,230,4,1,threeone,,,,,,,,,,,,,,,,,,,,,,,,,,,,,,,,,,,,,,,,,,,,,,,,,,,,,,,,,,,,,,,,,,,,,,,,,,,,,,,,,,,,,,,,,,,,,,,,,,,,,,,,,,,,,,,,,,,,,,,,,,,,,,,,,,,,,,,
,,5eac4b0a1f8db726fc6060c8,2023-12-15_02h26.48.682,kallum_motion_pilot,2023.2.3,Win32,74.96251874,5eac4b0a1f8db726fc6060c8,657bb317c8798c6608bceb3f,657bb95b25000e4ba9e37fb6,0.023,0.023,1,69,231,55,1,fourthree,,,,,,,,,,,,,,,,,,,,,,,,,,,,,,,,,,,,,,,,,,,,,,,,,,,,,,,,,,,,,,,,,,,,,,,,,,,,,,,,,,,,,,,,,,,,,,,,,,,,,,,,,,,,,,,,,,,,,,,,,,,,,,,,,,,,,,,
,,5eac4b0a1f8db726fc6060c8,2023-12-15_02h26.48.682,kallum_motion_pilot,2023.2.3,Win32,74.96251874,5eac4b0a1f8db726fc6060c8,657bb317c8798c6608bceb3f,657bb95b25000e4ba9e37fb6,0.023,0.023,1,70,232,34,1,twoone,,,,,,,,,,,,,,,,,,,,,,,,,,,,,,,,,,,,,,,,,,,,,,,,,,,,,,,,,,,,,,,,,,,,,,,,,,,,,,,,,,,,,,,,,,,,,,,,,,,,,,,,,,,,,,,,,,,,,,,,,,,,,,,,,,,,,,,
,,5eac4b0a1f8db726fc6060c8,2023-12-15_02h26.48.682,kallum_motion_pilot,2023.2.3,Win32,74.96251874,5eac4b0a1f8db726fc6060c8,657bb317c8798c6608bceb3f,657bb95b25000e4ba9e37fb6,0.023,0.023,1,71,233,121,1,fiveseven,,,,,,,,,,,,,,,,,,,,,,,,,,,,,,,,,,,,,,,,,,,,,,,,,,,,,,,,,,,,,,,,,,,,,,,,,,,,,,,,,,,,,,,,,,,,,,,,,,,,,,,,,,,,,,,,,,,,,,,,,,,,,,,,,,,,,,,
,,5eac4b0a1f8db726fc6060c8,2023-12-15_02h26.48.682,kallum_motion_pilot,2023.2.3,Win32,74.96251874,5eac4b0a1f8db726fc6060c8,657bb317c8798c6608bceb3f,657bb95b25000e4ba9e37fb6,0.023,0.023,1,72,234,161,1,fiveseven,,,,,,,,,,,,,,,,,,,,,,,,,,,,,,,,,,,,,,,,,,,,,,,,,,,,,,,,,,,,,,,,,,,,,,,,,,,,,,,,,,,,,,,,,,,,,,,,,,,,,,,,,,,,,,,,,,,,,,,,,,,,,,,,,,,,,,,
,,5eac4b0a1f8db726fc6060c8,2023-12-15_02h26.48.682,kallum_motion_pilot,2023.2.3,Win32,74.96251874,5eac4b0a1f8db726fc6060c8,657bb317c8798c6608bceb3f,657bb95b25000e4ba9e37fb6,0.023,0.023,1,73,235,64,1,onetwo,,,,,,,,,,,,,,,,,,,,,,,,,,,,,,,,,,,,,,,,,,,,,,,,,,,,,,,,,,,,,,,,,,,,,,,,,,,,,,,,,,,,,,,,,,,,,,,,,,,,,,,,,,,,,,,,,,,,,,,,,,,,,,,,,,,,,,,
,,5eac4b0a1f8db726fc6060c8,2023-12-15_02h26.48.682,kallum_motion_pilot,2023.2.3,Win32,74.96251874,5eac4b0a1f8db726fc6060c8,657bb317c8798c6608bceb3f,657bb95b25000e4ba9e37fb6,0.023,0.023,1,74,236,5,1,threefour,,,,,,,,,,,,,,,,,,,,,,,,,,,,,,,,,,,,,,,,,,,,,,,,,,,,,,,,,,,,,,,,,,,,,,,,,,,,,,,,,,,,,,,,,,,,,,,,,,,,,,,,,,,,,,,,,,,,,,,,,,,,,,,,,,,,,,,
,,5eac4b0a1f8db726fc6060c8,2023-12-15_02h26.48.682,kallum_motion_pilot,2023.2.3,Win32,74.96251874,5eac4b0a1f8db726fc6060c8,657bb317c8798c6608bceb3f,657bb95b25000e4ba9e37fb6,0.023,0.023,1,75,237,109,1,seveneight,,,,,,,,,,,,,,,,,,,,,,,,,,,,,,,,,,,,,,,,,,,,,,,,,,,,,,,,,,,,,,,,,,,,,,,,,,,,,,,,,,,,,,,,,,,,,,,,,,,,,,,,,,,,,,,,,,,,,,,,,,,,,,,,,,,,,,,
,,5eac4b0a1f8db726fc6060c8,2023-12-15_02h26.48.682,kallum_motion_pilot,2023.2.3,Win32,74.96251874,5eac4b0a1f8db726fc6060c8,657bb317c8798c6608bceb3f,657bb95b25000e4ba9e37fb6,0.024,0.024,1,76,238,62,1,fourtwo,,,,,,,,,,,,,,,,,,,,,,,,,,,,,,,,,,,,,,,,,,,,,,,,,,,,,,,,,,,,,,,,,,,,,,,,,,,,,,,,,,,,,,,,,,,,,,,,,,,,,,,,,,,,,,,,,,,,,,,,,,,,,,,,,,,,,,,
,,5eac4b0a1f8db726fc6060c8,2023-12-15_02h26.48.682,kallum_motion_pilot,2023.2.3,Win32,74.96251874,5eac4b0a1f8db726fc6060c8,657bb317c8798c6608bceb3f,657bb95b25000e4ba9e37fb6,0.024,0.024,1,77,239,97,1,fiveseven,,,,,,,,,,,,,,,,,,,,,,,,,,,,,,,,,,,,,,,,,,,,,,,,,,,,,,,,,,,,,,,,,,,,,,,,,,,,,,,,,,,,,,,,,,,,,,,,,,,,,,,,,,,,,,,,,,,,,,,,,,,,,,,,,,,,,,,
,,5eac4b0a1f8db726fc6060c8,2023-12-15_02h26.48.682,kallum_motion_pilot,2023.2.3,Win32,74.96251874,5eac4b0a1f8db726fc6060c8,657bb317c8798c6608bceb3f,657bb95b25000e4ba9e37fb6,0.024,0.024,1,78,240,41,1,onethree,,,,,,,,,,,,,,,,,,,,,,,,,,,,,,,,,,,,,,,,,,,,,,,,,,,,,,,,,,,,,,,,,,,,,,,,,,,,,,,,,,,,,,,,,,,,,,,,,,,,,,,,,,,,,,,,,,,,,,,,,,,,,,,,,,,,,,,
,,5eac4b0a1f8db726fc6060c8,2023-12-15_02h26.48.682,kallum_motion_pilot,2023.2.3,Win32,74.96251874,5eac4b0a1f8db726fc6060c8,657bb317c8798c6608bceb3f,657bb95b25000e4ba9e37fb6,0.024,0.024,1,79,241,80,1,fivesix,,,,,,,,,,,,,,,,,,,,,,,,,,,,,,,,,,,,,,,,,,,,,,,,,,,,,,,,,,,,,,,,,,,,,,,,,,,,,,,,,,,,,,,,,,,,,,,,,,,,,,,,,,,,,,,,,,,,,,,,,,,,,,,,,,,,,,,
,,5eac4b0a1f8db726fc6060c8,2023-12-15_02h26.48.682,kallum_motion_pilot,2023.2.3,Win32,74.96251874,5eac4b0a1f8db726fc6060c8,657bb317c8798c6608bceb3f,657bb95b25000e4ba9e37fb6,0.024,0.024,1,80,242,153,1,fiveseven,,,,,,,,,,,,,,,,,,,,,,,,,,,,,,,,,,,,,,,,,,,,,,,,,,,,,,,,,,,,,,,,,,,,,,,,,,,,,,,,,,,,,,,,,,,,,,,,,,,,,,,,,,,,,,,,,,,,,,,,,,,,,,,,,,,,,,,
,,5eac4b0a1f8db726fc6060c8,2023-12-15_02h26.48.682,kallum_motion_pilot,2023.2.3,Win32,74.96251874,5eac4b0a1f8db726fc6060c8,657bb317c8798c6608bceb3f,657bb95b25000e4ba9e37fb6,0.025,0.025,1,81,243,38,1,fourtwo,,,,,,,,,,,,,,,,,,,,,,,,,,,,,,,,,,,,,,,,,,,,,,,,,,,,,,,,,,,,,,,,,,,,,,,,,,,,,,,,,,,,,,,,,,,,,,,,,,,,,,,,,,,,,,,,,,,,,,,,,,,,,,,,,,,,,,,
,,5eac4b0a1f8db726fc6060c8,2023-12-15_02h26.48.682,kallum_motion_pilot,2023.2.3,Win32,74.96251874,5eac4b0a1f8db726fc6060c8,657bb317c8798c6608bceb3f,657bb95b25000e4ba9e37fb6,0.025,0.025,1,82,244,141,1,seveneight,,,,,,,,,,,,,,,,,,,,,,,,,,,,,,,,,,,,,,,,,,,,,,,,,,,,,,,,,,,,,,,,,,,,,,,,,,,,,,,,,,,,,,,,,,,,,,,,,,,,,,,,,,,,,,,,,,,,,,,,,,,,,,,,,,,,,,,
,,5eac4b0a1f8db726fc6060c8,2023-12-15_02h26.48.682,kallum_motion_pilot,2023.2.3,Win32,74.96251874,5eac4b0a1f8db726fc6060c8,657bb317c8798c6608bceb3f,657bb95b25000e4ba9e37fb6,0.025,0.025,1,83,245,54,1,fourtwo,,,,,,,,,,,,,,,,,,,,,,,,,,,,,,,,,,,,,,,,,,,,,,,,,,,,,,,,,,,,,,,,,,,,,,,,,,,,,,,,,,,,,,,,,,,,,,,,,,,,,,,,,,,,,,,,,,,,,,,,,,,,,,,,,,,,,,,
,,5eac4b0a1f8db726fc6060c8,2023-12-15_02h26.48.682,kallum_motion_pilot,2023.2.3,Win32,74.96251874,5eac4b0a1f8db726fc6060c8,657bb317c8798c6608bceb3f,657bb95b25000e4ba9e37fb6,0.025,0.025,1,84,246,134,1,eightsix,,,,,,,,,,,,,,,,,,,,,,,,,,,,,,,,,,,,,,,,,,,,,,,,,,,,,,,,,,,,,,,,,,,,,,,,,,,,,,,,,,,,,,,,,,,,,,,,,,,,,,,,,,,,,,,,,,,,,,,,,,,,,,,,,,,,,,,
,,5eac4b0a1f8db726fc6060c8,2023-12-15_02h26.48.682,kallum_motion_pilot,2023.2.3,Win32,74.96251874,5eac4b0a1f8db726fc6060c8,657bb317c8798c6608bceb3f,657bb95b25000e4ba9e37fb6,0.025,0.025,1,85,247,124,1,sevenfive,,,,,,,,,,,,,,,,,,,,,,,,,,,,,,,,,,,,,,,,,,,,,,,,,,,,,,,,,,,,,,,,,,,,,,,,,,,,,,,,,,,,,,,,,,,,,,,,,,,,,,,,,,,,,,,,,,,,,,,,,,,,,,,,,,,,,,,
,,5eac4b0a1f8db726fc6060c8,2023-12-15_02h26.48.682,kallum_motion_pilot,2023.2.3,Win32,74.96251874,5eac4b0a1f8db726fc6060c8,657bb317c8798c6608bceb3f,657bb95b25000e4ba9e37fb6,0.025,0.025,1,86,248,142,1,eightsix,,,,,,,,,,,,,,,,,,,,,,,,,,,,,,,,,,,,,,,,,,,,,,,,,,,,,,,,,,,,,,,,,,,,,,,,,,,,,,,,,,,,,,,,,,,,,,,,,,,,,,,,,,,,,,,,,,,,,,,,,,,,,,,,,,,,,,,
,,5eac4b0a1f8db726fc6060c8,2023-12-15_02h26.48.682,kallum_motion_pilot,2023.2.3,Win32,74.96251874,5eac4b0a1f8db726fc6060c8,657bb317c8798c6608bceb3f,657bb95b25000e4ba9e37fb6,0.025,0.025,1,87,249,115,1,sixeight,,,,,,,,,,,,,,,,,,,,,,,,,,,,,,,,,,,,,,,,,,,,,,,,,,,,,,,,,,,,,,,,,,,,,,,,,,,,,,,,,,,,,,,,,,,,,,,,,,,,,,,,,,,,,,,,,,,,,,,,,,,,,,,,,,,,,,,
,,5eac4b0a1f8db726fc6060c8,2023-12-15_02h26.48.682,kallum_motion_pilot,2023.2.3,Win32,74.96251874,5eac4b0a1f8db726fc6060c8,657bb317c8798c6608bceb3f,657bb95b25000e4ba9e37fb6,0.025,0.025,1,88,250,138,1,sixfive,,,,,,,,,,,,,,,,,,,,,,,,,,,,,,,,,,,,,,,,,,,,,,,,,,,,,,,,,,,,,,,,,,,,,,,,,,,,,,,,,,,,,,,,,,,,,,,,,,,,,,,,,,,,,,,,,,,,,,,,,,,,,,,,,,,,,,,
,,5eac4b0a1f8db726fc6060c8,2023-12-15_02h26.48.682,kallum_motion_pilot,2023.2.3,Win32,74.96251874,5eac4b0a1f8db726fc6060c8,657bb317c8798c6608bceb3f,657bb95b25000e4ba9e37fb6,0.025,0.025,1,89,251,25,1,onethree,,,,,,,,,,,,,,,,,,,,,,,,,,,,,,,,,,,,,,,,,,,,,,,,,,,,,,,,,,,,,,,,,,,,,,,,,,,,,,,,,,,,,,,,,,,,,,,,,,,,,,,,,,,,,,,,,,,,,,,,,,,,,,,,,,,,,,,
,,5eac4b0a1f8db726fc6060c8,2023-12-15_02h26.48.682,kallum_motion_pilot,2023.2.3,Win32,74.96251874,5eac4b0a1f8db726fc6060c8,657bb317c8798c6608bceb3f,657bb95b25000e4ba9e37fb6,0.025,0.025,1,90,252,10,1,twoone,,,,,,,,,,,,,,,,,,,,,,,,,,,,,,,,,,,,,,,,,,,,,,,,,,,,,,,,,,,,,,,,,,,,,,,,,,,,,,,,,,,,,,,,,,,,,,,,,,,,,,,,,,,,,,,,,,,,,,,,,,,,,,,,,,,,,,,
,,5eac4b0a1f8db726fc6060c8,2023-12-15_02h26.48.682,kallum_motion_pilot,2023.2.3,Win32,74.96251874,5eac4b0a1f8db726fc6060c8,657bb317c8798c6608bceb3f,657bb95b25000e4ba9e37fb6,0.025,0.025,1,91,253,148,1,sevenfive,,,,,,,,,,,,,,,,,,,,,,,,,,,,,,,,,,,,,,,,,,,,,,,,,,,,,,,,,,,,,,,,,,,,,,,,,,,,,,,,,,,,,,,,,,,,,,,,,,,,,,,,,,,,,,,,,,,,,,,,,,,,,,,,,,,,,,,
,,5eac4b0a1f8db726fc6060c8,2023-12-15_02h26.48.682,kallum_motion_pilot,2023.2.3,Win32,74.96251874,5eac4b0a1f8db726fc6060c8,657bb317c8798c6608bceb3f,657bb95b25000e4ba9e37fb6,0.025,0.025,1,92,254,140,1,sevenfive,,,,,,,,,,,,,,,,,,,,,,,,,,,,,,,,,,,,,,,,,,,,,,,,,,,,,,,,,,,,,,,,,,,,,,,,,,,,,,,,,,,,,,,,,,,,,,,,,,,,,,,,,,,,,,,,,,,,,,,,,,,,,,,,,,,,,,,
,,5eac4b0a1f8db726fc6060c8,2023-12-15_02h26.48.682,kallum_motion_pilot,2023.2.3,Win32,74.96251874,5eac4b0a1f8db726fc6060c8,657bb317c8798c6608bceb3f,657bb95b25000e4ba9e37fb6,0.025,0.025,1,93,255,68,1,threeone,,,,,,,,,,,,,,,,,,,,,,,,,,,,,,,,,,,,,,,,,,,,,,,,,,,,,,,,,,,,,,,,,,,,,,,,,,,,,,,,,,,,,,,,,,,,,,,,,,,,,,,,,,,,,,,,,,,,,,,,,,,,,,,,,,,,,,,
,,5eac4b0a1f8db726fc6060c8,2023-12-15_02h26.48.682,kallum_motion_pilot,2023.2.3,Win32,74.96251874,5eac4b0a1f8db726fc6060c8,657bb317c8798c6608bceb3f,657bb95b25000e4ba9e37fb6,0.025,0.025,1,94,256,6,1,fourtwo,,,,,,,,,,,,,,,,,,,,,,,,,,,,,,,,,,,,,,,,,,,,,,,,,,,,,,,,,,,,,,,,,,,,,,,,,,,,,,,,,,,,,,,,,,,,,,,,,,,,,,,,,,,,,,,,,,,,,,,,,,,,,,,,,,,,,,,
,,5eac4b0a1f8db726fc6060c8,2023-12-15_02h26.48.682,kallum_motion_pilot,2023.2.3,Win32,74.96251874,5eac4b0a1f8db726fc6060c8,657bb317c8798c6608bceb3f,657bb95b25000e4ba9e37fb6,0.025,0.025,1,95,257,154,1,sixfive,,,,,,,,,,,,,,,,,,,,,,,,,,,,,,,,,,,,,,,,,,,,,,,,,,,,,,,,,,,,,,,,,,,,,,,,,,,,,,,,,,,,,,,,,,,,,,,,,,,,,,,,,,,,,,,,,,,,,,,,,,,,,,,,,,,,,,,
,,5eac4b0a1f8db726fc6060c8,2023-12-15_02h26.48.682,kallum_motion_pilot,2023.2.3,Win32,74.96251874,5eac4b0a1f8db726fc6060c8,657bb317c8798c6608bceb3f,657bb95b25000e4ba9e37fb6,0.025,0.025,1,96,258,11,1,twofour,,,,,,,,,,,,,,,,,,,,,,,,,,,,,,,,,,,,,,,,,,,,,,,,,,,,,,,,,,,,,,,,,,,,,,,,,,,,,,,,,,,,,,,,,,,,,,,,,,,,,,,,,,,,,,,,,,,,,,,,,,,,,,,,,,,,,,,
,,5eac4b0a1f8db726fc6060c8,2023-12-15_02h26.48.682,kallum_motion_pilot,2023.2.3,Win32,74.96251874,5eac4b0a1f8db726fc6060c8,657bb317c8798c6608bceb3f,657bb95b25000e4ba9e37fb6,0.025,0.025,1,97,259,17,1,onethree,,,,,,,,,,,,,,,,,,,,,,,,,,,,,,,,,,,,,,,,,,,,,,,,,,,,,,,,,,,,,,,,,,,,,,,,,,,,,,,,,,,,,,,,,,,,,,,,,,,,,,,,,,,,,,,,,,,,,,,,,,,,,,,,,,,,,,,
,,5eac4b0a1f8db726fc6060c8,2023-12-15_02h26.48.682,kallum_motion_pilot,2023.2.3,Win32,74.96251874,5eac4b0a1f8db726fc6060c8,657bb317c8798c6608bceb3f,657bb95b25000e4ba9e37fb6,0.025,0.025,1,98,260,103,1,eightseven,,,,,,,,,,,,,,,,,,,,,,,,,,,,,,,,,,,,,,,,,,,,,,,,,,,,,,,,,,,,,,,,,,,,,,,,,,,,,,,,,,,,,,,,,,,,,,,,,,,,,,,,,,,,,,,,,,,,,,,,,,,,,,,,,,,,,,,
,,5eac4b0a1f8db726fc6060c8,2023-12-15_02h26.48.682,kallum_motion_pilot,2023.2.3,Win32,74.96251874,5eac4b0a1f8db726fc6060c8,657bb317c8798c6608bceb3f,657bb95b25000e4ba9e37fb6,0.025,0.025,1,99,261,50,1,twoone,,,,,,,,,,,,,,,,,,,,,,,,,,,,,,,,,,,,,,,,,,,,,,,,,,,,,,,,,,,,,,,,,,,,,,,,,,,,,,,,,,,,,,,,,,,,,,,,,,,,,,,,,,,,,,,,,,,,,,,,,,,,,,,,,,,,,,,
,,5eac4b0a1f8db726fc6060c8,2023-12-15_02h26.48.682,kallum_motion_pilot,2023.2.3,Win32,74.96251874,5eac4b0a1f8db726fc6060c8,657bb317c8798c6608bceb3f,657bb95b25000e4ba9e37fb6,0.025,0.025,1,100,262,118,1,eightsix,,,,,,,,,,,,,,,,,,,,,,,,,,,,,,,,,,,,,,,,,,,,,,,,,,,,,,,,,,,,,,,,,,,,,,,,,,,,,,,,,,,,,,,,,,,,,,,,,,,,,,,,,,,,,,,,,,,,,,,,,,,,,,,,,,,,,,,
,,5eac4b0a1f8db726fc6060c8,2023-12-15_02h26.48.682,kallum_motion_pilot,2023.2.3,Win32,74.96251874,5eac4b0a1f8db726fc6060c8,657bb317c8798c6608bceb3f,657bb95b25000e4ba9e37fb6,0.026,0.026,1,101,263,98,1,sixfive,,,,,,,,,,,,,,,,,,,,,,,,,,,,,,,,,,,,,,,,,,,,,,,,,,,,,,,,,,,,,,,,,,,,,,,,,,,,,,,,,,,,,,,,,,,,,,,,,,,,,,,,,,,,,,,,,,,,,,,,,,,,,,,,,,,,,,,
,,5eac4b0a1f8db726fc6060c8,2023-12-15_02h26.48.682,kallum_motion_pilot,2023.2.3,Win32,74.96251874,5eac4b0a1f8db726fc6060c8,657bb317c8798c6608bceb3f,657bb95b25000e4ba9e37fb6,0.026,0.026,1,102,264,21,1,threefour,,,,,,,,,,,,,,,,,,,,,,,,,,,,,,,,,,,,,,,,,,,,,,,,,,,,,,,,,,,,,,,,,,,,,,,,,,,,,,,,,,,,,,,,,,,,,,,,,,,,,,,,,,,,,,,,,,,,,,,,,,,,,,,,,,,,,,,
,,5eac4b0a1f8db726fc6060c8,2023-12-15_02h26.48.682,kallum_motion_pilot,2023.2.3,Win32,74.96251874,5eac4b0a1f8db726fc6060c8,657bb317c8798c6608bceb3f,657bb95b25000e4ba9e37fb6,0.026,0.026,1,103,265,76,1,threeone,,,,,,,,,,,,,,,,,,,,,,,,,,,,,,,,,,,,,,,,,,,,,,,,,,,,,,,,,,,,,,,,,,,,,,,,,,,,,,,,,,,,,,,,,,,,,,,,,,,,,,,,,,,,,,,,,,,,,,,,,,,,,,,,,,,,,,,
,,5eac4b0a1f8db726fc6060c8,2023-12-15_02h26.48.682,kallum_motion_pilot,2023.2.3,Win32,74.96251874,5eac4b0a1f8db726fc6060c8,657bb317c8798c6608bceb3f,657bb95b25000e4ba9e37fb6,0.026,0.026,1,104,266,152,1,fivesix,,,,,,,,,,,,,,,,,,,,,,,,,,,,,,,,,,,,,,,,,,,,,,,,,,,,,,,,,,,,,,,,,,,,,,,,,,,,,,,,,,,,,,,,,,,,,,,,,,,,,,,,,,,,,,,,,,,,,,,,,,,,,,,,,,,,,,,
,,5eac4b0a1f8db726fc6060c8,2023-12-15_02h26.48.682,kallum_motion_pilot,2023.2.3,Win32,74.96251874,5eac4b0a1f8db726fc6060c8,657bb317c8798c6608bceb3f,657bb95b25000e4ba9e37fb6,0.026,0.026,1,105,267,135,1,eightseven,,,,,,,,,,,,,,,,,,,,,,,,,,,,,,,,,,,,,,,,,,,,,,,,,,,,,,,,,,,,,,,,,,,,,,,,,,,,,,,,,,,,,,,,,,,,,,,,,,,,,,,,,,,,,,,,,,,,,,,,,,,,,,,,,,,,,,,
,,5eac4b0a1f8db726fc6060c8,2023-12-15_02h26.48.682,kallum_motion_pilot,2023.2.3,Win32,74.96251874,5eac4b0a1f8db726fc6060c8,657bb317c8798c6608bceb3f,657bb95b25000e4ba9e37fb6,0.026,0.026,1,106,268,96,1,fivesix,,,,,,,,,,,,,,,,,,,,,,,,,,,,,,,,,,,,,,,,,,,,,,,,,,,,,,,,,,,,,,,,,,,,,,,,,,,,,,,,,,,,,,,,,,,,,,,,,,,,,,,,,,,,,,,,,,,,,,,,,,,,,,,,,,,,,,,
,,5eac4b0a1f8db726fc6060c8,2023-12-15_02h26.48.682,kallum_motion_pilot,2023.2.3,Win32,74.96251874,5eac4b0a1f8db726fc6060c8,657bb317c8798c6608bceb3f,657bb95b25000e4ba9e37fb6,0.026,0.026,1,107,269,33,1,onethree,,,,,,,,,,,,,,,,,,,,,,,,,,,,,,,,,,,,,,,,,,,,,,,,,,,,,,,,,,,,,,,,,,,,,,,,,,,,,,,,,,,,,,,,,,,,,,,,,,,,,,,,,,,,,,,,,,,,,,,,,,,,,,,,,,,,,,,
,,5eac4b0a1f8db726fc6060c8,2023-12-15_02h26.48.682,kallum_motion_pilot,2023.2.3,Win32,74.96251874,5eac4b0a1f8db726fc6060c8,657bb317c8798c6608bceb3f,657bb95b25000e4ba9e37fb6,0.026,0.026,1,108,270,1,1,onethree,,,,,,,,,,,,,,,,,,,,,,,,,,,,,,,,,,,,,,,,,,,,,,,,,,,,,,,,,,,,,,,,,,,,,,,,,,,,,,,,,,,,,,,,,,,,,,,,,,,,,,,,,,,,,,,,,,,,,,,,,,,,,,,,,,,,,,,
,,5eac4b0a1f8db726fc6060c8,2023-12-15_02h26.48.682,kallum_motion_pilot,2023.2.3,Win32,74.96251874,5eac4b0a1f8db726fc6060c8,657bb317c8798c6608bceb3f,657bb95b25000e4ba9e37fb6,0.026,0.026,1,109,271,63,1,fourthree,,,,,,,,,,,,,,,,,,,,,,,,,,,,,,,,,,,,,,,,,,,,,,,,,,,,,,,,,,,,,,,,,,,,,,,,,,,,,,,,,,,,,,,,,,,,,,,,,,,,,,,,,,,,,,,,,,,,,,,,,,,,,,,,,,,,,,,
,,5eac4b0a1f8db726fc6060c8,2023-12-15_02h26.48.682,kallum_motion_pilot,2023.2.3,Win32,74.96251874,5eac4b0a1f8db726fc6060c8,657bb317c8798c6608bceb3f,657bb95b25000e4ba9e37fb6,0.026,0.026,1,110,272,28,1,threeone,,,,,,,,,,,,,,,,,,,,,,,,,,,,,,,,,,,,,,,,,,,,,,,,,,,,,,,,,,,,,,,,,,,,,,,,,,,,,,,,,,,,,,,,,,,,,,,,,,,,,,,,,,,,,,,,,,,,,,,,,,,,,,,,,,,,,,,
,,5eac4b0a1f8db726fc6060c8,2023-12-15_02h26.48.682,kallum_motion_pilot,2023.2.3,Win32,74.96251874,5eac4b0a1f8db726fc6060c8,657bb317c8798c6608bceb3f,657bb95b25000e4ba9e37fb6,0.026,0.026,1,111,273,30,1,fourtwo,,,,,,,,,,,,,,,,,,,,,,,,,,,,,,,,,,,,,,,,,,,,,,,,,,,,,,,,,,,,,,,,,,,,,,,,,,,,,,,,,,,,,,,,,,,,,,,,,,,,,,,,,,,,,,,,,,,,,,,,,,,,,,,,,,,,,,,
,,5eac4b0a1f8db726fc6060c8,2023-12-15_02h26.48.682,kallum_motion_pilot,2023.2.3,Win32,74.96251874,5eac4b0a1f8db726fc6060c8,657bb317c8798c6608bceb3f,657bb95b25000e4ba9e37fb6,0.026,0.026,1,112,274,101,1,seveneight,,,,,,,,,,,,,,,,,,,,,,,,,,,,,,,,,,,,,,,,,,,,,,,,,,,,,,,,,,,,,,,,,,,,,,,,,,,,,,,,,,,,,,,,,,,,,,,,,,,,,,,,,,,,,,,,,,,,,,,,,,,,,,,,,,,,,,,
,,5eac4b0a1f8db726fc6060c8,2023-12-15_02h26.48.682,kallum_motion_pilot,2023.2.3,Win32,74.96251874,5eac4b0a1f8db726fc6060c8,657bb317c8798c6608bceb3f,657bb95b25000e4ba9e37fb6,0.026,0.026,1,113,275,3,1,twofour,,,,,,,,,,,,,,,,,,,,,,,,,,,,,,,,,,,,,,,,,,,,,,,,,,,,,,,,,,,,,,,,,,,,,,,,,,,,,,,,,,,,,,,,,,,,,,,,,,,,,,,,,,,,,,,,,,,,,,,,,,,,,,,,,,,,,,,
,,5eac4b0a1f8db726fc6060c8,2023-12-15_02h26.48.682,kallum_motion_pilot,2023.2.3,Win32,74.96251874,5eac4b0a1f8db726fc6060c8,657bb317c8798c6608bceb3f,657bb95b25000e4ba9e37fb6,0.026,0.026,1,114,276,155,1,sixeight,,,,,,,,,,,,,,,,,,,,,,,,,,,,,,,,,,,,,,,,,,,,,,,,,,,,,,,,,,,,,,,,,,,,,,,,,,,,,,,,,,,,,,,,,,,,,,,,,,,,,,,,,,,,,,,,,,,,,,,,,,,,,,,,,,,,,,,
,,5eac4b0a1f8db726fc6060c8,2023-12-15_02h26.48.682,kallum_motion_pilot,2023.2.3,Win32,74.96251874,5eac4b0a1f8db726fc6060c8,657bb317c8798c6608bceb3f,657bb95b25000e4ba9e37fb6,0.026,0.026,1,115,277,26,1,twoone,,,,,,,,,,,,,,,,,,,,,,,,,,,,,,,,,,,,,,,,,,,,,,,,,,,,,,,,,,,,,,,,,,,,,,,,,,,,,,,,,,,,,,,,,,,,,,,,,,,,,,,,,,,,,,,,,,,,,,,,,,,,,,,,,,,,,,,
,,5eac4b0a1f8db726fc6060c8,2023-12-15_02h26.48.682,kallum_motion_pilot,2023.2.3,Win32,74.96251874,5eac4b0a1f8db726fc6060c8,657bb317c8798c6608bceb3f,657bb95b25000e4ba9e37fb6,0.026,0.026,1,116,278,120,1,fivesix,,,,,,,,,,,,,,,,,,,,,,,,,,,,,,,,,,,,,,,,,,,,,,,,,,,,,,,,,,,,,,,,,,,,,,,,,,,,,,,,,,,,,,,,,,,,,,,,,,,,,,,,,,,,,,,,,,,,,,,,,,,,,,,,,,,,,,,
,,5eac4b0a1f8db726fc6060c8,2023-12-15_02h26.48.682,kallum_motion_pilot,2023.2.3,Win32,74.96251874,5eac4b0a1f8db726fc6060c8,657bb317c8798c6608bceb3f,657bb95b25000e4ba9e37fb6,0.026,0.026,1,117,279,47,1,fourthree,,,,,,,,,,,,,,,,,,,,,,,,,,,,,,,,,,,,,,,,,,,,,,,,,,,,,,,,,,,,,,,,,,,,,,,,,,,,,,,,,,,,,,,,,,,,,,,,,,,,,,,,,,,,,,,,,,,,,,,,,,,,,,,,,,,,,,,
,,5eac4b0a1f8db726fc6060c8,2023-12-15_02h26.48.682,kallum_motion_pilot,2023.2.3,Win32,74.96251874,5eac4b0a1f8db726fc6060c8,657bb317c8798c6608bceb3f,657bb95b25000e4ba9e37fb6,0.026,0.026,1,118,280,129,1,fiveseven,,,,,,,,,,,,,,,,,,,,,,,,,,,,,,,,,,,,,,,,,,,,,,,,,,,,,,,,,,,,,,,,,,,,,,,,,,,,,,,,,,,,,,,,,,,,,,,,,,,,,,,,,,,,,,,,,,,,,,,,,,,,,,,,,,,,,,,
