startup.started,startup.stopped,Prolific ID*,date,expName,psychopyVersion,OS,frameRate,participant,study_id,session,stimpositions.started,stimpositions.stopped,hardcoded_stimulus_positions.thisRepN,hardcoded_stimulus_positions.thisTrialN,hardcoded_stimulus_positions.thisN,hardcoded_stimulus_positions.thisIndex,hardcoded_stimulus_positions.ran,StimulusPos,stimorientation.started,stimorientation.stopped,prac_stimorientation_import_loop.thisRepN,prac_stimorientation_import_loop.thisTrialN,prac_stimorientation_import_loop.thisN,prac_stimorientation_import_loop.thisIndex,prac_stimorientation_import_loop.ran,Stimorientation,welcome_instr.started,welcome_instr.stopped,key_resp.keys,key_resp.rt,key_resp.duration,response_steppedout_1.started,response_steppedout_1.stopped,key_resp_20.keys,key_resp_20.rt,key_resp_20.duration,response_steppedout_2.started,response_steppedout_2.stopped,key_resp_19.keys,key_resp_19.rt,key_resp_19.duration,stim_response_instr.started,stim_response_instr.stopped,key_resp_15.keys,key_resp_15.rt,key_resp_15.duration,direction_instr_2.started,direction_instr_2.stopped,key_resp_9.keys,key_resp_9.rt,key_resp_9.duration,instr_prac.started,instr_prac.stopped,key_resp_10.keys,key_resp_10.rt,key_resp_10.duration,Stim1_display_prac.started,Stim1_display_prac.stopped,Ecc,Circle1_ori,Circle2_ori,response_prac.started,similarity,response_time,response_prac.stopped,mouse_5.x,mouse_5.y,mouse_5.leftButton,mouse_5.midButton,mouse_5.rightButton,mouse_5.clicked_name,responseprac_feedback.started,responseprac_feedback.stopped,summary2_prac.started,summary2_prac.stopped,mouse_6.x,mouse_6.y,mouse_6.leftButton,mouse_6.midButton,mouse_6.rightButton,mouse_6.clicked_name,duringprac.thisRepN,duringprac.thisTrialN,duringprac.thisN,duringprac.thisIndex,duringprac.ran,begin.started,begin.stopped,key_resp_22.keys,key_resp_22.rt,key_resp_22.duration,Stim1_display.started,Stim1_display.stopped,circle1_ori,circle2_ori,blank.started,blank.stopped,response.started,response.stopped,mouse.x,mouse.y,mouse.leftButton,mouse.midButton,mouse.rightButton,mouse.clicked_name,response_2.started,response_2.stopped,mouse_2.x,mouse_2.y,mouse_2.leftButton,mouse_2.midButton,mouse_2.rightButton,mouse_2.clicked_name,special_trial.started,special_trial.stopped,catch_1.started,catch_1.stopped,mouse_3.x,mouse_3.y,mouse_3.leftButton,mouse_3.midButton,mouse_3.rightButton,catchresponse,catchnumber,response_time_catch,Catch,response_sum.started,response_sum.stopped,mouse_11.x,mouse_11.y,mouse_11.leftButton,mouse_11.midButton,mouse_11.rightButton,main_trial.thisRepN,main_trial.thisTrialN,main_trial.thisN,main_trial.thisIndex,main_trial.ran,Orientationtrialno,xcircle1_ori,xcircle2_ori,flip_presentation_sequence_for_double_pass.started,flip_presentation_sequence_for_double_pass.stopped,double_pass.thisRepN,double_pass.thisTrialN,double_pass.thisN,double_pass.thisIndex,double_pass.ran,goodbye.started,goodbye.stopped,key_resp_3.keys,key_resp_3.rt,key_resp_3.duration
0.0007,0.0009,5f158fe3696881556b96de39,2023-12-15_10h08.54.286,kallum_motion_pilot,2023.2.3,Win32,59.43889681,5f158fe3696881556b96de39,657bb317c8798c6608bceb3f,657bb495d370c8d94ade15b8,,,,,,,,,,,,,,,,,,,,,,,,,,,,,,,,,,,,,,,,,,,,,,,,,,,,,,,,,,,,,,,,,,,,,,,,,,,,,,,,,,,,,,,,,,,,,,,,,,,,,,,,,,,,,,,,,,,,,,,,,,,,,,,,,,,,,,,,,,,,,,,
,,5f158fe3696881556b96de39,2023-12-15_10h08.54.286,kallum_motion_pilot,2023.2.3,Win32,59.43889681,5f158fe3696881556b96de39,657bb317c8798c6608bceb3f,657bb495d370c8d94ade15b8,0.0643,0.0647,0,0,0,124,1,sevenfive,,,,,,,,,,,,,,,,,,,,,,,,,,,,,,,,,,,,,,,,,,,,,,,,,,,,,,,,,,,,,,,,,,,,,,,,,,,,,,,,,,,,,,,,,,,,,,,,,,,,,,,,,,,,,,,,,,,,,,,,,,,,,,,,,,,,,,,
,,5f158fe3696881556b96de39,2023-12-15_10h08.54.286,kallum_motion_pilot,2023.2.3,Win32,59.43889681,5f158fe3696881556b96de39,657bb317c8798c6608bceb3f,657bb495d370c8d94ade15b8,0.0653,0.0654,0,1,1,86,1,eightsix,,,,,,,,,,,,,,,,,,,,,,,,,,,,,,,,,,,,,,,,,,,,,,,,,,,,,,,,,,,,,,,,,,,,,,,,,,,,,,,,,,,,,,,,,,,,,,,,,,,,,,,,,,,,,,,,,,,,,,,,,,,,,,,,,,,,,,,
,,5f158fe3696881556b96de39,2023-12-15_10h08.54.286,kallum_motion_pilot,2023.2.3,Win32,59.43889681,5f158fe3696881556b96de39,657bb317c8798c6608bceb3f,657bb495d370c8d94ade15b8,0.0657,0.0659,0,2,2,159,1,eightseven,,,,,,,,,,,,,,,,,,,,,,,,,,,,,,,,,,,,,,,,,,,,,,,,,,,,,,,,,,,,,,,,,,,,,,,,,,,,,,,,,,,,,,,,,,,,,,,,,,,,,,,,,,,,,,,,,,,,,,,,,,,,,,,,,,,,,,,
,,5f158fe3696881556b96de39,2023-12-15_10h08.54.286,kallum_motion_pilot,2023.2.3,Win32,59.43889681,5f158fe3696881556b96de39,657bb317c8798c6608bceb3f,657bb495d370c8d94ade15b8,0.0663,0.0664,0,3,3,132,1,sevenfive,,,,,,,,,,,,,,,,,,,,,,,,,,,,,,,,,,,,,,,,,,,,,,,,,,,,,,,,,,,,,,,,,,,,,,,,,,,,,,,,,,,,,,,,,,,,,,,,,,,,,,,,,,,,,,,,,,,,,,,,,,,,,,,,,,,,,,,
,,5f158fe3696881556b96de39,2023-12-15_10h08.54.286,kallum_motion_pilot,2023.2.3,Win32,59.43889681,5f158fe3696881556b96de39,657bb317c8798c6608bceb3f,657bb495d370c8d94ade15b8,0.0667,0.0668,0,4,4,22,1,fourtwo,,,,,,,,,,,,,,,,,,,,,,,,,,,,,,,,,,,,,,,,,,,,,,,,,,,,,,,,,,,,,,,,,,,,,,,,,,,,,,,,,,,,,,,,,,,,,,,,,,,,,,,,,,,,,,,,,,,,,,,,,,,,,,,,,,,,,,,
,,5f158fe3696881556b96de39,2023-12-15_10h08.54.286,kallum_motion_pilot,2023.2.3,Win32,59.43889681,5f158fe3696881556b96de39,657bb317c8798c6608bceb3f,657bb495d370c8d94ade15b8,0.0672,0.0673,0,5,5,126,1,eightsix,,,,,,,,,,,,,,,,,,,,,,,,,,,,,,,,,,,,,,,,,,,,,,,,,,,,,,,,,,,,,,,,,,,,,,,,,,,,,,,,,,,,,,,,,,,,,,,,,,,,,,,,,,,,,,,,,,,,,,,,,,,,,,,,,,,,,,,
,,5f158fe3696881556b96de39,2023-12-15_10h08.54.286,kallum_motion_pilot,2023.2.3,Win32,59.43889681,5f158fe3696881556b96de39,657bb317c8798c6608bceb3f,657bb495d370c8d94ade15b8,0.0676,0.0678,0,6,6,31,1,fourthree,,,,,,,,,,,,,,,,,,,,,,,,,,,,,,,,,,,,,,,,,,,,,,,,,,,,,,,,,,,,,,,,,,,,,,,,,,,,,,,,,,,,,,,,,,,,,,,,,,,,,,,,,,,,,,,,,,,,,,,,,,,,,,,,,,,,,,,
,,5f158fe3696881556b96de39,2023-12-15_10h08.54.286,kallum_motion_pilot,2023.2.3,Win32,59.43889681,5f158fe3696881556b96de39,657bb317c8798c6608bceb3f,657bb495d370c8d94ade15b8,0.0682,0.0688,0,7,7,27,1,twofour,,,,,,,,,,,,,,,,,,,,,,,,,,,,,,,,,,,,,,,,,,,,,,,,,,,,,,,,,,,,,,,,,,,,,,,,,,,,,,,,,,,,,,,,,,,,,,,,,,,,,,,,,,,,,,,,,,,,,,,,,,,,,,,,,,,,,,,
,,5f158fe3696881556b96de39,2023-12-15_10h08.54.286,kallum_motion_pilot,2023.2.3,Win32,59.43889681,5f158fe3696881556b96de39,657bb317c8798c6608bceb3f,657bb495d370c8d94ade15b8,0.0695,0.0696,0,8,8,123,1,sixeight,,,,,,,,,,,,,,,,,,,,,,,,,,,,,,,,,,,,,,,,,,,,,,,,,,,,,,,,,,,,,,,,,,,,,,,,,,,,,,,,,,,,,,,,,,,,,,,,,,,,,,,,,,,,,,,,,,,,,,,,,,,,,,,,,,,,,,,
,,5f158fe3696881556b96de39,2023-12-15_10h08.54.286,kallum_motion_pilot,2023.2.3,Win32,59.43889681,5f158fe3696881556b96de39,657bb317c8798c6608bceb3f,657bb495d370c8d94ade15b8,0.0699,0.0701,0,9,9,49,1,onethree,,,,,,,,,,,,,,,,,,,,,,,,,,,,,,,,,,,,,,,,,,,,,,,,,,,,,,,,,,,,,,,,,,,,,,,,,,,,,,,,,,,,,,,,,,,,,,,,,,,,,,,,,,,,,,,,,,,,,,,,,,,,,,,,,,,,,,,
,,5f158fe3696881556b96de39,2023-12-15_10h08.54.286,kallum_motion_pilot,2023.2.3,Win32,59.43889681,5f158fe3696881556b96de39,657bb317c8798c6608bceb3f,657bb495d370c8d94ade15b8,0.0702,0.0703,0,10,10,140,1,sevenfive,,,,,,,,,,,,,,,,,,,,,,,,,,,,,,,,,,,,,,,,,,,,,,,,,,,,,,,,,,,,,,,,,,,,,,,,,,,,,,,,,,,,,,,,,,,,,,,,,,,,,,,,,,,,,,,,,,,,,,,,,,,,,,,,,,,,,,,
,,5f158fe3696881556b96de39,2023-12-15_10h08.54.286,kallum_motion_pilot,2023.2.3,Win32,59.43889681,5f158fe3696881556b96de39,657bb317c8798c6608bceb3f,657bb495d370c8d94ade15b8,0.0707,0.0709,0,11,11,137,1,fiveseven,,,,,,,,,,,,,,,,,,,,,,,,,,,,,,,,,,,,,,,,,,,,,,,,,,,,,,,,,,,,,,,,,,,,,,,,,,,,,,,,,,,,,,,,,,,,,,,,,,,,,,,,,,,,,,,,,,,,,,,,,,,,,,,,,,,,,,,
,,5f158fe3696881556b96de39,2023-12-15_10h08.54.286,kallum_motion_pilot,2023.2.3,Win32,59.43889681,5f158fe3696881556b96de39,657bb317c8798c6608bceb3f,657bb495d370c8d94ade15b8,0.071,0.0712,0,12,12,14,1,fourtwo,,,,,,,,,,,,,,,,,,,,,,,,,,,,,,,,,,,,,,,,,,,,,,,,,,,,,,,,,,,,,,,,,,,,,,,,,,,,,,,,,,,,,,,,,,,,,,,,,,,,,,,,,,,,,,,,,,,,,,,,,,,,,,,,,,,,,,,
,,5f158fe3696881556b96de39,2023-12-15_10h08.54.286,kallum_motion_pilot,2023.2.3,Win32,59.43889681,5f158fe3696881556b96de39,657bb317c8798c6608bceb3f,657bb495d370c8d94ade15b8,0.0714,0.0715,0,13,13,56,1,onetwo,,,,,,,,,,,,,,,,,,,,,,,,,,,,,,,,,,,,,,,,,,,,,,,,,,,,,,,,,,,,,,,,,,,,,,,,,,,,,,,,,,,,,,,,,,,,,,,,,,,,,,,,,,,,,,,,,,,,,,,,,,,,,,,,,,,,,,,
,,5f158fe3696881556b96de39,2023-12-15_10h08.54.286,kallum_motion_pilot,2023.2.3,Win32,59.43889681,5f158fe3696881556b96de39,657bb317c8798c6608bceb3f,657bb495d370c8d94ade15b8,0.0718,0.072,0,14,14,3,1,twofour,,,,,,,,,,,,,,,,,,,,,,,,,,,,,,,,,,,,,,,,,,,,,,,,,,,,,,,,,,,,,,,,,,,,,,,,,,,,,,,,,,,,,,,,,,,,,,,,,,,,,,,,,,,,,,,,,,,,,,,,,,,,,,,,,,,,,,,
,,5f158fe3696881556b96de39,2023-12-15_10h08.54.286,kallum_motion_pilot,2023.2.3,Win32,59.43889681,5f158fe3696881556b96de39,657bb317c8798c6608bceb3f,657bb495d370c8d94ade15b8,0.0721,0.0722,0,15,15,79,1,eightseven,,,,,,,,,,,,,,,,,,,,,,,,,,,,,,,,,,,,,,,,,,,,,,,,,,,,,,,,,,,,,,,,,,,,,,,,,,,,,,,,,,,,,,,,,,,,,,,,,,,,,,,,,,,,,,,,,,,,,,,,,,,,,,,,,,,,,,,
,,5f158fe3696881556b96de39,2023-12-15_10h08.54.286,kallum_motion_pilot,2023.2.3,Win32,59.43889681,5f158fe3696881556b96de39,657bb317c8798c6608bceb3f,657bb495d370c8d94ade15b8,0.0724,0.0725,0,16,16,149,1,seveneight,,,,,,,,,,,,,,,,,,,,,,,,,,,,,,,,,,,,,,,,,,,,,,,,,,,,,,,,,,,,,,,,,,,,,,,,,,,,,,,,,,,,,,,,,,,,,,,,,,,,,,,,,,,,,,,,,,,,,,,,,,,,,,,,,,,,,,,
,,5f158fe3696881556b96de39,2023-12-15_10h08.54.286,kallum_motion_pilot,2023.2.3,Win32,59.43889681,5f158fe3696881556b96de39,657bb317c8798c6608bceb3f,657bb495d370c8d94ade15b8,0.0728,0.0729,0,17,17,64,1,onetwo,,,,,,,,,,,,,,,,,,,,,,,,,,,,,,,,,,,,,,,,,,,,,,,,,,,,,,,,,,,,,,,,,,,,,,,,,,,,,,,,,,,,,,,,,,,,,,,,,,,,,,,,,,,,,,,,,,,,,,,,,,,,,,,,,,,,,,,
,,5f158fe3696881556b96de39,2023-12-15_10h08.54.286,kallum_motion_pilot,2023.2.3,Win32,59.43889681,5f158fe3696881556b96de39,657bb317c8798c6608bceb3f,657bb495d370c8d94ade15b8,0.0731,0.0731,0,18,18,147,1,sixeight,,,,,,,,,,,,,,,,,,,,,,,,,,,,,,,,,,,,,,,,,,,,,,,,,,,,,,,,,,,,,,,,,,,,,,,,,,,,,,,,,,,,,,,,,,,,,,,,,,,,,,,,,,,,,,,,,,,,,,,,,,,,,,,,,,,,,,,
,,5f158fe3696881556b96de39,2023-12-15_10h08.54.286,kallum_motion_pilot,2023.2.3,Win32,59.43889681,5f158fe3696881556b96de39,657bb317c8798c6608bceb3f,657bb495d370c8d94ade15b8,0.0734,0.0735,0,19,19,33,1,onethree,,,,,,,,,,,,,,,,,,,,,,,,,,,,,,,,,,,,,,,,,,,,,,,,,,,,,,,,,,,,,,,,,,,,,,,,,,,,,,,,,,,,,,,,,,,,,,,,,,,,,,,,,,,,,,,,,,,,,,,,,,,,,,,,,,,,,,,
,,5f158fe3696881556b96de39,2023-12-15_10h08.54.286,kallum_motion_pilot,2023.2.3,Win32,59.43889681,5f158fe3696881556b96de39,657bb317c8798c6608bceb3f,657bb495d370c8d94ade15b8,0.0737,0.0738,0,20,20,47,1,fourthree,,,,,,,,,,,,,,,,,,,,,,,,,,,,,,,,,,,,,,,,,,,,,,,,,,,,,,,,,,,,,,,,,,,,,,,,,,,,,,,,,,,,,,,,,,,,,,,,,,,,,,,,,,,,,,,,,,,,,,,,,,,,,,,,,,,,,,,
,,5f158fe3696881556b96de39,2023-12-15_10h08.54.286,kallum_motion_pilot,2023.2.3,Win32,59.43889681,5f158fe3696881556b96de39,657bb317c8798c6608bceb3f,657bb495d370c8d94ade15b8,0.074,0.0741,0,21,21,50,1,twoone,,,,,,,,,,,,,,,,,,,,,,,,,,,,,,,,,,,,,,,,,,,,,,,,,,,,,,,,,,,,,,,,,,,,,,,,,,,,,,,,,,,,,,,,,,,,,,,,,,,,,,,,,,,,,,,,,,,,,,,,,,,,,,,,,,,,,,,
,,5f158fe3696881556b96de39,2023-12-15_10h08.54.286,kallum_motion_pilot,2023.2.3,Win32,59.43889681,5f158fe3696881556b96de39,657bb317c8798c6608bceb3f,657bb495d370c8d94ade15b8,0.0743,0.0745,0,22,22,60,1,threeone,,,,,,,,,,,,,,,,,,,,,,,,,,,,,,,,,,,,,,,,,,,,,,,,,,,,,,,,,,,,,,,,,,,,,,,,,,,,,,,,,,,,,,,,,,,,,,,,,,,,,,,,,,,,,,,,,,,,,,,,,,,,,,,,,,,,,,,
,,5f158fe3696881556b96de39,2023-12-15_10h08.54.286,kallum_motion_pilot,2023.2.3,Win32,59.43889681,5f158fe3696881556b96de39,657bb317c8798c6608bceb3f,657bb495d370c8d94ade15b8,0.0747,0.0747,0,23,23,54,1,fourtwo,,,,,,,,,,,,,,,,,,,,,,,,,,,,,,,,,,,,,,,,,,,,,,,,,,,,,,,,,,,,,,,,,,,,,,,,,,,,,,,,,,,,,,,,,,,,,,,,,,,,,,,,,,,,,,,,,,,,,,,,,,,,,,,,,,,,,,,
,,5f158fe3696881556b96de39,2023-12-15_10h08.54.286,kallum_motion_pilot,2023.2.3,Win32,59.43889681,5f158fe3696881556b96de39,657bb317c8798c6608bceb3f,657bb495d370c8d94ade15b8,0.0751,0.0751,0,24,24,118,1,eightsix,,,,,,,,,,,,,,,,,,,,,,,,,,,,,,,,,,,,,,,,,,,,,,,,,,,,,,,,,,,,,,,,,,,,,,,,,,,,,,,,,,,,,,,,,,,,,,,,,,,,,,,,,,,,,,,,,,,,,,,,,,,,,,,,,,,,,,,
,,5f158fe3696881556b96de39,2023-12-15_10h08.54.286,kallum_motion_pilot,2023.2.3,Win32,59.43889681,5f158fe3696881556b96de39,657bb317c8798c6608bceb3f,657bb495d370c8d94ade15b8,0.0753,0.0755,0,25,25,92,1,sevenfive,,,,,,,,,,,,,,,,,,,,,,,,,,,,,,,,,,,,,,,,,,,,,,,,,,,,,,,,,,,,,,,,,,,,,,,,,,,,,,,,,,,,,,,,,,,,,,,,,,,,,,,,,,,,,,,,,,,,,,,,,,,,,,,,,,,,,,,
,,5f158fe3696881556b96de39,2023-12-15_10h08.54.286,kallum_motion_pilot,2023.2.3,Win32,59.43889681,5f158fe3696881556b96de39,657bb317c8798c6608bceb3f,657bb495d370c8d94ade15b8,0.0757,0.0759,0,26,26,112,1,fivesix,,,,,,,,,,,,,,,,,,,,,,,,,,,,,,,,,,,,,,,,,,,,,,,,,,,,,,,,,,,,,,,,,,,,,,,,,,,,,,,,,,,,,,,,,,,,,,,,,,,,,,,,,,,,,,,,,,,,,,,,,,,,,,,,,,,,,,,
,,5f158fe3696881556b96de39,2023-12-15_10h08.54.286,kallum_motion_pilot,2023.2.3,Win32,59.43889681,5f158fe3696881556b96de39,657bb317c8798c6608bceb3f,657bb495d370c8d94ade15b8,0.0763,0.0763,0,27,27,51,1,twofour,,,,,,,,,,,,,,,,,,,,,,,,,,,,,,,,,,,,,,,,,,,,,,,,,,,,,,,,,,,,,,,,,,,,,,,,,,,,,,,,,,,,,,,,,,,,,,,,,,,,,,,,,,,,,,,,,,,,,,,,,,,,,,,,,,,,,,,
,,5f158fe3696881556b96de39,2023-12-15_10h08.54.286,kallum_motion_pilot,2023.2.3,Win32,59.43889681,5f158fe3696881556b96de39,657bb317c8798c6608bceb3f,657bb495d370c8d94ade15b8,0.0765,0.0767,0,28,28,152,1,fivesix,,,,,,,,,,,,,,,,,,,,,,,,,,,,,,,,,,,,,,,,,,,,,,,,,,,,,,,,,,,,,,,,,,,,,,,,,,,,,,,,,,,,,,,,,,,,,,,,,,,,,,,,,,,,,,,,,,,,,,,,,,,,,,,,,,,,,,,
,,5f158fe3696881556b96de39,2023-12-15_10h08.54.286,kallum_motion_pilot,2023.2.3,Win32,59.43889681,5f158fe3696881556b96de39,657bb317c8798c6608bceb3f,657bb495d370c8d94ade15b8,0.077,0.0771,0,29,29,71,1,fourthree,,,,,,,,,,,,,,,,,,,,,,,,,,,,,,,,,,,,,,,,,,,,,,,,,,,,,,,,,,,,,,,,,,,,,,,,,,,,,,,,,,,,,,,,,,,,,,,,,,,,,,,,,,,,,,,,,,,,,,,,,,,,,,,,,,,,,,,
,,5f158fe3696881556b96de39,2023-12-15_10h08.54.286,kallum_motion_pilot,2023.2.3,Win32,59.43889681,5f158fe3696881556b96de39,657bb317c8798c6608bceb3f,657bb495d370c8d94ade15b8,0.0773,0.0775,0,30,30,134,1,eightsix,,,,,,,,,,,,,,,,,,,,,,,,,,,,,,,,,,,,,,,,,,,,,,,,,,,,,,,,,,,,,,,,,,,,,,,,,,,,,,,,,,,,,,,,,,,,,,,,,,,,,,,,,,,,,,,,,,,,,,,,,,,,,,,,,,,,,,,
,,5f158fe3696881556b96de39,2023-12-15_10h08.54.286,kallum_motion_pilot,2023.2.3,Win32,59.43889681,5f158fe3696881556b96de39,657bb317c8798c6608bceb3f,657bb495d370c8d94ade15b8,0.0776,0.0777,0,31,31,21,1,threefour,,,,,,,,,,,,,,,,,,,,,,,,,,,,,,,,,,,,,,,,,,,,,,,,,,,,,,,,,,,,,,,,,,,,,,,,,,,,,,,,,,,,,,,,,,,,,,,,,,,,,,,,,,,,,,,,,,,,,,,,,,,,,,,,,,,,,,,
,,5f158fe3696881556b96de39,2023-12-15_10h08.54.286,kallum_motion_pilot,2023.2.3,Win32,59.43889681,5f158fe3696881556b96de39,657bb317c8798c6608bceb3f,657bb495d370c8d94ade15b8,0.078,0.078,0,32,32,44,1,threeone,,,,,,,,,,,,,,,,,,,,,,,,,,,,,,,,,,,,,,,,,,,,,,,,,,,,,,,,,,,,,,,,,,,,,,,,,,,,,,,,,,,,,,,,,,,,,,,,,,,,,,,,,,,,,,,,,,,,,,,,,,,,,,,,,,,,,,,
,,5f158fe3696881556b96de39,2023-12-15_10h08.54.286,kallum_motion_pilot,2023.2.3,Win32,59.43889681,5f158fe3696881556b96de39,657bb317c8798c6608bceb3f,657bb495d370c8d94ade15b8,0.0783,0.0784,0,33,33,146,1,sixfive,,,,,,,,,,,,,,,,,,,,,,,,,,,,,,,,,,,,,,,,,,,,,,,,,,,,,,,,,,,,,,,,,,,,,,,,,,,,,,,,,,,,,,,,,,,,,,,,,,,,,,,,,,,,,,,,,,,,,,,,,,,,,,,,,,,,,,,
,,5f158fe3696881556b96de39,2023-12-15_10h08.54.286,kallum_motion_pilot,2023.2.3,Win32,59.43889681,5f158fe3696881556b96de39,657bb317c8798c6608bceb3f,657bb495d370c8d94ade15b8,0.0787,0.0788,0,34,34,105,1,fiveseven,,,,,,,,,,,,,,,,,,,,,,,,,,,,,,,,,,,,,,,,,,,,,,,,,,,,,,,,,,,,,,,,,,,,,,,,,,,,,,,,,,,,,,,,,,,,,,,,,,,,,,,,,,,,,,,,,,,,,,,,,,,,,,,,,,,,,,,
,,5f158fe3696881556b96de39,2023-12-15_10h08.54.286,kallum_motion_pilot,2023.2.3,Win32,59.43889681,5f158fe3696881556b96de39,657bb317c8798c6608bceb3f,657bb495d370c8d94ade15b8,0.0791,0.0792,0,35,35,84,1,sevenfive,,,,,,,,,,,,,,,,,,,,,,,,,,,,,,,,,,,,,,,,,,,,,,,,,,,,,,,,,,,,,,,,,,,,,,,,,,,,,,,,,,,,,,,,,,,,,,,,,,,,,,,,,,,,,,,,,,,,,,,,,,,,,,,,,,,,,,,
,,5f158fe3696881556b96de39,2023-12-15_10h08.54.286,kallum_motion_pilot,2023.2.3,Win32,59.43889681,5f158fe3696881556b96de39,657bb317c8798c6608bceb3f,657bb495d370c8d94ade15b8,0.0794,0.0795,0,36,36,69,1,threefour,,,,,,,,,,,,,,,,,,,,,,,,,,,,,,,,,,,,,,,,,,,,,,,,,,,,,,,,,,,,,,,,,,,,,,,,,,,,,,,,,,,,,,,,,,,,,,,,,,,,,,,,,,,,,,,,,,,,,,,,,,,,,,,,,,,,,,,
,,5f158fe3696881556b96de39,2023-12-15_10h08.54.286,kallum_motion_pilot,2023.2.3,Win32,59.43889681,5f158fe3696881556b96de39,657bb317c8798c6608bceb3f,657bb495d370c8d94ade15b8,0.0797,0.0799,0,37,37,115,1,sixeight,,,,,,,,,,,,,,,,,,,,,,,,,,,,,,,,,,,,,,,,,,,,,,,,,,,,,,,,,,,,,,,,,,,,,,,,,,,,,,,,,,,,,,,,,,,,,,,,,,,,,,,,,,,,,,,,,,,,,,,,,,,,,,,,,,,,,,,
,,5f158fe3696881556b96de39,2023-12-15_10h08.54.286,kallum_motion_pilot,2023.2.3,Win32,59.43889681,5f158fe3696881556b96de39,657bb317c8798c6608bceb3f,657bb495d370c8d94ade15b8,0.0801,0.0802,0,38,38,74,1,twoone,,,,,,,,,,,,,,,,,,,,,,,,,,,,,,,,,,,,,,,,,,,,,,,,,,,,,,,,,,,,,,,,,,,,,,,,,,,,,,,,,,,,,,,,,,,,,,,,,,,,,,,,,,,,,,,,,,,,,,,,,,,,,,,,,,,,,,,
,,5f158fe3696881556b96de39,2023-12-15_10h08.54.286,kallum_motion_pilot,2023.2.3,Win32,59.43889681,5f158fe3696881556b96de39,657bb317c8798c6608bceb3f,657bb495d370c8d94ade15b8,0.0805,0.0807,0,39,39,46,1,fourtwo,,,,,,,,,,,,,,,,,,,,,,,,,,,,,,,,,,,,,,,,,,,,,,,,,,,,,,,,,,,,,,,,,,,,,,,,,,,,,,,,,,,,,,,,,,,,,,,,,,,,,,,,,,,,,,,,,,,,,,,,,,,,,,,,,,,,,,,
,,5f158fe3696881556b96de39,2023-12-15_10h08.54.286,kallum_motion_pilot,2023.2.3,Win32,59.43889681,5f158fe3696881556b96de39,657bb317c8798c6608bceb3f,657bb495d370c8d94ade15b8,0.0808,0.081,0,40,40,16,1,onetwo,,,,,,,,,,,,,,,,,,,,,,,,,,,,,,,,,,,,,,,,,,,,,,,,,,,,,,,,,,,,,,,,,,,,,,,,,,,,,,,,,,,,,,,,,,,,,,,,,,,,,,,,,,,,,,,,,,,,,,,,,,,,,,,,,,,,,,,
,,5f158fe3696881556b96de39,2023-12-15_10h08.54.286,kallum_motion_pilot,2023.2.3,Win32,59.43889681,5f158fe3696881556b96de39,657bb317c8798c6608bceb3f,657bb495d370c8d94ade15b8,0.0812,0.0813,0,41,41,76,1,threeone,,,,,,,,,,,,,,,,,,,,,,,,,,,,,,,,,,,,,,,,,,,,,,,,,,,,,,,,,,,,,,,,,,,,,,,,,,,,,,,,,,,,,,,,,,,,,,,,,,,,,,,,,,,,,,,,,,,,,,,,,,,,,,,,,,,,,,,
,,5f158fe3696881556b96de39,2023-12-15_10h08.54.286,kallum_motion_pilot,2023.2.3,Win32,59.43889681,5f158fe3696881556b96de39,657bb317c8798c6608bceb3f,657bb495d370c8d94ade15b8,0.0815,0.0817,0,42,42,143,1,eightseven,,,,,,,,,,,,,,,,,,,,,,,,,,,,,,,,,,,,,,,,,,,,,,,,,,,,,,,,,,,,,,,,,,,,,,,,,,,,,,,,,,,,,,,,,,,,,,,,,,,,,,,,,,,,,,,,,,,,,,,,,,,,,,,,,,,,,,,
,,5f158fe3696881556b96de39,2023-12-15_10h08.54.286,kallum_motion_pilot,2023.2.3,Win32,59.43889681,5f158fe3696881556b96de39,657bb317c8798c6608bceb3f,657bb495d370c8d94ade15b8,0.0819,0.0821,0,43,43,117,1,seveneight,,,,,,,,,,,,,,,,,,,,,,,,,,,,,,,,,,,,,,,,,,,,,,,,,,,,,,,,,,,,,,,,,,,,,,,,,,,,,,,,,,,,,,,,,,,,,,,,,,,,,,,,,,,,,,,,,,,,,,,,,,,,,,,,,,,,,,,
,,5f158fe3696881556b96de39,2023-12-15_10h08.54.286,kallum_motion_pilot,2023.2.3,Win32,59.43889681,5f158fe3696881556b96de39,657bb317c8798c6608bceb3f,657bb495d370c8d94ade15b8,0.0823,0.0824,0,44,44,108,1,sevenfive,,,,,,,,,,,,,,,,,,,,,,,,,,,,,,,,,,,,,,,,,,,,,,,,,,,,,,,,,,,,,,,,,,,,,,,,,,,,,,,,,,,,,,,,,,,,,,,,,,,,,,,,,,,,,,,,,,,,,,,,,,,,,,,,,,,,,,,
,,5f158fe3696881556b96de39,2023-12-15_10h08.54.286,kallum_motion_pilot,2023.2.3,Win32,59.43889681,5f158fe3696881556b96de39,657bb317c8798c6608bceb3f,657bb495d370c8d94ade15b8,0.0826,0.0827,0,45,45,73,1,onethree,,,,,,,,,,,,,,,,,,,,,,,,,,,,,,,,,,,,,,,,,,,,,,,,,,,,,,,,,,,,,,,,,,,,,,,,,,,,,,,,,,,,,,,,,,,,,,,,,,,,,,,,,,,,,,,,,,,,,,,,,,,,,,,,,,,,,,,
,,5f158fe3696881556b96de39,2023-12-15_10h08.54.286,kallum_motion_pilot,2023.2.3,Win32,59.43889681,5f158fe3696881556b96de39,657bb317c8798c6608bceb3f,657bb495d370c8d94ade15b8,0.083,0.0831,0,46,46,155,1,sixeight,,,,,,,,,,,,,,,,,,,,,,,,,,,,,,,,,,,,,,,,,,,,,,,,,,,,,,,,,,,,,,,,,,,,,,,,,,,,,,,,,,,,,,,,,,,,,,,,,,,,,,,,,,,,,,,,,,,,,,,,,,,,,,,,,,,,,,,
,,5f158fe3696881556b96de39,2023-12-15_10h08.54.286,kallum_motion_pilot,2023.2.3,Win32,59.43889681,5f158fe3696881556b96de39,657bb317c8798c6608bceb3f,657bb495d370c8d94ade15b8,0.0833,0.0833,0,47,47,85,1,seveneight,,,,,,,,,,,,,,,,,,,,,,,,,,,,,,,,,,,,,,,,,,,,,,,,,,,,,,,,,,,,,,,,,,,,,,,,,,,,,,,,,,,,,,,,,,,,,,,,,,,,,,,,,,,,,,,,,,,,,,,,,,,,,,,,,,,,,,,
,,5f158fe3696881556b96de39,2023-12-15_10h08.54.286,kallum_motion_pilot,2023.2.3,Win32,59.43889681,5f158fe3696881556b96de39,657bb317c8798c6608bceb3f,657bb495d370c8d94ade15b8,0.0836,0.0837,0,48,48,72,1,onetwo,,,,,,,,,,,,,,,,,,,,,,,,,,,,,,,,,,,,,,,,,,,,,,,,,,,,,,,,,,,,,,,,,,,,,,,,,,,,,,,,,,,,,,,,,,,,,,,,,,,,,,,,,,,,,,,,,,,,,,,,,,,,,,,,,,,,,,,
,,5f158fe3696881556b96de39,2023-12-15_10h08.54.286,kallum_motion_pilot,2023.2.3,Win32,59.43889681,5f158fe3696881556b96de39,657bb317c8798c6608bceb3f,657bb495d370c8d94ade15b8,0.0839,0.0841,0,49,49,18,1,twoone,,,,,,,,,,,,,,,,,,,,,,,,,,,,,,,,,,,,,,,,,,,,,,,,,,,,,,,,,,,,,,,,,,,,,,,,,,,,,,,,,,,,,,,,,,,,,,,,,,,,,,,,,,,,,,,,,,,,,,,,,,,,,,,,,,,,,,,
,,5f158fe3696881556b96de39,2023-12-15_10h08.54.286,kallum_motion_pilot,2023.2.3,Win32,59.43889681,5f158fe3696881556b96de39,657bb317c8798c6608bceb3f,657bb495d370c8d94ade15b8,0.0845,0.0846,0,50,50,59,1,twofour,,,,,,,,,,,,,,,,,,,,,,,,,,,,,,,,,,,,,,,,,,,,,,,,,,,,,,,,,,,,,,,,,,,,,,,,,,,,,,,,,,,,,,,,,,,,,,,,,,,,,,,,,,,,,,,,,,,,,,,,,,,,,,,,,,,,,,,
,,5f158fe3696881556b96de39,2023-12-15_10h08.54.286,kallum_motion_pilot,2023.2.3,Win32,59.43889681,5f158fe3696881556b96de39,657bb317c8798c6608bceb3f,657bb495d370c8d94ade15b8,0.0855,0.0858,0,51,51,102,1,eightsix,,,,,,,,,,,,,,,,,,,,,,,,,,,,,,,,,,,,,,,,,,,,,,,,,,,,,,,,,,,,,,,,,,,,,,,,,,,,,,,,,,,,,,,,,,,,,,,,,,,,,,,,,,,,,,,,,,,,,,,,,,,,,,,,,,,,,,,
,,5f158fe3696881556b96de39,2023-12-15_10h08.54.286,kallum_motion_pilot,2023.2.3,Win32,59.43889681,5f158fe3696881556b96de39,657bb317c8798c6608bceb3f,657bb495d370c8d94ade15b8,0.0864,0.0867,0,52,52,90,1,sixfive,,,,,,,,,,,,,,,,,,,,,,,,,,,,,,,,,,,,,,,,,,,,,,,,,,,,,,,,,,,,,,,,,,,,,,,,,,,,,,,,,,,,,,,,,,,,,,,,,,,,,,,,,,,,,,,,,,,,,,,,,,,,,,,,,,,,,,,
,,5f158fe3696881556b96de39,2023-12-15_10h08.54.286,kallum_motion_pilot,2023.2.3,Win32,59.43889681,5f158fe3696881556b96de39,657bb317c8798c6608bceb3f,657bb495d370c8d94ade15b8,0.0869,0.0871,0,53,53,25,1,onethree,,,,,,,,,,,,,,,,,,,,,,,,,,,,,,,,,,,,,,,,,,,,,,,,,,,,,,,,,,,,,,,,,,,,,,,,,,,,,,,,,,,,,,,,,,,,,,,,,,,,,,,,,,,,,,,,,,,,,,,,,,,,,,,,,,,,,,,
,,5f158fe3696881556b96de39,2023-12-15_10h08.54.286,kallum_motion_pilot,2023.2.3,Win32,59.43889681,5f158fe3696881556b96de39,657bb317c8798c6608bceb3f,657bb495d370c8d94ade15b8,0.0873,0.0875,0,54,54,158,1,eightsix,,,,,,,,,,,,,,,,,,,,,,,,,,,,,,,,,,,,,,,,,,,,,,,,,,,,,,,,,,,,,,,,,,,,,,,,,,,,,,,,,,,,,,,,,,,,,,,,,,,,,,,,,,,,,,,,,,,,,,,,,,,,,,,,,,,,,,,
,,5f158fe3696881556b96de39,2023-12-15_10h08.54.286,kallum_motion_pilot,2023.2.3,Win32,59.43889681,5f158fe3696881556b96de39,657bb317c8798c6608bceb3f,657bb495d370c8d94ade15b8,0.0877,0.0879,0,55,55,161,1,fiveseven,,,,,,,,,,,,,,,,,,,,,,,,,,,,,,,,,,,,,,,,,,,,,,,,,,,,,,,,,,,,,,,,,,,,,,,,,,,,,,,,,,,,,,,,,,,,,,,,,,,,,,,,,,,,,,,,,,,,,,,,,,,,,,,,,,,,,,,
,,5f158fe3696881556b96de39,2023-12-15_10h08.54.286,kallum_motion_pilot,2023.2.3,Win32,59.43889681,5f158fe3696881556b96de39,657bb317c8798c6608bceb3f,657bb495d370c8d94ade15b8,0.088,0.0881,0,56,56,121,1,fiveseven,,,,,,,,,,,,,,,,,,,,,,,,,,,,,,,,,,,,,,,,,,,,,,,,,,,,,,,,,,,,,,,,,,,,,,,,,,,,,,,,,,,,,,,,,,,,,,,,,,,,,,,,,,,,,,,,,,,,,,,,,,,,,,,,,,,,,,,
,,5f158fe3696881556b96de39,2023-12-15_10h08.54.286,kallum_motion_pilot,2023.2.3,Win32,59.43889681,5f158fe3696881556b96de39,657bb317c8798c6608bceb3f,657bb495d370c8d94ade15b8,0.0884,0.0886,0,57,57,68,1,threeone,,,,,,,,,,,,,,,,,,,,,,,,,,,,,,,,,,,,,,,,,,,,,,,,,,,,,,,,,,,,,,,,,,,,,,,,,,,,,,,,,,,,,,,,,,,,,,,,,,,,,,,,,,,,,,,,,,,,,,,,,,,,,,,,,,,,,,,
,,5f158fe3696881556b96de39,2023-12-15_10h08.54.286,kallum_motion_pilot,2023.2.3,Win32,59.43889681,5f158fe3696881556b96de39,657bb317c8798c6608bceb3f,657bb495d370c8d94ade15b8,0.0887,0.0889,0,58,58,66,1,twoone,,,,,,,,,,,,,,,,,,,,,,,,,,,,,,,,,,,,,,,,,,,,,,,,,,,,,,,,,,,,,,,,,,,,,,,,,,,,,,,,,,,,,,,,,,,,,,,,,,,,,,,,,,,,,,,,,,,,,,,,,,,,,,,,,,,,,,,
,,5f158fe3696881556b96de39,2023-12-15_10h08.54.286,kallum_motion_pilot,2023.2.3,Win32,59.43889681,5f158fe3696881556b96de39,657bb317c8798c6608bceb3f,657bb495d370c8d94ade15b8,0.0892,0.0893,0,59,59,135,1,eightseven,,,,,,,,,,,,,,,,,,,,,,,,,,,,,,,,,,,,,,,,,,,,,,,,,,,,,,,,,,,,,,,,,,,,,,,,,,,,,,,,,,,,,,,,,,,,,,,,,,,,,,,,,,,,,,,,,,,,,,,,,,,,,,,,,,,,,,,
,,5f158fe3696881556b96de39,2023-12-15_10h08.54.286,kallum_motion_pilot,2023.2.3,Win32,59.43889681,5f158fe3696881556b96de39,657bb317c8798c6608bceb3f,657bb495d370c8d94ade15b8,0.0899,0.0899,0,60,60,141,1,seveneight,,,,,,,,,,,,,,,,,,,,,,,,,,,,,,,,,,,,,,,,,,,,,,,,,,,,,,,,,,,,,,,,,,,,,,,,,,,,,,,,,,,,,,,,,,,,,,,,,,,,,,,,,,,,,,,,,,,,,,,,,,,,,,,,,,,,,,,
,,5f158fe3696881556b96de39,2023-12-15_10h08.54.286,kallum_motion_pilot,2023.2.3,Win32,59.43889681,5f158fe3696881556b96de39,657bb317c8798c6608bceb3f,657bb495d370c8d94ade15b8,0.0903,0.0904,0,61,61,94,1,eightsix,,,,,,,,,,,,,,,,,,,,,,,,,,,,,,,,,,,,,,,,,,,,,,,,,,,,,,,,,,,,,,,,,,,,,,,,,,,,,,,,,,,,,,,,,,,,,,,,,,,,,,,,,,,,,,,,,,,,,,,,,,,,,,,,,,,,,,,
,,5f158fe3696881556b96de39,2023-12-15_10h08.54.286,kallum_motion_pilot,2023.2.3,Win32,59.43889681,5f158fe3696881556b96de39,657bb317c8798c6608bceb3f,657bb495d370c8d94ade15b8,0.0906,0.0907,0,62,62,91,1,sixeight,,,,,,,,,,,,,,,,,,,,,,,,,,,,,,,,,,,,,,,,,,,,,,,,,,,,,,,,,,,,,,,,,,,,,,,,,,,,,,,,,,,,,,,,,,,,,,,,,,,,,,,,,,,,,,,,,,,,,,,,,,,,,,,,,,,,,,,
,,5f158fe3696881556b96de39,2023-12-15_10h08.54.286,kallum_motion_pilot,2023.2.3,Win32,59.43889681,5f158fe3696881556b96de39,657bb317c8798c6608bceb3f,657bb495d370c8d94ade15b8,0.0911,0.0912,0,63,63,67,1,twofour,,,,,,,,,,,,,,,,,,,,,,,,,,,,,,,,,,,,,,,,,,,,,,,,,,,,,,,,,,,,,,,,,,,,,,,,,,,,,,,,,,,,,,,,,,,,,,,,,,,,,,,,,,,,,,,,,,,,,,,,,,,,,,,,,,,,,,,
,,5f158fe3696881556b96de39,2023-12-15_10h08.54.286,kallum_motion_pilot,2023.2.3,Win32,59.43889681,5f158fe3696881556b96de39,657bb317c8798c6608bceb3f,657bb495d370c8d94ade15b8,0.0916,0.0918,0,64,64,113,1,fiveseven,,,,,,,,,,,,,,,,,,,,,,,,,,,,,,,,,,,,,,,,,,,,,,,,,,,,,,,,,,,,,,,,,,,,,,,,,,,,,,,,,,,,,,,,,,,,,,,,,,,,,,,,,,,,,,,,,,,,,,,,,,,,,,,,,,,,,,,
,,5f158fe3696881556b96de39,2023-12-15_10h08.54.286,kallum_motion_pilot,2023.2.3,Win32,59.43889681,5f158fe3696881556b96de39,657bb317c8798c6608bceb3f,657bb495d370c8d94ade15b8,0.0921,0.0924,0,65,65,5,1,threefour,,,,,,,,,,,,,,,,,,,,,,,,,,,,,,,,,,,,,,,,,,,,,,,,,,,,,,,,,,,,,,,,,,,,,,,,,,,,,,,,,,,,,,,,,,,,,,,,,,,,,,,,,,,,,,,,,,,,,,,,,,,,,,,,,,,,,,,
,,5f158fe3696881556b96de39,2023-12-15_10h08.54.286,kallum_motion_pilot,2023.2.3,Win32,59.43889681,5f158fe3696881556b96de39,657bb317c8798c6608bceb3f,657bb495d370c8d94ade15b8,0.0926,0.0926,0,66,66,41,1,onethree,,,,,,,,,,,,,,,,,,,,,,,,,,,,,,,,,,,,,,,,,,,,,,,,,,,,,,,,,,,,,,,,,,,,,,,,,,,,,,,,,,,,,,,,,,,,,,,,,,,,,,,,,,,,,,,,,,,,,,,,,,,,,,,,,,,,,,,
,,5f158fe3696881556b96de39,2023-12-15_10h08.54.286,kallum_motion_pilot,2023.2.3,Win32,59.43889681,5f158fe3696881556b96de39,657bb317c8798c6608bceb3f,657bb495d370c8d94ade15b8,0.0929,0.093,0,67,67,82,1,sixfive,,,,,,,,,,,,,,,,,,,,,,,,,,,,,,,,,,,,,,,,,,,,,,,,,,,,,,,,,,,,,,,,,,,,,,,,,,,,,,,,,,,,,,,,,,,,,,,,,,,,,,,,,,,,,,,,,,,,,,,,,,,,,,,,,,,,,,,
,,5f158fe3696881556b96de39,2023-12-15_10h08.54.286,kallum_motion_pilot,2023.2.3,Win32,59.43889681,5f158fe3696881556b96de39,657bb317c8798c6608bceb3f,657bb495d370c8d94ade15b8,0.0932,0.0933,0,68,68,75,1,twofour,,,,,,,,,,,,,,,,,,,,,,,,,,,,,,,,,,,,,,,,,,,,,,,,,,,,,,,,,,,,,,,,,,,,,,,,,,,,,,,,,,,,,,,,,,,,,,,,,,,,,,,,,,,,,,,,,,,,,,,,,,,,,,,,,,,,,,,
,,5f158fe3696881556b96de39,2023-12-15_10h08.54.286,kallum_motion_pilot,2023.2.3,Win32,59.43889681,5f158fe3696881556b96de39,657bb317c8798c6608bceb3f,657bb495d370c8d94ade15b8,0.0935,0.0937,0,69,69,9,1,onethree,,,,,,,,,,,,,,,,,,,,,,,,,,,,,,,,,,,,,,,,,,,,,,,,,,,,,,,,,,,,,,,,,,,,,,,,,,,,,,,,,,,,,,,,,,,,,,,,,,,,,,,,,,,,,,,,,,,,,,,,,,,,,,,,,,,,,,,
,,5f158fe3696881556b96de39,2023-12-15_10h08.54.286,kallum_motion_pilot,2023.2.3,Win32,59.43889681,5f158fe3696881556b96de39,657bb317c8798c6608bceb3f,657bb495d370c8d94ade15b8,0.0939,0.094,0,70,70,89,1,fiveseven,,,,,,,,,,,,,,,,,,,,,,,,,,,,,,,,,,,,,,,,,,,,,,,,,,,,,,,,,,,,,,,,,,,,,,,,,,,,,,,,,,,,,,,,,,,,,,,,,,,,,,,,,,,,,,,,,,,,,,,,,,,,,,,,,,,,,,,
,,5f158fe3696881556b96de39,2023-12-15_10h08.54.286,kallum_motion_pilot,2023.2.3,Win32,59.43889681,5f158fe3696881556b96de39,657bb317c8798c6608bceb3f,657bb495d370c8d94ade15b8,0.0943,0.0943,0,71,71,97,1,fiveseven,,,,,,,,,,,,,,,,,,,,,,,,,,,,,,,,,,,,,,,,,,,,,,,,,,,,,,,,,,,,,,,,,,,,,,,,,,,,,,,,,,,,,,,,,,,,,,,,,,,,,,,,,,,,,,,,,,,,,,,,,,,,,,,,,,,,,,,
,,5f158fe3696881556b96de39,2023-12-15_10h08.54.286,kallum_motion_pilot,2023.2.3,Win32,59.43889681,5f158fe3696881556b96de39,657bb317c8798c6608bceb3f,657bb495d370c8d94ade15b8,0.0946,0.0947,0,72,72,120,1,fivesix,,,,,,,,,,,,,,,,,,,,,,,,,,,,,,,,,,,,,,,,,,,,,,,,,,,,,,,,,,,,,,,,,,,,,,,,,,,,,,,,,,,,,,,,,,,,,,,,,,,,,,,,,,,,,,,,,,,,,,,,,,,,,,,,,,,,,,,
,,5f158fe3696881556b96de39,2023-12-15_10h08.54.286,kallum_motion_pilot,2023.2.3,Win32,59.43889681,5f158fe3696881556b96de39,657bb317c8798c6608bceb3f,657bb495d370c8d94ade15b8,0.0949,0.0951,0,73,73,43,1,twofour,,,,,,,,,,,,,,,,,,,,,,,,,,,,,,,,,,,,,,,,,,,,,,,,,,,,,,,,,,,,,,,,,,,,,,,,,,,,,,,,,,,,,,,,,,,,,,,,,,,,,,,,,,,,,,,,,,,,,,,,,,,,,,,,,,,,,,,
,,5f158fe3696881556b96de39,2023-12-15_10h08.54.286,kallum_motion_pilot,2023.2.3,Win32,59.43889681,5f158fe3696881556b96de39,657bb317c8798c6608bceb3f,657bb495d370c8d94ade15b8,0.0953,0.0954,0,74,74,0,1,onetwo,,,,,,,,,,,,,,,,,,,,,,,,,,,,,,,,,,,,,,,,,,,,,,,,,,,,,,,,,,,,,,,,,,,,,,,,,,,,,,,,,,,,,,,,,,,,,,,,,,,,,,,,,,,,,,,,,,,,,,,,,,,,,,,,,,,,,,,
,,5f158fe3696881556b96de39,2023-12-15_10h08.54.286,kallum_motion_pilot,2023.2.3,Win32,59.43889681,5f158fe3696881556b96de39,657bb317c8798c6608bceb3f,657bb495d370c8d94ade15b8,0.0956,0.0957,0,75,75,1,1,onethree,,,,,,,,,,,,,,,,,,,,,,,,,,,,,,,,,,,,,,,,,,,,,,,,,,,,,,,,,,,,,,,,,,,,,,,,,,,,,,,,,,,,,,,,,,,,,,,,,,,,,,,,,,,,,,,,,,,,,,,,,,,,,,,,,,,,,,,
,,5f158fe3696881556b96de39,2023-12-15_10h08.54.286,kallum_motion_pilot,2023.2.3,Win32,59.43889681,5f158fe3696881556b96de39,657bb317c8798c6608bceb3f,657bb495d370c8d94ade15b8,0.096,0.0961,0,76,76,39,1,fourthree,,,,,,,,,,,,,,,,,,,,,,,,,,,,,,,,,,,,,,,,,,,,,,,,,,,,,,,,,,,,,,,,,,,,,,,,,,,,,,,,,,,,,,,,,,,,,,,,,,,,,,,,,,,,,,,,,,,,,,,,,,,,,,,,,,,,,,,
,,5f158fe3696881556b96de39,2023-12-15_10h08.54.286,kallum_motion_pilot,2023.2.3,Win32,59.43889681,5f158fe3696881556b96de39,657bb317c8798c6608bceb3f,657bb495d370c8d94ade15b8,0.0963,0.0964,0,77,77,131,1,sixeight,,,,,,,,,,,,,,,,,,,,,,,,,,,,,,,,,,,,,,,,,,,,,,,,,,,,,,,,,,,,,,,,,,,,,,,,,,,,,,,,,,,,,,,,,,,,,,,,,,,,,,,,,,,,,,,,,,,,,,,,,,,,,,,,,,,,,,,
,,5f158fe3696881556b96de39,2023-12-15_10h08.54.286,kallum_motion_pilot,2023.2.3,Win32,59.43889681,5f158fe3696881556b96de39,657bb317c8798c6608bceb3f,657bb495d370c8d94ade15b8,0.0966,0.0968,0,78,78,114,1,sixfive,,,,,,,,,,,,,,,,,,,,,,,,,,,,,,,,,,,,,,,,,,,,,,,,,,,,,,,,,,,,,,,,,,,,,,,,,,,,,,,,,,,,,,,,,,,,,,,,,,,,,,,,,,,,,,,,,,,,,,,,,,,,,,,,,,,,,,,
,,5f158fe3696881556b96de39,2023-12-15_10h08.54.286,kallum_motion_pilot,2023.2.3,Win32,59.43889681,5f158fe3696881556b96de39,657bb317c8798c6608bceb3f,657bb495d370c8d94ade15b8,0.0971,0.0972,0,79,79,157,1,seveneight,,,,,,,,,,,,,,,,,,,,,,,,,,,,,,,,,,,,,,,,,,,,,,,,,,,,,,,,,,,,,,,,,,,,,,,,,,,,,,,,,,,,,,,,,,,,,,,,,,,,,,,,,,,,,,,,,,,,,,,,,,,,,,,,,,,,,,,
,,5f158fe3696881556b96de39,2023-12-15_10h08.54.286,kallum_motion_pilot,2023.2.3,Win32,59.43889681,5f158fe3696881556b96de39,657bb317c8798c6608bceb3f,657bb495d370c8d94ade15b8,0.0975,0.0976,0,80,80,138,1,sixfive,,,,,,,,,,,,,,,,,,,,,,,,,,,,,,,,,,,,,,,,,,,,,,,,,,,,,,,,,,,,,,,,,,,,,,,,,,,,,,,,,,,,,,,,,,,,,,,,,,,,,,,,,,,,,,,,,,,,,,,,,,,,,,,,,,,,,,,
,,5f158fe3696881556b96de39,2023-12-15_10h08.54.286,kallum_motion_pilot,2023.2.3,Win32,59.43889681,5f158fe3696881556b96de39,657bb317c8798c6608bceb3f,657bb495d370c8d94ade15b8,0.0978,0.0979,0,81,81,2,1,twoone,,,,,,,,,,,,,,,,,,,,,,,,,,,,,,,,,,,,,,,,,,,,,,,,,,,,,,,,,,,,,,,,,,,,,,,,,,,,,,,,,,,,,,,,,,,,,,,,,,,,,,,,,,,,,,,,,,,,,,,,,,,,,,,,,,,,,,,
,,5f158fe3696881556b96de39,2023-12-15_10h08.54.286,kallum_motion_pilot,2023.2.3,Win32,59.43889681,5f158fe3696881556b96de39,657bb317c8798c6608bceb3f,657bb495d370c8d94ade15b8,0.0981,0.0981,0,82,82,24,1,onetwo,,,,,,,,,,,,,,,,,,,,,,,,,,,,,,,,,,,,,,,,,,,,,,,,,,,,,,,,,,,,,,,,,,,,,,,,,,,,,,,,,,,,,,,,,,,,,,,,,,,,,,,,,,,,,,,,,,,,,,,,,,,,,,,,,,,,,,,
,,5f158fe3696881556b96de39,2023-12-15_10h08.54.286,kallum_motion_pilot,2023.2.3,Win32,59.43889681,5f158fe3696881556b96de39,657bb317c8798c6608bceb3f,657bb495d370c8d94ade15b8,0.0984,0.0985,0,83,83,136,1,fivesix,,,,,,,,,,,,,,,,,,,,,,,,,,,,,,,,,,,,,,,,,,,,,,,,,,,,,,,,,,,,,,,,,,,,,,,,,,,,,,,,,,,,,,,,,,,,,,,,,,,,,,,,,,,,,,,,,,,,,,,,,,,,,,,,,,,,,,,
,,5f158fe3696881556b96de39,2023-12-15_10h08.54.286,kallum_motion_pilot,2023.2.3,Win32,59.43889681,5f158fe3696881556b96de39,657bb317c8798c6608bceb3f,657bb495d370c8d94ade15b8,0.0987,0.0988,0,84,84,148,1,sevenfive,,,,,,,,,,,,,,,,,,,,,,,,,,,,,,,,,,,,,,,,,,,,,,,,,,,,,,,,,,,,,,,,,,,,,,,,,,,,,,,,,,,,,,,,,,,,,,,,,,,,,,,,,,,,,,,,,,,,,,,,,,,,,,,,,,,,,,,
,,5f158fe3696881556b96de39,2023-12-15_10h08.54.286,kallum_motion_pilot,2023.2.3,Win32,59.43889681,5f158fe3696881556b96de39,657bb317c8798c6608bceb3f,657bb495d370c8d94ade15b8,0.0991,0.0991,0,85,85,63,1,fourthree,,,,,,,,,,,,,,,,,,,,,,,,,,,,,,,,,,,,,,,,,,,,,,,,,,,,,,,,,,,,,,,,,,,,,,,,,,,,,,,,,,,,,,,,,,,,,,,,,,,,,,,,,,,,,,,,,,,,,,,,,,,,,,,,,,,,,,,
,,5f158fe3696881556b96de39,2023-12-15_10h08.54.286,kallum_motion_pilot,2023.2.3,Win32,59.43889681,5f158fe3696881556b96de39,657bb317c8798c6608bceb3f,657bb495d370c8d94ade15b8,0.0994,0.0995,0,86,86,133,1,seveneight,,,,,,,,,,,,,,,,,,,,,,,,,,,,,,,,,,,,,,,,,,,,,,,,,,,,,,,,,,,,,,,,,,,,,,,,,,,,,,,,,,,,,,,,,,,,,,,,,,,,,,,,,,,,,,,,,,,,,,,,,,,,,,,,,,,,,,,
,,5f158fe3696881556b96de39,2023-12-15_10h08.54.286,kallum_motion_pilot,2023.2.3,Win32,59.43889681,5f158fe3696881556b96de39,657bb317c8798c6608bceb3f,657bb495d370c8d94ade15b8,0.0997,0.0998,0,87,87,35,1,twofour,,,,,,,,,,,,,,,,,,,,,,,,,,,,,,,,,,,,,,,,,,,,,,,,,,,,,,,,,,,,,,,,,,,,,,,,,,,,,,,,,,,,,,,,,,,,,,,,,,,,,,,,,,,,,,,,,,,,,,,,,,,,,,,,,,,,,,,
,,5f158fe3696881556b96de39,2023-12-15_10h08.54.286,kallum_motion_pilot,2023.2.3,Win32,59.43889681,5f158fe3696881556b96de39,657bb317c8798c6608bceb3f,657bb495d370c8d94ade15b8,0.1,0.1001,0,88,88,17,1,onethree,,,,,,,,,,,,,,,,,,,,,,,,,,,,,,,,,,,,,,,,,,,,,,,,,,,,,,,,,,,,,,,,,,,,,,,,,,,,,,,,,,,,,,,,,,,,,,,,,,,,,,,,,,,,,,,,,,,,,,,,,,,,,,,,,,,,,,,
,,5f158fe3696881556b96de39,2023-12-15_10h08.54.286,kallum_motion_pilot,2023.2.3,Win32,59.43889681,5f158fe3696881556b96de39,657bb317c8798c6608bceb3f,657bb495d370c8d94ade15b8,0.1004,0.1005,0,89,89,70,1,fourtwo,,,,,,,,,,,,,,,,,,,,,,,,,,,,,,,,,,,,,,,,,,,,,,,,,,,,,,,,,,,,,,,,,,,,,,,,,,,,,,,,,,,,,,,,,,,,,,,,,,,,,,,,,,,,,,,,,,,,,,,,,,,,,,,,,,,,,,,
,,5f158fe3696881556b96de39,2023-12-15_10h08.54.286,kallum_motion_pilot,2023.2.3,Win32,59.43889681,5f158fe3696881556b96de39,657bb317c8798c6608bceb3f,657bb495d370c8d94ade15b8,0.1006,0.1007,0,90,90,40,1,onetwo,,,,,,,,,,,,,,,,,,,,,,,,,,,,,,,,,,,,,,,,,,,,,,,,,,,,,,,,,,,,,,,,,,,,,,,,,,,,,,,,,,,,,,,,,,,,,,,,,,,,,,,,,,,,,,,,,,,,,,,,,,,,,,,,,,,,,,,
,,5f158fe3696881556b96de39,2023-12-15_10h08.54.286,kallum_motion_pilot,2023.2.3,Win32,59.43889681,5f158fe3696881556b96de39,657bb317c8798c6608bceb3f,657bb495d370c8d94ade15b8,0.101,0.1012,0,91,91,144,1,fivesix,,,,,,,,,,,,,,,,,,,,,,,,,,,,,,,,,,,,,,,,,,,,,,,,,,,,,,,,,,,,,,,,,,,,,,,,,,,,,,,,,,,,,,,,,,,,,,,,,,,,,,,,,,,,,,,,,,,,,,,,,,,,,,,,,,,,,,,
,,5f158fe3696881556b96de39,2023-12-15_10h08.54.286,kallum_motion_pilot,2023.2.3,Win32,59.43889681,5f158fe3696881556b96de39,657bb317c8798c6608bceb3f,657bb495d370c8d94ade15b8,0.1013,0.1027,0,92,92,78,1,fourtwo,,,,,,,,,,,,,,,,,,,,,,,,,,,,,,,,,,,,,,,,,,,,,,,,,,,,,,,,,,,,,,,,,,,,,,,,,,,,,,,,,,,,,,,,,,,,,,,,,,,,,,,,,,,,,,,,,,,,,,,,,,,,,,,,,,,,,,,
,,5f158fe3696881556b96de39,2023-12-15_10h08.54.286,kallum_motion_pilot,2023.2.3,Win32,59.43889681,5f158fe3696881556b96de39,657bb317c8798c6608bceb3f,657bb495d370c8d94ade15b8,0.1033,0.1034,0,93,93,53,1,threefour,,,,,,,,,,,,,,,,,,,,,,,,,,,,,,,,,,,,,,,,,,,,,,,,,,,,,,,,,,,,,,,,,,,,,,,,,,,,,,,,,,,,,,,,,,,,,,,,,,,,,,,,,,,,,,,,,,,,,,,,,,,,,,,,,,,,,,,
,,5f158fe3696881556b96de39,2023-12-15_10h08.54.286,kallum_motion_pilot,2023.2.3,Win32,59.43889681,5f158fe3696881556b96de39,657bb317c8798c6608bceb3f,657bb495d370c8d94ade15b8,0.1038,0.1038,0,94,94,116,1,sevenfive,,,,,,,,,,,,,,,,,,,,,,,,,,,,,,,,,,,,,,,,,,,,,,,,,,,,,,,,,,,,,,,,,,,,,,,,,,,,,,,,,,,,,,,,,,,,,,,,,,,,,,,,,,,,,,,,,,,,,,,,,,,,,,,,,,,,,,,
,,5f158fe3696881556b96de39,2023-12-15_10h08.54.286,kallum_motion_pilot,2023.2.3,Win32,59.43889681,5f158fe3696881556b96de39,657bb317c8798c6608bceb3f,657bb495d370c8d94ade15b8,0.104,0.1042,0,95,95,23,1,fourthree,,,,,,,,,,,,,,,,,,,,,,,,,,,,,,,,,,,,,,,,,,,,,,,,,,,,,,,,,,,,,,,,,,,,,,,,,,,,,,,,,,,,,,,,,,,,,,,,,,,,,,,,,,,,,,,,,,,,,,,,,,,,,,,,,,,,,,,
,,5f158fe3696881556b96de39,2023-12-15_10h08.54.286,kallum_motion_pilot,2023.2.3,Win32,59.43889681,5f158fe3696881556b96de39,657bb317c8798c6608bceb3f,657bb495d370c8d94ade15b8,0.1044,0.1045,0,96,96,122,1,sixfive,,,,,,,,,,,,,,,,,,,,,,,,,,,,,,,,,,,,,,,,,,,,,,,,,,,,,,,,,,,,,,,,,,,,,,,,,,,,,,,,,,,,,,,,,,,,,,,,,,,,,,,,,,,,,,,,,,,,,,,,,,,,,,,,,,,,,,,
,,5f158fe3696881556b96de39,2023-12-15_10h08.54.286,kallum_motion_pilot,2023.2.3,Win32,59.43889681,5f158fe3696881556b96de39,657bb317c8798c6608bceb3f,657bb495d370c8d94ade15b8,0.1048,0.1049,0,97,97,83,1,sixeight,,,,,,,,,,,,,,,,,,,,,,,,,,,,,,,,,,,,,,,,,,,,,,,,,,,,,,,,,,,,,,,,,,,,,,,,,,,,,,,,,,,,,,,,,,,,,,,,,,,,,,,,,,,,,,,,,,,,,,,,,,,,,,,,,,,,,,,
,,5f158fe3696881556b96de39,2023-12-15_10h08.54.286,kallum_motion_pilot,2023.2.3,Win32,59.43889681,5f158fe3696881556b96de39,657bb317c8798c6608bceb3f,657bb495d370c8d94ade15b8,0.1052,0.1054,0,98,98,37,1,threefour,,,,,,,,,,,,,,,,,,,,,,,,,,,,,,,,,,,,,,,,,,,,,,,,,,,,,,,,,,,,,,,,,,,,,,,,,,,,,,,,,,,,,,,,,,,,,,,,,,,,,,,,,,,,,,,,,,,,,,,,,,,,,,,,,,,,,,,
,,5f158fe3696881556b96de39,2023-12-15_10h08.54.286,kallum_motion_pilot,2023.2.3,Win32,59.43889681,5f158fe3696881556b96de39,657bb317c8798c6608bceb3f,657bb495d370c8d94ade15b8,0.1058,0.1058,0,99,99,55,1,fourthree,,,,,,,,,,,,,,,,,,,,,,,,,,,,,,,,,,,,,,,,,,,,,,,,,,,,,,,,,,,,,,,,,,,,,,,,,,,,,,,,,,,,,,,,,,,,,,,,,,,,,,,,,,,,,,,,,,,,,,,,,,,,,,,,,,,,,,,
,,5f158fe3696881556b96de39,2023-12-15_10h08.54.286,kallum_motion_pilot,2023.2.3,Win32,59.43889681,5f158fe3696881556b96de39,657bb317c8798c6608bceb3f,657bb495d370c8d94ade15b8,0.1061,0.1063,0,100,100,8,1,onetwo,,,,,,,,,,,,,,,,,,,,,,,,,,,,,,,,,,,,,,,,,,,,,,,,,,,,,,,,,,,,,,,,,,,,,,,,,,,,,,,,,,,,,,,,,,,,,,,,,,,,,,,,,,,,,,,,,,,,,,,,,,,,,,,,,,,,,,,
,,5f158fe3696881556b96de39,2023-12-15_10h08.54.286,kallum_motion_pilot,2023.2.3,Win32,59.43889681,5f158fe3696881556b96de39,657bb317c8798c6608bceb3f,657bb495d370c8d94ade15b8,0.1067,0.1067,0,101,101,30,1,fourtwo,,,,,,,,,,,,,,,,,,,,,,,,,,,,,,,,,,,,,,,,,,,,,,,,,,,,,,,,,,,,,,,,,,,,,,,,,,,,,,,,,,,,,,,,,,,,,,,,,,,,,,,,,,,,,,,,,,,,,,,,,,,,,,,,,,,,,,,
,,5f158fe3696881556b96de39,2023-12-15_10h08.54.286,kallum_motion_pilot,2023.2.3,Win32,59.43889681,5f158fe3696881556b96de39,657bb317c8798c6608bceb3f,657bb495d370c8d94ade15b8,0.107,0.1071,0,102,102,48,1,onetwo,,,,,,,,,,,,,,,,,,,,,,,,,,,,,,,,,,,,,,,,,,,,,,,,,,,,,,,,,,,,,,,,,,,,,,,,,,,,,,,,,,,,,,,,,,,,,,,,,,,,,,,,,,,,,,,,,,,,,,,,,,,,,,,,,,,,,,,
,,5f158fe3696881556b96de39,2023-12-15_10h08.54.286,kallum_motion_pilot,2023.2.3,Win32,59.43889681,5f158fe3696881556b96de39,657bb317c8798c6608bceb3f,657bb495d370c8d94ade15b8,0.1074,0.1076,0,103,103,88,1,fivesix,,,,,,,,,,,,,,,,,,,,,,,,,,,,,,,,,,,,,,,,,,,,,,,,,,,,,,,,,,,,,,,,,,,,,,,,,,,,,,,,,,,,,,,,,,,,,,,,,,,,,,,,,,,,,,,,,,,,,,,,,,,,,,,,,,,,,,,
,,5f158fe3696881556b96de39,2023-12-15_10h08.54.286,kallum_motion_pilot,2023.2.3,Win32,59.43889681,5f158fe3696881556b96de39,657bb317c8798c6608bceb3f,657bb495d370c8d94ade15b8,0.1079,0.1081,0,104,104,87,1,eightseven,,,,,,,,,,,,,,,,,,,,,,,,,,,,,,,,,,,,,,,,,,,,,,,,,,,,,,,,,,,,,,,,,,,,,,,,,,,,,,,,,,,,,,,,,,,,,,,,,,,,,,,,,,,,,,,,,,,,,,,,,,,,,,,,,,,,,,,
,,5f158fe3696881556b96de39,2023-12-15_10h08.54.286,kallum_motion_pilot,2023.2.3,Win32,59.43889681,5f158fe3696881556b96de39,657bb317c8798c6608bceb3f,657bb495d370c8d94ade15b8,0.1083,0.1084,0,105,105,81,1,fiveseven,,,,,,,,,,,,,,,,,,,,,,,,,,,,,,,,,,,,,,,,,,,,,,,,,,,,,,,,,,,,,,,,,,,,,,,,,,,,,,,,,,,,,,,,,,,,,,,,,,,,,,,,,,,,,,,,,,,,,,,,,,,,,,,,,,,,,,,
,,5f158fe3696881556b96de39,2023-12-15_10h08.54.286,kallum_motion_pilot,2023.2.3,Win32,59.43889681,5f158fe3696881556b96de39,657bb317c8798c6608bceb3f,657bb495d370c8d94ade15b8,0.1086,0.1088,0,106,106,154,1,sixfive,,,,,,,,,,,,,,,,,,,,,,,,,,,,,,,,,,,,,,,,,,,,,,,,,,,,,,,,,,,,,,,,,,,,,,,,,,,,,,,,,,,,,,,,,,,,,,,,,,,,,,,,,,,,,,,,,,,,,,,,,,,,,,,,,,,,,,,
,,5f158fe3696881556b96de39,2023-12-15_10h08.54.286,kallum_motion_pilot,2023.2.3,Win32,59.43889681,5f158fe3696881556b96de39,657bb317c8798c6608bceb3f,657bb495d370c8d94ade15b8,0.109,0.1091,0,107,107,119,1,eightseven,,,,,,,,,,,,,,,,,,,,,,,,,,,,,,,,,,,,,,,,,,,,,,,,,,,,,,,,,,,,,,,,,,,,,,,,,,,,,,,,,,,,,,,,,,,,,,,,,,,,,,,,,,,,,,,,,,,,,,,,,,,,,,,,,,,,,,,
,,5f158fe3696881556b96de39,2023-12-15_10h08.54.286,kallum_motion_pilot,2023.2.3,Win32,59.43889681,5f158fe3696881556b96de39,657bb317c8798c6608bceb3f,657bb495d370c8d94ade15b8,0.1093,0.1094,0,108,108,99,1,sixeight,,,,,,,,,,,,,,,,,,,,,,,,,,,,,,,,,,,,,,,,,,,,,,,,,,,,,,,,,,,,,,,,,,,,,,,,,,,,,,,,,,,,,,,,,,,,,,,,,,,,,,,,,,,,,,,,,,,,,,,,,,,,,,,,,,,,,,,
,,5f158fe3696881556b96de39,2023-12-15_10h08.54.286,kallum_motion_pilot,2023.2.3,Win32,59.43889681,5f158fe3696881556b96de39,657bb317c8798c6608bceb3f,657bb495d370c8d94ade15b8,0.1097,0.1098,0,109,109,12,1,threeone,,,,,,,,,,,,,,,,,,,,,,,,,,,,,,,,,,,,,,,,,,,,,,,,,,,,,,,,,,,,,,,,,,,,,,,,,,,,,,,,,,,,,,,,,,,,,,,,,,,,,,,,,,,,,,,,,,,,,,,,,,,,,,,,,,,,,,,
,,5f158fe3696881556b96de39,2023-12-15_10h08.54.286,kallum_motion_pilot,2023.2.3,Win32,59.43889681,5f158fe3696881556b96de39,657bb317c8798c6608bceb3f,657bb495d370c8d94ade15b8,0.11,0.1101,0,110,110,34,1,twoone,,,,,,,,,,,,,,,,,,,,,,,,,,,,,,,,,,,,,,,,,,,,,,,,,,,,,,,,,,,,,,,,,,,,,,,,,,,,,,,,,,,,,,,,,,,,,,,,,,,,,,,,,,,,,,,,,,,,,,,,,,,,,,,,,,,,,,,
,,5f158fe3696881556b96de39,2023-12-15_10h08.54.286,kallum_motion_pilot,2023.2.3,Win32,59.43889681,5f158fe3696881556b96de39,657bb317c8798c6608bceb3f,657bb495d370c8d94ade15b8,0.1104,0.1105,0,111,111,45,1,threefour,,,,,,,,,,,,,,,,,,,,,,,,,,,,,,,,,,,,,,,,,,,,,,,,,,,,,,,,,,,,,,,,,,,,,,,,,,,,,,,,,,,,,,,,,,,,,,,,,,,,,,,,,,,,,,,,,,,,,,,,,,,,,,,,,,,,,,,
,,5f158fe3696881556b96de39,2023-12-15_10h08.54.286,kallum_motion_pilot,2023.2.3,Win32,59.43889681,5f158fe3696881556b96de39,657bb317c8798c6608bceb3f,657bb495d370c8d94ade15b8,0.1107,0.1109,0,112,112,101,1,seveneight,,,,,,,,,,,,,,,,,,,,,,,,,,,,,,,,,,,,,,,,,,,,,,,,,,,,,,,,,,,,,,,,,,,,,,,,,,,,,,,,,,,,,,,,,,,,,,,,,,,,,,,,,,,,,,,,,,,,,,,,,,,,,,,,,,,,,,,
,,5f158fe3696881556b96de39,2023-12-15_10h08.54.286,kallum_motion_pilot,2023.2.3,Win32,59.43889681,5f158fe3696881556b96de39,657bb317c8798c6608bceb3f,657bb495d370c8d94ade15b8,0.1111,0.1113,0,113,113,98,1,sixfive,,,,,,,,,,,,,,,,,,,,,,,,,,,,,,,,,,,,,,,,,,,,,,,,,,,,,,,,,,,,,,,,,,,,,,,,,,,,,,,,,,,,,,,,,,,,,,,,,,,,,,,,,,,,,,,,,,,,,,,,,,,,,,,,,,,,,,,
,,5f158fe3696881556b96de39,2023-12-15_10h08.54.286,kallum_motion_pilot,2023.2.3,Win32,59.43889681,5f158fe3696881556b96de39,657bb317c8798c6608bceb3f,657bb495d370c8d94ade15b8,0.1114,0.1115,0,114,114,127,1,eightseven,,,,,,,,,,,,,,,,,,,,,,,,,,,,,,,,,,,,,,,,,,,,,,,,,,,,,,,,,,,,,,,,,,,,,,,,,,,,,,,,,,,,,,,,,,,,,,,,,,,,,,,,,,,,,,,,,,,,,,,,,,,,,,,,,,,,,,,
,,5f158fe3696881556b96de39,2023-12-15_10h08.54.286,kallum_motion_pilot,2023.2.3,Win32,59.43889681,5f158fe3696881556b96de39,657bb317c8798c6608bceb3f,657bb495d370c8d94ade15b8,0.1117,0.1118,0,115,115,4,1,threeone,,,,,,,,,,,,,,,,,,,,,,,,,,,,,,,,,,,,,,,,,,,,,,,,,,,,,,,,,,,,,,,,,,,,,,,,,,,,,,,,,,,,,,,,,,,,,,,,,,,,,,,,,,,,,,,,,,,,,,,,,,,,,,,,,,,,,,,
,,5f158fe3696881556b96de39,2023-12-15_10h08.54.286,kallum_motion_pilot,2023.2.3,Win32,59.43889681,5f158fe3696881556b96de39,657bb317c8798c6608bceb3f,657bb495d370c8d94ade15b8,0.1121,0.1122,0,116,116,130,1,sixfive,,,,,,,,,,,,,,,,,,,,,,,,,,,,,,,,,,,,,,,,,,,,,,,,,,,,,,,,,,,,,,,,,,,,,,,,,,,,,,,,,,,,,,,,,,,,,,,,,,,,,,,,,,,,,,,,,,,,,,,,,,,,,,,,,,,,,,,
,,5f158fe3696881556b96de39,2023-12-15_10h08.54.286,kallum_motion_pilot,2023.2.3,Win32,59.43889681,5f158fe3696881556b96de39,657bb317c8798c6608bceb3f,657bb495d370c8d94ade15b8,0.1124,0.1125,0,117,117,139,1,sixeight,,,,,,,,,,,,,,,,,,,,,,,,,,,,,,,,,,,,,,,,,,,,,,,,,,,,,,,,,,,,,,,,,,,,,,,,,,,,,,,,,,,,,,,,,,,,,,,,,,,,,,,,,,,,,,,,,,,,,,,,,,,,,,,,,,,,,,,
,,5f158fe3696881556b96de39,2023-12-15_10h08.54.286,kallum_motion_pilot,2023.2.3,Win32,59.43889681,5f158fe3696881556b96de39,657bb317c8798c6608bceb3f,657bb495d370c8d94ade15b8,0.1128,0.1131,0,118,118,19,1,twofour,,,,,,,,,,,,,,,,,,,,,,,,,,,,,,,,,,,,,,,,,,,,,,,,,,,,,,,,,,,,,,,,,,,,,,,,,,,,,,,,,,,,,,,,,,,,,,,,,,,,,,,,,,,,,,,,,,,,,,,,,,,,,,,,,,,,,,,
,,5f158fe3696881556b96de39,2023-12-15_10h08.54.286,kallum_motion_pilot,2023.2.3,Win32,59.43889681,5f158fe3696881556b96de39,657bb317c8798c6608bceb3f,657bb495d370c8d94ade15b8,0.1133,0.1135,0,119,119,103,1,eightseven,,,,,,,,,,,,,,,,,,,,,,,,,,,,,,,,,,,,,,,,,,,,,,,,,,,,,,,,,,,,,,,,,,,,,,,,,,,,,,,,,,,,,,,,,,,,,,,,,,,,,,,,,,,,,,,,,,,,,,,,,,,,,,,,,,,,,,,
,,5f158fe3696881556b96de39,2023-12-15_10h08.54.286,kallum_motion_pilot,2023.2.3,Win32,59.43889681,5f158fe3696881556b96de39,657bb317c8798c6608bceb3f,657bb495d370c8d94ade15b8,0.1138,0.1139,0,120,120,96,1,fivesix,,,,,,,,,,,,,,,,,,,,,,,,,,,,,,,,,,,,,,,,,,,,,,,,,,,,,,,,,,,,,,,,,,,,,,,,,,,,,,,,,,,,,,,,,,,,,,,,,,,,,,,,,,,,,,,,,,,,,,,,,,,,,,,,,,,,,,,
,,5f158fe3696881556b96de39,2023-12-15_10h08.54.286,kallum_motion_pilot,2023.2.3,Win32,59.43889681,5f158fe3696881556b96de39,657bb317c8798c6608bceb3f,657bb495d370c8d94ade15b8,0.1147,0.1149,0,121,121,11,1,twofour,,,,,,,,,,,,,,,,,,,,,,,,,,,,,,,,,,,,,,,,,,,,,,,,,,,,,,,,,,,,,,,,,,,,,,,,,,,,,,,,,,,,,,,,,,,,,,,,,,,,,,,,,,,,,,,,,,,,,,,,,,,,,,,,,,,,,,,
,,5f158fe3696881556b96de39,2023-12-15_10h08.54.286,kallum_motion_pilot,2023.2.3,Win32,59.43889681,5f158fe3696881556b96de39,657bb317c8798c6608bceb3f,657bb495d370c8d94ade15b8,0.1151,0.1153,0,122,122,6,1,fourtwo,,,,,,,,,,,,,,,,,,,,,,,,,,,,,,,,,,,,,,,,,,,,,,,,,,,,,,,,,,,,,,,,,,,,,,,,,,,,,,,,,,,,,,,,,,,,,,,,,,,,,,,,,,,,,,,,,,,,,,,,,,,,,,,,,,,,,,,
,,5f158fe3696881556b96de39,2023-12-15_10h08.54.286,kallum_motion_pilot,2023.2.3,Win32,59.43889681,5f158fe3696881556b96de39,657bb317c8798c6608bceb3f,657bb495d370c8d94ade15b8,0.1155,0.1157,0,123,123,93,1,seveneight,,,,,,,,,,,,,,,,,,,,,,,,,,,,,,,,,,,,,,,,,,,,,,,,,,,,,,,,,,,,,,,,,,,,,,,,,,,,,,,,,,,,,,,,,,,,,,,,,,,,,,,,,,,,,,,,,,,,,,,,,,,,,,,,,,,,,,,
,,5f158fe3696881556b96de39,2023-12-15_10h08.54.286,kallum_motion_pilot,2023.2.3,Win32,59.43889681,5f158fe3696881556b96de39,657bb317c8798c6608bceb3f,657bb495d370c8d94ade15b8,0.1161,0.1163,0,124,124,29,1,threefour,,,,,,,,,,,,,,,,,,,,,,,,,,,,,,,,,,,,,,,,,,,,,,,,,,,,,,,,,,,,,,,,,,,,,,,,,,,,,,,,,,,,,,,,,,,,,,,,,,,,,,,,,,,,,,,,,,,,,,,,,,,,,,,,,,,,,,,
,,5f158fe3696881556b96de39,2023-12-15_10h08.54.286,kallum_motion_pilot,2023.2.3,Win32,59.43889681,5f158fe3696881556b96de39,657bb317c8798c6608bceb3f,657bb495d370c8d94ade15b8,0.1164,0.1167,0,125,125,128,1,fivesix,,,,,,,,,,,,,,,,,,,,,,,,,,,,,,,,,,,,,,,,,,,,,,,,,,,,,,,,,,,,,,,,,,,,,,,,,,,,,,,,,,,,,,,,,,,,,,,,,,,,,,,,,,,,,,,,,,,,,,,,,,,,,,,,,,,,,,,
,,5f158fe3696881556b96de39,2023-12-15_10h08.54.286,kallum_motion_pilot,2023.2.3,Win32,59.43889681,5f158fe3696881556b96de39,657bb317c8798c6608bceb3f,657bb495d370c8d94ade15b8,0.1169,0.1171,0,126,126,142,1,eightsix,,,,,,,,,,,,,,,,,,,,,,,,,,,,,,,,,,,,,,,,,,,,,,,,,,,,,,,,,,,,,,,,,,,,,,,,,,,,,,,,,,,,,,,,,,,,,,,,,,,,,,,,,,,,,,,,,,,,,,,,,,,,,,,,,,,,,,,
,,5f158fe3696881556b96de39,2023-12-15_10h08.54.286,kallum_motion_pilot,2023.2.3,Win32,59.43889681,5f158fe3696881556b96de39,657bb317c8798c6608bceb3f,657bb495d370c8d94ade15b8,0.1174,0.1176,0,127,127,156,1,sevenfive,,,,,,,,,,,,,,,,,,,,,,,,,,,,,,,,,,,,,,,,,,,,,,,,,,,,,,,,,,,,,,,,,,,,,,,,,,,,,,,,,,,,,,,,,,,,,,,,,,,,,,,,,,,,,,,,,,,,,,,,,,,,,,,,,,,,,,,
,,5f158fe3696881556b96de39,2023-12-15_10h08.54.286,kallum_motion_pilot,2023.2.3,Win32,59.43889681,5f158fe3696881556b96de39,657bb317c8798c6608bceb3f,657bb495d370c8d94ade15b8,0.1178,0.118,0,128,128,77,1,threefour,,,,,,,,,,,,,,,,,,,,,,,,,,,,,,,,,,,,,,,,,,,,,,,,,,,,,,,,,,,,,,,,,,,,,,,,,,,,,,,,,,,,,,,,,,,,,,,,,,,,,,,,,,,,,,,,,,,,,,,,,,,,,,,,,,,,,,,
,,5f158fe3696881556b96de39,2023-12-15_10h08.54.286,kallum_motion_pilot,2023.2.3,Win32,59.43889681,5f158fe3696881556b96de39,657bb317c8798c6608bceb3f,657bb495d370c8d94ade15b8,0.1181,0.1198,0,129,129,32,1,onetwo,,,,,,,,,,,,,,,,,,,,,,,,,,,,,,,,,,,,,,,,,,,,,,,,,,,,,,,,,,,,,,,,,,,,,,,,,,,,,,,,,,,,,,,,,,,,,,,,,,,,,,,,,,,,,,,,,,,,,,,,,,,,,,,,,,,,,,,
,,5f158fe3696881556b96de39,2023-12-15_10h08.54.286,kallum_motion_pilot,2023.2.3,Win32,59.43889681,5f158fe3696881556b96de39,657bb317c8798c6608bceb3f,657bb495d370c8d94ade15b8,0.1203,0.1205,0,130,130,42,1,twoone,,,,,,,,,,,,,,,,,,,,,,,,,,,,,,,,,,,,,,,,,,,,,,,,,,,,,,,,,,,,,,,,,,,,,,,,,,,,,,,,,,,,,,,,,,,,,,,,,,,,,,,,,,,,,,,,,,,,,,,,,,,,,,,,,,,,,,,
,,5f158fe3696881556b96de39,2023-12-15_10h08.54.286,kallum_motion_pilot,2023.2.3,Win32,59.43889681,5f158fe3696881556b96de39,657bb317c8798c6608bceb3f,657bb495d370c8d94ade15b8,0.1207,0.1209,0,131,131,38,1,fourtwo,,,,,,,,,,,,,,,,,,,,,,,,,,,,,,,,,,,,,,,,,,,,,,,,,,,,,,,,,,,,,,,,,,,,,,,,,,,,,,,,,,,,,,,,,,,,,,,,,,,,,,,,,,,,,,,,,,,,,,,,,,,,,,,,,,,,,,,
,,5f158fe3696881556b96de39,2023-12-15_10h08.54.286,kallum_motion_pilot,2023.2.3,Win32,59.43889681,5f158fe3696881556b96de39,657bb317c8798c6608bceb3f,657bb495d370c8d94ade15b8,0.1211,0.1213,0,132,132,125,1,seveneight,,,,,,,,,,,,,,,,,,,,,,,,,,,,,,,,,,,,,,,,,,,,,,,,,,,,,,,,,,,,,,,,,,,,,,,,,,,,,,,,,,,,,,,,,,,,,,,,,,,,,,,,,,,,,,,,,,,,,,,,,,,,,,,,,,,,,,,
,,5f158fe3696881556b96de39,2023-12-15_10h08.54.286,kallum_motion_pilot,2023.2.3,Win32,59.43889681,5f158fe3696881556b96de39,657bb317c8798c6608bceb3f,657bb495d370c8d94ade15b8,0.1214,0.1216,0,133,133,15,1,fourthree,,,,,,,,,,,,,,,,,,,,,,,,,,,,,,,,,,,,,,,,,,,,,,,,,,,,,,,,,,,,,,,,,,,,,,,,,,,,,,,,,,,,,,,,,,,,,,,,,,,,,,,,,,,,,,,,,,,,,,,,,,,,,,,,,,,,,,,
,,5f158fe3696881556b96de39,2023-12-15_10h08.54.286,kallum_motion_pilot,2023.2.3,Win32,59.43889681,5f158fe3696881556b96de39,657bb317c8798c6608bceb3f,657bb495d370c8d94ade15b8,0.1218,0.1219,0,134,134,62,1,fourtwo,,,,,,,,,,,,,,,,,,,,,,,,,,,,,,,,,,,,,,,,,,,,,,,,,,,,,,,,,,,,,,,,,,,,,,,,,,,,,,,,,,,,,,,,,,,,,,,,,,,,,,,,,,,,,,,,,,,,,,,,,,,,,,,,,,,,,,,
,,5f158fe3696881556b96de39,2023-12-15_10h08.54.286,kallum_motion_pilot,2023.2.3,Win32,59.43889681,5f158fe3696881556b96de39,657bb317c8798c6608bceb3f,657bb495d370c8d94ade15b8,0.1221,0.1223,0,135,135,80,1,fivesix,,,,,,,,,,,,,,,,,,,,,,,,,,,,,,,,,,,,,,,,,,,,,,,,,,,,,,,,,,,,,,,,,,,,,,,,,,,,,,,,,,,,,,,,,,,,,,,,,,,,,,,,,,,,,,,,,,,,,,,,,,,,,,,,,,,,,,,
,,5f158fe3696881556b96de39,2023-12-15_10h08.54.286,kallum_motion_pilot,2023.2.3,Win32,59.43889681,5f158fe3696881556b96de39,657bb317c8798c6608bceb3f,657bb495d370c8d94ade15b8,0.1225,0.1226,0,136,136,151,1,eightseven,,,,,,,,,,,,,,,,,,,,,,,,,,,,,,,,,,,,,,,,,,,,,,,,,,,,,,,,,,,,,,,,,,,,,,,,,,,,,,,,,,,,,,,,,,,,,,,,,,,,,,,,,,,,,,,,,,,,,,,,,,,,,,,,,,,,,,,
,,5f158fe3696881556b96de39,2023-12-15_10h08.54.286,kallum_motion_pilot,2023.2.3,Win32,59.43889681,5f158fe3696881556b96de39,657bb317c8798c6608bceb3f,657bb495d370c8d94ade15b8,0.1228,0.123,0,137,137,129,1,fiveseven,,,,,,,,,,,,,,,,,,,,,,,,,,,,,,,,,,,,,,,,,,,,,,,,,,,,,,,,,,,,,,,,,,,,,,,,,,,,,,,,,,,,,,,,,,,,,,,,,,,,,,,,,,,,,,,,,,,,,,,,,,,,,,,,,,,,,,,
,,5f158fe3696881556b96de39,2023-12-15_10h08.54.286,kallum_motion_pilot,2023.2.3,Win32,59.43889681,5f158fe3696881556b96de39,657bb317c8798c6608bceb3f,657bb495d370c8d94ade15b8,0.1232,0.1233,0,138,138,36,1,threeone,,,,,,,,,,,,,,,,,,,,,,,,,,,,,,,,,,,,,,,,,,,,,,,,,,,,,,,,,,,,,,,,,,,,,,,,,,,,,,,,,,,,,,,,,,,,,,,,,,,,,,,,,,,,,,,,,,,,,,,,,,,,,,,,,,,,,,,
,,5f158fe3696881556b96de39,2023-12-15_10h08.54.286,kallum_motion_pilot,2023.2.3,Win32,59.43889681,5f158fe3696881556b96de39,657bb317c8798c6608bceb3f,657bb495d370c8d94ade15b8,0.1235,0.1236,0,139,139,160,1,fivesix,,,,,,,,,,,,,,,,,,,,,,,,,,,,,,,,,,,,,,,,,,,,,,,,,,,,,,,,,,,,,,,,,,,,,,,,,,,,,,,,,,,,,,,,,,,,,,,,,,,,,,,,,,,,,,,,,,,,,,,,,,,,,,,,,,,,,,,
,,5f158fe3696881556b96de39,2023-12-15_10h08.54.286,kallum_motion_pilot,2023.2.3,Win32,59.43889681,5f158fe3696881556b96de39,657bb317c8798c6608bceb3f,657bb495d370c8d94ade15b8,0.1239,0.124,0,140,140,109,1,seveneight,,,,,,,,,,,,,,,,,,,,,,,,,,,,,,,,,,,,,,,,,,,,,,,,,,,,,,,,,,,,,,,,,,,,,,,,,,,,,,,,,,,,,,,,,,,,,,,,,,,,,,,,,,,,,,,,,,,,,,,,,,,,,,,,,,,,,,,
,,5f158fe3696881556b96de39,2023-12-15_10h08.54.286,kallum_motion_pilot,2023.2.3,Win32,59.43889681,5f158fe3696881556b96de39,657bb317c8798c6608bceb3f,657bb495d370c8d94ade15b8,0.1242,0.1243,0,141,141,58,1,twoone,,,,,,,,,,,,,,,,,,,,,,,,,,,,,,,,,,,,,,,,,,,,,,,,,,,,,,,,,,,,,,,,,,,,,,,,,,,,,,,,,,,,,,,,,,,,,,,,,,,,,,,,,,,,,,,,,,,,,,,,,,,,,,,,,,,,,,,
,,5f158fe3696881556b96de39,2023-12-15_10h08.54.286,kallum_motion_pilot,2023.2.3,Win32,59.43889681,5f158fe3696881556b96de39,657bb317c8798c6608bceb3f,657bb495d370c8d94ade15b8,0.1245,0.1247,0,142,142,7,1,fourthree,,,,,,,,,,,,,,,,,,,,,,,,,,,,,,,,,,,,,,,,,,,,,,,,,,,,,,,,,,,,,,,,,,,,,,,,,,,,,,,,,,,,,,,,,,,,,,,,,,,,,,,,,,,,,,,,,,,,,,,,,,,,,,,,,,,,,,,
,,5f158fe3696881556b96de39,2023-12-15_10h08.54.286,kallum_motion_pilot,2023.2.3,Win32,59.43889681,5f158fe3696881556b96de39,657bb317c8798c6608bceb3f,657bb495d370c8d94ade15b8,0.1249,0.1251,0,143,143,13,1,threefour,,,,,,,,,,,,,,,,,,,,,,,,,,,,,,,,,,,,,,,,,,,,,,,,,,,,,,,,,,,,,,,,,,,,,,,,,,,,,,,,,,,,,,,,,,,,,,,,,,,,,,,,,,,,,,,,,,,,,,,,,,,,,,,,,,,,,,,
,,5f158fe3696881556b96de39,2023-12-15_10h08.54.286,kallum_motion_pilot,2023.2.3,Win32,59.43889681,5f158fe3696881556b96de39,657bb317c8798c6608bceb3f,657bb495d370c8d94ade15b8,0.1253,0.1254,0,144,144,10,1,twoone,,,,,,,,,,,,,,,,,,,,,,,,,,,,,,,,,,,,,,,,,,,,,,,,,,,,,,,,,,,,,,,,,,,,,,,,,,,,,,,,,,,,,,,,,,,,,,,,,,,,,,,,,,,,,,,,,,,,,,,,,,,,,,,,,,,,,,,
,,5f158fe3696881556b96de39,2023-12-15_10h08.54.286,kallum_motion_pilot,2023.2.3,Win32,59.43889681,5f158fe3696881556b96de39,657bb317c8798c6608bceb3f,657bb495d370c8d94ade15b8,0.1256,0.1258,0,145,145,111,1,eightseven,,,,,,,,,,,,,,,,,,,,,,,,,,,,,,,,,,,,,,,,,,,,,,,,,,,,,,,,,,,,,,,,,,,,,,,,,,,,,,,,,,,,,,,,,,,,,,,,,,,,,,,,,,,,,,,,,,,,,,,,,,,,,,,,,,,,,,,
,,5f158fe3696881556b96de39,2023-12-15_10h08.54.286,kallum_motion_pilot,2023.2.3,Win32,59.43889681,5f158fe3696881556b96de39,657bb317c8798c6608bceb3f,657bb495d370c8d94ade15b8,0.126,0.1262,0,146,146,100,1,sevenfive,,,,,,,,,,,,,,,,,,,,,,,,,,,,,,,,,,,,,,,,,,,,,,,,,,,,,,,,,,,,,,,,,,,,,,,,,,,,,,,,,,,,,,,,,,,,,,,,,,,,,,,,,,,,,,,,,,,,,,,,,,,,,,,,,,,,,,,
,,5f158fe3696881556b96de39,2023-12-15_10h08.54.286,kallum_motion_pilot,2023.2.3,Win32,59.43889681,5f158fe3696881556b96de39,657bb317c8798c6608bceb3f,657bb495d370c8d94ade15b8,0.1264,0.1265,0,147,147,57,1,onethree,,,,,,,,,,,,,,,,,,,,,,,,,,,,,,,,,,,,,,,,,,,,,,,,,,,,,,,,,,,,,,,,,,,,,,,,,,,,,,,,,,,,,,,,,,,,,,,,,,,,,,,,,,,,,,,,,,,,,,,,,,,,,,,,,,,,,,,
,,5f158fe3696881556b96de39,2023-12-15_10h08.54.286,kallum_motion_pilot,2023.2.3,Win32,59.43889681,5f158fe3696881556b96de39,657bb317c8798c6608bceb3f,657bb495d370c8d94ade15b8,0.1267,0.1268,0,148,148,150,1,eightsix,,,,,,,,,,,,,,,,,,,,,,,,,,,,,,,,,,,,,,,,,,,,,,,,,,,,,,,,,,,,,,,,,,,,,,,,,,,,,,,,,,,,,,,,,,,,,,,,,,,,,,,,,,,,,,,,,,,,,,,,,,,,,,,,,,,,,,,
,,5f158fe3696881556b96de39,2023-12-15_10h08.54.286,kallum_motion_pilot,2023.2.3,Win32,59.43889681,5f158fe3696881556b96de39,657bb317c8798c6608bceb3f,657bb495d370c8d94ade15b8,0.127,0.1271,0,149,149,61,1,threefour,,,,,,,,,,,,,,,,,,,,,,,,,,,,,,,,,,,,,,,,,,,,,,,,,,,,,,,,,,,,,,,,,,,,,,,,,,,,,,,,,,,,,,,,,,,,,,,,,,,,,,,,,,,,,,,,,,,,,,,,,,,,,,,,,,,,,,,
,,5f158fe3696881556b96de39,2023-12-15_10h08.54.286,kallum_motion_pilot,2023.2.3,Win32,59.43889681,5f158fe3696881556b96de39,657bb317c8798c6608bceb3f,657bb495d370c8d94ade15b8,0.1274,0.1275,0,150,150,145,1,fiveseven,,,,,,,,,,,,,,,,,,,,,,,,,,,,,,,,,,,,,,,,,,,,,,,,,,,,,,,,,,,,,,,,,,,,,,,,,,,,,,,,,,,,,,,,,,,,,,,,,,,,,,,,,,,,,,,,,,,,,,,,,,,,,,,,,,,,,,,
,,5f158fe3696881556b96de39,2023-12-15_10h08.54.286,kallum_motion_pilot,2023.2.3,Win32,59.43889681,5f158fe3696881556b96de39,657bb317c8798c6608bceb3f,657bb495d370c8d94ade15b8,0.1278,0.1279,0,151,151,20,1,threeone,,,,,,,,,,,,,,,,,,,,,,,,,,,,,,,,,,,,,,,,,,,,,,,,,,,,,,,,,,,,,,,,,,,,,,,,,,,,,,,,,,,,,,,,,,,,,,,,,,,,,,,,,,,,,,,,,,,,,,,,,,,,,,,,,,,,,,,
,,5f158fe3696881556b96de39,2023-12-15_10h08.54.286,kallum_motion_pilot,2023.2.3,Win32,59.43889681,5f158fe3696881556b96de39,657bb317c8798c6608bceb3f,657bb495d370c8d94ade15b8,0.1281,0.1283,0,152,152,110,1,eightsix,,,,,,,,,,,,,,,,,,,,,,,,,,,,,,,,,,,,,,,,,,,,,,,,,,,,,,,,,,,,,,,,,,,,,,,,,,,,,,,,,,,,,,,,,,,,,,,,,,,,,,,,,,,,,,,,,,,,,,,,,,,,,,,,,,,,,,,
,,5f158fe3696881556b96de39,2023-12-15_10h08.54.286,kallum_motion_pilot,2023.2.3,Win32,59.43889681,5f158fe3696881556b96de39,657bb317c8798c6608bceb3f,657bb495d370c8d94ade15b8,0.1284,0.1286,0,153,153,104,1,fivesix,,,,,,,,,,,,,,,,,,,,,,,,,,,,,,,,,,,,,,,,,,,,,,,,,,,,,,,,,,,,,,,,,,,,,,,,,,,,,,,,,,,,,,,,,,,,,,,,,,,,,,,,,,,,,,,,,,,,,,,,,,,,,,,,,,,,,,,
,,5f158fe3696881556b96de39,2023-12-15_10h08.54.286,kallum_motion_pilot,2023.2.3,Win32,59.43889681,5f158fe3696881556b96de39,657bb317c8798c6608bceb3f,657bb495d370c8d94ade15b8,0.1289,0.1289,0,154,154,106,1,sixfive,,,,,,,,,,,,,,,,,,,,,,,,,,,,,,,,,,,,,,,,,,,,,,,,,,,,,,,,,,,,,,,,,,,,,,,,,,,,,,,,,,,,,,,,,,,,,,,,,,,,,,,,,,,,,,,,,,,,,,,,,,,,,,,,,,,,,,,
,,5f158fe3696881556b96de39,2023-12-15_10h08.54.286,kallum_motion_pilot,2023.2.3,Win32,59.43889681,5f158fe3696881556b96de39,657bb317c8798c6608bceb3f,657bb495d370c8d94ade15b8,0.1293,0.1295,0,155,155,26,1,twoone,,,,,,,,,,,,,,,,,,,,,,,,,,,,,,,,,,,,,,,,,,,,,,,,,,,,,,,,,,,,,,,,,,,,,,,,,,,,,,,,,,,,,,,,,,,,,,,,,,,,,,,,,,,,,,,,,,,,,,,,,,,,,,,,,,,,,,,
,,5f158fe3696881556b96de39,2023-12-15_10h08.54.286,kallum_motion_pilot,2023.2.3,Win32,59.43889681,5f158fe3696881556b96de39,657bb317c8798c6608bceb3f,657bb495d370c8d94ade15b8,0.1298,0.1299,0,156,156,95,1,eightseven,,,,,,,,,,,,,,,,,,,,,,,,,,,,,,,,,,,,,,,,,,,,,,,,,,,,,,,,,,,,,,,,,,,,,,,,,,,,,,,,,,,,,,,,,,,,,,,,,,,,,,,,,,,,,,,,,,,,,,,,,,,,,,,,,,,,,,,
,,5f158fe3696881556b96de39,2023-12-15_10h08.54.286,kallum_motion_pilot,2023.2.3,Win32,59.43889681,5f158fe3696881556b96de39,657bb317c8798c6608bceb3f,657bb495d370c8d94ade15b8,0.1325,0.1326,0,157,157,153,1,fiveseven,,,,,,,,,,,,,,,,,,,,,,,,,,,,,,,,,,,,,,,,,,,,,,,,,,,,,,,,,,,,,,,,,,,,,,,,,,,,,,,,,,,,,,,,,,,,,,,,,,,,,,,,,,,,,,,,,,,,,,,,,,,,,,,,,,,,,,,
,,5f158fe3696881556b96de39,2023-12-15_10h08.54.286,kallum_motion_pilot,2023.2.3,Win32,59.43889681,5f158fe3696881556b96de39,657bb317c8798c6608bceb3f,657bb495d370c8d94ade15b8,0.1329,0.1332,0,158,158,28,1,threeone,,,,,,,,,,,,,,,,,,,,,,,,,,,,,,,,,,,,,,,,,,,,,,,,,,,,,,,,,,,,,,,,,,,,,,,,,,,,,,,,,,,,,,,,,,,,,,,,,,,,,,,,,,,,,,,,,,,,,,,,,,,,,,,,,,,,,,,
,,5f158fe3696881556b96de39,2023-12-15_10h08.54.286,kallum_motion_pilot,2023.2.3,Win32,59.43889681,5f158fe3696881556b96de39,657bb317c8798c6608bceb3f,657bb495d370c8d94ade15b8,0.1335,0.1337,0,159,159,52,1,threeone,,,,,,,,,,,,,,,,,,,,,,,,,,,,,,,,,,,,,,,,,,,,,,,,,,,,,,,,,,,,,,,,,,,,,,,,,,,,,,,,,,,,,,,,,,,,,,,,,,,,,,,,,,,,,,,,,,,,,,,,,,,,,,,,,,,,,,,
,,5f158fe3696881556b96de39,2023-12-15_10h08.54.286,kallum_motion_pilot,2023.2.3,Win32,59.43889681,5f158fe3696881556b96de39,657bb317c8798c6608bceb3f,657bb495d370c8d94ade15b8,0.1339,0.1341,0,160,160,107,1,sixeight,,,,,,,,,,,,,,,,,,,,,,,,,,,,,,,,,,,,,,,,,,,,,,,,,,,,,,,,,,,,,,,,,,,,,,,,,,,,,,,,,,,,,,,,,,,,,,,,,,,,,,,,,,,,,,,,,,,,,,,,,,,,,,,,,,,,,,,
,,5f158fe3696881556b96de39,2023-12-15_10h08.54.286,kallum_motion_pilot,2023.2.3,Win32,59.43889681,5f158fe3696881556b96de39,657bb317c8798c6608bceb3f,657bb495d370c8d94ade15b8,0.1343,0.1345,0,161,161,65,1,onethree,,,,,,,,,,,,,,,,,,,,,,,,,,,,,,,,,,,,,,,,,,,,,,,,,,,,,,,,,,,,,,,,,,,,,,,,,,,,,,,,,,,,,,,,,,,,,,,,,,,,,,,,,,,,,,,,,,,,,,,,,,,,,,,,,,,,,,,
,,5f158fe3696881556b96de39,2023-12-15_10h08.54.286,kallum_motion_pilot,2023.2.3,Win32,59.43889681,5f158fe3696881556b96de39,657bb317c8798c6608bceb3f,657bb495d370c8d94ade15b8,0.1347,0.1348,1,0,162,70,1,fourtwo,,,,,,,,,,,,,,,,,,,,,,,,,,,,,,,,,,,,,,,,,,,,,,,,,,,,,,,,,,,,,,,,,,,,,,,,,,,,,,,,,,,,,,,,,,,,,,,,,,,,,,,,,,,,,,,,,,,,,,,,,,,,,,,,,,,,,,,
,,5f158fe3696881556b96de39,2023-12-15_10h08.54.286,kallum_motion_pilot,2023.2.3,Win32,59.43889681,5f158fe3696881556b96de39,657bb317c8798c6608bceb3f,657bb495d370c8d94ade15b8,0.1357,0.136,1,1,163,41,1,onethree,,,,,,,,,,,,,,,,,,,,,,,,,,,,,,,,,,,,,,,,,,,,,,,,,,,,,,,,,,,,,,,,,,,,,,,,,,,,,,,,,,,,,,,,,,,,,,,,,,,,,,,,,,,,,,,,,,,,,,,,,,,,,,,,,,,,,,,
,,5f158fe3696881556b96de39,2023-12-15_10h08.54.286,kallum_motion_pilot,2023.2.3,Win32,59.43889681,5f158fe3696881556b96de39,657bb317c8798c6608bceb3f,657bb495d370c8d94ade15b8,0.1364,0.1365,1,2,164,158,1,eightsix,,,,,,,,,,,,,,,,,,,,,,,,,,,,,,,,,,,,,,,,,,,,,,,,,,,,,,,,,,,,,,,,,,,,,,,,,,,,,,,,,,,,,,,,,,,,,,,,,,,,,,,,,,,,,,,,,,,,,,,,,,,,,,,,,,,,,,,
,,5f158fe3696881556b96de39,2023-12-15_10h08.54.286,kallum_motion_pilot,2023.2.3,Win32,59.43889681,5f158fe3696881556b96de39,657bb317c8798c6608bceb3f,657bb495d370c8d94ade15b8,0.1368,0.1369,1,3,165,16,1,onetwo,,,,,,,,,,,,,,,,,,,,,,,,,,,,,,,,,,,,,,,,,,,,,,,,,,,,,,,,,,,,,,,,,,,,,,,,,,,,,,,,,,,,,,,,,,,,,,,,,,,,,,,,,,,,,,,,,,,,,,,,,,,,,,,,,,,,,,,
,,5f158fe3696881556b96de39,2023-12-15_10h08.54.286,kallum_motion_pilot,2023.2.3,Win32,59.43889681,5f158fe3696881556b96de39,657bb317c8798c6608bceb3f,657bb495d370c8d94ade15b8,0.1372,0.1374,1,4,166,17,1,onethree,,,,,,,,,,,,,,,,,,,,,,,,,,,,,,,,,,,,,,,,,,,,,,,,,,,,,,,,,,,,,,,,,,,,,,,,,,,,,,,,,,,,,,,,,,,,,,,,,,,,,,,,,,,,,,,,,,,,,,,,,,,,,,,,,,,,,,,
,,5f158fe3696881556b96de39,2023-12-15_10h08.54.286,kallum_motion_pilot,2023.2.3,Win32,59.43889681,5f158fe3696881556b96de39,657bb317c8798c6608bceb3f,657bb495d370c8d94ade15b8,0.1375,0.1377,1,5,167,69,1,threefour,,,,,,,,,,,,,,,,,,,,,,,,,,,,,,,,,,,,,,,,,,,,,,,,,,,,,,,,,,,,,,,,,,,,,,,,,,,,,,,,,,,,,,,,,,,,,,,,,,,,,,,,,,,,,,,,,,,,,,,,,,,,,,,,,,,,,,,
,,5f158fe3696881556b96de39,2023-12-15_10h08.54.286,kallum_motion_pilot,2023.2.3,Win32,59.43889681,5f158fe3696881556b96de39,657bb317c8798c6608bceb3f,657bb495d370c8d94ade15b8,0.1379,0.138,1,6,168,10,1,twoone,,,,,,,,,,,,,,,,,,,,,,,,,,,,,,,,,,,,,,,,,,,,,,,,,,,,,,,,,,,,,,,,,,,,,,,,,,,,,,,,,,,,,,,,,,,,,,,,,,,,,,,,,,,,,,,,,,,,,,,,,,,,,,,,,,,,,,,
,,5f158fe3696881556b96de39,2023-12-15_10h08.54.286,kallum_motion_pilot,2023.2.3,Win32,59.43889681,5f158fe3696881556b96de39,657bb317c8798c6608bceb3f,657bb495d370c8d94ade15b8,0.1383,0.1384,1,7,169,153,1,fiveseven,,,,,,,,,,,,,,,,,,,,,,,,,,,,,,,,,,,,,,,,,,,,,,,,,,,,,,,,,,,,,,,,,,,,,,,,,,,,,,,,,,,,,,,,,,,,,,,,,,,,,,,,,,,,,,,,,,,,,,,,,,,,,,,,,,,,,,,
,,5f158fe3696881556b96de39,2023-12-15_10h08.54.286,kallum_motion_pilot,2023.2.3,Win32,59.43889681,5f158fe3696881556b96de39,657bb317c8798c6608bceb3f,657bb495d370c8d94ade15b8,0.1387,0.139,1,8,170,23,1,fourthree,,,,,,,,,,,,,,,,,,,,,,,,,,,,,,,,,,,,,,,,,,,,,,,,,,,,,,,,,,,,,,,,,,,,,,,,,,,,,,,,,,,,,,,,,,,,,,,,,,,,,,,,,,,,,,,,,,,,,,,,,,,,,,,,,,,,,,,
,,5f158fe3696881556b96de39,2023-12-15_10h08.54.286,kallum_motion_pilot,2023.2.3,Win32,59.43889681,5f158fe3696881556b96de39,657bb317c8798c6608bceb3f,657bb495d370c8d94ade15b8,0.1391,0.1393,1,9,171,144,1,fivesix,,,,,,,,,,,,,,,,,,,,,,,,,,,,,,,,,,,,,,,,,,,,,,,,,,,,,,,,,,,,,,,,,,,,,,,,,,,,,,,,,,,,,,,,,,,,,,,,,,,,,,,,,,,,,,,,,,,,,,,,,,,,,,,,,,,,,,,
,,5f158fe3696881556b96de39,2023-12-15_10h08.54.286,kallum_motion_pilot,2023.2.3,Win32,59.43889681,5f158fe3696881556b96de39,657bb317c8798c6608bceb3f,657bb495d370c8d94ade15b8,0.1395,0.1397,1,10,172,25,1,onethree,,,,,,,,,,,,,,,,,,,,,,,,,,,,,,,,,,,,,,,,,,,,,,,,,,,,,,,,,,,,,,,,,,,,,,,,,,,,,,,,,,,,,,,,,,,,,,,,,,,,,,,,,,,,,,,,,,,,,,,,,,,,,,,,,,,,,,,
,,5f158fe3696881556b96de39,2023-12-15_10h08.54.286,kallum_motion_pilot,2023.2.3,Win32,59.43889681,5f158fe3696881556b96de39,657bb317c8798c6608bceb3f,657bb495d370c8d94ade15b8,0.1399,0.14,1,11,173,115,1,sixeight,,,,,,,,,,,,,,,,,,,,,,,,,,,,,,,,,,,,,,,,,,,,,,,,,,,,,,,,,,,,,,,,,,,,,,,,,,,,,,,,,,,,,,,,,,,,,,,,,,,,,,,,,,,,,,,,,,,,,,,,,,,,,,,,,,,,,,,
,,5f158fe3696881556b96de39,2023-12-15_10h08.54.286,kallum_motion_pilot,2023.2.3,Win32,59.43889681,5f158fe3696881556b96de39,657bb317c8798c6608bceb3f,657bb495d370c8d94ade15b8,0.1402,0.1404,1,12,174,7,1,fourthree,,,,,,,,,,,,,,,,,,,,,,,,,,,,,,,,,,,,,,,,,,,,,,,,,,,,,,,,,,,,,,,,,,,,,,,,,,,,,,,,,,,,,,,,,,,,,,,,,,,,,,,,,,,,,,,,,,,,,,,,,,,,,,,,,,,,,,,
,,5f158fe3696881556b96de39,2023-12-15_10h08.54.286,kallum_motion_pilot,2023.2.3,Win32,59.43889681,5f158fe3696881556b96de39,657bb317c8798c6608bceb3f,657bb495d370c8d94ade15b8,0.1406,0.1408,1,13,175,3,1,twofour,,,,,,,,,,,,,,,,,,,,,,,,,,,,,,,,,,,,,,,,,,,,,,,,,,,,,,,,,,,,,,,,,,,,,,,,,,,,,,,,,,,,,,,,,,,,,,,,,,,,,,,,,,,,,,,,,,,,,,,,,,,,,,,,,,,,,,,
,,5f158fe3696881556b96de39,2023-12-15_10h08.54.286,kallum_motion_pilot,2023.2.3,Win32,59.43889681,5f158fe3696881556b96de39,657bb317c8798c6608bceb3f,657bb495d370c8d94ade15b8,0.1412,0.1413,1,14,176,112,1,fivesix,,,,,,,,,,,,,,,,,,,,,,,,,,,,,,,,,,,,,,,,,,,,,,,,,,,,,,,,,,,,,,,,,,,,,,,,,,,,,,,,,,,,,,,,,,,,,,,,,,,,,,,,,,,,,,,,,,,,,,,,,,,,,,,,,,,,,,,
,,5f158fe3696881556b96de39,2023-12-15_10h08.54.286,kallum_motion_pilot,2023.2.3,Win32,59.43889681,5f158fe3696881556b96de39,657bb317c8798c6608bceb3f,657bb495d370c8d94ade15b8,0.1415,0.1417,1,15,177,138,1,sixfive,,,,,,,,,,,,,,,,,,,,,,,,,,,,,,,,,,,,,,,,,,,,,,,,,,,,,,,,,,,,,,,,,,,,,,,,,,,,,,,,,,,,,,,,,,,,,,,,,,,,,,,,,,,,,,,,,,,,,,,,,,,,,,,,,,,,,,,
,,5f158fe3696881556b96de39,2023-12-15_10h08.54.286,kallum_motion_pilot,2023.2.3,Win32,59.43889681,5f158fe3696881556b96de39,657bb317c8798c6608bceb3f,657bb495d370c8d94ade15b8,0.1419,0.1421,1,16,178,137,1,fiveseven,,,,,,,,,,,,,,,,,,,,,,,,,,,,,,,,,,,,,,,,,,,,,,,,,,,,,,,,,,,,,,,,,,,,,,,,,,,,,,,,,,,,,,,,,,,,,,,,,,,,,,,,,,,,,,,,,,,,,,,,,,,,,,,,,,,,,,,
,,5f158fe3696881556b96de39,2023-12-15_10h08.54.286,kallum_motion_pilot,2023.2.3,Win32,59.43889681,5f158fe3696881556b96de39,657bb317c8798c6608bceb3f,657bb495d370c8d94ade15b8,0.1423,0.1425,1,17,179,51,1,twofour,,,,,,,,,,,,,,,,,,,,,,,,,,,,,,,,,,,,,,,,,,,,,,,,,,,,,,,,,,,,,,,,,,,,,,,,,,,,,,,,,,,,,,,,,,,,,,,,,,,,,,,,,,,,,,,,,,,,,,,,,,,,,,,,,,,,,,,
,,5f158fe3696881556b96de39,2023-12-15_10h08.54.286,kallum_motion_pilot,2023.2.3,Win32,59.43889681,5f158fe3696881556b96de39,657bb317c8798c6608bceb3f,657bb495d370c8d94ade15b8,0.1426,0.1428,1,18,180,8,1,onetwo,,,,,,,,,,,,,,,,,,,,,,,,,,,,,,,,,,,,,,,,,,,,,,,,,,,,,,,,,,,,,,,,,,,,,,,,,,,,,,,,,,,,,,,,,,,,,,,,,,,,,,,,,,,,,,,,,,,,,,,,,,,,,,,,,,,,,,,
,,5f158fe3696881556b96de39,2023-12-15_10h08.54.286,kallum_motion_pilot,2023.2.3,Win32,59.43889681,5f158fe3696881556b96de39,657bb317c8798c6608bceb3f,657bb495d370c8d94ade15b8,0.1429,0.1431,1,19,181,143,1,eightseven,,,,,,,,,,,,,,,,,,,,,,,,,,,,,,,,,,,,,,,,,,,,,,,,,,,,,,,,,,,,,,,,,,,,,,,,,,,,,,,,,,,,,,,,,,,,,,,,,,,,,,,,,,,,,,,,,,,,,,,,,,,,,,,,,,,,,,,
,,5f158fe3696881556b96de39,2023-12-15_10h08.54.286,kallum_motion_pilot,2023.2.3,Win32,59.43889681,5f158fe3696881556b96de39,657bb317c8798c6608bceb3f,657bb495d370c8d94ade15b8,0.1433,0.1435,1,20,182,4,1,threeone,,,,,,,,,,,,,,,,,,,,,,,,,,,,,,,,,,,,,,,,,,,,,,,,,,,,,,,,,,,,,,,,,,,,,,,,,,,,,,,,,,,,,,,,,,,,,,,,,,,,,,,,,,,,,,,,,,,,,,,,,,,,,,,,,,,,,,,
,,5f158fe3696881556b96de39,2023-12-15_10h08.54.286,kallum_motion_pilot,2023.2.3,Win32,59.43889681,5f158fe3696881556b96de39,657bb317c8798c6608bceb3f,657bb495d370c8d94ade15b8,0.1437,0.1438,1,21,183,37,1,threefour,,,,,,,,,,,,,,,,,,,,,,,,,,,,,,,,,,,,,,,,,,,,,,,,,,,,,,,,,,,,,,,,,,,,,,,,,,,,,,,,,,,,,,,,,,,,,,,,,,,,,,,,,,,,,,,,,,,,,,,,,,,,,,,,,,,,,,,
,,5f158fe3696881556b96de39,2023-12-15_10h08.54.286,kallum_motion_pilot,2023.2.3,Win32,59.43889681,5f158fe3696881556b96de39,657bb317c8798c6608bceb3f,657bb495d370c8d94ade15b8,0.1441,0.1442,1,22,184,49,1,onethree,,,,,,,,,,,,,,,,,,,,,,,,,,,,,,,,,,,,,,,,,,,,,,,,,,,,,,,,,,,,,,,,,,,,,,,,,,,,,,,,,,,,,,,,,,,,,,,,,,,,,,,,,,,,,,,,,,,,,,,,,,,,,,,,,,,,,,,
,,5f158fe3696881556b96de39,2023-12-15_10h08.54.286,kallum_motion_pilot,2023.2.3,Win32,59.43889681,5f158fe3696881556b96de39,657bb317c8798c6608bceb3f,657bb495d370c8d94ade15b8,0.1445,0.1446,1,23,185,113,1,fiveseven,,,,,,,,,,,,,,,,,,,,,,,,,,,,,,,,,,,,,,,,,,,,,,,,,,,,,,,,,,,,,,,,,,,,,,,,,,,,,,,,,,,,,,,,,,,,,,,,,,,,,,,,,,,,,,,,,,,,,,,,,,,,,,,,,,,,,,,
,,5f158fe3696881556b96de39,2023-12-15_10h08.54.286,kallum_motion_pilot,2023.2.3,Win32,59.43889681,5f158fe3696881556b96de39,657bb317c8798c6608bceb3f,657bb495d370c8d94ade15b8,0.1449,0.145,1,24,186,44,1,threeone,,,,,,,,,,,,,,,,,,,,,,,,,,,,,,,,,,,,,,,,,,,,,,,,,,,,,,,,,,,,,,,,,,,,,,,,,,,,,,,,,,,,,,,,,,,,,,,,,,,,,,,,,,,,,,,,,,,,,,,,,,,,,,,,,,,,,,,
,,5f158fe3696881556b96de39,2023-12-15_10h08.54.286,kallum_motion_pilot,2023.2.3,Win32,59.43889681,5f158fe3696881556b96de39,657bb317c8798c6608bceb3f,657bb495d370c8d94ade15b8,0.1452,0.1454,1,25,187,118,1,eightsix,,,,,,,,,,,,,,,,,,,,,,,,,,,,,,,,,,,,,,,,,,,,,,,,,,,,,,,,,,,,,,,,,,,,,,,,,,,,,,,,,,,,,,,,,,,,,,,,,,,,,,,,,,,,,,,,,,,,,,,,,,,,,,,,,,,,,,,
,,5f158fe3696881556b96de39,2023-12-15_10h08.54.286,kallum_motion_pilot,2023.2.3,Win32,59.43889681,5f158fe3696881556b96de39,657bb317c8798c6608bceb3f,657bb495d370c8d94ade15b8,0.1456,0.1457,1,26,188,131,1,sixeight,,,,,,,,,,,,,,,,,,,,,,,,,,,,,,,,,,,,,,,,,,,,,,,,,,,,,,,,,,,,,,,,,,,,,,,,,,,,,,,,,,,,,,,,,,,,,,,,,,,,,,,,,,,,,,,,,,,,,,,,,,,,,,,,,,,,,,,
,,5f158fe3696881556b96de39,2023-12-15_10h08.54.286,kallum_motion_pilot,2023.2.3,Win32,59.43889681,5f158fe3696881556b96de39,657bb317c8798c6608bceb3f,657bb495d370c8d94ade15b8,0.1459,0.1461,1,27,189,92,1,sevenfive,,,,,,,,,,,,,,,,,,,,,,,,,,,,,,,,,,,,,,,,,,,,,,,,,,,,,,,,,,,,,,,,,,,,,,,,,,,,,,,,,,,,,,,,,,,,,,,,,,,,,,,,,,,,,,,,,,,,,,,,,,,,,,,,,,,,,,,
,,5f158fe3696881556b96de39,2023-12-15_10h08.54.286,kallum_motion_pilot,2023.2.3,Win32,59.43889681,5f158fe3696881556b96de39,657bb317c8798c6608bceb3f,657bb495d370c8d94ade15b8,0.1463,0.1465,1,28,190,142,1,eightsix,,,,,,,,,,,,,,,,,,,,,,,,,,,,,,,,,,,,,,,,,,,,,,,,,,,,,,,,,,,,,,,,,,,,,,,,,,,,,,,,,,,,,,,,,,,,,,,,,,,,,,,,,,,,,,,,,,,,,,,,,,,,,,,,,,,,,,,
,,5f158fe3696881556b96de39,2023-12-15_10h08.54.286,kallum_motion_pilot,2023.2.3,Win32,59.43889681,5f158fe3696881556b96de39,657bb317c8798c6608bceb3f,657bb495d370c8d94ade15b8,0.1469,0.1471,1,29,191,6,1,fourtwo,,,,,,,,,,,,,,,,,,,,,,,,,,,,,,,,,,,,,,,,,,,,,,,,,,,,,,,,,,,,,,,,,,,,,,,,,,,,,,,,,,,,,,,,,,,,,,,,,,,,,,,,,,,,,,,,,,,,,,,,,,,,,,,,,,,,,,,
,,5f158fe3696881556b96de39,2023-12-15_10h08.54.286,kallum_motion_pilot,2023.2.3,Win32,59.43889681,5f158fe3696881556b96de39,657bb317c8798c6608bceb3f,657bb495d370c8d94ade15b8,0.1472,0.1474,1,30,192,88,1,fivesix,,,,,,,,,,,,,,,,,,,,,,,,,,,,,,,,,,,,,,,,,,,,,,,,,,,,,,,,,,,,,,,,,,,,,,,,,,,,,,,,,,,,,,,,,,,,,,,,,,,,,,,,,,,,,,,,,,,,,,,,,,,,,,,,,,,,,,,
,,5f158fe3696881556b96de39,2023-12-15_10h08.54.286,kallum_motion_pilot,2023.2.3,Win32,59.43889681,5f158fe3696881556b96de39,657bb317c8798c6608bceb3f,657bb495d370c8d94ade15b8,0.148,0.1484,1,31,193,80,1,fivesix,,,,,,,,,,,,,,,,,,,,,,,,,,,,,,,,,,,,,,,,,,,,,,,,,,,,,,,,,,,,,,,,,,,,,,,,,,,,,,,,,,,,,,,,,,,,,,,,,,,,,,,,,,,,,,,,,,,,,,,,,,,,,,,,,,,,,,,
,,5f158fe3696881556b96de39,2023-12-15_10h08.54.286,kallum_motion_pilot,2023.2.3,Win32,59.43889681,5f158fe3696881556b96de39,657bb317c8798c6608bceb3f,657bb495d370c8d94ade15b8,0.1488,0.149,1,32,194,159,1,eightseven,,,,,,,,,,,,,,,,,,,,,,,,,,,,,,,,,,,,,,,,,,,,,,,,,,,,,,,,,,,,,,,,,,,,,,,,,,,,,,,,,,,,,,,,,,,,,,,,,,,,,,,,,,,,,,,,,,,,,,,,,,,,,,,,,,,,,,,
,,5f158fe3696881556b96de39,2023-12-15_10h08.54.286,kallum_motion_pilot,2023.2.3,Win32,59.43889681,5f158fe3696881556b96de39,657bb317c8798c6608bceb3f,657bb495d370c8d94ade15b8,0.1492,0.1494,1,33,195,36,1,threeone,,,,,,,,,,,,,,,,,,,,,,,,,,,,,,,,,,,,,,,,,,,,,,,,,,,,,,,,,,,,,,,,,,,,,,,,,,,,,,,,,,,,,,,,,,,,,,,,,,,,,,,,,,,,,,,,,,,,,,,,,,,,,,,,,,,,,,,
,,5f158fe3696881556b96de39,2023-12-15_10h08.54.286,kallum_motion_pilot,2023.2.3,Win32,59.43889681,5f158fe3696881556b96de39,657bb317c8798c6608bceb3f,657bb495d370c8d94ade15b8,0.1496,0.1497,1,34,196,32,1,onetwo,,,,,,,,,,,,,,,,,,,,,,,,,,,,,,,,,,,,,,,,,,,,,,,,,,,,,,,,,,,,,,,,,,,,,,,,,,,,,,,,,,,,,,,,,,,,,,,,,,,,,,,,,,,,,,,,,,,,,,,,,,,,,,,,,,,,,,,
,,5f158fe3696881556b96de39,2023-12-15_10h08.54.286,kallum_motion_pilot,2023.2.3,Win32,59.43889681,5f158fe3696881556b96de39,657bb317c8798c6608bceb3f,657bb495d370c8d94ade15b8,0.15,0.1502,1,35,197,134,1,eightsix,,,,,,,,,,,,,,,,,,,,,,,,,,,,,,,,,,,,,,,,,,,,,,,,,,,,,,,,,,,,,,,,,,,,,,,,,,,,,,,,,,,,,,,,,,,,,,,,,,,,,,,,,,,,,,,,,,,,,,,,,,,,,,,,,,,,,,,
,,5f158fe3696881556b96de39,2023-12-15_10h08.54.286,kallum_motion_pilot,2023.2.3,Win32,59.43889681,5f158fe3696881556b96de39,657bb317c8798c6608bceb3f,657bb495d370c8d94ade15b8,0.1503,0.1505,1,36,198,130,1,sixfive,,,,,,,,,,,,,,,,,,,,,,,,,,,,,,,,,,,,,,,,,,,,,,,,,,,,,,,,,,,,,,,,,,,,,,,,,,,,,,,,,,,,,,,,,,,,,,,,,,,,,,,,,,,,,,,,,,,,,,,,,,,,,,,,,,,,,,,
,,5f158fe3696881556b96de39,2023-12-15_10h08.54.286,kallum_motion_pilot,2023.2.3,Win32,59.43889681,5f158fe3696881556b96de39,657bb317c8798c6608bceb3f,657bb495d370c8d94ade15b8,0.1508,0.1509,1,37,199,114,1,sixfive,,,,,,,,,,,,,,,,,,,,,,,,,,,,,,,,,,,,,,,,,,,,,,,,,,,,,,,,,,,,,,,,,,,,,,,,,,,,,,,,,,,,,,,,,,,,,,,,,,,,,,,,,,,,,,,,,,,,,,,,,,,,,,,,,,,,,,,
,,5f158fe3696881556b96de39,2023-12-15_10h08.54.286,kallum_motion_pilot,2023.2.3,Win32,59.43889681,5f158fe3696881556b96de39,657bb317c8798c6608bceb3f,657bb495d370c8d94ade15b8,0.1511,0.1512,1,38,200,128,1,fivesix,,,,,,,,,,,,,,,,,,,,,,,,,,,,,,,,,,,,,,,,,,,,,,,,,,,,,,,,,,,,,,,,,,,,,,,,,,,,,,,,,,,,,,,,,,,,,,,,,,,,,,,,,,,,,,,,,,,,,,,,,,,,,,,,,,,,,,,
,,5f158fe3696881556b96de39,2023-12-15_10h08.54.286,kallum_motion_pilot,2023.2.3,Win32,59.43889681,5f158fe3696881556b96de39,657bb317c8798c6608bceb3f,657bb495d370c8d94ade15b8,0.1515,0.1527,1,39,201,99,1,sixeight,,,,,,,,,,,,,,,,,,,,,,,,,,,,,,,,,,,,,,,,,,,,,,,,,,,,,,,,,,,,,,,,,,,,,,,,,,,,,,,,,,,,,,,,,,,,,,,,,,,,,,,,,,,,,,,,,,,,,,,,,,,,,,,,,,,,,,,
,,5f158fe3696881556b96de39,2023-12-15_10h08.54.286,kallum_motion_pilot,2023.2.3,Win32,59.43889681,5f158fe3696881556b96de39,657bb317c8798c6608bceb3f,657bb495d370c8d94ade15b8,0.1533,0.1534,1,40,202,110,1,eightsix,,,,,,,,,,,,,,,,,,,,,,,,,,,,,,,,,,,,,,,,,,,,,,,,,,,,,,,,,,,,,,,,,,,,,,,,,,,,,,,,,,,,,,,,,,,,,,,,,,,,,,,,,,,,,,,,,,,,,,,,,,,,,,,,,,,,,,,
,,5f158fe3696881556b96de39,2023-12-15_10h08.54.286,kallum_motion_pilot,2023.2.3,Win32,59.43889681,5f158fe3696881556b96de39,657bb317c8798c6608bceb3f,657bb495d370c8d94ade15b8,0.1536,0.1539,1,41,203,71,1,fourthree,,,,,,,,,,,,,,,,,,,,,,,,,,,,,,,,,,,,,,,,,,,,,,,,,,,,,,,,,,,,,,,,,,,,,,,,,,,,,,,,,,,,,,,,,,,,,,,,,,,,,,,,,,,,,,,,,,,,,,,,,,,,,,,,,,,,,,,
,,5f158fe3696881556b96de39,2023-12-15_10h08.54.286,kallum_motion_pilot,2023.2.3,Win32,59.43889681,5f158fe3696881556b96de39,657bb317c8798c6608bceb3f,657bb495d370c8d94ade15b8,0.1541,0.1542,1,42,204,64,1,onetwo,,,,,,,,,,,,,,,,,,,,,,,,,,,,,,,,,,,,,,,,,,,,,,,,,,,,,,,,,,,,,,,,,,,,,,,,,,,,,,,,,,,,,,,,,,,,,,,,,,,,,,,,,,,,,,,,,,,,,,,,,,,,,,,,,,,,,,,
,,5f158fe3696881556b96de39,2023-12-15_10h08.54.286,kallum_motion_pilot,2023.2.3,Win32,59.43889681,5f158fe3696881556b96de39,657bb317c8798c6608bceb3f,657bb495d370c8d94ade15b8,0.1544,0.1546,1,43,205,93,1,seveneight,,,,,,,,,,,,,,,,,,,,,,,,,,,,,,,,,,,,,,,,,,,,,,,,,,,,,,,,,,,,,,,,,,,,,,,,,,,,,,,,,,,,,,,,,,,,,,,,,,,,,,,,,,,,,,,,,,,,,,,,,,,,,,,,,,,,,,,
,,5f158fe3696881556b96de39,2023-12-15_10h08.54.286,kallum_motion_pilot,2023.2.3,Win32,59.43889681,5f158fe3696881556b96de39,657bb317c8798c6608bceb3f,657bb495d370c8d94ade15b8,0.1547,0.155,1,44,206,109,1,seveneight,,,,,,,,,,,,,,,,,,,,,,,,,,,,,,,,,,,,,,,,,,,,,,,,,,,,,,,,,,,,,,,,,,,,,,,,,,,,,,,,,,,,,,,,,,,,,,,,,,,,,,,,,,,,,,,,,,,,,,,,,,,,,,,,,,,,,,,
,,5f158fe3696881556b96de39,2023-12-15_10h08.54.286,kallum_motion_pilot,2023.2.3,Win32,59.43889681,5f158fe3696881556b96de39,657bb317c8798c6608bceb3f,657bb495d370c8d94ade15b8,0.1551,0.1553,1,45,207,21,1,threefour,,,,,,,,,,,,,,,,,,,,,,,,,,,,,,,,,,,,,,,,,,,,,,,,,,,,,,,,,,,,,,,,,,,,,,,,,,,,,,,,,,,,,,,,,,,,,,,,,,,,,,,,,,,,,,,,,,,,,,,,,,,,,,,,,,,,,,,
,,5f158fe3696881556b96de39,2023-12-15_10h08.54.286,kallum_motion_pilot,2023.2.3,Win32,59.43889681,5f158fe3696881556b96de39,657bb317c8798c6608bceb3f,657bb495d370c8d94ade15b8,0.1555,0.1557,1,46,208,65,1,onethree,,,,,,,,,,,,,,,,,,,,,,,,,,,,,,,,,,,,,,,,,,,,,,,,,,,,,,,,,,,,,,,,,,,,,,,,,,,,,,,,,,,,,,,,,,,,,,,,,,,,,,,,,,,,,,,,,,,,,,,,,,,,,,,,,,,,,,,
,,5f158fe3696881556b96de39,2023-12-15_10h08.54.286,kallum_motion_pilot,2023.2.3,Win32,59.43889681,5f158fe3696881556b96de39,657bb317c8798c6608bceb3f,657bb495d370c8d94ade15b8,0.1559,0.1561,1,47,209,151,1,eightseven,,,,,,,,,,,,,,,,,,,,,,,,,,,,,,,,,,,,,,,,,,,,,,,,,,,,,,,,,,,,,,,,,,,,,,,,,,,,,,,,,,,,,,,,,,,,,,,,,,,,,,,,,,,,,,,,,,,,,,,,,,,,,,,,,,,,,,,
,,5f158fe3696881556b96de39,2023-12-15_10h08.54.286,kallum_motion_pilot,2023.2.3,Win32,59.43889681,5f158fe3696881556b96de39,657bb317c8798c6608bceb3f,657bb495d370c8d94ade15b8,0.1562,0.1564,1,48,210,20,1,threeone,,,,,,,,,,,,,,,,,,,,,,,,,,,,,,,,,,,,,,,,,,,,,,,,,,,,,,,,,,,,,,,,,,,,,,,,,,,,,,,,,,,,,,,,,,,,,,,,,,,,,,,,,,,,,,,,,,,,,,,,,,,,,,,,,,,,,,,
,,5f158fe3696881556b96de39,2023-12-15_10h08.54.286,kallum_motion_pilot,2023.2.3,Win32,59.43889681,5f158fe3696881556b96de39,657bb317c8798c6608bceb3f,657bb495d370c8d94ade15b8,0.1566,0.1568,1,49,211,95,1,eightseven,,,,,,,,,,,,,,,,,,,,,,,,,,,,,,,,,,,,,,,,,,,,,,,,,,,,,,,,,,,,,,,,,,,,,,,,,,,,,,,,,,,,,,,,,,,,,,,,,,,,,,,,,,,,,,,,,,,,,,,,,,,,,,,,,,,,,,,
,,5f158fe3696881556b96de39,2023-12-15_10h08.54.286,kallum_motion_pilot,2023.2.3,Win32,59.43889681,5f158fe3696881556b96de39,657bb317c8798c6608bceb3f,657bb495d370c8d94ade15b8,0.157,0.1572,1,50,212,48,1,onetwo,,,,,,,,,,,,,,,,,,,,,,,,,,,,,,,,,,,,,,,,,,,,,,,,,,,,,,,,,,,,,,,,,,,,,,,,,,,,,,,,,,,,,,,,,,,,,,,,,,,,,,,,,,,,,,,,,,,,,,,,,,,,,,,,,,,,,,,
,,5f158fe3696881556b96de39,2023-12-15_10h08.54.286,kallum_motion_pilot,2023.2.3,Win32,59.43889681,5f158fe3696881556b96de39,657bb317c8798c6608bceb3f,657bb495d370c8d94ade15b8,0.1574,0.1575,1,51,213,96,1,fivesix,,,,,,,,,,,,,,,,,,,,,,,,,,,,,,,,,,,,,,,,,,,,,,,,,,,,,,,,,,,,,,,,,,,,,,,,,,,,,,,,,,,,,,,,,,,,,,,,,,,,,,,,,,,,,,,,,,,,,,,,,,,,,,,,,,,,,,,
,,5f158fe3696881556b96de39,2023-12-15_10h08.54.286,kallum_motion_pilot,2023.2.3,Win32,59.43889681,5f158fe3696881556b96de39,657bb317c8798c6608bceb3f,657bb495d370c8d94ade15b8,0.1578,0.1579,1,52,214,90,1,sixfive,,,,,,,,,,,,,,,,,,,,,,,,,,,,,,,,,,,,,,,,,,,,,,,,,,,,,,,,,,,,,,,,,,,,,,,,,,,,,,,,,,,,,,,,,,,,,,,,,,,,,,,,,,,,,,,,,,,,,,,,,,,,,,,,,,,,,,,
,,5f158fe3696881556b96de39,2023-12-15_10h08.54.286,kallum_motion_pilot,2023.2.3,Win32,59.43889681,5f158fe3696881556b96de39,657bb317c8798c6608bceb3f,657bb495d370c8d94ade15b8,0.1581,0.1582,1,53,215,145,1,fiveseven,,,,,,,,,,,,,,,,,,,,,,,,,,,,,,,,,,,,,,,,,,,,,,,,,,,,,,,,,,,,,,,,,,,,,,,,,,,,,,,,,,,,,,,,,,,,,,,,,,,,,,,,,,,,,,,,,,,,,,,,,,,,,,,,,,,,,,,
,,5f158fe3696881556b96de39,2023-12-15_10h08.54.286,kallum_motion_pilot,2023.2.3,Win32,59.43889681,5f158fe3696881556b96de39,657bb317c8798c6608bceb3f,657bb495d370c8d94ade15b8,0.1585,0.1587,1,54,216,19,1,twofour,,,,,,,,,,,,,,,,,,,,,,,,,,,,,,,,,,,,,,,,,,,,,,,,,,,,,,,,,,,,,,,,,,,,,,,,,,,,,,,,,,,,,,,,,,,,,,,,,,,,,,,,,,,,,,,,,,,,,,,,,,,,,,,,,,,,,,,
,,5f158fe3696881556b96de39,2023-12-15_10h08.54.286,kallum_motion_pilot,2023.2.3,Win32,59.43889681,5f158fe3696881556b96de39,657bb317c8798c6608bceb3f,657bb495d370c8d94ade15b8,0.1591,0.1593,1,55,217,26,1,twoone,,,,,,,,,,,,,,,,,,,,,,,,,,,,,,,,,,,,,,,,,,,,,,,,,,,,,,,,,,,,,,,,,,,,,,,,,,,,,,,,,,,,,,,,,,,,,,,,,,,,,,,,,,,,,,,,,,,,,,,,,,,,,,,,,,,,,,,
,,5f158fe3696881556b96de39,2023-12-15_10h08.54.286,kallum_motion_pilot,2023.2.3,Win32,59.43889681,5f158fe3696881556b96de39,657bb317c8798c6608bceb3f,657bb495d370c8d94ade15b8,0.1594,0.1596,1,56,218,73,1,onethree,,,,,,,,,,,,,,,,,,,,,,,,,,,,,,,,,,,,,,,,,,,,,,,,,,,,,,,,,,,,,,,,,,,,,,,,,,,,,,,,,,,,,,,,,,,,,,,,,,,,,,,,,,,,,,,,,,,,,,,,,,,,,,,,,,,,,,,
,,5f158fe3696881556b96de39,2023-12-15_10h08.54.286,kallum_motion_pilot,2023.2.3,Win32,59.43889681,5f158fe3696881556b96de39,657bb317c8798c6608bceb3f,657bb495d370c8d94ade15b8,0.1599,0.16,1,57,219,45,1,threefour,,,,,,,,,,,,,,,,,,,,,,,,,,,,,,,,,,,,,,,,,,,,,,,,,,,,,,,,,,,,,,,,,,,,,,,,,,,,,,,,,,,,,,,,,,,,,,,,,,,,,,,,,,,,,,,,,,,,,,,,,,,,,,,,,,,,,,,
,,5f158fe3696881556b96de39,2023-12-15_10h08.54.286,kallum_motion_pilot,2023.2.3,Win32,59.43889681,5f158fe3696881556b96de39,657bb317c8798c6608bceb3f,657bb495d370c8d94ade15b8,0.1602,0.1604,1,58,220,0,1,onetwo,,,,,,,,,,,,,,,,,,,,,,,,,,,,,,,,,,,,,,,,,,,,,,,,,,,,,,,,,,,,,,,,,,,,,,,,,,,,,,,,,,,,,,,,,,,,,,,,,,,,,,,,,,,,,,,,,,,,,,,,,,,,,,,,,,,,,,,
,,5f158fe3696881556b96de39,2023-12-15_10h08.54.286,kallum_motion_pilot,2023.2.3,Win32,59.43889681,5f158fe3696881556b96de39,657bb317c8798c6608bceb3f,657bb495d370c8d94ade15b8,0.1606,0.1608,1,59,221,77,1,threefour,,,,,,,,,,,,,,,,,,,,,,,,,,,,,,,,,,,,,,,,,,,,,,,,,,,,,,,,,,,,,,,,,,,,,,,,,,,,,,,,,,,,,,,,,,,,,,,,,,,,,,,,,,,,,,,,,,,,,,,,,,,,,,,,,,,,,,,
,,5f158fe3696881556b96de39,2023-12-15_10h08.54.286,kallum_motion_pilot,2023.2.3,Win32,59.43889681,5f158fe3696881556b96de39,657bb317c8798c6608bceb3f,657bb495d370c8d94ade15b8,0.161,0.1612,1,60,222,72,1,onetwo,,,,,,,,,,,,,,,,,,,,,,,,,,,,,,,,,,,,,,,,,,,,,,,,,,,,,,,,,,,,,,,,,,,,,,,,,,,,,,,,,,,,,,,,,,,,,,,,,,,,,,,,,,,,,,,,,,,,,,,,,,,,,,,,,,,,,,,
,,5f158fe3696881556b96de39,2023-12-15_10h08.54.286,kallum_motion_pilot,2023.2.3,Win32,59.43889681,5f158fe3696881556b96de39,657bb317c8798c6608bceb3f,657bb495d370c8d94ade15b8,0.1614,0.1615,1,61,223,62,1,fourtwo,,,,,,,,,,,,,,,,,,,,,,,,,,,,,,,,,,,,,,,,,,,,,,,,,,,,,,,,,,,,,,,,,,,,,,,,,,,,,,,,,,,,,,,,,,,,,,,,,,,,,,,,,,,,,,,,,,,,,,,,,,,,,,,,,,,,,,,
,,5f158fe3696881556b96de39,2023-12-15_10h08.54.286,kallum_motion_pilot,2023.2.3,Win32,59.43889681,5f158fe3696881556b96de39,657bb317c8798c6608bceb3f,657bb495d370c8d94ade15b8,0.1618,0.1618,1,62,224,57,1,onethree,,,,,,,,,,,,,,,,,,,,,,,,,,,,,,,,,,,,,,,,,,,,,,,,,,,,,,,,,,,,,,,,,,,,,,,,,,,,,,,,,,,,,,,,,,,,,,,,,,,,,,,,,,,,,,,,,,,,,,,,,,,,,,,,,,,,,,,
,,5f158fe3696881556b96de39,2023-12-15_10h08.54.286,kallum_motion_pilot,2023.2.3,Win32,59.43889681,5f158fe3696881556b96de39,657bb317c8798c6608bceb3f,657bb495d370c8d94ade15b8,0.1621,0.1623,1,63,225,155,1,sixeight,,,,,,,,,,,,,,,,,,,,,,,,,,,,,,,,,,,,,,,,,,,,,,,,,,,,,,,,,,,,,,,,,,,,,,,,,,,,,,,,,,,,,,,,,,,,,,,,,,,,,,,,,,,,,,,,,,,,,,,,,,,,,,,,,,,,,,,
,,5f158fe3696881556b96de39,2023-12-15_10h08.54.286,kallum_motion_pilot,2023.2.3,Win32,59.43889681,5f158fe3696881556b96de39,657bb317c8798c6608bceb3f,657bb495d370c8d94ade15b8,0.1625,0.1629,1,64,226,60,1,threeone,,,,,,,,,,,,,,,,,,,,,,,,,,,,,,,,,,,,,,,,,,,,,,,,,,,,,,,,,,,,,,,,,,,,,,,,,,,,,,,,,,,,,,,,,,,,,,,,,,,,,,,,,,,,,,,,,,,,,,,,,,,,,,,,,,,,,,,
,,5f158fe3696881556b96de39,2023-12-15_10h08.54.286,kallum_motion_pilot,2023.2.3,Win32,59.43889681,5f158fe3696881556b96de39,657bb317c8798c6608bceb3f,657bb495d370c8d94ade15b8,0.1639,0.1641,1,65,227,63,1,fourthree,,,,,,,,,,,,,,,,,,,,,,,,,,,,,,,,,,,,,,,,,,,,,,,,,,,,,,,,,,,,,,,,,,,,,,,,,,,,,,,,,,,,,,,,,,,,,,,,,,,,,,,,,,,,,,,,,,,,,,,,,,,,,,,,,,,,,,,
,,5f158fe3696881556b96de39,2023-12-15_10h08.54.286,kallum_motion_pilot,2023.2.3,Win32,59.43889681,5f158fe3696881556b96de39,657bb317c8798c6608bceb3f,657bb495d370c8d94ade15b8,0.1643,0.1645,1,66,228,119,1,eightseven,,,,,,,,,,,,,,,,,,,,,,,,,,,,,,,,,,,,,,,,,,,,,,,,,,,,,,,,,,,,,,,,,,,,,,,,,,,,,,,,,,,,,,,,,,,,,,,,,,,,,,,,,,,,,,,,,,,,,,,,,,,,,,,,,,,,,,,
,,5f158fe3696881556b96de39,2023-12-15_10h08.54.286,kallum_motion_pilot,2023.2.3,Win32,59.43889681,5f158fe3696881556b96de39,657bb317c8798c6608bceb3f,657bb495d370c8d94ade15b8,0.1648,0.1649,1,67,229,98,1,sixfive,,,,,,,,,,,,,,,,,,,,,,,,,,,,,,,,,,,,,,,,,,,,,,,,,,,,,,,,,,,,,,,,,,,,,,,,,,,,,,,,,,,,,,,,,,,,,,,,,,,,,,,,,,,,,,,,,,,,,,,,,,,,,,,,,,,,,,,
,,5f158fe3696881556b96de39,2023-12-15_10h08.54.286,kallum_motion_pilot,2023.2.3,Win32,59.43889681,5f158fe3696881556b96de39,657bb317c8798c6608bceb3f,657bb495d370c8d94ade15b8,0.1652,0.1653,1,68,230,2,1,twoone,,,,,,,,,,,,,,,,,,,,,,,,,,,,,,,,,,,,,,,,,,,,,,,,,,,,,,,,,,,,,,,,,,,,,,,,,,,,,,,,,,,,,,,,,,,,,,,,,,,,,,,,,,,,,,,,,,,,,,,,,,,,,,,,,,,,,,,
,,5f158fe3696881556b96de39,2023-12-15_10h08.54.286,kallum_motion_pilot,2023.2.3,Win32,59.43889681,5f158fe3696881556b96de39,657bb317c8798c6608bceb3f,657bb495d370c8d94ade15b8,0.1655,0.1657,1,69,231,61,1,threefour,,,,,,,,,,,,,,,,,,,,,,,,,,,,,,,,,,,,,,,,,,,,,,,,,,,,,,,,,,,,,,,,,,,,,,,,,,,,,,,,,,,,,,,,,,,,,,,,,,,,,,,,,,,,,,,,,,,,,,,,,,,,,,,,,,,,,,,
,,5f158fe3696881556b96de39,2023-12-15_10h08.54.286,kallum_motion_pilot,2023.2.3,Win32,59.43889681,5f158fe3696881556b96de39,657bb317c8798c6608bceb3f,657bb495d370c8d94ade15b8,0.166,0.1661,1,70,232,47,1,fourthree,,,,,,,,,,,,,,,,,,,,,,,,,,,,,,,,,,,,,,,,,,,,,,,,,,,,,,,,,,,,,,,,,,,,,,,,,,,,,,,,,,,,,,,,,,,,,,,,,,,,,,,,,,,,,,,,,,,,,,,,,,,,,,,,,,,,,,,
,,5f158fe3696881556b96de39,2023-12-15_10h08.54.286,kallum_motion_pilot,2023.2.3,Win32,59.43889681,5f158fe3696881556b96de39,657bb317c8798c6608bceb3f,657bb495d370c8d94ade15b8,0.1663,0.1666,1,71,233,135,1,eightseven,,,,,,,,,,,,,,,,,,,,,,,,,,,,,,,,,,,,,,,,,,,,,,,,,,,,,,,,,,,,,,,,,,,,,,,,,,,,,,,,,,,,,,,,,,,,,,,,,,,,,,,,,,,,,,,,,,,,,,,,,,,,,,,,,,,,,,,
,,5f158fe3696881556b96de39,2023-12-15_10h08.54.286,kallum_motion_pilot,2023.2.3,Win32,59.43889681,5f158fe3696881556b96de39,657bb317c8798c6608bceb3f,657bb495d370c8d94ade15b8,0.1668,0.1669,1,72,234,58,1,twoone,,,,,,,,,,,,,,,,,,,,,,,,,,,,,,,,,,,,,,,,,,,,,,,,,,,,,,,,,,,,,,,,,,,,,,,,,,,,,,,,,,,,,,,,,,,,,,,,,,,,,,,,,,,,,,,,,,,,,,,,,,,,,,,,,,,,,,,
,,5f158fe3696881556b96de39,2023-12-15_10h08.54.286,kallum_motion_pilot,2023.2.3,Win32,59.43889681,5f158fe3696881556b96de39,657bb317c8798c6608bceb3f,657bb495d370c8d94ade15b8,0.1672,0.1674,1,73,235,129,1,fiveseven,,,,,,,,,,,,,,,,,,,,,,,,,,,,,,,,,,,,,,,,,,,,,,,,,,,,,,,,,,,,,,,,,,,,,,,,,,,,,,,,,,,,,,,,,,,,,,,,,,,,,,,,,,,,,,,,,,,,,,,,,,,,,,,,,,,,,,,
,,5f158fe3696881556b96de39,2023-12-15_10h08.54.286,kallum_motion_pilot,2023.2.3,Win32,59.43889681,5f158fe3696881556b96de39,657bb317c8798c6608bceb3f,657bb495d370c8d94ade15b8,0.1676,0.1677,1,74,236,22,1,fourtwo,,,,,,,,,,,,,,,,,,,,,,,,,,,,,,,,,,,,,,,,,,,,,,,,,,,,,,,,,,,,,,,,,,,,,,,,,,,,,,,,,,,,,,,,,,,,,,,,,,,,,,,,,,,,,,,,,,,,,,,,,,,,,,,,,,,,,,,
,,5f158fe3696881556b96de39,2023-12-15_10h08.54.286,kallum_motion_pilot,2023.2.3,Win32,59.43889681,5f158fe3696881556b96de39,657bb317c8798c6608bceb3f,657bb495d370c8d94ade15b8,0.168,0.1681,1,75,237,91,1,sixeight,,,,,,,,,,,,,,,,,,,,,,,,,,,,,,,,,,,,,,,,,,,,,,,,,,,,,,,,,,,,,,,,,,,,,,,,,,,,,,,,,,,,,,,,,,,,,,,,,,,,,,,,,,,,,,,,,,,,,,,,,,,,,,,,,,,,,,,
,,5f158fe3696881556b96de39,2023-12-15_10h08.54.286,kallum_motion_pilot,2023.2.3,Win32,59.43889681,5f158fe3696881556b96de39,657bb317c8798c6608bceb3f,657bb495d370c8d94ade15b8,0.1694,0.1699,1,76,238,122,1,sixfive,,,,,,,,,,,,,,,,,,,,,,,,,,,,,,,,,,,,,,,,,,,,,,,,,,,,,,,,,,,,,,,,,,,,,,,,,,,,,,,,,,,,,,,,,,,,,,,,,,,,,,,,,,,,,,,,,,,,,,,,,,,,,,,,,,,,,,,
,,5f158fe3696881556b96de39,2023-12-15_10h08.54.286,kallum_motion_pilot,2023.2.3,Win32,59.43889681,5f158fe3696881556b96de39,657bb317c8798c6608bceb3f,657bb495d370c8d94ade15b8,0.1703,0.1705,1,77,239,18,1,twoone,,,,,,,,,,,,,,,,,,,,,,,,,,,,,,,,,,,,,,,,,,,,,,,,,,,,,,,,,,,,,,,,,,,,,,,,,,,,,,,,,,,,,,,,,,,,,,,,,,,,,,,,,,,,,,,,,,,,,,,,,,,,,,,,,,,,,,,
,,5f158fe3696881556b96de39,2023-12-15_10h08.54.286,kallum_motion_pilot,2023.2.3,Win32,59.43889681,5f158fe3696881556b96de39,657bb317c8798c6608bceb3f,657bb495d370c8d94ade15b8,0.1707,0.171,1,78,240,66,1,twoone,,,,,,,,,,,,,,,,,,,,,,,,,,,,,,,,,,,,,,,,,,,,,,,,,,,,,,,,,,,,,,,,,,,,,,,,,,,,,,,,,,,,,,,,,,,,,,,,,,,,,,,,,,,,,,,,,,,,,,,,,,,,,,,,,,,,,,,
,,5f158fe3696881556b96de39,2023-12-15_10h08.54.286,kallum_motion_pilot,2023.2.3,Win32,59.43889681,5f158fe3696881556b96de39,657bb317c8798c6608bceb3f,657bb495d370c8d94ade15b8,0.1711,0.1713,1,79,241,120,1,fivesix,,,,,,,,,,,,,,,,,,,,,,,,,,,,,,,,,,,,,,,,,,,,,,,,,,,,,,,,,,,,,,,,,,,,,,,,,,,,,,,,,,,,,,,,,,,,,,,,,,,,,,,,,,,,,,,,,,,,,,,,,,,,,,,,,,,,,,,
,,5f158fe3696881556b96de39,2023-12-15_10h08.54.286,kallum_motion_pilot,2023.2.3,Win32,59.43889681,5f158fe3696881556b96de39,657bb317c8798c6608bceb3f,657bb495d370c8d94ade15b8,0.1715,0.1717,1,80,242,1,1,onethree,,,,,,,,,,,,,,,,,,,,,,,,,,,,,,,,,,,,,,,,,,,,,,,,,,,,,,,,,,,,,,,,,,,,,,,,,,,,,,,,,,,,,,,,,,,,,,,,,,,,,,,,,,,,,,,,,,,,,,,,,,,,,,,,,,,,,,,
,,5f158fe3696881556b96de39,2023-12-15_10h08.54.286,kallum_motion_pilot,2023.2.3,Win32,59.43889681,5f158fe3696881556b96de39,657bb317c8798c6608bceb3f,657bb495d370c8d94ade15b8,0.172,0.1721,1,81,243,157,1,seveneight,,,,,,,,,,,,,,,,,,,,,,,,,,,,,,,,,,,,,,,,,,,,,,,,,,,,,,,,,,,,,,,,,,,,,,,,,,,,,,,,,,,,,,,,,,,,,,,,,,,,,,,,,,,,,,,,,,,,,,,,,,,,,,,,,,,,,,,
,,5f158fe3696881556b96de39,2023-12-15_10h08.54.286,kallum_motion_pilot,2023.2.3,Win32,59.43889681,5f158fe3696881556b96de39,657bb317c8798c6608bceb3f,657bb495d370c8d94ade15b8,0.1723,0.1725,1,82,244,94,1,eightsix,,,,,,,,,,,,,,,,,,,,,,,,,,,,,,,,,,,,,,,,,,,,,,,,,,,,,,,,,,,,,,,,,,,,,,,,,,,,,,,,,,,,,,,,,,,,,,,,,,,,,,,,,,,,,,,,,,,,,,,,,,,,,,,,,,,,,,,
,,5f158fe3696881556b96de39,2023-12-15_10h08.54.286,kallum_motion_pilot,2023.2.3,Win32,59.43889681,5f158fe3696881556b96de39,657bb317c8798c6608bceb3f,657bb495d370c8d94ade15b8,0.1728,0.1729,1,83,245,156,1,sevenfive,,,,,,,,,,,,,,,,,,,,,,,,,,,,,,,,,,,,,,,,,,,,,,,,,,,,,,,,,,,,,,,,,,,,,,,,,,,,,,,,,,,,,,,,,,,,,,,,,,,,,,,,,,,,,,,,,,,,,,,,,,,,,,,,,,,,,,,
,,5f158fe3696881556b96de39,2023-12-15_10h08.54.286,kallum_motion_pilot,2023.2.3,Win32,59.43889681,5f158fe3696881556b96de39,657bb317c8798c6608bceb3f,657bb495d370c8d94ade15b8,0.1731,0.1732,1,84,246,11,1,twofour,,,,,,,,,,,,,,,,,,,,,,,,,,,,,,,,,,,,,,,,,,,,,,,,,,,,,,,,,,,,,,,,,,,,,,,,,,,,,,,,,,,,,,,,,,,,,,,,,,,,,,,,,,,,,,,,,,,,,,,,,,,,,,,,,,,,,,,
,,5f158fe3696881556b96de39,2023-12-15_10h08.54.286,kallum_motion_pilot,2023.2.3,Win32,59.43889681,5f158fe3696881556b96de39,657bb317c8798c6608bceb3f,657bb495d370c8d94ade15b8,0.1735,0.1737,1,85,247,59,1,twofour,,,,,,,,,,,,,,,,,,,,,,,,,,,,,,,,,,,,,,,,,,,,,,,,,,,,,,,,,,,,,,,,,,,,,,,,,,,,,,,,,,,,,,,,,,,,,,,,,,,,,,,,,,,,,,,,,,,,,,,,,,,,,,,,,,,,,,,
,,5f158fe3696881556b96de39,2023-12-15_10h08.54.286,kallum_motion_pilot,2023.2.3,Win32,59.43889681,5f158fe3696881556b96de39,657bb317c8798c6608bceb3f,657bb495d370c8d94ade15b8,0.1739,0.1741,1,86,248,68,1,threeone,,,,,,,,,,,,,,,,,,,,,,,,,,,,,,,,,,,,,,,,,,,,,,,,,,,,,,,,,,,,,,,,,,,,,,,,,,,,,,,,,,,,,,,,,,,,,,,,,,,,,,,,,,,,,,,,,,,,,,,,,,,,,,,,,,,,,,,
,,5f158fe3696881556b96de39,2023-12-15_10h08.54.286,kallum_motion_pilot,2023.2.3,Win32,59.43889681,5f158fe3696881556b96de39,657bb317c8798c6608bceb3f,657bb495d370c8d94ade15b8,0.1743,0.1745,1,87,249,133,1,seveneight,,,,,,,,,,,,,,,,,,,,,,,,,,,,,,,,,,,,,,,,,,,,,,,,,,,,,,,,,,,,,,,,,,,,,,,,,,,,,,,,,,,,,,,,,,,,,,,,,,,,,,,,,,,,,,,,,,,,,,,,,,,,,,,,,,,,,,,
,,5f158fe3696881556b96de39,2023-12-15_10h08.54.286,kallum_motion_pilot,2023.2.3,Win32,59.43889681,5f158fe3696881556b96de39,657bb317c8798c6608bceb3f,657bb495d370c8d94ade15b8,0.1747,0.1749,1,88,250,75,1,twofour,,,,,,,,,,,,,,,,,,,,,,,,,,,,,,,,,,,,,,,,,,,,,,,,,,,,,,,,,,,,,,,,,,,,,,,,,,,,,,,,,,,,,,,,,,,,,,,,,,,,,,,,,,,,,,,,,,,,,,,,,,,,,,,,,,,,,,,
,,5f158fe3696881556b96de39,2023-12-15_10h08.54.286,kallum_motion_pilot,2023.2.3,Win32,59.43889681,5f158fe3696881556b96de39,657bb317c8798c6608bceb3f,657bb495d370c8d94ade15b8,0.1751,0.1753,1,89,251,34,1,twoone,,,,,,,,,,,,,,,,,,,,,,,,,,,,,,,,,,,,,,,,,,,,,,,,,,,,,,,,,,,,,,,,,,,,,,,,,,,,,,,,,,,,,,,,,,,,,,,,,,,,,,,,,,,,,,,,,,,,,,,,,,,,,,,,,,,,,,,
,,5f158fe3696881556b96de39,2023-12-15_10h08.54.286,kallum_motion_pilot,2023.2.3,Win32,59.43889681,5f158fe3696881556b96de39,657bb317c8798c6608bceb3f,657bb495d370c8d94ade15b8,0.1755,0.1756,1,90,252,161,1,fiveseven,,,,,,,,,,,,,,,,,,,,,,,,,,,,,,,,,,,,,,,,,,,,,,,,,,,,,,,,,,,,,,,,,,,,,,,,,,,,,,,,,,,,,,,,,,,,,,,,,,,,,,,,,,,,,,,,,,,,,,,,,,,,,,,,,,,,,,,
,,5f158fe3696881556b96de39,2023-12-15_10h08.54.286,kallum_motion_pilot,2023.2.3,Win32,59.43889681,5f158fe3696881556b96de39,657bb317c8798c6608bceb3f,657bb495d370c8d94ade15b8,0.1759,0.176,1,91,253,103,1,eightseven,,,,,,,,,,,,,,,,,,,,,,,,,,,,,,,,,,,,,,,,,,,,,,,,,,,,,,,,,,,,,,,,,,,,,,,,,,,,,,,,,,,,,,,,,,,,,,,,,,,,,,,,,,,,,,,,,,,,,,,,,,,,,,,,,,,,,,,
,,5f158fe3696881556b96de39,2023-12-15_10h08.54.286,kallum_motion_pilot,2023.2.3,Win32,59.43889681,5f158fe3696881556b96de39,657bb317c8798c6608bceb3f,657bb495d370c8d94ade15b8,0.1763,0.1765,1,92,254,160,1,fivesix,,,,,,,,,,,,,,,,,,,,,,,,,,,,,,,,,,,,,,,,,,,,,,,,,,,,,,,,,,,,,,,,,,,,,,,,,,,,,,,,,,,,,,,,,,,,,,,,,,,,,,,,,,,,,,,,,,,,,,,,,,,,,,,,,,,,,,,
,,5f158fe3696881556b96de39,2023-12-15_10h08.54.286,kallum_motion_pilot,2023.2.3,Win32,59.43889681,5f158fe3696881556b96de39,657bb317c8798c6608bceb3f,657bb495d370c8d94ade15b8,0.1767,0.1769,1,93,255,81,1,fiveseven,,,,,,,,,,,,,,,,,,,,,,,,,,,,,,,,,,,,,,,,,,,,,,,,,,,,,,,,,,,,,,,,,,,,,,,,,,,,,,,,,,,,,,,,,,,,,,,,,,,,,,,,,,,,,,,,,,,,,,,,,,,,,,,,,,,,,,,
,,5f158fe3696881556b96de39,2023-12-15_10h08.54.286,kallum_motion_pilot,2023.2.3,Win32,59.43889681,5f158fe3696881556b96de39,657bb317c8798c6608bceb3f,657bb495d370c8d94ade15b8,0.1771,0.1774,1,94,256,14,1,fourtwo,,,,,,,,,,,,,,,,,,,,,,,,,,,,,,,,,,,,,,,,,,,,,,,,,,,,,,,,,,,,,,,,,,,,,,,,,,,,,,,,,,,,,,,,,,,,,,,,,,,,,,,,,,,,,,,,,,,,,,,,,,,,,,,,,,,,,,,
,,5f158fe3696881556b96de39,2023-12-15_10h08.54.286,kallum_motion_pilot,2023.2.3,Win32,59.43889681,5f158fe3696881556b96de39,657bb317c8798c6608bceb3f,657bb495d370c8d94ade15b8,0.1775,0.1777,1,95,257,106,1,sixfive,,,,,,,,,,,,,,,,,,,,,,,,,,,,,,,,,,,,,,,,,,,,,,,,,,,,,,,,,,,,,,,,,,,,,,,,,,,,,,,,,,,,,,,,,,,,,,,,,,,,,,,,,,,,,,,,,,,,,,,,,,,,,,,,,,,,,,,
,,5f158fe3696881556b96de39,2023-12-15_10h08.54.286,kallum_motion_pilot,2023.2.3,Win32,59.43889681,5f158fe3696881556b96de39,657bb317c8798c6608bceb3f,657bb495d370c8d94ade15b8,0.178,0.1782,1,96,258,67,1,twofour,,,,,,,,,,,,,,,,,,,,,,,,,,,,,,,,,,,,,,,,,,,,,,,,,,,,,,,,,,,,,,,,,,,,,,,,,,,,,,,,,,,,,,,,,,,,,,,,,,,,,,,,,,,,,,,,,,,,,,,,,,,,,,,,,,,,,,,
,,5f158fe3696881556b96de39,2023-12-15_10h08.54.286,kallum_motion_pilot,2023.2.3,Win32,59.43889681,5f158fe3696881556b96de39,657bb317c8798c6608bceb3f,657bb495d370c8d94ade15b8,0.1784,0.1786,1,97,259,54,1,fourtwo,,,,,,,,,,,,,,,,,,,,,,,,,,,,,,,,,,,,,,,,,,,,,,,,,,,,,,,,,,,,,,,,,,,,,,,,,,,,,,,,,,,,,,,,,,,,,,,,,,,,,,,,,,,,,,,,,,,,,,,,,,,,,,,,,,,,,,,
,,5f158fe3696881556b96de39,2023-12-15_10h08.54.286,kallum_motion_pilot,2023.2.3,Win32,59.43889681,5f158fe3696881556b96de39,657bb317c8798c6608bceb3f,657bb495d370c8d94ade15b8,0.1787,0.1791,1,98,260,121,1,fiveseven,,,,,,,,,,,,,,,,,,,,,,,,,,,,,,,,,,,,,,,,,,,,,,,,,,,,,,,,,,,,,,,,,,,,,,,,,,,,,,,,,,,,,,,,,,,,,,,,,,,,,,,,,,,,,,,,,,,,,,,,,,,,,,,,,,,,,,,
,,5f158fe3696881556b96de39,2023-12-15_10h08.54.286,kallum_motion_pilot,2023.2.3,Win32,59.43889681,5f158fe3696881556b96de39,657bb317c8798c6608bceb3f,657bb495d370c8d94ade15b8,0.1794,0.1797,1,99,261,132,1,sevenfive,,,,,,,,,,,,,,,,,,,,,,,,,,,,,,,,,,,,,,,,,,,,,,,,,,,,,,,,,,,,,,,,,,,,,,,,,,,,,,,,,,,,,,,,,,,,,,,,,,,,,,,,,,,,,,,,,,,,,,,,,,,,,,,,,,,,,,,
,,5f158fe3696881556b96de39,2023-12-15_10h08.54.286,kallum_motion_pilot,2023.2.3,Win32,59.43889681,5f158fe3696881556b96de39,657bb317c8798c6608bceb3f,657bb495d370c8d94ade15b8,0.1802,0.1803,1,100,262,78,1,fourtwo,,,,,,,,,,,,,,,,,,,,,,,,,,,,,,,,,,,,,,,,,,,,,,,,,,,,,,,,,,,,,,,,,,,,,,,,,,,,,,,,,,,,,,,,,,,,,,,,,,,,,,,,,,,,,,,,,,,,,,,,,,,,,,,,,,,,,,,
,,5f158fe3696881556b96de39,2023-12-15_10h08.54.286,kallum_motion_pilot,2023.2.3,Win32,59.43889681,5f158fe3696881556b96de39,657bb317c8798c6608bceb3f,657bb495d370c8d94ade15b8,0.1805,0.1807,1,101,263,27,1,twofour,,,,,,,,,,,,,,,,,,,,,,,,,,,,,,,,,,,,,,,,,,,,,,,,,,,,,,,,,,,,,,,,,,,,,,,,,,,,,,,,,,,,,,,,,,,,,,,,,,,,,,,,,,,,,,,,,,,,,,,,,,,,,,,,,,,,,,,
,,5f158fe3696881556b96de39,2023-12-15_10h08.54.286,kallum_motion_pilot,2023.2.3,Win32,59.43889681,5f158fe3696881556b96de39,657bb317c8798c6608bceb3f,657bb495d370c8d94ade15b8,0.1809,0.1811,1,102,264,125,1,seveneight,,,,,,,,,,,,,,,,,,,,,,,,,,,,,,,,,,,,,,,,,,,,,,,,,,,,,,,,,,,,,,,,,,,,,,,,,,,,,,,,,,,,,,,,,,,,,,,,,,,,,,,,,,,,,,,,,,,,,,,,,,,,,,,,,,,,,,,
,,5f158fe3696881556b96de39,2023-12-15_10h08.54.286,kallum_motion_pilot,2023.2.3,Win32,59.43889681,5f158fe3696881556b96de39,657bb317c8798c6608bceb3f,657bb495d370c8d94ade15b8,0.1813,0.1816,1,103,265,136,1,fivesix,,,,,,,,,,,,,,,,,,,,,,,,,,,,,,,,,,,,,,,,,,,,,,,,,,,,,,,,,,,,,,,,,,,,,,,,,,,,,,,,,,,,,,,,,,,,,,,,,,,,,,,,,,,,,,,,,,,,,,,,,,,,,,,,,,,,,,,
,,5f158fe3696881556b96de39,2023-12-15_10h08.54.286,kallum_motion_pilot,2023.2.3,Win32,59.43889681,5f158fe3696881556b96de39,657bb317c8798c6608bceb3f,657bb495d370c8d94ade15b8,0.1818,0.1819,1,104,266,5,1,threefour,,,,,,,,,,,,,,,,,,,,,,,,,,,,,,,,,,,,,,,,,,,,,,,,,,,,,,,,,,,,,,,,,,,,,,,,,,,,,,,,,,,,,,,,,,,,,,,,,,,,,,,,,,,,,,,,,,,,,,,,,,,,,,,,,,,,,,,
,,5f158fe3696881556b96de39,2023-12-15_10h08.54.286,kallum_motion_pilot,2023.2.3,Win32,59.43889681,5f158fe3696881556b96de39,657bb317c8798c6608bceb3f,657bb495d370c8d94ade15b8,0.1821,0.1823,1,105,267,89,1,fiveseven,,,,,,,,,,,,,,,,,,,,,,,,,,,,,,,,,,,,,,,,,,,,,,,,,,,,,,,,,,,,,,,,,,,,,,,,,,,,,,,,,,,,,,,,,,,,,,,,,,,,,,,,,,,,,,,,,,,,,,,,,,,,,,,,,,,,,,,
,,5f158fe3696881556b96de39,2023-12-15_10h08.54.286,kallum_motion_pilot,2023.2.3,Win32,59.43889681,5f158fe3696881556b96de39,657bb317c8798c6608bceb3f,657bb495d370c8d94ade15b8,0.1826,0.1828,1,106,268,107,1,sixeight,,,,,,,,,,,,,,,,,,,,,,,,,,,,,,,,,,,,,,,,,,,,,,,,,,,,,,,,,,,,,,,,,,,,,,,,,,,,,,,,,,,,,,,,,,,,,,,,,,,,,,,,,,,,,,,,,,,,,,,,,,,,,,,,,,,,,,,
,,5f158fe3696881556b96de39,2023-12-15_10h08.54.286,kallum_motion_pilot,2023.2.3,Win32,59.43889681,5f158fe3696881556b96de39,657bb317c8798c6608bceb3f,657bb495d370c8d94ade15b8,0.183,0.1832,1,107,269,33,1,onethree,,,,,,,,,,,,,,,,,,,,,,,,,,,,,,,,,,,,,,,,,,,,,,,,,,,,,,,,,,,,,,,,,,,,,,,,,,,,,,,,,,,,,,,,,,,,,,,,,,,,,,,,,,,,,,,,,,,,,,,,,,,,,,,,,,,,,,,
,,5f158fe3696881556b96de39,2023-12-15_10h08.54.286,kallum_motion_pilot,2023.2.3,Win32,59.43889681,5f158fe3696881556b96de39,657bb317c8798c6608bceb3f,657bb495d370c8d94ade15b8,0.1834,0.1836,1,108,270,28,1,threeone,,,,,,,,,,,,,,,,,,,,,,,,,,,,,,,,,,,,,,,,,,,,,,,,,,,,,,,,,,,,,,,,,,,,,,,,,,,,,,,,,,,,,,,,,,,,,,,,,,,,,,,,,,,,,,,,,,,,,,,,,,,,,,,,,,,,,,,
,,5f158fe3696881556b96de39,2023-12-15_10h08.54.286,kallum_motion_pilot,2023.2.3,Win32,59.43889681,5f158fe3696881556b96de39,657bb317c8798c6608bceb3f,657bb495d370c8d94ade15b8,0.1838,0.184,1,109,271,42,1,twoone,,,,,,,,,,,,,,,,,,,,,,,,,,,,,,,,,,,,,,,,,,,,,,,,,,,,,,,,,,,,,,,,,,,,,,,,,,,,,,,,,,,,,,,,,,,,,,,,,,,,,,,,,,,,,,,,,,,,,,,,,,,,,,,,,,,,,,,
,,5f158fe3696881556b96de39,2023-12-15_10h08.54.286,kallum_motion_pilot,2023.2.3,Win32,59.43889681,5f158fe3696881556b96de39,657bb317c8798c6608bceb3f,657bb495d370c8d94ade15b8,0.1842,0.1844,1,110,272,111,1,eightseven,,,,,,,,,,,,,,,,,,,,,,,,,,,,,,,,,,,,,,,,,,,,,,,,,,,,,,,,,,,,,,,,,,,,,,,,,,,,,,,,,,,,,,,,,,,,,,,,,,,,,,,,,,,,,,,,,,,,,,,,,,,,,,,,,,,,,,,
,,5f158fe3696881556b96de39,2023-12-15_10h08.54.286,kallum_motion_pilot,2023.2.3,Win32,59.43889681,5f158fe3696881556b96de39,657bb317c8798c6608bceb3f,657bb495d370c8d94ade15b8,0.1846,0.1849,1,111,273,53,1,threefour,,,,,,,,,,,,,,,,,,,,,,,,,,,,,,,,,,,,,,,,,,,,,,,,,,,,,,,,,,,,,,,,,,,,,,,,,,,,,,,,,,,,,,,,,,,,,,,,,,,,,,,,,,,,,,,,,,,,,,,,,,,,,,,,,,,,,,,
,,5f158fe3696881556b96de39,2023-12-15_10h08.54.286,kallum_motion_pilot,2023.2.3,Win32,59.43889681,5f158fe3696881556b96de39,657bb317c8798c6608bceb3f,657bb495d370c8d94ade15b8,0.186,0.1865,1,112,274,56,1,onetwo,,,,,,,,,,,,,,,,,,,,,,,,,,,,,,,,,,,,,,,,,,,,,,,,,,,,,,,,,,,,,,,,,,,,,,,,,,,,,,,,,,,,,,,,,,,,,,,,,,,,,,,,,,,,,,,,,,,,,,,,,,,,,,,,,,,,,,,
,,5f158fe3696881556b96de39,2023-12-15_10h08.54.286,kallum_motion_pilot,2023.2.3,Win32,59.43889681,5f158fe3696881556b96de39,657bb317c8798c6608bceb3f,657bb495d370c8d94ade15b8,0.1868,0.187,1,113,275,97,1,fiveseven,,,,,,,,,,,,,,,,,,,,,,,,,,,,,,,,,,,,,,,,,,,,,,,,,,,,,,,,,,,,,,,,,,,,,,,,,,,,,,,,,,,,,,,,,,,,,,,,,,,,,,,,,,,,,,,,,,,,,,,,,,,,,,,,,,,,,,,
,,5f158fe3696881556b96de39,2023-12-15_10h08.54.286,kallum_motion_pilot,2023.2.3,Win32,59.43889681,5f158fe3696881556b96de39,657bb317c8798c6608bceb3f,657bb495d370c8d94ade15b8,0.1874,0.1876,1,114,276,105,1,fiveseven,,,,,,,,,,,,,,,,,,,,,,,,,,,,,,,,,,,,,,,,,,,,,,,,,,,,,,,,,,,,,,,,,,,,,,,,,,,,,,,,,,,,,,,,,,,,,,,,,,,,,,,,,,,,,,,,,,,,,,,,,,,,,,,,,,,,,,,
,,5f158fe3696881556b96de39,2023-12-15_10h08.54.286,kallum_motion_pilot,2023.2.3,Win32,59.43889681,5f158fe3696881556b96de39,657bb317c8798c6608bceb3f,657bb495d370c8d94ade15b8,0.1879,0.1886,1,115,277,39,1,fourthree,,,,,,,,,,,,,,,,,,,,,,,,,,,,,,,,,,,,,,,,,,,,,,,,,,,,,,,,,,,,,,,,,,,,,,,,,,,,,,,,,,,,,,,,,,,,,,,,,,,,,,,,,,,,,,,,,,,,,,,,,,,,,,,,,,,,,,,
,,5f158fe3696881556b96de39,2023-12-15_10h08.54.286,kallum_motion_pilot,2023.2.3,Win32,59.43889681,5f158fe3696881556b96de39,657bb317c8798c6608bceb3f,657bb495d370c8d94ade15b8,0.1887,0.1891,1,116,278,83,1,sixeight,,,,,,,,,,,,,,,,,,,,,,,,,,,,,,,,,,,,,,,,,,,,,,,,,,,,,,,,,,,,,,,,,,,,,,,,,,,,,,,,,,,,,,,,,,,,,,,,,,,,,,,,,,,,,,,,,,,,,,,,,,,,,,,,,,,,,,,
,,5f158fe3696881556b96de39,2023-12-15_10h08.54.286,kallum_motion_pilot,2023.2.3,Win32,59.43889681,5f158fe3696881556b96de39,657bb317c8798c6608bceb3f,657bb495d370c8d94ade15b8,0.1893,0.1895,1,117,279,117,1,seveneight,,,,,,,,,,,,,,,,,,,,,,,,,,,,,,,,,,,,,,,,,,,,,,,,,,,,,,,,,,,,,,,,,,,,,,,,,,,,,,,,,,,,,,,,,,,,,,,,,,,,,,,,,,,,,,,,,,,,,,,,,,,,,,,,,,,,,,,
