startup.started,startup.stopped,Prolific ID*,date,expName,psychopyVersion,OS,frameRate,participant,study_id,session,stimpositions.started,stimpositions.stopped,hardcoded_stimulus_positions.thisRepN,hardcoded_stimulus_positions.thisTrialN,hardcoded_stimulus_positions.thisN,hardcoded_stimulus_positions.thisIndex,hardcoded_stimulus_positions.ran,StimulusPos,stimorientation.started,stimorientation.stopped,prac_stimorientation_import_loop.thisRepN,prac_stimorientation_import_loop.thisTrialN,prac_stimorientation_import_loop.thisN,prac_stimorientation_import_loop.thisIndex,prac_stimorientation_import_loop.ran,Stimorientation,welcome_instr.started,welcome_instr.stopped,key_resp.keys,key_resp.rt,key_resp.duration,response_steppedout_1.started,response_steppedout_1.stopped,key_resp_20.keys,key_resp_20.rt,key_resp_20.duration,response_steppedout_2.started,response_steppedout_2.stopped,key_resp_19.keys,key_resp_19.rt,key_resp_19.duration,stim_response_instr.started,stim_response_instr.stopped,key_resp_15.keys,key_resp_15.rt,key_resp_15.duration,direction_instr_2.started,direction_instr_2.stopped,key_resp_9.keys,key_resp_9.rt,key_resp_9.duration,instr_prac.started,instr_prac.stopped,key_resp_10.keys,key_resp_10.rt,key_resp_10.duration,Stim1_display_prac.started,Stim1_display_prac.stopped,Ecc,Circle1_ori,Circle2_ori,response_prac.started,similarity,response_time,response_prac.stopped,mouse_5.x,mouse_5.y,mouse_5.leftButton,mouse_5.midButton,mouse_5.rightButton,mouse_5.clicked_name,responseprac_feedback.started,responseprac_feedback.stopped,summary2_prac.started,summary2_prac.stopped,mouse_6.x,mouse_6.y,mouse_6.leftButton,mouse_6.midButton,mouse_6.rightButton,mouse_6.clicked_name,duringprac.thisRepN,duringprac.thisTrialN,duringprac.thisN,duringprac.thisIndex,duringprac.ran,begin.started,begin.stopped,key_resp_22.keys,key_resp_22.rt,key_resp_22.duration,Stim1_display.started,Stim1_display.stopped,circle1_ori,circle2_ori,blank.started,blank.stopped,response.started,response.stopped,mouse.x,mouse.y,mouse.leftButton,mouse.midButton,mouse.rightButton,mouse.clicked_name,response_2.started,response_2.stopped,mouse_2.x,mouse_2.y,mouse_2.leftButton,mouse_2.midButton,mouse_2.rightButton,mouse_2.clicked_name,special_trial.started,special_trial.stopped,catch_1.started,catch_1.stopped,mouse_3.x,mouse_3.y,mouse_3.leftButton,mouse_3.midButton,mouse_3.rightButton,catchresponse,catchnumber,response_time_catch,Catch,response_sum.started,response_sum.stopped,mouse_11.x,mouse_11.y,mouse_11.leftButton,mouse_11.midButton,mouse_11.rightButton,main_trial.thisRepN,main_trial.thisTrialN,main_trial.thisN,main_trial.thisIndex,main_trial.ran,Orientationtrialno,xcircle1_ori,xcircle2_ori,flip_presentation_sequence_for_double_pass.started,flip_presentation_sequence_for_double_pass.stopped,double_pass.thisRepN,double_pass.thisTrialN,double_pass.thisN,double_pass.thisIndex,double_pass.ran,goodbye.started,goodbye.stopped,key_resp_3.keys,key_resp_3.rt,key_resp_3.duration
0.0002,0.0003,5fca888982a09a6a47620777,2023-12-14_19h06.44.230,kallum_motion_pilot,2023.2.3,Win32,15.01501502,5fca888982a09a6a47620777,657bb317c8798c6608bceb3f,657bb4911ad37ab31fbce947,,,,,,,,,,,,,,,,,,,,,,,,,,,,,,,,,,,,,,,,,,,,,,,,,,,,,,,,,,,,,,,,,,,,,,,,,,,,,,,,,,,,,,,,,,,,,,,,,,,,,,,,,,,,,,,,,,,,,,,,,,,,,,,,,,,,,,,,,,,,,,,
,,5fca888982a09a6a47620777,2023-12-14_19h06.44.230,kallum_motion_pilot,2023.2.3,Win32,15.01501502,5fca888982a09a6a47620777,657bb317c8798c6608bceb3f,657bb4911ad37ab31fbce947,0.0197,0.0198,0,0,0,15,1,fourthree,,,,,,,,,,,,,,,,,,,,,,,,,,,,,,,,,,,,,,,,,,,,,,,,,,,,,,,,,,,,,,,,,,,,,,,,,,,,,,,,,,,,,,,,,,,,,,,,,,,,,,,,,,,,,,,,,,,,,,,,,,,,,,,,,,,,,,,
,,5fca888982a09a6a47620777,2023-12-14_19h06.44.230,kallum_motion_pilot,2023.2.3,Win32,15.01501502,5fca888982a09a6a47620777,657bb317c8798c6608bceb3f,657bb4911ad37ab31fbce947,0.0201,0.0201,0,1,1,49,1,onethree,,,,,,,,,,,,,,,,,,,,,,,,,,,,,,,,,,,,,,,,,,,,,,,,,,,,,,,,,,,,,,,,,,,,,,,,,,,,,,,,,,,,,,,,,,,,,,,,,,,,,,,,,,,,,,,,,,,,,,,,,,,,,,,,,,,,,,,
,,5fca888982a09a6a47620777,2023-12-14_19h06.44.230,kallum_motion_pilot,2023.2.3,Win32,15.01501502,5fca888982a09a6a47620777,657bb317c8798c6608bceb3f,657bb4911ad37ab31fbce947,0.0202,0.0202,0,2,2,19,1,twofour,,,,,,,,,,,,,,,,,,,,,,,,,,,,,,,,,,,,,,,,,,,,,,,,,,,,,,,,,,,,,,,,,,,,,,,,,,,,,,,,,,,,,,,,,,,,,,,,,,,,,,,,,,,,,,,,,,,,,,,,,,,,,,,,,,,,,,,
,,5fca888982a09a6a47620777,2023-12-14_19h06.44.230,kallum_motion_pilot,2023.2.3,Win32,15.01501502,5fca888982a09a6a47620777,657bb317c8798c6608bceb3f,657bb4911ad37ab31fbce947,0.0203,0.0203,0,3,3,94,1,eightsix,,,,,,,,,,,,,,,,,,,,,,,,,,,,,,,,,,,,,,,,,,,,,,,,,,,,,,,,,,,,,,,,,,,,,,,,,,,,,,,,,,,,,,,,,,,,,,,,,,,,,,,,,,,,,,,,,,,,,,,,,,,,,,,,,,,,,,,
,,5fca888982a09a6a47620777,2023-12-14_19h06.44.230,kallum_motion_pilot,2023.2.3,Win32,15.01501502,5fca888982a09a6a47620777,657bb317c8798c6608bceb3f,657bb4911ad37ab31fbce947,0.0204,0.0204,0,4,4,84,1,sevenfive,,,,,,,,,,,,,,,,,,,,,,,,,,,,,,,,,,,,,,,,,,,,,,,,,,,,,,,,,,,,,,,,,,,,,,,,,,,,,,,,,,,,,,,,,,,,,,,,,,,,,,,,,,,,,,,,,,,,,,,,,,,,,,,,,,,,,,,
,,5fca888982a09a6a47620777,2023-12-14_19h06.44.230,kallum_motion_pilot,2023.2.3,Win32,15.01501502,5fca888982a09a6a47620777,657bb317c8798c6608bceb3f,657bb4911ad37ab31fbce947,0.0206,0.0206,0,5,5,81,1,fiveseven,,,,,,,,,,,,,,,,,,,,,,,,,,,,,,,,,,,,,,,,,,,,,,,,,,,,,,,,,,,,,,,,,,,,,,,,,,,,,,,,,,,,,,,,,,,,,,,,,,,,,,,,,,,,,,,,,,,,,,,,,,,,,,,,,,,,,,,
,,5fca888982a09a6a47620777,2023-12-14_19h06.44.230,kallum_motion_pilot,2023.2.3,Win32,15.01501502,5fca888982a09a6a47620777,657bb317c8798c6608bceb3f,657bb4911ad37ab31fbce947,0.0207,0.0207,0,6,6,55,1,fourthree,,,,,,,,,,,,,,,,,,,,,,,,,,,,,,,,,,,,,,,,,,,,,,,,,,,,,,,,,,,,,,,,,,,,,,,,,,,,,,,,,,,,,,,,,,,,,,,,,,,,,,,,,,,,,,,,,,,,,,,,,,,,,,,,,,,,,,,
,,5fca888982a09a6a47620777,2023-12-14_19h06.44.230,kallum_motion_pilot,2023.2.3,Win32,15.01501502,5fca888982a09a6a47620777,657bb317c8798c6608bceb3f,657bb4911ad37ab31fbce947,0.0207,0.0207,0,7,7,92,1,sevenfive,,,,,,,,,,,,,,,,,,,,,,,,,,,,,,,,,,,,,,,,,,,,,,,,,,,,,,,,,,,,,,,,,,,,,,,,,,,,,,,,,,,,,,,,,,,,,,,,,,,,,,,,,,,,,,,,,,,,,,,,,,,,,,,,,,,,,,,
,,5fca888982a09a6a47620777,2023-12-14_19h06.44.230,kallum_motion_pilot,2023.2.3,Win32,15.01501502,5fca888982a09a6a47620777,657bb317c8798c6608bceb3f,657bb4911ad37ab31fbce947,0.0208,0.0209,0,8,8,108,1,sevenfive,,,,,,,,,,,,,,,,,,,,,,,,,,,,,,,,,,,,,,,,,,,,,,,,,,,,,,,,,,,,,,,,,,,,,,,,,,,,,,,,,,,,,,,,,,,,,,,,,,,,,,,,,,,,,,,,,,,,,,,,,,,,,,,,,,,,,,,
,,5fca888982a09a6a47620777,2023-12-14_19h06.44.230,kallum_motion_pilot,2023.2.3,Win32,15.01501502,5fca888982a09a6a47620777,657bb317c8798c6608bceb3f,657bb4911ad37ab31fbce947,0.0209,0.021,0,9,9,18,1,twoone,,,,,,,,,,,,,,,,,,,,,,,,,,,,,,,,,,,,,,,,,,,,,,,,,,,,,,,,,,,,,,,,,,,,,,,,,,,,,,,,,,,,,,,,,,,,,,,,,,,,,,,,,,,,,,,,,,,,,,,,,,,,,,,,,,,,,,,
,,5fca888982a09a6a47620777,2023-12-14_19h06.44.230,kallum_motion_pilot,2023.2.3,Win32,15.01501502,5fca888982a09a6a47620777,657bb317c8798c6608bceb3f,657bb4911ad37ab31fbce947,0.0211,0.0211,0,10,10,150,1,eightsix,,,,,,,,,,,,,,,,,,,,,,,,,,,,,,,,,,,,,,,,,,,,,,,,,,,,,,,,,,,,,,,,,,,,,,,,,,,,,,,,,,,,,,,,,,,,,,,,,,,,,,,,,,,,,,,,,,,,,,,,,,,,,,,,,,,,,,,
,,5fca888982a09a6a47620777,2023-12-14_19h06.44.230,kallum_motion_pilot,2023.2.3,Win32,15.01501502,5fca888982a09a6a47620777,657bb317c8798c6608bceb3f,657bb4911ad37ab31fbce947,0.0211,0.0211,0,11,11,23,1,fourthree,,,,,,,,,,,,,,,,,,,,,,,,,,,,,,,,,,,,,,,,,,,,,,,,,,,,,,,,,,,,,,,,,,,,,,,,,,,,,,,,,,,,,,,,,,,,,,,,,,,,,,,,,,,,,,,,,,,,,,,,,,,,,,,,,,,,,,,
,,5fca888982a09a6a47620777,2023-12-14_19h06.44.230,kallum_motion_pilot,2023.2.3,Win32,15.01501502,5fca888982a09a6a47620777,657bb317c8798c6608bceb3f,657bb4911ad37ab31fbce947,0.0212,0.0212,0,12,12,107,1,sixeight,,,,,,,,,,,,,,,,,,,,,,,,,,,,,,,,,,,,,,,,,,,,,,,,,,,,,,,,,,,,,,,,,,,,,,,,,,,,,,,,,,,,,,,,,,,,,,,,,,,,,,,,,,,,,,,,,,,,,,,,,,,,,,,,,,,,,,,
,,5fca888982a09a6a47620777,2023-12-14_19h06.44.230,kallum_motion_pilot,2023.2.3,Win32,15.01501502,5fca888982a09a6a47620777,657bb317c8798c6608bceb3f,657bb4911ad37ab31fbce947,0.0214,0.0214,0,13,13,98,1,sixfive,,,,,,,,,,,,,,,,,,,,,,,,,,,,,,,,,,,,,,,,,,,,,,,,,,,,,,,,,,,,,,,,,,,,,,,,,,,,,,,,,,,,,,,,,,,,,,,,,,,,,,,,,,,,,,,,,,,,,,,,,,,,,,,,,,,,,,,
,,5fca888982a09a6a47620777,2023-12-14_19h06.44.230,kallum_motion_pilot,2023.2.3,Win32,15.01501502,5fca888982a09a6a47620777,657bb317c8798c6608bceb3f,657bb4911ad37ab31fbce947,0.0214,0.0214,0,14,14,46,1,fourtwo,,,,,,,,,,,,,,,,,,,,,,,,,,,,,,,,,,,,,,,,,,,,,,,,,,,,,,,,,,,,,,,,,,,,,,,,,,,,,,,,,,,,,,,,,,,,,,,,,,,,,,,,,,,,,,,,,,,,,,,,,,,,,,,,,,,,,,,
,,5fca888982a09a6a47620777,2023-12-14_19h06.44.230,kallum_motion_pilot,2023.2.3,Win32,15.01501502,5fca888982a09a6a47620777,657bb317c8798c6608bceb3f,657bb4911ad37ab31fbce947,0.0215,0.0215,0,15,15,53,1,threefour,,,,,,,,,,,,,,,,,,,,,,,,,,,,,,,,,,,,,,,,,,,,,,,,,,,,,,,,,,,,,,,,,,,,,,,,,,,,,,,,,,,,,,,,,,,,,,,,,,,,,,,,,,,,,,,,,,,,,,,,,,,,,,,,,,,,,,,
,,5fca888982a09a6a47620777,2023-12-14_19h06.44.230,kallum_motion_pilot,2023.2.3,Win32,15.01501502,5fca888982a09a6a47620777,657bb317c8798c6608bceb3f,657bb4911ad37ab31fbce947,0.0216,0.0216,0,16,16,140,1,sevenfive,,,,,,,,,,,,,,,,,,,,,,,,,,,,,,,,,,,,,,,,,,,,,,,,,,,,,,,,,,,,,,,,,,,,,,,,,,,,,,,,,,,,,,,,,,,,,,,,,,,,,,,,,,,,,,,,,,,,,,,,,,,,,,,,,,,,,,,
,,5fca888982a09a6a47620777,2023-12-14_19h06.44.230,kallum_motion_pilot,2023.2.3,Win32,15.01501502,5fca888982a09a6a47620777,657bb317c8798c6608bceb3f,657bb4911ad37ab31fbce947,0.0216,0.0216,0,17,17,12,1,threeone,,,,,,,,,,,,,,,,,,,,,,,,,,,,,,,,,,,,,,,,,,,,,,,,,,,,,,,,,,,,,,,,,,,,,,,,,,,,,,,,,,,,,,,,,,,,,,,,,,,,,,,,,,,,,,,,,,,,,,,,,,,,,,,,,,,,,,,
,,5fca888982a09a6a47620777,2023-12-14_19h06.44.230,kallum_motion_pilot,2023.2.3,Win32,15.01501502,5fca888982a09a6a47620777,657bb317c8798c6608bceb3f,657bb4911ad37ab31fbce947,0.0218,0.0218,0,18,18,101,1,seveneight,,,,,,,,,,,,,,,,,,,,,,,,,,,,,,,,,,,,,,,,,,,,,,,,,,,,,,,,,,,,,,,,,,,,,,,,,,,,,,,,,,,,,,,,,,,,,,,,,,,,,,,,,,,,,,,,,,,,,,,,,,,,,,,,,,,,,,,
,,5fca888982a09a6a47620777,2023-12-14_19h06.44.230,kallum_motion_pilot,2023.2.3,Win32,15.01501502,5fca888982a09a6a47620777,657bb317c8798c6608bceb3f,657bb4911ad37ab31fbce947,0.0218,0.0219,0,19,19,125,1,seveneight,,,,,,,,,,,,,,,,,,,,,,,,,,,,,,,,,,,,,,,,,,,,,,,,,,,,,,,,,,,,,,,,,,,,,,,,,,,,,,,,,,,,,,,,,,,,,,,,,,,,,,,,,,,,,,,,,,,,,,,,,,,,,,,,,,,,,,,
,,5fca888982a09a6a47620777,2023-12-14_19h06.44.230,kallum_motion_pilot,2023.2.3,Win32,15.01501502,5fca888982a09a6a47620777,657bb317c8798c6608bceb3f,657bb4911ad37ab31fbce947,0.0219,0.0219,0,20,20,29,1,threefour,,,,,,,,,,,,,,,,,,,,,,,,,,,,,,,,,,,,,,,,,,,,,,,,,,,,,,,,,,,,,,,,,,,,,,,,,,,,,,,,,,,,,,,,,,,,,,,,,,,,,,,,,,,,,,,,,,,,,,,,,,,,,,,,,,,,,,,
,,5fca888982a09a6a47620777,2023-12-14_19h06.44.230,kallum_motion_pilot,2023.2.3,Win32,15.01501502,5fca888982a09a6a47620777,657bb317c8798c6608bceb3f,657bb4911ad37ab31fbce947,0.022,0.022,0,21,21,17,1,onethree,,,,,,,,,,,,,,,,,,,,,,,,,,,,,,,,,,,,,,,,,,,,,,,,,,,,,,,,,,,,,,,,,,,,,,,,,,,,,,,,,,,,,,,,,,,,,,,,,,,,,,,,,,,,,,,,,,,,,,,,,,,,,,,,,,,,,,,
,,5fca888982a09a6a47620777,2023-12-14_19h06.44.230,kallum_motion_pilot,2023.2.3,Win32,15.01501502,5fca888982a09a6a47620777,657bb317c8798c6608bceb3f,657bb4911ad37ab31fbce947,0.022,0.0221,0,22,22,100,1,sevenfive,,,,,,,,,,,,,,,,,,,,,,,,,,,,,,,,,,,,,,,,,,,,,,,,,,,,,,,,,,,,,,,,,,,,,,,,,,,,,,,,,,,,,,,,,,,,,,,,,,,,,,,,,,,,,,,,,,,,,,,,,,,,,,,,,,,,,,,
,,5fca888982a09a6a47620777,2023-12-14_19h06.44.230,kallum_motion_pilot,2023.2.3,Win32,15.01501502,5fca888982a09a6a47620777,657bb317c8798c6608bceb3f,657bb4911ad37ab31fbce947,0.0222,0.0222,0,23,23,30,1,fourtwo,,,,,,,,,,,,,,,,,,,,,,,,,,,,,,,,,,,,,,,,,,,,,,,,,,,,,,,,,,,,,,,,,,,,,,,,,,,,,,,,,,,,,,,,,,,,,,,,,,,,,,,,,,,,,,,,,,,,,,,,,,,,,,,,,,,,,,,
,,5fca888982a09a6a47620777,2023-12-14_19h06.44.230,kallum_motion_pilot,2023.2.3,Win32,15.01501502,5fca888982a09a6a47620777,657bb317c8798c6608bceb3f,657bb4911ad37ab31fbce947,0.0222,0.0223,0,24,24,86,1,eightsix,,,,,,,,,,,,,,,,,,,,,,,,,,,,,,,,,,,,,,,,,,,,,,,,,,,,,,,,,,,,,,,,,,,,,,,,,,,,,,,,,,,,,,,,,,,,,,,,,,,,,,,,,,,,,,,,,,,,,,,,,,,,,,,,,,,,,,,
,,5fca888982a09a6a47620777,2023-12-14_19h06.44.230,kallum_motion_pilot,2023.2.3,Win32,15.01501502,5fca888982a09a6a47620777,657bb317c8798c6608bceb3f,657bb4911ad37ab31fbce947,0.0224,0.0224,0,25,25,5,1,threefour,,,,,,,,,,,,,,,,,,,,,,,,,,,,,,,,,,,,,,,,,,,,,,,,,,,,,,,,,,,,,,,,,,,,,,,,,,,,,,,,,,,,,,,,,,,,,,,,,,,,,,,,,,,,,,,,,,,,,,,,,,,,,,,,,,,,,,,
,,5fca888982a09a6a47620777,2023-12-14_19h06.44.230,kallum_motion_pilot,2023.2.3,Win32,15.01501502,5fca888982a09a6a47620777,657bb317c8798c6608bceb3f,657bb4911ad37ab31fbce947,0.0224,0.0225,0,26,26,87,1,eightseven,,,,,,,,,,,,,,,,,,,,,,,,,,,,,,,,,,,,,,,,,,,,,,,,,,,,,,,,,,,,,,,,,,,,,,,,,,,,,,,,,,,,,,,,,,,,,,,,,,,,,,,,,,,,,,,,,,,,,,,,,,,,,,,,,,,,,,,
,,5fca888982a09a6a47620777,2023-12-14_19h06.44.230,kallum_motion_pilot,2023.2.3,Win32,15.01501502,5fca888982a09a6a47620777,657bb317c8798c6608bceb3f,657bb4911ad37ab31fbce947,0.0226,0.0226,0,27,27,124,1,sevenfive,,,,,,,,,,,,,,,,,,,,,,,,,,,,,,,,,,,,,,,,,,,,,,,,,,,,,,,,,,,,,,,,,,,,,,,,,,,,,,,,,,,,,,,,,,,,,,,,,,,,,,,,,,,,,,,,,,,,,,,,,,,,,,,,,,,,,,,
,,5fca888982a09a6a47620777,2023-12-14_19h06.44.230,kallum_motion_pilot,2023.2.3,Win32,15.01501502,5fca888982a09a6a47620777,657bb317c8798c6608bceb3f,657bb4911ad37ab31fbce947,0.0226,0.0227,0,28,28,39,1,fourthree,,,,,,,,,,,,,,,,,,,,,,,,,,,,,,,,,,,,,,,,,,,,,,,,,,,,,,,,,,,,,,,,,,,,,,,,,,,,,,,,,,,,,,,,,,,,,,,,,,,,,,,,,,,,,,,,,,,,,,,,,,,,,,,,,,,,,,,
,,5fca888982a09a6a47620777,2023-12-14_19h06.44.230,kallum_motion_pilot,2023.2.3,Win32,15.01501502,5fca888982a09a6a47620777,657bb317c8798c6608bceb3f,657bb4911ad37ab31fbce947,0.0227,0.0227,0,29,29,66,1,twoone,,,,,,,,,,,,,,,,,,,,,,,,,,,,,,,,,,,,,,,,,,,,,,,,,,,,,,,,,,,,,,,,,,,,,,,,,,,,,,,,,,,,,,,,,,,,,,,,,,,,,,,,,,,,,,,,,,,,,,,,,,,,,,,,,,,,,,,
,,5fca888982a09a6a47620777,2023-12-14_19h06.44.230,kallum_motion_pilot,2023.2.3,Win32,15.01501502,5fca888982a09a6a47620777,657bb317c8798c6608bceb3f,657bb4911ad37ab31fbce947,0.0228,0.0228,0,30,30,76,1,threeone,,,,,,,,,,,,,,,,,,,,,,,,,,,,,,,,,,,,,,,,,,,,,,,,,,,,,,,,,,,,,,,,,,,,,,,,,,,,,,,,,,,,,,,,,,,,,,,,,,,,,,,,,,,,,,,,,,,,,,,,,,,,,,,,,,,,,,,
,,5fca888982a09a6a47620777,2023-12-14_19h06.44.230,kallum_motion_pilot,2023.2.3,Win32,15.01501502,5fca888982a09a6a47620777,657bb317c8798c6608bceb3f,657bb4911ad37ab31fbce947,0.0229,0.0229,0,31,31,158,1,eightsix,,,,,,,,,,,,,,,,,,,,,,,,,,,,,,,,,,,,,,,,,,,,,,,,,,,,,,,,,,,,,,,,,,,,,,,,,,,,,,,,,,,,,,,,,,,,,,,,,,,,,,,,,,,,,,,,,,,,,,,,,,,,,,,,,,,,,,,
,,5fca888982a09a6a47620777,2023-12-14_19h06.44.230,kallum_motion_pilot,2023.2.3,Win32,15.01501502,5fca888982a09a6a47620777,657bb317c8798c6608bceb3f,657bb4911ad37ab31fbce947,0.023,0.023,0,32,32,161,1,fiveseven,,,,,,,,,,,,,,,,,,,,,,,,,,,,,,,,,,,,,,,,,,,,,,,,,,,,,,,,,,,,,,,,,,,,,,,,,,,,,,,,,,,,,,,,,,,,,,,,,,,,,,,,,,,,,,,,,,,,,,,,,,,,,,,,,,,,,,,
,,5fca888982a09a6a47620777,2023-12-14_19h06.44.230,kallum_motion_pilot,2023.2.3,Win32,15.01501502,5fca888982a09a6a47620777,657bb317c8798c6608bceb3f,657bb4911ad37ab31fbce947,0.0231,0.0231,0,33,33,129,1,fiveseven,,,,,,,,,,,,,,,,,,,,,,,,,,,,,,,,,,,,,,,,,,,,,,,,,,,,,,,,,,,,,,,,,,,,,,,,,,,,,,,,,,,,,,,,,,,,,,,,,,,,,,,,,,,,,,,,,,,,,,,,,,,,,,,,,,,,,,,
,,5fca888982a09a6a47620777,2023-12-14_19h06.44.230,kallum_motion_pilot,2023.2.3,Win32,15.01501502,5fca888982a09a6a47620777,657bb317c8798c6608bceb3f,657bb4911ad37ab31fbce947,0.0231,0.0231,0,34,34,128,1,fivesix,,,,,,,,,,,,,,,,,,,,,,,,,,,,,,,,,,,,,,,,,,,,,,,,,,,,,,,,,,,,,,,,,,,,,,,,,,,,,,,,,,,,,,,,,,,,,,,,,,,,,,,,,,,,,,,,,,,,,,,,,,,,,,,,,,,,,,,
,,5fca888982a09a6a47620777,2023-12-14_19h06.44.230,kallum_motion_pilot,2023.2.3,Win32,15.01501502,5fca888982a09a6a47620777,657bb317c8798c6608bceb3f,657bb4911ad37ab31fbce947,0.0232,0.0232,0,35,35,3,1,twofour,,,,,,,,,,,,,,,,,,,,,,,,,,,,,,,,,,,,,,,,,,,,,,,,,,,,,,,,,,,,,,,,,,,,,,,,,,,,,,,,,,,,,,,,,,,,,,,,,,,,,,,,,,,,,,,,,,,,,,,,,,,,,,,,,,,,,,,
,,5fca888982a09a6a47620777,2023-12-14_19h06.44.230,kallum_motion_pilot,2023.2.3,Win32,15.01501502,5fca888982a09a6a47620777,657bb317c8798c6608bceb3f,657bb4911ad37ab31fbce947,0.0233,0.0234,0,36,36,61,1,threefour,,,,,,,,,,,,,,,,,,,,,,,,,,,,,,,,,,,,,,,,,,,,,,,,,,,,,,,,,,,,,,,,,,,,,,,,,,,,,,,,,,,,,,,,,,,,,,,,,,,,,,,,,,,,,,,,,,,,,,,,,,,,,,,,,,,,,,,
,,5fca888982a09a6a47620777,2023-12-14_19h06.44.230,kallum_motion_pilot,2023.2.3,Win32,15.01501502,5fca888982a09a6a47620777,657bb317c8798c6608bceb3f,657bb4911ad37ab31fbce947,0.0234,0.0234,0,37,37,133,1,seveneight,,,,,,,,,,,,,,,,,,,,,,,,,,,,,,,,,,,,,,,,,,,,,,,,,,,,,,,,,,,,,,,,,,,,,,,,,,,,,,,,,,,,,,,,,,,,,,,,,,,,,,,,,,,,,,,,,,,,,,,,,,,,,,,,,,,,,,,
,,5fca888982a09a6a47620777,2023-12-14_19h06.44.230,kallum_motion_pilot,2023.2.3,Win32,15.01501502,5fca888982a09a6a47620777,657bb317c8798c6608bceb3f,657bb4911ad37ab31fbce947,0.0235,0.0235,0,38,38,138,1,sixfive,,,,,,,,,,,,,,,,,,,,,,,,,,,,,,,,,,,,,,,,,,,,,,,,,,,,,,,,,,,,,,,,,,,,,,,,,,,,,,,,,,,,,,,,,,,,,,,,,,,,,,,,,,,,,,,,,,,,,,,,,,,,,,,,,,,,,,,
,,5fca888982a09a6a47620777,2023-12-14_19h06.44.230,kallum_motion_pilot,2023.2.3,Win32,15.01501502,5fca888982a09a6a47620777,657bb317c8798c6608bceb3f,657bb4911ad37ab31fbce947,0.0236,0.0236,0,39,39,40,1,onetwo,,,,,,,,,,,,,,,,,,,,,,,,,,,,,,,,,,,,,,,,,,,,,,,,,,,,,,,,,,,,,,,,,,,,,,,,,,,,,,,,,,,,,,,,,,,,,,,,,,,,,,,,,,,,,,,,,,,,,,,,,,,,,,,,,,,,,,,
,,5fca888982a09a6a47620777,2023-12-14_19h06.44.230,kallum_motion_pilot,2023.2.3,Win32,15.01501502,5fca888982a09a6a47620777,657bb317c8798c6608bceb3f,657bb4911ad37ab31fbce947,0.0236,0.0237,0,40,40,69,1,threefour,,,,,,,,,,,,,,,,,,,,,,,,,,,,,,,,,,,,,,,,,,,,,,,,,,,,,,,,,,,,,,,,,,,,,,,,,,,,,,,,,,,,,,,,,,,,,,,,,,,,,,,,,,,,,,,,,,,,,,,,,,,,,,,,,,,,,,,
,,5fca888982a09a6a47620777,2023-12-14_19h06.44.230,kallum_motion_pilot,2023.2.3,Win32,15.01501502,5fca888982a09a6a47620777,657bb317c8798c6608bceb3f,657bb4911ad37ab31fbce947,0.0237,0.0237,0,41,41,9,1,onethree,,,,,,,,,,,,,,,,,,,,,,,,,,,,,,,,,,,,,,,,,,,,,,,,,,,,,,,,,,,,,,,,,,,,,,,,,,,,,,,,,,,,,,,,,,,,,,,,,,,,,,,,,,,,,,,,,,,,,,,,,,,,,,,,,,,,,,,
,,5fca888982a09a6a47620777,2023-12-14_19h06.44.230,kallum_motion_pilot,2023.2.3,Win32,15.01501502,5fca888982a09a6a47620777,657bb317c8798c6608bceb3f,657bb4911ad37ab31fbce947,0.0238,0.0238,0,42,42,95,1,eightseven,,,,,,,,,,,,,,,,,,,,,,,,,,,,,,,,,,,,,,,,,,,,,,,,,,,,,,,,,,,,,,,,,,,,,,,,,,,,,,,,,,,,,,,,,,,,,,,,,,,,,,,,,,,,,,,,,,,,,,,,,,,,,,,,,,,,,,,
,,5fca888982a09a6a47620777,2023-12-14_19h06.44.230,kallum_motion_pilot,2023.2.3,Win32,15.01501502,5fca888982a09a6a47620777,657bb317c8798c6608bceb3f,657bb4911ad37ab31fbce947,0.0239,0.0239,0,43,43,113,1,fiveseven,,,,,,,,,,,,,,,,,,,,,,,,,,,,,,,,,,,,,,,,,,,,,,,,,,,,,,,,,,,,,,,,,,,,,,,,,,,,,,,,,,,,,,,,,,,,,,,,,,,,,,,,,,,,,,,,,,,,,,,,,,,,,,,,,,,,,,,
,,5fca888982a09a6a47620777,2023-12-14_19h06.44.230,kallum_motion_pilot,2023.2.3,Win32,15.01501502,5fca888982a09a6a47620777,657bb317c8798c6608bceb3f,657bb4911ad37ab31fbce947,0.024,0.0241,0,44,44,51,1,twofour,,,,,,,,,,,,,,,,,,,,,,,,,,,,,,,,,,,,,,,,,,,,,,,,,,,,,,,,,,,,,,,,,,,,,,,,,,,,,,,,,,,,,,,,,,,,,,,,,,,,,,,,,,,,,,,,,,,,,,,,,,,,,,,,,,,,,,,
,,5fca888982a09a6a47620777,2023-12-14_19h06.44.230,kallum_motion_pilot,2023.2.3,Win32,15.01501502,5fca888982a09a6a47620777,657bb317c8798c6608bceb3f,657bb4911ad37ab31fbce947,0.0241,0.0241,0,45,45,142,1,eightsix,,,,,,,,,,,,,,,,,,,,,,,,,,,,,,,,,,,,,,,,,,,,,,,,,,,,,,,,,,,,,,,,,,,,,,,,,,,,,,,,,,,,,,,,,,,,,,,,,,,,,,,,,,,,,,,,,,,,,,,,,,,,,,,,,,,,,,,
,,5fca888982a09a6a47620777,2023-12-14_19h06.44.230,kallum_motion_pilot,2023.2.3,Win32,15.01501502,5fca888982a09a6a47620777,657bb317c8798c6608bceb3f,657bb4911ad37ab31fbce947,0.0242,0.0242,0,46,46,60,1,threeone,,,,,,,,,,,,,,,,,,,,,,,,,,,,,,,,,,,,,,,,,,,,,,,,,,,,,,,,,,,,,,,,,,,,,,,,,,,,,,,,,,,,,,,,,,,,,,,,,,,,,,,,,,,,,,,,,,,,,,,,,,,,,,,,,,,,,,,
,,5fca888982a09a6a47620777,2023-12-14_19h06.44.230,kallum_motion_pilot,2023.2.3,Win32,15.01501502,5fca888982a09a6a47620777,657bb317c8798c6608bceb3f,657bb4911ad37ab31fbce947,0.0242,0.0242,0,47,47,131,1,sixeight,,,,,,,,,,,,,,,,,,,,,,,,,,,,,,,,,,,,,,,,,,,,,,,,,,,,,,,,,,,,,,,,,,,,,,,,,,,,,,,,,,,,,,,,,,,,,,,,,,,,,,,,,,,,,,,,,,,,,,,,,,,,,,,,,,,,,,,
,,5fca888982a09a6a47620777,2023-12-14_19h06.44.230,kallum_motion_pilot,2023.2.3,Win32,15.01501502,5fca888982a09a6a47620777,657bb317c8798c6608bceb3f,657bb4911ad37ab31fbce947,0.0243,0.0244,0,48,48,25,1,onethree,,,,,,,,,,,,,,,,,,,,,,,,,,,,,,,,,,,,,,,,,,,,,,,,,,,,,,,,,,,,,,,,,,,,,,,,,,,,,,,,,,,,,,,,,,,,,,,,,,,,,,,,,,,,,,,,,,,,,,,,,,,,,,,,,,,,,,,
,,5fca888982a09a6a47620777,2023-12-14_19h06.44.230,kallum_motion_pilot,2023.2.3,Win32,15.01501502,5fca888982a09a6a47620777,657bb317c8798c6608bceb3f,657bb4911ad37ab31fbce947,0.0245,0.0245,0,49,49,35,1,twofour,,,,,,,,,,,,,,,,,,,,,,,,,,,,,,,,,,,,,,,,,,,,,,,,,,,,,,,,,,,,,,,,,,,,,,,,,,,,,,,,,,,,,,,,,,,,,,,,,,,,,,,,,,,,,,,,,,,,,,,,,,,,,,,,,,,,,,,
,,5fca888982a09a6a47620777,2023-12-14_19h06.44.230,kallum_motion_pilot,2023.2.3,Win32,15.01501502,5fca888982a09a6a47620777,657bb317c8798c6608bceb3f,657bb4911ad37ab31fbce947,0.0245,0.0245,0,50,50,38,1,fourtwo,,,,,,,,,,,,,,,,,,,,,,,,,,,,,,,,,,,,,,,,,,,,,,,,,,,,,,,,,,,,,,,,,,,,,,,,,,,,,,,,,,,,,,,,,,,,,,,,,,,,,,,,,,,,,,,,,,,,,,,,,,,,,,,,,,,,,,,
,,5fca888982a09a6a47620777,2023-12-14_19h06.44.230,kallum_motion_pilot,2023.2.3,Win32,15.01501502,5fca888982a09a6a47620777,657bb317c8798c6608bceb3f,657bb4911ad37ab31fbce947,0.0246,0.0247,0,51,51,31,1,fourthree,,,,,,,,,,,,,,,,,,,,,,,,,,,,,,,,,,,,,,,,,,,,,,,,,,,,,,,,,,,,,,,,,,,,,,,,,,,,,,,,,,,,,,,,,,,,,,,,,,,,,,,,,,,,,,,,,,,,,,,,,,,,,,,,,,,,,,,
,,5fca888982a09a6a47620777,2023-12-14_19h06.44.230,kallum_motion_pilot,2023.2.3,Win32,15.01501502,5fca888982a09a6a47620777,657bb317c8798c6608bceb3f,657bb4911ad37ab31fbce947,0.0247,0.0247,0,52,52,85,1,seveneight,,,,,,,,,,,,,,,,,,,,,,,,,,,,,,,,,,,,,,,,,,,,,,,,,,,,,,,,,,,,,,,,,,,,,,,,,,,,,,,,,,,,,,,,,,,,,,,,,,,,,,,,,,,,,,,,,,,,,,,,,,,,,,,,,,,,,,,
,,5fca888982a09a6a47620777,2023-12-14_19h06.44.230,kallum_motion_pilot,2023.2.3,Win32,15.01501502,5fca888982a09a6a47620777,657bb317c8798c6608bceb3f,657bb4911ad37ab31fbce947,0.0247,0.0248,0,53,53,116,1,sevenfive,,,,,,,,,,,,,,,,,,,,,,,,,,,,,,,,,,,,,,,,,,,,,,,,,,,,,,,,,,,,,,,,,,,,,,,,,,,,,,,,,,,,,,,,,,,,,,,,,,,,,,,,,,,,,,,,,,,,,,,,,,,,,,,,,,,,,,,
,,5fca888982a09a6a47620777,2023-12-14_19h06.44.230,kallum_motion_pilot,2023.2.3,Win32,15.01501502,5fca888982a09a6a47620777,657bb317c8798c6608bceb3f,657bb4911ad37ab31fbce947,0.0249,0.0249,0,54,54,123,1,sixeight,,,,,,,,,,,,,,,,,,,,,,,,,,,,,,,,,,,,,,,,,,,,,,,,,,,,,,,,,,,,,,,,,,,,,,,,,,,,,,,,,,,,,,,,,,,,,,,,,,,,,,,,,,,,,,,,,,,,,,,,,,,,,,,,,,,,,,,
,,5fca888982a09a6a47620777,2023-12-14_19h06.44.230,kallum_motion_pilot,2023.2.3,Win32,15.01501502,5fca888982a09a6a47620777,657bb317c8798c6608bceb3f,657bb4911ad37ab31fbce947,0.0249,0.025,0,55,55,56,1,onetwo,,,,,,,,,,,,,,,,,,,,,,,,,,,,,,,,,,,,,,,,,,,,,,,,,,,,,,,,,,,,,,,,,,,,,,,,,,,,,,,,,,,,,,,,,,,,,,,,,,,,,,,,,,,,,,,,,,,,,,,,,,,,,,,,,,,,,,,
,,5fca888982a09a6a47620777,2023-12-14_19h06.44.230,kallum_motion_pilot,2023.2.3,Win32,15.01501502,5fca888982a09a6a47620777,657bb317c8798c6608bceb3f,657bb4911ad37ab31fbce947,0.0251,0.0251,0,56,56,146,1,sixfive,,,,,,,,,,,,,,,,,,,,,,,,,,,,,,,,,,,,,,,,,,,,,,,,,,,,,,,,,,,,,,,,,,,,,,,,,,,,,,,,,,,,,,,,,,,,,,,,,,,,,,,,,,,,,,,,,,,,,,,,,,,,,,,,,,,,,,,
,,5fca888982a09a6a47620777,2023-12-14_19h06.44.230,kallum_motion_pilot,2023.2.3,Win32,15.01501502,5fca888982a09a6a47620777,657bb317c8798c6608bceb3f,657bb4911ad37ab31fbce947,0.0252,0.0252,0,57,57,160,1,fivesix,,,,,,,,,,,,,,,,,,,,,,,,,,,,,,,,,,,,,,,,,,,,,,,,,,,,,,,,,,,,,,,,,,,,,,,,,,,,,,,,,,,,,,,,,,,,,,,,,,,,,,,,,,,,,,,,,,,,,,,,,,,,,,,,,,,,,,,
,,5fca888982a09a6a47620777,2023-12-14_19h06.44.230,kallum_motion_pilot,2023.2.3,Win32,15.01501502,5fca888982a09a6a47620777,657bb317c8798c6608bceb3f,657bb4911ad37ab31fbce947,0.0252,0.0252,0,58,58,109,1,seveneight,,,,,,,,,,,,,,,,,,,,,,,,,,,,,,,,,,,,,,,,,,,,,,,,,,,,,,,,,,,,,,,,,,,,,,,,,,,,,,,,,,,,,,,,,,,,,,,,,,,,,,,,,,,,,,,,,,,,,,,,,,,,,,,,,,,,,,,
,,5fca888982a09a6a47620777,2023-12-14_19h06.44.230,kallum_motion_pilot,2023.2.3,Win32,15.01501502,5fca888982a09a6a47620777,657bb317c8798c6608bceb3f,657bb4911ad37ab31fbce947,0.0253,0.0253,0,59,59,10,1,twoone,,,,,,,,,,,,,,,,,,,,,,,,,,,,,,,,,,,,,,,,,,,,,,,,,,,,,,,,,,,,,,,,,,,,,,,,,,,,,,,,,,,,,,,,,,,,,,,,,,,,,,,,,,,,,,,,,,,,,,,,,,,,,,,,,,,,,,,
,,5fca888982a09a6a47620777,2023-12-14_19h06.44.230,kallum_motion_pilot,2023.2.3,Win32,15.01501502,5fca888982a09a6a47620777,657bb317c8798c6608bceb3f,657bb4911ad37ab31fbce947,0.0254,0.0254,0,60,60,16,1,onetwo,,,,,,,,,,,,,,,,,,,,,,,,,,,,,,,,,,,,,,,,,,,,,,,,,,,,,,,,,,,,,,,,,,,,,,,,,,,,,,,,,,,,,,,,,,,,,,,,,,,,,,,,,,,,,,,,,,,,,,,,,,,,,,,,,,,,,,,
,,5fca888982a09a6a47620777,2023-12-14_19h06.44.230,kallum_motion_pilot,2023.2.3,Win32,15.01501502,5fca888982a09a6a47620777,657bb317c8798c6608bceb3f,657bb4911ad37ab31fbce947,0.0255,0.0256,0,61,61,96,1,fivesix,,,,,,,,,,,,,,,,,,,,,,,,,,,,,,,,,,,,,,,,,,,,,,,,,,,,,,,,,,,,,,,,,,,,,,,,,,,,,,,,,,,,,,,,,,,,,,,,,,,,,,,,,,,,,,,,,,,,,,,,,,,,,,,,,,,,,,,
,,5fca888982a09a6a47620777,2023-12-14_19h06.44.230,kallum_motion_pilot,2023.2.3,Win32,15.01501502,5fca888982a09a6a47620777,657bb317c8798c6608bceb3f,657bb4911ad37ab31fbce947,0.0256,0.0257,0,62,62,43,1,twofour,,,,,,,,,,,,,,,,,,,,,,,,,,,,,,,,,,,,,,,,,,,,,,,,,,,,,,,,,,,,,,,,,,,,,,,,,,,,,,,,,,,,,,,,,,,,,,,,,,,,,,,,,,,,,,,,,,,,,,,,,,,,,,,,,,,,,,,
,,5fca888982a09a6a47620777,2023-12-14_19h06.44.230,kallum_motion_pilot,2023.2.3,Win32,15.01501502,5fca888982a09a6a47620777,657bb317c8798c6608bceb3f,657bb4911ad37ab31fbce947,0.0257,0.0257,0,63,63,147,1,sixeight,,,,,,,,,,,,,,,,,,,,,,,,,,,,,,,,,,,,,,,,,,,,,,,,,,,,,,,,,,,,,,,,,,,,,,,,,,,,,,,,,,,,,,,,,,,,,,,,,,,,,,,,,,,,,,,,,,,,,,,,,,,,,,,,,,,,,,,
,,5fca888982a09a6a47620777,2023-12-14_19h06.44.230,kallum_motion_pilot,2023.2.3,Win32,15.01501502,5fca888982a09a6a47620777,657bb317c8798c6608bceb3f,657bb4911ad37ab31fbce947,0.0258,0.0258,0,64,64,73,1,onethree,,,,,,,,,,,,,,,,,,,,,,,,,,,,,,,,,,,,,,,,,,,,,,,,,,,,,,,,,,,,,,,,,,,,,,,,,,,,,,,,,,,,,,,,,,,,,,,,,,,,,,,,,,,,,,,,,,,,,,,,,,,,,,,,,,,,,,,
,,5fca888982a09a6a47620777,2023-12-14_19h06.44.230,kallum_motion_pilot,2023.2.3,Win32,15.01501502,5fca888982a09a6a47620777,657bb317c8798c6608bceb3f,657bb4911ad37ab31fbce947,0.0259,0.0259,0,65,65,132,1,sevenfive,,,,,,,,,,,,,,,,,,,,,,,,,,,,,,,,,,,,,,,,,,,,,,,,,,,,,,,,,,,,,,,,,,,,,,,,,,,,,,,,,,,,,,,,,,,,,,,,,,,,,,,,,,,,,,,,,,,,,,,,,,,,,,,,,,,,,,,
,,5fca888982a09a6a47620777,2023-12-14_19h06.44.230,kallum_motion_pilot,2023.2.3,Win32,15.01501502,5fca888982a09a6a47620777,657bb317c8798c6608bceb3f,657bb4911ad37ab31fbce947,0.026,0.026,0,66,66,22,1,fourtwo,,,,,,,,,,,,,,,,,,,,,,,,,,,,,,,,,,,,,,,,,,,,,,,,,,,,,,,,,,,,,,,,,,,,,,,,,,,,,,,,,,,,,,,,,,,,,,,,,,,,,,,,,,,,,,,,,,,,,,,,,,,,,,,,,,,,,,,
,,5fca888982a09a6a47620777,2023-12-14_19h06.44.230,kallum_motion_pilot,2023.2.3,Win32,15.01501502,5fca888982a09a6a47620777,657bb317c8798c6608bceb3f,657bb4911ad37ab31fbce947,0.026,0.0261,0,67,67,83,1,sixeight,,,,,,,,,,,,,,,,,,,,,,,,,,,,,,,,,,,,,,,,,,,,,,,,,,,,,,,,,,,,,,,,,,,,,,,,,,,,,,,,,,,,,,,,,,,,,,,,,,,,,,,,,,,,,,,,,,,,,,,,,,,,,,,,,,,,,,,
,,5fca888982a09a6a47620777,2023-12-14_19h06.44.230,kallum_motion_pilot,2023.2.3,Win32,15.01501502,5fca888982a09a6a47620777,657bb317c8798c6608bceb3f,657bb4911ad37ab31fbce947,0.0262,0.0262,0,68,68,44,1,threeone,,,,,,,,,,,,,,,,,,,,,,,,,,,,,,,,,,,,,,,,,,,,,,,,,,,,,,,,,,,,,,,,,,,,,,,,,,,,,,,,,,,,,,,,,,,,,,,,,,,,,,,,,,,,,,,,,,,,,,,,,,,,,,,,,,,,,,,
,,5fca888982a09a6a47620777,2023-12-14_19h06.44.230,kallum_motion_pilot,2023.2.3,Win32,15.01501502,5fca888982a09a6a47620777,657bb317c8798c6608bceb3f,657bb4911ad37ab31fbce947,0.0268,0.0268,0,69,69,152,1,fivesix,,,,,,,,,,,,,,,,,,,,,,,,,,,,,,,,,,,,,,,,,,,,,,,,,,,,,,,,,,,,,,,,,,,,,,,,,,,,,,,,,,,,,,,,,,,,,,,,,,,,,,,,,,,,,,,,,,,,,,,,,,,,,,,,,,,,,,,
,,5fca888982a09a6a47620777,2023-12-14_19h06.44.230,kallum_motion_pilot,2023.2.3,Win32,15.01501502,5fca888982a09a6a47620777,657bb317c8798c6608bceb3f,657bb4911ad37ab31fbce947,0.027,0.027,0,70,70,144,1,fivesix,,,,,,,,,,,,,,,,,,,,,,,,,,,,,,,,,,,,,,,,,,,,,,,,,,,,,,,,,,,,,,,,,,,,,,,,,,,,,,,,,,,,,,,,,,,,,,,,,,,,,,,,,,,,,,,,,,,,,,,,,,,,,,,,,,,,,,,
,,5fca888982a09a6a47620777,2023-12-14_19h06.44.230,kallum_motion_pilot,2023.2.3,Win32,15.01501502,5fca888982a09a6a47620777,657bb317c8798c6608bceb3f,657bb4911ad37ab31fbce947,0.027,0.027,0,71,71,120,1,fivesix,,,,,,,,,,,,,,,,,,,,,,,,,,,,,,,,,,,,,,,,,,,,,,,,,,,,,,,,,,,,,,,,,,,,,,,,,,,,,,,,,,,,,,,,,,,,,,,,,,,,,,,,,,,,,,,,,,,,,,,,,,,,,,,,,,,,,,,
,,5fca888982a09a6a47620777,2023-12-14_19h06.44.230,kallum_motion_pilot,2023.2.3,Win32,15.01501502,5fca888982a09a6a47620777,657bb317c8798c6608bceb3f,657bb4911ad37ab31fbce947,0.0271,0.0271,0,72,72,58,1,twoone,,,,,,,,,,,,,,,,,,,,,,,,,,,,,,,,,,,,,,,,,,,,,,,,,,,,,,,,,,,,,,,,,,,,,,,,,,,,,,,,,,,,,,,,,,,,,,,,,,,,,,,,,,,,,,,,,,,,,,,,,,,,,,,,,,,,,,,
,,5fca888982a09a6a47620777,2023-12-14_19h06.44.230,kallum_motion_pilot,2023.2.3,Win32,15.01501502,5fca888982a09a6a47620777,657bb317c8798c6608bceb3f,657bb4911ad37ab31fbce947,0.0272,0.0272,0,73,73,47,1,fourthree,,,,,,,,,,,,,,,,,,,,,,,,,,,,,,,,,,,,,,,,,,,,,,,,,,,,,,,,,,,,,,,,,,,,,,,,,,,,,,,,,,,,,,,,,,,,,,,,,,,,,,,,,,,,,,,,,,,,,,,,,,,,,,,,,,,,,,,
,,5fca888982a09a6a47620777,2023-12-14_19h06.44.230,kallum_motion_pilot,2023.2.3,Win32,15.01501502,5fca888982a09a6a47620777,657bb317c8798c6608bceb3f,657bb4911ad37ab31fbce947,0.0273,0.0273,0,74,74,99,1,sixeight,,,,,,,,,,,,,,,,,,,,,,,,,,,,,,,,,,,,,,,,,,,,,,,,,,,,,,,,,,,,,,,,,,,,,,,,,,,,,,,,,,,,,,,,,,,,,,,,,,,,,,,,,,,,,,,,,,,,,,,,,,,,,,,,,,,,,,,
,,5fca888982a09a6a47620777,2023-12-14_19h06.44.230,kallum_motion_pilot,2023.2.3,Win32,15.01501502,5fca888982a09a6a47620777,657bb317c8798c6608bceb3f,657bb4911ad37ab31fbce947,0.0275,0.0275,0,75,75,77,1,threefour,,,,,,,,,,,,,,,,,,,,,,,,,,,,,,,,,,,,,,,,,,,,,,,,,,,,,,,,,,,,,,,,,,,,,,,,,,,,,,,,,,,,,,,,,,,,,,,,,,,,,,,,,,,,,,,,,,,,,,,,,,,,,,,,,,,,,,,
,,5fca888982a09a6a47620777,2023-12-14_19h06.44.230,kallum_motion_pilot,2023.2.3,Win32,15.01501502,5fca888982a09a6a47620777,657bb317c8798c6608bceb3f,657bb4911ad37ab31fbce947,0.0275,0.0275,0,76,76,134,1,eightsix,,,,,,,,,,,,,,,,,,,,,,,,,,,,,,,,,,,,,,,,,,,,,,,,,,,,,,,,,,,,,,,,,,,,,,,,,,,,,,,,,,,,,,,,,,,,,,,,,,,,,,,,,,,,,,,,,,,,,,,,,,,,,,,,,,,,,,,
,,5fca888982a09a6a47620777,2023-12-14_19h06.44.230,kallum_motion_pilot,2023.2.3,Win32,15.01501502,5fca888982a09a6a47620777,657bb317c8798c6608bceb3f,657bb4911ad37ab31fbce947,0.0276,0.0277,0,77,77,24,1,onetwo,,,,,,,,,,,,,,,,,,,,,,,,,,,,,,,,,,,,,,,,,,,,,,,,,,,,,,,,,,,,,,,,,,,,,,,,,,,,,,,,,,,,,,,,,,,,,,,,,,,,,,,,,,,,,,,,,,,,,,,,,,,,,,,,,,,,,,,
,,5fca888982a09a6a47620777,2023-12-14_19h06.44.230,kallum_motion_pilot,2023.2.3,Win32,15.01501502,5fca888982a09a6a47620777,657bb317c8798c6608bceb3f,657bb4911ad37ab31fbce947,0.0277,0.0277,0,78,78,7,1,fourthree,,,,,,,,,,,,,,,,,,,,,,,,,,,,,,,,,,,,,,,,,,,,,,,,,,,,,,,,,,,,,,,,,,,,,,,,,,,,,,,,,,,,,,,,,,,,,,,,,,,,,,,,,,,,,,,,,,,,,,,,,,,,,,,,,,,,,,,
,,5fca888982a09a6a47620777,2023-12-14_19h06.44.230,kallum_motion_pilot,2023.2.3,Win32,15.01501502,5fca888982a09a6a47620777,657bb317c8798c6608bceb3f,657bb4911ad37ab31fbce947,0.0278,0.0278,0,79,79,74,1,twoone,,,,,,,,,,,,,,,,,,,,,,,,,,,,,,,,,,,,,,,,,,,,,,,,,,,,,,,,,,,,,,,,,,,,,,,,,,,,,,,,,,,,,,,,,,,,,,,,,,,,,,,,,,,,,,,,,,,,,,,,,,,,,,,,,,,,,,,
,,5fca888982a09a6a47620777,2023-12-14_19h06.44.230,kallum_motion_pilot,2023.2.3,Win32,15.01501502,5fca888982a09a6a47620777,657bb317c8798c6608bceb3f,657bb4911ad37ab31fbce947,0.0279,0.0279,0,80,80,156,1,sevenfive,,,,,,,,,,,,,,,,,,,,,,,,,,,,,,,,,,,,,,,,,,,,,,,,,,,,,,,,,,,,,,,,,,,,,,,,,,,,,,,,,,,,,,,,,,,,,,,,,,,,,,,,,,,,,,,,,,,,,,,,,,,,,,,,,,,,,,,
,,5fca888982a09a6a47620777,2023-12-14_19h06.44.230,kallum_motion_pilot,2023.2.3,Win32,15.01501502,5fca888982a09a6a47620777,657bb317c8798c6608bceb3f,657bb4911ad37ab31fbce947,0.0279,0.028,0,81,81,157,1,seveneight,,,,,,,,,,,,,,,,,,,,,,,,,,,,,,,,,,,,,,,,,,,,,,,,,,,,,,,,,,,,,,,,,,,,,,,,,,,,,,,,,,,,,,,,,,,,,,,,,,,,,,,,,,,,,,,,,,,,,,,,,,,,,,,,,,,,,,,
,,5fca888982a09a6a47620777,2023-12-14_19h06.44.230,kallum_motion_pilot,2023.2.3,Win32,15.01501502,5fca888982a09a6a47620777,657bb317c8798c6608bceb3f,657bb4911ad37ab31fbce947,0.0281,0.0281,0,82,82,62,1,fourtwo,,,,,,,,,,,,,,,,,,,,,,,,,,,,,,,,,,,,,,,,,,,,,,,,,,,,,,,,,,,,,,,,,,,,,,,,,,,,,,,,,,,,,,,,,,,,,,,,,,,,,,,,,,,,,,,,,,,,,,,,,,,,,,,,,,,,,,,
,,5fca888982a09a6a47620777,2023-12-14_19h06.44.230,kallum_motion_pilot,2023.2.3,Win32,15.01501502,5fca888982a09a6a47620777,657bb317c8798c6608bceb3f,657bb4911ad37ab31fbce947,0.0282,0.0282,0,83,83,126,1,eightsix,,,,,,,,,,,,,,,,,,,,,,,,,,,,,,,,,,,,,,,,,,,,,,,,,,,,,,,,,,,,,,,,,,,,,,,,,,,,,,,,,,,,,,,,,,,,,,,,,,,,,,,,,,,,,,,,,,,,,,,,,,,,,,,,,,,,,,,
,,5fca888982a09a6a47620777,2023-12-14_19h06.44.230,kallum_motion_pilot,2023.2.3,Win32,15.01501502,5fca888982a09a6a47620777,657bb317c8798c6608bceb3f,657bb4911ad37ab31fbce947,0.0283,0.0284,0,84,84,65,1,onethree,,,,,,,,,,,,,,,,,,,,,,,,,,,,,,,,,,,,,,,,,,,,,,,,,,,,,,,,,,,,,,,,,,,,,,,,,,,,,,,,,,,,,,,,,,,,,,,,,,,,,,,,,,,,,,,,,,,,,,,,,,,,,,,,,,,,,,,
,,5fca888982a09a6a47620777,2023-12-14_19h06.44.230,kallum_motion_pilot,2023.2.3,Win32,15.01501502,5fca888982a09a6a47620777,657bb317c8798c6608bceb3f,657bb4911ad37ab31fbce947,0.0284,0.0284,0,85,85,111,1,eightseven,,,,,,,,,,,,,,,,,,,,,,,,,,,,,,,,,,,,,,,,,,,,,,,,,,,,,,,,,,,,,,,,,,,,,,,,,,,,,,,,,,,,,,,,,,,,,,,,,,,,,,,,,,,,,,,,,,,,,,,,,,,,,,,,,,,,,,,
,,5fca888982a09a6a47620777,2023-12-14_19h06.44.230,kallum_motion_pilot,2023.2.3,Win32,15.01501502,5fca888982a09a6a47620777,657bb317c8798c6608bceb3f,657bb4911ad37ab31fbce947,0.0284,0.0285,0,86,86,52,1,threeone,,,,,,,,,,,,,,,,,,,,,,,,,,,,,,,,,,,,,,,,,,,,,,,,,,,,,,,,,,,,,,,,,,,,,,,,,,,,,,,,,,,,,,,,,,,,,,,,,,,,,,,,,,,,,,,,,,,,,,,,,,,,,,,,,,,,,,,
,,5fca888982a09a6a47620777,2023-12-14_19h06.44.230,kallum_motion_pilot,2023.2.3,Win32,15.01501502,5fca888982a09a6a47620777,657bb317c8798c6608bceb3f,657bb4911ad37ab31fbce947,0.0286,0.0286,0,87,87,33,1,onethree,,,,,,,,,,,,,,,,,,,,,,,,,,,,,,,,,,,,,,,,,,,,,,,,,,,,,,,,,,,,,,,,,,,,,,,,,,,,,,,,,,,,,,,,,,,,,,,,,,,,,,,,,,,,,,,,,,,,,,,,,,,,,,,,,,,,,,,
,,5fca888982a09a6a47620777,2023-12-14_19h06.44.230,kallum_motion_pilot,2023.2.3,Win32,15.01501502,5fca888982a09a6a47620777,657bb317c8798c6608bceb3f,657bb4911ad37ab31fbce947,0.0287,0.0287,0,88,88,127,1,eightseven,,,,,,,,,,,,,,,,,,,,,,,,,,,,,,,,,,,,,,,,,,,,,,,,,,,,,,,,,,,,,,,,,,,,,,,,,,,,,,,,,,,,,,,,,,,,,,,,,,,,,,,,,,,,,,,,,,,,,,,,,,,,,,,,,,,,,,,
,,5fca888982a09a6a47620777,2023-12-14_19h06.44.230,kallum_motion_pilot,2023.2.3,Win32,15.01501502,5fca888982a09a6a47620777,657bb317c8798c6608bceb3f,657bb4911ad37ab31fbce947,0.0288,0.0288,0,89,89,59,1,twofour,,,,,,,,,,,,,,,,,,,,,,,,,,,,,,,,,,,,,,,,,,,,,,,,,,,,,,,,,,,,,,,,,,,,,,,,,,,,,,,,,,,,,,,,,,,,,,,,,,,,,,,,,,,,,,,,,,,,,,,,,,,,,,,,,,,,,,,
,,5fca888982a09a6a47620777,2023-12-14_19h06.44.230,kallum_motion_pilot,2023.2.3,Win32,15.01501502,5fca888982a09a6a47620777,657bb317c8798c6608bceb3f,657bb4911ad37ab31fbce947,0.0289,0.0289,0,90,90,1,1,onethree,,,,,,,,,,,,,,,,,,,,,,,,,,,,,,,,,,,,,,,,,,,,,,,,,,,,,,,,,,,,,,,,,,,,,,,,,,,,,,,,,,,,,,,,,,,,,,,,,,,,,,,,,,,,,,,,,,,,,,,,,,,,,,,,,,,,,,,
,,5fca888982a09a6a47620777,2023-12-14_19h06.44.230,kallum_motion_pilot,2023.2.3,Win32,15.01501502,5fca888982a09a6a47620777,657bb317c8798c6608bceb3f,657bb4911ad37ab31fbce947,0.029,0.029,0,91,91,115,1,sixeight,,,,,,,,,,,,,,,,,,,,,,,,,,,,,,,,,,,,,,,,,,,,,,,,,,,,,,,,,,,,,,,,,,,,,,,,,,,,,,,,,,,,,,,,,,,,,,,,,,,,,,,,,,,,,,,,,,,,,,,,,,,,,,,,,,,,,,,
,,5fca888982a09a6a47620777,2023-12-14_19h06.44.230,kallum_motion_pilot,2023.2.3,Win32,15.01501502,5fca888982a09a6a47620777,657bb317c8798c6608bceb3f,657bb4911ad37ab31fbce947,0.0291,0.0291,0,92,92,2,1,twoone,,,,,,,,,,,,,,,,,,,,,,,,,,,,,,,,,,,,,,,,,,,,,,,,,,,,,,,,,,,,,,,,,,,,,,,,,,,,,,,,,,,,,,,,,,,,,,,,,,,,,,,,,,,,,,,,,,,,,,,,,,,,,,,,,,,,,,,
,,5fca888982a09a6a47620777,2023-12-14_19h06.44.230,kallum_motion_pilot,2023.2.3,Win32,15.01501502,5fca888982a09a6a47620777,657bb317c8798c6608bceb3f,657bb4911ad37ab31fbce947,0.0292,0.0292,0,93,93,159,1,eightseven,,,,,,,,,,,,,,,,,,,,,,,,,,,,,,,,,,,,,,,,,,,,,,,,,,,,,,,,,,,,,,,,,,,,,,,,,,,,,,,,,,,,,,,,,,,,,,,,,,,,,,,,,,,,,,,,,,,,,,,,,,,,,,,,,,,,,,,
,,5fca888982a09a6a47620777,2023-12-14_19h06.44.230,kallum_motion_pilot,2023.2.3,Win32,15.01501502,5fca888982a09a6a47620777,657bb317c8798c6608bceb3f,657bb4911ad37ab31fbce947,0.0292,0.0293,0,94,94,72,1,onetwo,,,,,,,,,,,,,,,,,,,,,,,,,,,,,,,,,,,,,,,,,,,,,,,,,,,,,,,,,,,,,,,,,,,,,,,,,,,,,,,,,,,,,,,,,,,,,,,,,,,,,,,,,,,,,,,,,,,,,,,,,,,,,,,,,,,,,,,
,,5fca888982a09a6a47620777,2023-12-14_19h06.44.230,kallum_motion_pilot,2023.2.3,Win32,15.01501502,5fca888982a09a6a47620777,657bb317c8798c6608bceb3f,657bb4911ad37ab31fbce947,0.0294,0.0294,0,95,95,104,1,fivesix,,,,,,,,,,,,,,,,,,,,,,,,,,,,,,,,,,,,,,,,,,,,,,,,,,,,,,,,,,,,,,,,,,,,,,,,,,,,,,,,,,,,,,,,,,,,,,,,,,,,,,,,,,,,,,,,,,,,,,,,,,,,,,,,,,,,,,,
,,5fca888982a09a6a47620777,2023-12-14_19h06.44.230,kallum_motion_pilot,2023.2.3,Win32,15.01501502,5fca888982a09a6a47620777,657bb317c8798c6608bceb3f,657bb4911ad37ab31fbce947,0.0295,0.0295,0,96,96,148,1,sevenfive,,,,,,,,,,,,,,,,,,,,,,,,,,,,,,,,,,,,,,,,,,,,,,,,,,,,,,,,,,,,,,,,,,,,,,,,,,,,,,,,,,,,,,,,,,,,,,,,,,,,,,,,,,,,,,,,,,,,,,,,,,,,,,,,,,,,,,,
,,5fca888982a09a6a47620777,2023-12-14_19h06.44.230,kallum_motion_pilot,2023.2.3,Win32,15.01501502,5fca888982a09a6a47620777,657bb317c8798c6608bceb3f,657bb4911ad37ab31fbce947,0.0296,0.0296,0,97,97,139,1,sixeight,,,,,,,,,,,,,,,,,,,,,,,,,,,,,,,,,,,,,,,,,,,,,,,,,,,,,,,,,,,,,,,,,,,,,,,,,,,,,,,,,,,,,,,,,,,,,,,,,,,,,,,,,,,,,,,,,,,,,,,,,,,,,,,,,,,,,,,
,,5fca888982a09a6a47620777,2023-12-14_19h06.44.230,kallum_motion_pilot,2023.2.3,Win32,15.01501502,5fca888982a09a6a47620777,657bb317c8798c6608bceb3f,657bb4911ad37ab31fbce947,0.0297,0.0297,0,98,98,143,1,eightseven,,,,,,,,,,,,,,,,,,,,,,,,,,,,,,,,,,,,,,,,,,,,,,,,,,,,,,,,,,,,,,,,,,,,,,,,,,,,,,,,,,,,,,,,,,,,,,,,,,,,,,,,,,,,,,,,,,,,,,,,,,,,,,,,,,,,,,,
,,5fca888982a09a6a47620777,2023-12-14_19h06.44.230,kallum_motion_pilot,2023.2.3,Win32,15.01501502,5fca888982a09a6a47620777,657bb317c8798c6608bceb3f,657bb4911ad37ab31fbce947,0.0298,0.0298,0,99,99,106,1,sixfive,,,,,,,,,,,,,,,,,,,,,,,,,,,,,,,,,,,,,,,,,,,,,,,,,,,,,,,,,,,,,,,,,,,,,,,,,,,,,,,,,,,,,,,,,,,,,,,,,,,,,,,,,,,,,,,,,,,,,,,,,,,,,,,,,,,,,,,
,,5fca888982a09a6a47620777,2023-12-14_19h06.44.230,kallum_motion_pilot,2023.2.3,Win32,15.01501502,5fca888982a09a6a47620777,657bb317c8798c6608bceb3f,657bb4911ad37ab31fbce947,0.0299,0.0299,0,100,100,48,1,onetwo,,,,,,,,,,,,,,,,,,,,,,,,,,,,,,,,,,,,,,,,,,,,,,,,,,,,,,,,,,,,,,,,,,,,,,,,,,,,,,,,,,,,,,,,,,,,,,,,,,,,,,,,,,,,,,,,,,,,,,,,,,,,,,,,,,,,,,,
,,5fca888982a09a6a47620777,2023-12-14_19h06.44.230,kallum_motion_pilot,2023.2.3,Win32,15.01501502,5fca888982a09a6a47620777,657bb317c8798c6608bceb3f,657bb4911ad37ab31fbce947,0.0299,0.0299,0,101,101,118,1,eightsix,,,,,,,,,,,,,,,,,,,,,,,,,,,,,,,,,,,,,,,,,,,,,,,,,,,,,,,,,,,,,,,,,,,,,,,,,,,,,,,,,,,,,,,,,,,,,,,,,,,,,,,,,,,,,,,,,,,,,,,,,,,,,,,,,,,,,,,
,,5fca888982a09a6a47620777,2023-12-14_19h06.44.230,kallum_motion_pilot,2023.2.3,Win32,15.01501502,5fca888982a09a6a47620777,657bb317c8798c6608bceb3f,657bb4911ad37ab31fbce947,0.03,0.0301,0,102,102,45,1,threefour,,,,,,,,,,,,,,,,,,,,,,,,,,,,,,,,,,,,,,,,,,,,,,,,,,,,,,,,,,,,,,,,,,,,,,,,,,,,,,,,,,,,,,,,,,,,,,,,,,,,,,,,,,,,,,,,,,,,,,,,,,,,,,,,,,,,,,,
,,5fca888982a09a6a47620777,2023-12-14_19h06.44.230,kallum_motion_pilot,2023.2.3,Win32,15.01501502,5fca888982a09a6a47620777,657bb317c8798c6608bceb3f,657bb4911ad37ab31fbce947,0.0302,0.0302,0,103,103,4,1,threeone,,,,,,,,,,,,,,,,,,,,,,,,,,,,,,,,,,,,,,,,,,,,,,,,,,,,,,,,,,,,,,,,,,,,,,,,,,,,,,,,,,,,,,,,,,,,,,,,,,,,,,,,,,,,,,,,,,,,,,,,,,,,,,,,,,,,,,,
,,5fca888982a09a6a47620777,2023-12-14_19h06.44.230,kallum_motion_pilot,2023.2.3,Win32,15.01501502,5fca888982a09a6a47620777,657bb317c8798c6608bceb3f,657bb4911ad37ab31fbce947,0.0303,0.0303,0,104,104,90,1,sixfive,,,,,,,,,,,,,,,,,,,,,,,,,,,,,,,,,,,,,,,,,,,,,,,,,,,,,,,,,,,,,,,,,,,,,,,,,,,,,,,,,,,,,,,,,,,,,,,,,,,,,,,,,,,,,,,,,,,,,,,,,,,,,,,,,,,,,,,
,,5fca888982a09a6a47620777,2023-12-14_19h06.44.230,kallum_motion_pilot,2023.2.3,Win32,15.01501502,5fca888982a09a6a47620777,657bb317c8798c6608bceb3f,657bb4911ad37ab31fbce947,0.0303,0.0303,0,105,105,26,1,twoone,,,,,,,,,,,,,,,,,,,,,,,,,,,,,,,,,,,,,,,,,,,,,,,,,,,,,,,,,,,,,,,,,,,,,,,,,,,,,,,,,,,,,,,,,,,,,,,,,,,,,,,,,,,,,,,,,,,,,,,,,,,,,,,,,,,,,,,
,,5fca888982a09a6a47620777,2023-12-14_19h06.44.230,kallum_motion_pilot,2023.2.3,Win32,15.01501502,5fca888982a09a6a47620777,657bb317c8798c6608bceb3f,657bb4911ad37ab31fbce947,0.0304,0.0305,0,106,106,67,1,twofour,,,,,,,,,,,,,,,,,,,,,,,,,,,,,,,,,,,,,,,,,,,,,,,,,,,,,,,,,,,,,,,,,,,,,,,,,,,,,,,,,,,,,,,,,,,,,,,,,,,,,,,,,,,,,,,,,,,,,,,,,,,,,,,,,,,,,,,
,,5fca888982a09a6a47620777,2023-12-14_19h06.44.230,kallum_motion_pilot,2023.2.3,Win32,15.01501502,5fca888982a09a6a47620777,657bb317c8798c6608bceb3f,657bb4911ad37ab31fbce947,0.0305,0.0305,0,107,107,112,1,fivesix,,,,,,,,,,,,,,,,,,,,,,,,,,,,,,,,,,,,,,,,,,,,,,,,,,,,,,,,,,,,,,,,,,,,,,,,,,,,,,,,,,,,,,,,,,,,,,,,,,,,,,,,,,,,,,,,,,,,,,,,,,,,,,,,,,,,,,,
,,5fca888982a09a6a47620777,2023-12-14_19h06.44.230,kallum_motion_pilot,2023.2.3,Win32,15.01501502,5fca888982a09a6a47620777,657bb317c8798c6608bceb3f,657bb4911ad37ab31fbce947,0.0306,0.0307,0,108,108,93,1,seveneight,,,,,,,,,,,,,,,,,,,,,,,,,,,,,,,,,,,,,,,,,,,,,,,,,,,,,,,,,,,,,,,,,,,,,,,,,,,,,,,,,,,,,,,,,,,,,,,,,,,,,,,,,,,,,,,,,,,,,,,,,,,,,,,,,,,,,,,
,,5fca888982a09a6a47620777,2023-12-14_19h06.44.230,kallum_motion_pilot,2023.2.3,Win32,15.01501502,5fca888982a09a6a47620777,657bb317c8798c6608bceb3f,657bb4911ad37ab31fbce947,0.0307,0.0307,0,109,109,42,1,twoone,,,,,,,,,,,,,,,,,,,,,,,,,,,,,,,,,,,,,,,,,,,,,,,,,,,,,,,,,,,,,,,,,,,,,,,,,,,,,,,,,,,,,,,,,,,,,,,,,,,,,,,,,,,,,,,,,,,,,,,,,,,,,,,,,,,,,,,
,,5fca888982a09a6a47620777,2023-12-14_19h06.44.230,kallum_motion_pilot,2023.2.3,Win32,15.01501502,5fca888982a09a6a47620777,657bb317c8798c6608bceb3f,657bb4911ad37ab31fbce947,0.0308,0.0308,0,110,110,50,1,twoone,,,,,,,,,,,,,,,,,,,,,,,,,,,,,,,,,,,,,,,,,,,,,,,,,,,,,,,,,,,,,,,,,,,,,,,,,,,,,,,,,,,,,,,,,,,,,,,,,,,,,,,,,,,,,,,,,,,,,,,,,,,,,,,,,,,,,,,
,,5fca888982a09a6a47620777,2023-12-14_19h06.44.230,kallum_motion_pilot,2023.2.3,Win32,15.01501502,5fca888982a09a6a47620777,657bb317c8798c6608bceb3f,657bb4911ad37ab31fbce947,0.0309,0.0309,0,111,111,135,1,eightseven,,,,,,,,,,,,,,,,,,,,,,,,,,,,,,,,,,,,,,,,,,,,,,,,,,,,,,,,,,,,,,,,,,,,,,,,,,,,,,,,,,,,,,,,,,,,,,,,,,,,,,,,,,,,,,,,,,,,,,,,,,,,,,,,,,,,,,,
,,5fca888982a09a6a47620777,2023-12-14_19h06.44.230,kallum_motion_pilot,2023.2.3,Win32,15.01501502,5fca888982a09a6a47620777,657bb317c8798c6608bceb3f,657bb4911ad37ab31fbce947,0.031,0.0311,0,112,112,153,1,fiveseven,,,,,,,,,,,,,,,,,,,,,,,,,,,,,,,,,,,,,,,,,,,,,,,,,,,,,,,,,,,,,,,,,,,,,,,,,,,,,,,,,,,,,,,,,,,,,,,,,,,,,,,,,,,,,,,,,,,,,,,,,,,,,,,,,,,,,,,
,,5fca888982a09a6a47620777,2023-12-14_19h06.44.230,kallum_motion_pilot,2023.2.3,Win32,15.01501502,5fca888982a09a6a47620777,657bb317c8798c6608bceb3f,657bb4911ad37ab31fbce947,0.0311,0.0311,0,113,113,137,1,fiveseven,,,,,,,,,,,,,,,,,,,,,,,,,,,,,,,,,,,,,,,,,,,,,,,,,,,,,,,,,,,,,,,,,,,,,,,,,,,,,,,,,,,,,,,,,,,,,,,,,,,,,,,,,,,,,,,,,,,,,,,,,,,,,,,,,,,,,,,
,,5fca888982a09a6a47620777,2023-12-14_19h06.44.230,kallum_motion_pilot,2023.2.3,Win32,15.01501502,5fca888982a09a6a47620777,657bb317c8798c6608bceb3f,657bb4911ad37ab31fbce947,0.0312,0.0312,0,114,114,103,1,eightseven,,,,,,,,,,,,,,,,,,,,,,,,,,,,,,,,,,,,,,,,,,,,,,,,,,,,,,,,,,,,,,,,,,,,,,,,,,,,,,,,,,,,,,,,,,,,,,,,,,,,,,,,,,,,,,,,,,,,,,,,,,,,,,,,,,,,,,,
,,5fca888982a09a6a47620777,2023-12-14_19h06.44.230,kallum_motion_pilot,2023.2.3,Win32,15.01501502,5fca888982a09a6a47620777,657bb317c8798c6608bceb3f,657bb4911ad37ab31fbce947,0.0313,0.0313,0,115,115,122,1,sixfive,,,,,,,,,,,,,,,,,,,,,,,,,,,,,,,,,,,,,,,,,,,,,,,,,,,,,,,,,,,,,,,,,,,,,,,,,,,,,,,,,,,,,,,,,,,,,,,,,,,,,,,,,,,,,,,,,,,,,,,,,,,,,,,,,,,,,,,
,,5fca888982a09a6a47620777,2023-12-14_19h06.44.230,kallum_motion_pilot,2023.2.3,Win32,15.01501502,5fca888982a09a6a47620777,657bb317c8798c6608bceb3f,657bb4911ad37ab31fbce947,0.0314,0.0315,0,116,116,71,1,fourthree,,,,,,,,,,,,,,,,,,,,,,,,,,,,,,,,,,,,,,,,,,,,,,,,,,,,,,,,,,,,,,,,,,,,,,,,,,,,,,,,,,,,,,,,,,,,,,,,,,,,,,,,,,,,,,,,,,,,,,,,,,,,,,,,,,,,,,,
,,5fca888982a09a6a47620777,2023-12-14_19h06.44.230,kallum_motion_pilot,2023.2.3,Win32,15.01501502,5fca888982a09a6a47620777,657bb317c8798c6608bceb3f,657bb4911ad37ab31fbce947,0.0315,0.0315,0,117,117,155,1,sixeight,,,,,,,,,,,,,,,,,,,,,,,,,,,,,,,,,,,,,,,,,,,,,,,,,,,,,,,,,,,,,,,,,,,,,,,,,,,,,,,,,,,,,,,,,,,,,,,,,,,,,,,,,,,,,,,,,,,,,,,,,,,,,,,,,,,,,,,
,,5fca888982a09a6a47620777,2023-12-14_19h06.44.230,kallum_motion_pilot,2023.2.3,Win32,15.01501502,5fca888982a09a6a47620777,657bb317c8798c6608bceb3f,657bb4911ad37ab31fbce947,0.0316,0.0317,0,118,118,154,1,sixfive,,,,,,,,,,,,,,,,,,,,,,,,,,,,,,,,,,,,,,,,,,,,,,,,,,,,,,,,,,,,,,,,,,,,,,,,,,,,,,,,,,,,,,,,,,,,,,,,,,,,,,,,,,,,,,,,,,,,,,,,,,,,,,,,,,,,,,,
,,5fca888982a09a6a47620777,2023-12-14_19h06.44.230,kallum_motion_pilot,2023.2.3,Win32,15.01501502,5fca888982a09a6a47620777,657bb317c8798c6608bceb3f,657bb4911ad37ab31fbce947,0.0317,0.0318,0,119,119,79,1,eightseven,,,,,,,,,,,,,,,,,,,,,,,,,,,,,,,,,,,,,,,,,,,,,,,,,,,,,,,,,,,,,,,,,,,,,,,,,,,,,,,,,,,,,,,,,,,,,,,,,,,,,,,,,,,,,,,,,,,,,,,,,,,,,,,,,,,,,,,
,,5fca888982a09a6a47620777,2023-12-14_19h06.44.230,kallum_motion_pilot,2023.2.3,Win32,15.01501502,5fca888982a09a6a47620777,657bb317c8798c6608bceb3f,657bb4911ad37ab31fbce947,0.0318,0.0318,0,120,120,14,1,fourtwo,,,,,,,,,,,,,,,,,,,,,,,,,,,,,,,,,,,,,,,,,,,,,,,,,,,,,,,,,,,,,,,,,,,,,,,,,,,,,,,,,,,,,,,,,,,,,,,,,,,,,,,,,,,,,,,,,,,,,,,,,,,,,,,,,,,,,,,
,,5fca888982a09a6a47620777,2023-12-14_19h06.44.230,kallum_motion_pilot,2023.2.3,Win32,15.01501502,5fca888982a09a6a47620777,657bb317c8798c6608bceb3f,657bb4911ad37ab31fbce947,0.0319,0.032,0,121,121,54,1,fourtwo,,,,,,,,,,,,,,,,,,,,,,,,,,,,,,,,,,,,,,,,,,,,,,,,,,,,,,,,,,,,,,,,,,,,,,,,,,,,,,,,,,,,,,,,,,,,,,,,,,,,,,,,,,,,,,,,,,,,,,,,,,,,,,,,,,,,,,,
,,5fca888982a09a6a47620777,2023-12-14_19h06.44.230,kallum_motion_pilot,2023.2.3,Win32,15.01501502,5fca888982a09a6a47620777,657bb317c8798c6608bceb3f,657bb4911ad37ab31fbce947,0.032,0.0321,0,122,122,102,1,eightsix,,,,,,,,,,,,,,,,,,,,,,,,,,,,,,,,,,,,,,,,,,,,,,,,,,,,,,,,,,,,,,,,,,,,,,,,,,,,,,,,,,,,,,,,,,,,,,,,,,,,,,,,,,,,,,,,,,,,,,,,,,,,,,,,,,,,,,,
,,5fca888982a09a6a47620777,2023-12-14_19h06.44.230,kallum_motion_pilot,2023.2.3,Win32,15.01501502,5fca888982a09a6a47620777,657bb317c8798c6608bceb3f,657bb4911ad37ab31fbce947,0.0321,0.0322,0,123,123,114,1,sixfive,,,,,,,,,,,,,,,,,,,,,,,,,,,,,,,,,,,,,,,,,,,,,,,,,,,,,,,,,,,,,,,,,,,,,,,,,,,,,,,,,,,,,,,,,,,,,,,,,,,,,,,,,,,,,,,,,,,,,,,,,,,,,,,,,,,,,,,
,,5fca888982a09a6a47620777,2023-12-14_19h06.44.230,kallum_motion_pilot,2023.2.3,Win32,15.01501502,5fca888982a09a6a47620777,657bb317c8798c6608bceb3f,657bb4911ad37ab31fbce947,0.0322,0.0323,0,124,124,78,1,fourtwo,,,,,,,,,,,,,,,,,,,,,,,,,,,,,,,,,,,,,,,,,,,,,,,,,,,,,,,,,,,,,,,,,,,,,,,,,,,,,,,,,,,,,,,,,,,,,,,,,,,,,,,,,,,,,,,,,,,,,,,,,,,,,,,,,,,,,,,
,,5fca888982a09a6a47620777,2023-12-14_19h06.44.230,kallum_motion_pilot,2023.2.3,Win32,15.01501502,5fca888982a09a6a47620777,657bb317c8798c6608bceb3f,657bb4911ad37ab31fbce947,0.0323,0.0324,0,125,125,151,1,eightseven,,,,,,,,,,,,,,,,,,,,,,,,,,,,,,,,,,,,,,,,,,,,,,,,,,,,,,,,,,,,,,,,,,,,,,,,,,,,,,,,,,,,,,,,,,,,,,,,,,,,,,,,,,,,,,,,,,,,,,,,,,,,,,,,,,,,,,,
,,5fca888982a09a6a47620777,2023-12-14_19h06.44.230,kallum_motion_pilot,2023.2.3,Win32,15.01501502,5fca888982a09a6a47620777,657bb317c8798c6608bceb3f,657bb4911ad37ab31fbce947,0.0325,0.0325,0,126,126,11,1,twofour,,,,,,,,,,,,,,,,,,,,,,,,,,,,,,,,,,,,,,,,,,,,,,,,,,,,,,,,,,,,,,,,,,,,,,,,,,,,,,,,,,,,,,,,,,,,,,,,,,,,,,,,,,,,,,,,,,,,,,,,,,,,,,,,,,,,,,,
,,5fca888982a09a6a47620777,2023-12-14_19h06.44.230,kallum_motion_pilot,2023.2.3,Win32,15.01501502,5fca888982a09a6a47620777,657bb317c8798c6608bceb3f,657bb4911ad37ab31fbce947,0.0326,0.0326,0,127,127,13,1,threefour,,,,,,,,,,,,,,,,,,,,,,,,,,,,,,,,,,,,,,,,,,,,,,,,,,,,,,,,,,,,,,,,,,,,,,,,,,,,,,,,,,,,,,,,,,,,,,,,,,,,,,,,,,,,,,,,,,,,,,,,,,,,,,,,,,,,,,,
,,5fca888982a09a6a47620777,2023-12-14_19h06.44.230,kallum_motion_pilot,2023.2.3,Win32,15.01501502,5fca888982a09a6a47620777,657bb317c8798c6608bceb3f,657bb4911ad37ab31fbce947,0.0326,0.0328,0,128,128,57,1,onethree,,,,,,,,,,,,,,,,,,,,,,,,,,,,,,,,,,,,,,,,,,,,,,,,,,,,,,,,,,,,,,,,,,,,,,,,,,,,,,,,,,,,,,,,,,,,,,,,,,,,,,,,,,,,,,,,,,,,,,,,,,,,,,,,,,,,,,,
,,5fca888982a09a6a47620777,2023-12-14_19h06.44.230,kallum_motion_pilot,2023.2.3,Win32,15.01501502,5fca888982a09a6a47620777,657bb317c8798c6608bceb3f,657bb4911ad37ab31fbce947,0.0328,0.0328,0,129,129,41,1,onethree,,,,,,,,,,,,,,,,,,,,,,,,,,,,,,,,,,,,,,,,,,,,,,,,,,,,,,,,,,,,,,,,,,,,,,,,,,,,,,,,,,,,,,,,,,,,,,,,,,,,,,,,,,,,,,,,,,,,,,,,,,,,,,,,,,,,,,,
,,5fca888982a09a6a47620777,2023-12-14_19h06.44.230,kallum_motion_pilot,2023.2.3,Win32,15.01501502,5fca888982a09a6a47620777,657bb317c8798c6608bceb3f,657bb4911ad37ab31fbce947,0.0328,0.0329,0,130,130,70,1,fourtwo,,,,,,,,,,,,,,,,,,,,,,,,,,,,,,,,,,,,,,,,,,,,,,,,,,,,,,,,,,,,,,,,,,,,,,,,,,,,,,,,,,,,,,,,,,,,,,,,,,,,,,,,,,,,,,,,,,,,,,,,,,,,,,,,,,,,,,,
,,5fca888982a09a6a47620777,2023-12-14_19h06.44.230,kallum_motion_pilot,2023.2.3,Win32,15.01501502,5fca888982a09a6a47620777,657bb317c8798c6608bceb3f,657bb4911ad37ab31fbce947,0.0329,0.033,0,131,131,8,1,onetwo,,,,,,,,,,,,,,,,,,,,,,,,,,,,,,,,,,,,,,,,,,,,,,,,,,,,,,,,,,,,,,,,,,,,,,,,,,,,,,,,,,,,,,,,,,,,,,,,,,,,,,,,,,,,,,,,,,,,,,,,,,,,,,,,,,,,,,,
,,5fca888982a09a6a47620777,2023-12-14_19h06.44.230,kallum_motion_pilot,2023.2.3,Win32,15.01501502,5fca888982a09a6a47620777,657bb317c8798c6608bceb3f,657bb4911ad37ab31fbce947,0.0331,0.0331,0,132,132,20,1,threeone,,,,,,,,,,,,,,,,,,,,,,,,,,,,,,,,,,,,,,,,,,,,,,,,,,,,,,,,,,,,,,,,,,,,,,,,,,,,,,,,,,,,,,,,,,,,,,,,,,,,,,,,,,,,,,,,,,,,,,,,,,,,,,,,,,,,,,,
,,5fca888982a09a6a47620777,2023-12-14_19h06.44.230,kallum_motion_pilot,2023.2.3,Win32,15.01501502,5fca888982a09a6a47620777,657bb317c8798c6608bceb3f,657bb4911ad37ab31fbce947,0.0331,0.0332,0,133,133,88,1,fivesix,,,,,,,,,,,,,,,,,,,,,,,,,,,,,,,,,,,,,,,,,,,,,,,,,,,,,,,,,,,,,,,,,,,,,,,,,,,,,,,,,,,,,,,,,,,,,,,,,,,,,,,,,,,,,,,,,,,,,,,,,,,,,,,,,,,,,,,
,,5fca888982a09a6a47620777,2023-12-14_19h06.44.230,kallum_motion_pilot,2023.2.3,Win32,15.01501502,5fca888982a09a6a47620777,657bb317c8798c6608bceb3f,657bb4911ad37ab31fbce947,0.0333,0.0333,0,134,134,149,1,seveneight,,,,,,,,,,,,,,,,,,,,,,,,,,,,,,,,,,,,,,,,,,,,,,,,,,,,,,,,,,,,,,,,,,,,,,,,,,,,,,,,,,,,,,,,,,,,,,,,,,,,,,,,,,,,,,,,,,,,,,,,,,,,,,,,,,,,,,,
,,5fca888982a09a6a47620777,2023-12-14_19h06.44.230,kallum_motion_pilot,2023.2.3,Win32,15.01501502,5fca888982a09a6a47620777,657bb317c8798c6608bceb3f,657bb4911ad37ab31fbce947,0.0334,0.0334,0,135,135,80,1,fivesix,,,,,,,,,,,,,,,,,,,,,,,,,,,,,,,,,,,,,,,,,,,,,,,,,,,,,,,,,,,,,,,,,,,,,,,,,,,,,,,,,,,,,,,,,,,,,,,,,,,,,,,,,,,,,,,,,,,,,,,,,,,,,,,,,,,,,,,
,,5fca888982a09a6a47620777,2023-12-14_19h06.44.230,kallum_motion_pilot,2023.2.3,Win32,15.01501502,5fca888982a09a6a47620777,657bb317c8798c6608bceb3f,657bb4911ad37ab31fbce947,0.0335,0.0335,0,136,136,121,1,fiveseven,,,,,,,,,,,,,,,,,,,,,,,,,,,,,,,,,,,,,,,,,,,,,,,,,,,,,,,,,,,,,,,,,,,,,,,,,,,,,,,,,,,,,,,,,,,,,,,,,,,,,,,,,,,,,,,,,,,,,,,,,,,,,,,,,,,,,,,
,,5fca888982a09a6a47620777,2023-12-14_19h06.44.230,kallum_motion_pilot,2023.2.3,Win32,15.01501502,5fca888982a09a6a47620777,657bb317c8798c6608bceb3f,657bb4911ad37ab31fbce947,0.0336,0.0336,0,137,137,110,1,eightsix,,,,,,,,,,,,,,,,,,,,,,,,,,,,,,,,,,,,,,,,,,,,,,,,,,,,,,,,,,,,,,,,,,,,,,,,,,,,,,,,,,,,,,,,,,,,,,,,,,,,,,,,,,,,,,,,,,,,,,,,,,,,,,,,,,,,,,,
,,5fca888982a09a6a47620777,2023-12-14_19h06.44.230,kallum_motion_pilot,2023.2.3,Win32,15.01501502,5fca888982a09a6a47620777,657bb317c8798c6608bceb3f,657bb4911ad37ab31fbce947,0.0337,0.0337,0,138,138,105,1,fiveseven,,,,,,,,,,,,,,,,,,,,,,,,,,,,,,,,,,,,,,,,,,,,,,,,,,,,,,,,,,,,,,,,,,,,,,,,,,,,,,,,,,,,,,,,,,,,,,,,,,,,,,,,,,,,,,,,,,,,,,,,,,,,,,,,,,,,,,,
,,5fca888982a09a6a47620777,2023-12-14_19h06.44.230,kallum_motion_pilot,2023.2.3,Win32,15.01501502,5fca888982a09a6a47620777,657bb317c8798c6608bceb3f,657bb4911ad37ab31fbce947,0.0338,0.0338,0,139,139,75,1,twofour,,,,,,,,,,,,,,,,,,,,,,,,,,,,,,,,,,,,,,,,,,,,,,,,,,,,,,,,,,,,,,,,,,,,,,,,,,,,,,,,,,,,,,,,,,,,,,,,,,,,,,,,,,,,,,,,,,,,,,,,,,,,,,,,,,,,,,,
,,5fca888982a09a6a47620777,2023-12-14_19h06.44.230,kallum_motion_pilot,2023.2.3,Win32,15.01501502,5fca888982a09a6a47620777,657bb317c8798c6608bceb3f,657bb4911ad37ab31fbce947,0.0339,0.0339,0,140,140,130,1,sixfive,,,,,,,,,,,,,,,,,,,,,,,,,,,,,,,,,,,,,,,,,,,,,,,,,,,,,,,,,,,,,,,,,,,,,,,,,,,,,,,,,,,,,,,,,,,,,,,,,,,,,,,,,,,,,,,,,,,,,,,,,,,,,,,,,,,,,,,
,,5fca888982a09a6a47620777,2023-12-14_19h06.44.230,kallum_motion_pilot,2023.2.3,Win32,15.01501502,5fca888982a09a6a47620777,657bb317c8798c6608bceb3f,657bb4911ad37ab31fbce947,0.0339,0.034,0,141,141,91,1,sixeight,,,,,,,,,,,,,,,,,,,,,,,,,,,,,,,,,,,,,,,,,,,,,,,,,,,,,,,,,,,,,,,,,,,,,,,,,,,,,,,,,,,,,,,,,,,,,,,,,,,,,,,,,,,,,,,,,,,,,,,,,,,,,,,,,,,,,,,
,,5fca888982a09a6a47620777,2023-12-14_19h06.44.230,kallum_motion_pilot,2023.2.3,Win32,15.01501502,5fca888982a09a6a47620777,657bb317c8798c6608bceb3f,657bb4911ad37ab31fbce947,0.0341,0.0342,0,142,142,145,1,fiveseven,,,,,,,,,,,,,,,,,,,,,,,,,,,,,,,,,,,,,,,,,,,,,,,,,,,,,,,,,,,,,,,,,,,,,,,,,,,,,,,,,,,,,,,,,,,,,,,,,,,,,,,,,,,,,,,,,,,,,,,,,,,,,,,,,,,,,,,
,,5fca888982a09a6a47620777,2023-12-14_19h06.44.230,kallum_motion_pilot,2023.2.3,Win32,15.01501502,5fca888982a09a6a47620777,657bb317c8798c6608bceb3f,657bb4911ad37ab31fbce947,0.0342,0.0343,0,143,143,0,1,onetwo,,,,,,,,,,,,,,,,,,,,,,,,,,,,,,,,,,,,,,,,,,,,,,,,,,,,,,,,,,,,,,,,,,,,,,,,,,,,,,,,,,,,,,,,,,,,,,,,,,,,,,,,,,,,,,,,,,,,,,,,,,,,,,,,,,,,,,,
,,5fca888982a09a6a47620777,2023-12-14_19h06.44.230,kallum_motion_pilot,2023.2.3,Win32,15.01501502,5fca888982a09a6a47620777,657bb317c8798c6608bceb3f,657bb4911ad37ab31fbce947,0.0343,0.0343,0,144,144,141,1,seveneight,,,,,,,,,,,,,,,,,,,,,,,,,,,,,,,,,,,,,,,,,,,,,,,,,,,,,,,,,,,,,,,,,,,,,,,,,,,,,,,,,,,,,,,,,,,,,,,,,,,,,,,,,,,,,,,,,,,,,,,,,,,,,,,,,,,,,,,
,,5fca888982a09a6a47620777,2023-12-14_19h06.44.230,kallum_motion_pilot,2023.2.3,Win32,15.01501502,5fca888982a09a6a47620777,657bb317c8798c6608bceb3f,657bb4911ad37ab31fbce947,0.0344,0.0345,0,145,145,27,1,twofour,,,,,,,,,,,,,,,,,,,,,,,,,,,,,,,,,,,,,,,,,,,,,,,,,,,,,,,,,,,,,,,,,,,,,,,,,,,,,,,,,,,,,,,,,,,,,,,,,,,,,,,,,,,,,,,,,,,,,,,,,,,,,,,,,,,,,,,
,,5fca888982a09a6a47620777,2023-12-14_19h06.44.230,kallum_motion_pilot,2023.2.3,Win32,15.01501502,5fca888982a09a6a47620777,657bb317c8798c6608bceb3f,657bb4911ad37ab31fbce947,0.0345,0.0346,0,146,146,36,1,threeone,,,,,,,,,,,,,,,,,,,,,,,,,,,,,,,,,,,,,,,,,,,,,,,,,,,,,,,,,,,,,,,,,,,,,,,,,,,,,,,,,,,,,,,,,,,,,,,,,,,,,,,,,,,,,,,,,,,,,,,,,,,,,,,,,,,,,,,
,,5fca888982a09a6a47620777,2023-12-14_19h06.44.230,kallum_motion_pilot,2023.2.3,Win32,15.01501502,5fca888982a09a6a47620777,657bb317c8798c6608bceb3f,657bb4911ad37ab31fbce947,0.0346,0.0347,0,147,147,136,1,fivesix,,,,,,,,,,,,,,,,,,,,,,,,,,,,,,,,,,,,,,,,,,,,,,,,,,,,,,,,,,,,,,,,,,,,,,,,,,,,,,,,,,,,,,,,,,,,,,,,,,,,,,,,,,,,,,,,,,,,,,,,,,,,,,,,,,,,,,,
,,5fca888982a09a6a47620777,2023-12-14_19h06.44.230,kallum_motion_pilot,2023.2.3,Win32,15.01501502,5fca888982a09a6a47620777,657bb317c8798c6608bceb3f,657bb4911ad37ab31fbce947,0.0347,0.0347,0,148,148,64,1,onetwo,,,,,,,,,,,,,,,,,,,,,,,,,,,,,,,,,,,,,,,,,,,,,,,,,,,,,,,,,,,,,,,,,,,,,,,,,,,,,,,,,,,,,,,,,,,,,,,,,,,,,,,,,,,,,,,,,,,,,,,,,,,,,,,,,,,,,,,
,,5fca888982a09a6a47620777,2023-12-14_19h06.44.230,kallum_motion_pilot,2023.2.3,Win32,15.01501502,5fca888982a09a6a47620777,657bb317c8798c6608bceb3f,657bb4911ad37ab31fbce947,0.0348,0.0349,0,149,149,68,1,threeone,,,,,,,,,,,,,,,,,,,,,,,,,,,,,,,,,,,,,,,,,,,,,,,,,,,,,,,,,,,,,,,,,,,,,,,,,,,,,,,,,,,,,,,,,,,,,,,,,,,,,,,,,,,,,,,,,,,,,,,,,,,,,,,,,,,,,,,
,,5fca888982a09a6a47620777,2023-12-14_19h06.44.230,kallum_motion_pilot,2023.2.3,Win32,15.01501502,5fca888982a09a6a47620777,657bb317c8798c6608bceb3f,657bb4911ad37ab31fbce947,0.0349,0.035,0,150,150,28,1,threeone,,,,,,,,,,,,,,,,,,,,,,,,,,,,,,,,,,,,,,,,,,,,,,,,,,,,,,,,,,,,,,,,,,,,,,,,,,,,,,,,,,,,,,,,,,,,,,,,,,,,,,,,,,,,,,,,,,,,,,,,,,,,,,,,,,,,,,,
,,5fca888982a09a6a47620777,2023-12-14_19h06.44.230,kallum_motion_pilot,2023.2.3,Win32,15.01501502,5fca888982a09a6a47620777,657bb317c8798c6608bceb3f,657bb4911ad37ab31fbce947,0.035,0.0351,0,151,151,37,1,threefour,,,,,,,,,,,,,,,,,,,,,,,,,,,,,,,,,,,,,,,,,,,,,,,,,,,,,,,,,,,,,,,,,,,,,,,,,,,,,,,,,,,,,,,,,,,,,,,,,,,,,,,,,,,,,,,,,,,,,,,,,,,,,,,,,,,,,,,
,,5fca888982a09a6a47620777,2023-12-14_19h06.44.230,kallum_motion_pilot,2023.2.3,Win32,15.01501502,5fca888982a09a6a47620777,657bb317c8798c6608bceb3f,657bb4911ad37ab31fbce947,0.0351,0.0352,0,152,152,32,1,onetwo,,,,,,,,,,,,,,,,,,,,,,,,,,,,,,,,,,,,,,,,,,,,,,,,,,,,,,,,,,,,,,,,,,,,,,,,,,,,,,,,,,,,,,,,,,,,,,,,,,,,,,,,,,,,,,,,,,,,,,,,,,,,,,,,,,,,,,,
,,5fca888982a09a6a47620777,2023-12-14_19h06.44.230,kallum_motion_pilot,2023.2.3,Win32,15.01501502,5fca888982a09a6a47620777,657bb317c8798c6608bceb3f,657bb4911ad37ab31fbce947,0.0353,0.0353,0,153,153,6,1,fourtwo,,,,,,,,,,,,,,,,,,,,,,,,,,,,,,,,,,,,,,,,,,,,,,,,,,,,,,,,,,,,,,,,,,,,,,,,,,,,,,,,,,,,,,,,,,,,,,,,,,,,,,,,,,,,,,,,,,,,,,,,,,,,,,,,,,,,,,,
,,5fca888982a09a6a47620777,2023-12-14_19h06.44.230,kallum_motion_pilot,2023.2.3,Win32,15.01501502,5fca888982a09a6a47620777,657bb317c8798c6608bceb3f,657bb4911ad37ab31fbce947,0.0354,0.0354,0,154,154,119,1,eightseven,,,,,,,,,,,,,,,,,,,,,,,,,,,,,,,,,,,,,,,,,,,,,,,,,,,,,,,,,,,,,,,,,,,,,,,,,,,,,,,,,,,,,,,,,,,,,,,,,,,,,,,,,,,,,,,,,,,,,,,,,,,,,,,,,,,,,,,
,,5fca888982a09a6a47620777,2023-12-14_19h06.44.230,kallum_motion_pilot,2023.2.3,Win32,15.01501502,5fca888982a09a6a47620777,657bb317c8798c6608bceb3f,657bb4911ad37ab31fbce947,0.0354,0.0355,0,155,155,34,1,twoone,,,,,,,,,,,,,,,,,,,,,,,,,,,,,,,,,,,,,,,,,,,,,,,,,,,,,,,,,,,,,,,,,,,,,,,,,,,,,,,,,,,,,,,,,,,,,,,,,,,,,,,,,,,,,,,,,,,,,,,,,,,,,,,,,,,,,,,
,,5fca888982a09a6a47620777,2023-12-14_19h06.44.230,kallum_motion_pilot,2023.2.3,Win32,15.01501502,5fca888982a09a6a47620777,657bb317c8798c6608bceb3f,657bb4911ad37ab31fbce947,0.0356,0.0356,0,156,156,82,1,sixfive,,,,,,,,,,,,,,,,,,,,,,,,,,,,,,,,,,,,,,,,,,,,,,,,,,,,,,,,,,,,,,,,,,,,,,,,,,,,,,,,,,,,,,,,,,,,,,,,,,,,,,,,,,,,,,,,,,,,,,,,,,,,,,,,,,,,,,,
,,5fca888982a09a6a47620777,2023-12-14_19h06.44.230,kallum_motion_pilot,2023.2.3,Win32,15.01501502,5fca888982a09a6a47620777,657bb317c8798c6608bceb3f,657bb4911ad37ab31fbce947,0.0357,0.0357,0,157,157,63,1,fourthree,,,,,,,,,,,,,,,,,,,,,,,,,,,,,,,,,,,,,,,,,,,,,,,,,,,,,,,,,,,,,,,,,,,,,,,,,,,,,,,,,,,,,,,,,,,,,,,,,,,,,,,,,,,,,,,,,,,,,,,,,,,,,,,,,,,,,,,
,,5fca888982a09a6a47620777,2023-12-14_19h06.44.230,kallum_motion_pilot,2023.2.3,Win32,15.01501502,5fca888982a09a6a47620777,657bb317c8798c6608bceb3f,657bb4911ad37ab31fbce947,0.0358,0.0358,0,158,158,89,1,fiveseven,,,,,,,,,,,,,,,,,,,,,,,,,,,,,,,,,,,,,,,,,,,,,,,,,,,,,,,,,,,,,,,,,,,,,,,,,,,,,,,,,,,,,,,,,,,,,,,,,,,,,,,,,,,,,,,,,,,,,,,,,,,,,,,,,,,,,,,
,,5fca888982a09a6a47620777,2023-12-14_19h06.44.230,kallum_motion_pilot,2023.2.3,Win32,15.01501502,5fca888982a09a6a47620777,657bb317c8798c6608bceb3f,657bb4911ad37ab31fbce947,0.0359,0.036,0,159,159,21,1,threefour,,,,,,,,,,,,,,,,,,,,,,,,,,,,,,,,,,,,,,,,,,,,,,,,,,,,,,,,,,,,,,,,,,,,,,,,,,,,,,,,,,,,,,,,,,,,,,,,,,,,,,,,,,,,,,,,,,,,,,,,,,,,,,,,,,,,,,,
,,5fca888982a09a6a47620777,2023-12-14_19h06.44.230,kallum_motion_pilot,2023.2.3,Win32,15.01501502,5fca888982a09a6a47620777,657bb317c8798c6608bceb3f,657bb4911ad37ab31fbce947,0.036,0.036,0,160,160,117,1,seveneight,,,,,,,,,,,,,,,,,,,,,,,,,,,,,,,,,,,,,,,,,,,,,,,,,,,,,,,,,,,,,,,,,,,,,,,,,,,,,,,,,,,,,,,,,,,,,,,,,,,,,,,,,,,,,,,,,,,,,,,,,,,,,,,,,,,,,,,
,,5fca888982a09a6a47620777,2023-12-14_19h06.44.230,kallum_motion_pilot,2023.2.3,Win32,15.01501502,5fca888982a09a6a47620777,657bb317c8798c6608bceb3f,657bb4911ad37ab31fbce947,0.0361,0.0361,0,161,161,97,1,fiveseven,,,,,,,,,,,,,,,,,,,,,,,,,,,,,,,,,,,,,,,,,,,,,,,,,,,,,,,,,,,,,,,,,,,,,,,,,,,,,,,,,,,,,,,,,,,,,,,,,,,,,,,,,,,,,,,,,,,,,,,,,,,,,,,,,,,,,,,
,,5fca888982a09a6a47620777,2023-12-14_19h06.44.230,kallum_motion_pilot,2023.2.3,Win32,15.01501502,5fca888982a09a6a47620777,657bb317c8798c6608bceb3f,657bb4911ad37ab31fbce947,0.0361,0.0362,1,0,162,43,1,twofour,,,,,,,,,,,,,,,,,,,,,,,,,,,,,,,,,,,,,,,,,,,,,,,,,,,,,,,,,,,,,,,,,,,,,,,,,,,,,,,,,,,,,,,,,,,,,,,,,,,,,,,,,,,,,,,,,,,,,,,,,,,,,,,,,,,,,,,
,,5fca888982a09a6a47620777,2023-12-14_19h06.44.230,kallum_motion_pilot,2023.2.3,Win32,15.01501502,5fca888982a09a6a47620777,657bb317c8798c6608bceb3f,657bb4911ad37ab31fbce947,0.0363,0.0363,1,1,163,6,1,fourtwo,,,,,,,,,,,,,,,,,,,,,,,,,,,,,,,,,,,,,,,,,,,,,,,,,,,,,,,,,,,,,,,,,,,,,,,,,,,,,,,,,,,,,,,,,,,,,,,,,,,,,,,,,,,,,,,,,,,,,,,,,,,,,,,,,,,,,,,
,,5fca888982a09a6a47620777,2023-12-14_19h06.44.230,kallum_motion_pilot,2023.2.3,Win32,15.01501502,5fca888982a09a6a47620777,657bb317c8798c6608bceb3f,657bb4911ad37ab31fbce947,0.0364,0.0364,1,2,164,124,1,sevenfive,,,,,,,,,,,,,,,,,,,,,,,,,,,,,,,,,,,,,,,,,,,,,,,,,,,,,,,,,,,,,,,,,,,,,,,,,,,,,,,,,,,,,,,,,,,,,,,,,,,,,,,,,,,,,,,,,,,,,,,,,,,,,,,,,,,,,,,
,,5fca888982a09a6a47620777,2023-12-14_19h06.44.230,kallum_motion_pilot,2023.2.3,Win32,15.01501502,5fca888982a09a6a47620777,657bb317c8798c6608bceb3f,657bb4911ad37ab31fbce947,0.0365,0.0366,1,3,165,70,1,fourtwo,,,,,,,,,,,,,,,,,,,,,,,,,,,,,,,,,,,,,,,,,,,,,,,,,,,,,,,,,,,,,,,,,,,,,,,,,,,,,,,,,,,,,,,,,,,,,,,,,,,,,,,,,,,,,,,,,,,,,,,,,,,,,,,,,,,,,,,
,,5fca888982a09a6a47620777,2023-12-14_19h06.44.230,kallum_motion_pilot,2023.2.3,Win32,15.01501502,5fca888982a09a6a47620777,657bb317c8798c6608bceb3f,657bb4911ad37ab31fbce947,0.0366,0.0366,1,4,166,42,1,twoone,,,,,,,,,,,,,,,,,,,,,,,,,,,,,,,,,,,,,,,,,,,,,,,,,,,,,,,,,,,,,,,,,,,,,,,,,,,,,,,,,,,,,,,,,,,,,,,,,,,,,,,,,,,,,,,,,,,,,,,,,,,,,,,,,,,,,,,
,,5fca888982a09a6a47620777,2023-12-14_19h06.44.230,kallum_motion_pilot,2023.2.3,Win32,15.01501502,5fca888982a09a6a47620777,657bb317c8798c6608bceb3f,657bb4911ad37ab31fbce947,0.0367,0.0368,1,5,167,155,1,sixeight,,,,,,,,,,,,,,,,,,,,,,,,,,,,,,,,,,,,,,,,,,,,,,,,,,,,,,,,,,,,,,,,,,,,,,,,,,,,,,,,,,,,,,,,,,,,,,,,,,,,,,,,,,,,,,,,,,,,,,,,,,,,,,,,,,,,,,,
,,5fca888982a09a6a47620777,2023-12-14_19h06.44.230,kallum_motion_pilot,2023.2.3,Win32,15.01501502,5fca888982a09a6a47620777,657bb317c8798c6608bceb3f,657bb4911ad37ab31fbce947,0.037,0.0371,1,6,168,66,1,twoone,,,,,,,,,,,,,,,,,,,,,,,,,,,,,,,,,,,,,,,,,,,,,,,,,,,,,,,,,,,,,,,,,,,,,,,,,,,,,,,,,,,,,,,,,,,,,,,,,,,,,,,,,,,,,,,,,,,,,,,,,,,,,,,,,,,,,,,
,,5fca888982a09a6a47620777,2023-12-14_19h06.44.230,kallum_motion_pilot,2023.2.3,Win32,15.01501502,5fca888982a09a6a47620777,657bb317c8798c6608bceb3f,657bb4911ad37ab31fbce947,0.0372,0.0372,1,7,169,58,1,twoone,,,,,,,,,,,,,,,,,,,,,,,,,,,,,,,,,,,,,,,,,,,,,,,,,,,,,,,,,,,,,,,,,,,,,,,,,,,,,,,,,,,,,,,,,,,,,,,,,,,,,,,,,,,,,,,,,,,,,,,,,,,,,,,,,,,,,,,
,,5fca888982a09a6a47620777,2023-12-14_19h06.44.230,kallum_motion_pilot,2023.2.3,Win32,15.01501502,5fca888982a09a6a47620777,657bb317c8798c6608bceb3f,657bb4911ad37ab31fbce947,0.0373,0.0373,1,8,170,154,1,sixfive,,,,,,,,,,,,,,,,,,,,,,,,,,,,,,,,,,,,,,,,,,,,,,,,,,,,,,,,,,,,,,,,,,,,,,,,,,,,,,,,,,,,,,,,,,,,,,,,,,,,,,,,,,,,,,,,,,,,,,,,,,,,,,,,,,,,,,,
,,5fca888982a09a6a47620777,2023-12-14_19h06.44.230,kallum_motion_pilot,2023.2.3,Win32,15.01501502,5fca888982a09a6a47620777,657bb317c8798c6608bceb3f,657bb4911ad37ab31fbce947,0.0374,0.0374,1,9,171,157,1,seveneight,,,,,,,,,,,,,,,,,,,,,,,,,,,,,,,,,,,,,,,,,,,,,,,,,,,,,,,,,,,,,,,,,,,,,,,,,,,,,,,,,,,,,,,,,,,,,,,,,,,,,,,,,,,,,,,,,,,,,,,,,,,,,,,,,,,,,,,
,,5fca888982a09a6a47620777,2023-12-14_19h06.44.230,kallum_motion_pilot,2023.2.3,Win32,15.01501502,5fca888982a09a6a47620777,657bb317c8798c6608bceb3f,657bb4911ad37ab31fbce947,0.0375,0.0375,1,10,172,92,1,sevenfive,,,,,,,,,,,,,,,,,,,,,,,,,,,,,,,,,,,,,,,,,,,,,,,,,,,,,,,,,,,,,,,,,,,,,,,,,,,,,,,,,,,,,,,,,,,,,,,,,,,,,,,,,,,,,,,,,,,,,,,,,,,,,,,,,,,,,,,
,,5fca888982a09a6a47620777,2023-12-14_19h06.44.230,kallum_motion_pilot,2023.2.3,Win32,15.01501502,5fca888982a09a6a47620777,657bb317c8798c6608bceb3f,657bb4911ad37ab31fbce947,0.0376,0.0377,1,11,173,32,1,onetwo,,,,,,,,,,,,,,,,,,,,,,,,,,,,,,,,,,,,,,,,,,,,,,,,,,,,,,,,,,,,,,,,,,,,,,,,,,,,,,,,,,,,,,,,,,,,,,,,,,,,,,,,,,,,,,,,,,,,,,,,,,,,,,,,,,,,,,,
,,5fca888982a09a6a47620777,2023-12-14_19h06.44.230,kallum_motion_pilot,2023.2.3,Win32,15.01501502,5fca888982a09a6a47620777,657bb317c8798c6608bceb3f,657bb4911ad37ab31fbce947,0.0377,0.0378,1,12,174,12,1,threeone,,,,,,,,,,,,,,,,,,,,,,,,,,,,,,,,,,,,,,,,,,,,,,,,,,,,,,,,,,,,,,,,,,,,,,,,,,,,,,,,,,,,,,,,,,,,,,,,,,,,,,,,,,,,,,,,,,,,,,,,,,,,,,,,,,,,,,,
,,5fca888982a09a6a47620777,2023-12-14_19h06.44.230,kallum_motion_pilot,2023.2.3,Win32,15.01501502,5fca888982a09a6a47620777,657bb317c8798c6608bceb3f,657bb4911ad37ab31fbce947,0.0379,0.0379,1,13,175,49,1,onethree,,,,,,,,,,,,,,,,,,,,,,,,,,,,,,,,,,,,,,,,,,,,,,,,,,,,,,,,,,,,,,,,,,,,,,,,,,,,,,,,,,,,,,,,,,,,,,,,,,,,,,,,,,,,,,,,,,,,,,,,,,,,,,,,,,,,,,,
,,5fca888982a09a6a47620777,2023-12-14_19h06.44.230,kallum_motion_pilot,2023.2.3,Win32,15.01501502,5fca888982a09a6a47620777,657bb317c8798c6608bceb3f,657bb4911ad37ab31fbce947,0.0379,0.038,1,14,176,53,1,threefour,,,,,,,,,,,,,,,,,,,,,,,,,,,,,,,,,,,,,,,,,,,,,,,,,,,,,,,,,,,,,,,,,,,,,,,,,,,,,,,,,,,,,,,,,,,,,,,,,,,,,,,,,,,,,,,,,,,,,,,,,,,,,,,,,,,,,,,
,,5fca888982a09a6a47620777,2023-12-14_19h06.44.230,kallum_motion_pilot,2023.2.3,Win32,15.01501502,5fca888982a09a6a47620777,657bb317c8798c6608bceb3f,657bb4911ad37ab31fbce947,0.0381,0.0381,1,15,177,18,1,twoone,,,,,,,,,,,,,,,,,,,,,,,,,,,,,,,,,,,,,,,,,,,,,,,,,,,,,,,,,,,,,,,,,,,,,,,,,,,,,,,,,,,,,,,,,,,,,,,,,,,,,,,,,,,,,,,,,,,,,,,,,,,,,,,,,,,,,,,
,,5fca888982a09a6a47620777,2023-12-14_19h06.44.230,kallum_motion_pilot,2023.2.3,Win32,15.01501502,5fca888982a09a6a47620777,657bb317c8798c6608bceb3f,657bb4911ad37ab31fbce947,0.0382,0.0382,1,16,178,62,1,fourtwo,,,,,,,,,,,,,,,,,,,,,,,,,,,,,,,,,,,,,,,,,,,,,,,,,,,,,,,,,,,,,,,,,,,,,,,,,,,,,,,,,,,,,,,,,,,,,,,,,,,,,,,,,,,,,,,,,,,,,,,,,,,,,,,,,,,,,,,
,,5fca888982a09a6a47620777,2023-12-14_19h06.44.230,kallum_motion_pilot,2023.2.3,Win32,15.01501502,5fca888982a09a6a47620777,657bb317c8798c6608bceb3f,657bb4911ad37ab31fbce947,0.0383,0.0384,1,17,179,4,1,threeone,,,,,,,,,,,,,,,,,,,,,,,,,,,,,,,,,,,,,,,,,,,,,,,,,,,,,,,,,,,,,,,,,,,,,,,,,,,,,,,,,,,,,,,,,,,,,,,,,,,,,,,,,,,,,,,,,,,,,,,,,,,,,,,,,,,,,,,
,,5fca888982a09a6a47620777,2023-12-14_19h06.44.230,kallum_motion_pilot,2023.2.3,Win32,15.01501502,5fca888982a09a6a47620777,657bb317c8798c6608bceb3f,657bb4911ad37ab31fbce947,0.0384,0.0385,1,18,180,37,1,threefour,,,,,,,,,,,,,,,,,,,,,,,,,,,,,,,,,,,,,,,,,,,,,,,,,,,,,,,,,,,,,,,,,,,,,,,,,,,,,,,,,,,,,,,,,,,,,,,,,,,,,,,,,,,,,,,,,,,,,,,,,,,,,,,,,,,,,,,
,,5fca888982a09a6a47620777,2023-12-14_19h06.44.230,kallum_motion_pilot,2023.2.3,Win32,15.01501502,5fca888982a09a6a47620777,657bb317c8798c6608bceb3f,657bb4911ad37ab31fbce947,0.0385,0.0385,1,19,181,27,1,twofour,,,,,,,,,,,,,,,,,,,,,,,,,,,,,,,,,,,,,,,,,,,,,,,,,,,,,,,,,,,,,,,,,,,,,,,,,,,,,,,,,,,,,,,,,,,,,,,,,,,,,,,,,,,,,,,,,,,,,,,,,,,,,,,,,,,,,,,
,,5fca888982a09a6a47620777,2023-12-14_19h06.44.230,kallum_motion_pilot,2023.2.3,Win32,15.01501502,5fca888982a09a6a47620777,657bb317c8798c6608bceb3f,657bb4911ad37ab31fbce947,0.0386,0.0386,1,20,182,25,1,onethree,,,,,,,,,,,,,,,,,,,,,,,,,,,,,,,,,,,,,,,,,,,,,,,,,,,,,,,,,,,,,,,,,,,,,,,,,,,,,,,,,,,,,,,,,,,,,,,,,,,,,,,,,,,,,,,,,,,,,,,,,,,,,,,,,,,,,,,
,,5fca888982a09a6a47620777,2023-12-14_19h06.44.230,kallum_motion_pilot,2023.2.3,Win32,15.01501502,5fca888982a09a6a47620777,657bb317c8798c6608bceb3f,657bb4911ad37ab31fbce947,0.0387,0.0387,1,21,183,55,1,fourthree,,,,,,,,,,,,,,,,,,,,,,,,,,,,,,,,,,,,,,,,,,,,,,,,,,,,,,,,,,,,,,,,,,,,,,,,,,,,,,,,,,,,,,,,,,,,,,,,,,,,,,,,,,,,,,,,,,,,,,,,,,,,,,,,,,,,,,,
,,5fca888982a09a6a47620777,2023-12-14_19h06.44.230,kallum_motion_pilot,2023.2.3,Win32,15.01501502,5fca888982a09a6a47620777,657bb317c8798c6608bceb3f,657bb4911ad37ab31fbce947,0.0389,0.0389,1,22,184,52,1,threeone,,,,,,,,,,,,,,,,,,,,,,,,,,,,,,,,,,,,,,,,,,,,,,,,,,,,,,,,,,,,,,,,,,,,,,,,,,,,,,,,,,,,,,,,,,,,,,,,,,,,,,,,,,,,,,,,,,,,,,,,,,,,,,,,,,,,,,,
,,5fca888982a09a6a47620777,2023-12-14_19h06.44.230,kallum_motion_pilot,2023.2.3,Win32,15.01501502,5fca888982a09a6a47620777,657bb317c8798c6608bceb3f,657bb4911ad37ab31fbce947,0.039,0.039,1,23,185,105,1,fiveseven,,,,,,,,,,,,,,,,,,,,,,,,,,,,,,,,,,,,,,,,,,,,,,,,,,,,,,,,,,,,,,,,,,,,,,,,,,,,,,,,,,,,,,,,,,,,,,,,,,,,,,,,,,,,,,,,,,,,,,,,,,,,,,,,,,,,,,,
,,5fca888982a09a6a47620777,2023-12-14_19h06.44.230,kallum_motion_pilot,2023.2.3,Win32,15.01501502,5fca888982a09a6a47620777,657bb317c8798c6608bceb3f,657bb4911ad37ab31fbce947,0.039,0.0391,1,24,186,38,1,fourtwo,,,,,,,,,,,,,,,,,,,,,,,,,,,,,,,,,,,,,,,,,,,,,,,,,,,,,,,,,,,,,,,,,,,,,,,,,,,,,,,,,,,,,,,,,,,,,,,,,,,,,,,,,,,,,,,,,,,,,,,,,,,,,,,,,,,,,,,
,,5fca888982a09a6a47620777,2023-12-14_19h06.44.230,kallum_motion_pilot,2023.2.3,Win32,15.01501502,5fca888982a09a6a47620777,657bb317c8798c6608bceb3f,657bb4911ad37ab31fbce947,0.0392,0.0393,1,25,187,118,1,eightsix,,,,,,,,,,,,,,,,,,,,,,,,,,,,,,,,,,,,,,,,,,,,,,,,,,,,,,,,,,,,,,,,,,,,,,,,,,,,,,,,,,,,,,,,,,,,,,,,,,,,,,,,,,,,,,,,,,,,,,,,,,,,,,,,,,,,,,,
,,5fca888982a09a6a47620777,2023-12-14_19h06.44.230,kallum_motion_pilot,2023.2.3,Win32,15.01501502,5fca888982a09a6a47620777,657bb317c8798c6608bceb3f,657bb4911ad37ab31fbce947,0.0393,0.0394,1,26,188,95,1,eightseven,,,,,,,,,,,,,,,,,,,,,,,,,,,,,,,,,,,,,,,,,,,,,,,,,,,,,,,,,,,,,,,,,,,,,,,,,,,,,,,,,,,,,,,,,,,,,,,,,,,,,,,,,,,,,,,,,,,,,,,,,,,,,,,,,,,,,,,
,,5fca888982a09a6a47620777,2023-12-14_19h06.44.230,kallum_motion_pilot,2023.2.3,Win32,15.01501502,5fca888982a09a6a47620777,657bb317c8798c6608bceb3f,657bb4911ad37ab31fbce947,0.0394,0.0394,1,27,189,59,1,twofour,,,,,,,,,,,,,,,,,,,,,,,,,,,,,,,,,,,,,,,,,,,,,,,,,,,,,,,,,,,,,,,,,,,,,,,,,,,,,,,,,,,,,,,,,,,,,,,,,,,,,,,,,,,,,,,,,,,,,,,,,,,,,,,,,,,,,,,
,,5fca888982a09a6a47620777,2023-12-14_19h06.44.230,kallum_motion_pilot,2023.2.3,Win32,15.01501502,5fca888982a09a6a47620777,657bb317c8798c6608bceb3f,657bb4911ad37ab31fbce947,0.0395,0.0396,1,28,190,156,1,sevenfive,,,,,,,,,,,,,,,,,,,,,,,,,,,,,,,,,,,,,,,,,,,,,,,,,,,,,,,,,,,,,,,,,,,,,,,,,,,,,,,,,,,,,,,,,,,,,,,,,,,,,,,,,,,,,,,,,,,,,,,,,,,,,,,,,,,,,,,
,,5fca888982a09a6a47620777,2023-12-14_19h06.44.230,kallum_motion_pilot,2023.2.3,Win32,15.01501502,5fca888982a09a6a47620777,657bb317c8798c6608bceb3f,657bb4911ad37ab31fbce947,0.0396,0.0397,1,29,191,84,1,sevenfive,,,,,,,,,,,,,,,,,,,,,,,,,,,,,,,,,,,,,,,,,,,,,,,,,,,,,,,,,,,,,,,,,,,,,,,,,,,,,,,,,,,,,,,,,,,,,,,,,,,,,,,,,,,,,,,,,,,,,,,,,,,,,,,,,,,,,,,
,,5fca888982a09a6a47620777,2023-12-14_19h06.44.230,kallum_motion_pilot,2023.2.3,Win32,15.01501502,5fca888982a09a6a47620777,657bb317c8798c6608bceb3f,657bb4911ad37ab31fbce947,0.0397,0.0398,1,30,192,73,1,onethree,,,,,,,,,,,,,,,,,,,,,,,,,,,,,,,,,,,,,,,,,,,,,,,,,,,,,,,,,,,,,,,,,,,,,,,,,,,,,,,,,,,,,,,,,,,,,,,,,,,,,,,,,,,,,,,,,,,,,,,,,,,,,,,,,,,,,,,
,,5fca888982a09a6a47620777,2023-12-14_19h06.44.230,kallum_motion_pilot,2023.2.3,Win32,15.01501502,5fca888982a09a6a47620777,657bb317c8798c6608bceb3f,657bb4911ad37ab31fbce947,0.0399,0.0399,1,31,193,153,1,fiveseven,,,,,,,,,,,,,,,,,,,,,,,,,,,,,,,,,,,,,,,,,,,,,,,,,,,,,,,,,,,,,,,,,,,,,,,,,,,,,,,,,,,,,,,,,,,,,,,,,,,,,,,,,,,,,,,,,,,,,,,,,,,,,,,,,,,,,,,
,,5fca888982a09a6a47620777,2023-12-14_19h06.44.230,kallum_motion_pilot,2023.2.3,Win32,15.01501502,5fca888982a09a6a47620777,657bb317c8798c6608bceb3f,657bb4911ad37ab31fbce947,0.0399,0.04,1,32,194,151,1,eightseven,,,,,,,,,,,,,,,,,,,,,,,,,,,,,,,,,,,,,,,,,,,,,,,,,,,,,,,,,,,,,,,,,,,,,,,,,,,,,,,,,,,,,,,,,,,,,,,,,,,,,,,,,,,,,,,,,,,,,,,,,,,,,,,,,,,,,,,
,,5fca888982a09a6a47620777,2023-12-14_19h06.44.230,kallum_motion_pilot,2023.2.3,Win32,15.01501502,5fca888982a09a6a47620777,657bb317c8798c6608bceb3f,657bb4911ad37ab31fbce947,0.04,0.0401,1,33,195,121,1,fiveseven,,,,,,,,,,,,,,,,,,,,,,,,,,,,,,,,,,,,,,,,,,,,,,,,,,,,,,,,,,,,,,,,,,,,,,,,,,,,,,,,,,,,,,,,,,,,,,,,,,,,,,,,,,,,,,,,,,,,,,,,,,,,,,,,,,,,,,,
,,5fca888982a09a6a47620777,2023-12-14_19h06.44.230,kallum_motion_pilot,2023.2.3,Win32,15.01501502,5fca888982a09a6a47620777,657bb317c8798c6608bceb3f,657bb4911ad37ab31fbce947,0.0401,0.0402,1,34,196,113,1,fiveseven,,,,,,,,,,,,,,,,,,,,,,,,,,,,,,,,,,,,,,,,,,,,,,,,,,,,,,,,,,,,,,,,,,,,,,,,,,,,,,,,,,,,,,,,,,,,,,,,,,,,,,,,,,,,,,,,,,,,,,,,,,,,,,,,,,,,,,,
,,5fca888982a09a6a47620777,2023-12-14_19h06.44.230,kallum_motion_pilot,2023.2.3,Win32,15.01501502,5fca888982a09a6a47620777,657bb317c8798c6608bceb3f,657bb4911ad37ab31fbce947,0.0402,0.0403,1,35,197,36,1,threeone,,,,,,,,,,,,,,,,,,,,,,,,,,,,,,,,,,,,,,,,,,,,,,,,,,,,,,,,,,,,,,,,,,,,,,,,,,,,,,,,,,,,,,,,,,,,,,,,,,,,,,,,,,,,,,,,,,,,,,,,,,,,,,,,,,,,,,,
,,5fca888982a09a6a47620777,2023-12-14_19h06.44.230,kallum_motion_pilot,2023.2.3,Win32,15.01501502,5fca888982a09a6a47620777,657bb317c8798c6608bceb3f,657bb4911ad37ab31fbce947,0.0403,0.0404,1,36,198,50,1,twoone,,,,,,,,,,,,,,,,,,,,,,,,,,,,,,,,,,,,,,,,,,,,,,,,,,,,,,,,,,,,,,,,,,,,,,,,,,,,,,,,,,,,,,,,,,,,,,,,,,,,,,,,,,,,,,,,,,,,,,,,,,,,,,,,,,,,,,,
,,5fca888982a09a6a47620777,2023-12-14_19h06.44.230,kallum_motion_pilot,2023.2.3,Win32,15.01501502,5fca888982a09a6a47620777,657bb317c8798c6608bceb3f,657bb4911ad37ab31fbce947,0.0404,0.0406,1,37,199,83,1,sixeight,,,,,,,,,,,,,,,,,,,,,,,,,,,,,,,,,,,,,,,,,,,,,,,,,,,,,,,,,,,,,,,,,,,,,,,,,,,,,,,,,,,,,,,,,,,,,,,,,,,,,,,,,,,,,,,,,,,,,,,,,,,,,,,,,,,,,,,
,,5fca888982a09a6a47620777,2023-12-14_19h06.44.230,kallum_motion_pilot,2023.2.3,Win32,15.01501502,5fca888982a09a6a47620777,657bb317c8798c6608bceb3f,657bb4911ad37ab31fbce947,0.0406,0.0406,1,38,200,99,1,sixeight,,,,,,,,,,,,,,,,,,,,,,,,,,,,,,,,,,,,,,,,,,,,,,,,,,,,,,,,,,,,,,,,,,,,,,,,,,,,,,,,,,,,,,,,,,,,,,,,,,,,,,,,,,,,,,,,,,,,,,,,,,,,,,,,,,,,,,,
,,5fca888982a09a6a47620777,2023-12-14_19h06.44.230,kallum_motion_pilot,2023.2.3,Win32,15.01501502,5fca888982a09a6a47620777,657bb317c8798c6608bceb3f,657bb4911ad37ab31fbce947,0.0407,0.0408,1,39,201,54,1,fourtwo,,,,,,,,,,,,,,,,,,,,,,,,,,,,,,,,,,,,,,,,,,,,,,,,,,,,,,,,,,,,,,,,,,,,,,,,,,,,,,,,,,,,,,,,,,,,,,,,,,,,,,,,,,,,,,,,,,,,,,,,,,,,,,,,,,,,,,,
,,5fca888982a09a6a47620777,2023-12-14_19h06.44.230,kallum_motion_pilot,2023.2.3,Win32,15.01501502,5fca888982a09a6a47620777,657bb317c8798c6608bceb3f,657bb4911ad37ab31fbce947,0.0408,0.0408,1,40,202,101,1,seveneight,,,,,,,,,,,,,,,,,,,,,,,,,,,,,,,,,,,,,,,,,,,,,,,,,,,,,,,,,,,,,,,,,,,,,,,,,,,,,,,,,,,,,,,,,,,,,,,,,,,,,,,,,,,,,,,,,,,,,,,,,,,,,,,,,,,,,,,
,,5fca888982a09a6a47620777,2023-12-14_19h06.44.230,kallum_motion_pilot,2023.2.3,Win32,15.01501502,5fca888982a09a6a47620777,657bb317c8798c6608bceb3f,657bb4911ad37ab31fbce947,0.0409,0.041,1,41,203,74,1,twoone,,,,,,,,,,,,,,,,,,,,,,,,,,,,,,,,,,,,,,,,,,,,,,,,,,,,,,,,,,,,,,,,,,,,,,,,,,,,,,,,,,,,,,,,,,,,,,,,,,,,,,,,,,,,,,,,,,,,,,,,,,,,,,,,,,,,,,,
,,5fca888982a09a6a47620777,2023-12-14_19h06.44.230,kallum_motion_pilot,2023.2.3,Win32,15.01501502,5fca888982a09a6a47620777,657bb317c8798c6608bceb3f,657bb4911ad37ab31fbce947,0.0411,0.0411,1,42,204,81,1,fiveseven,,,,,,,,,,,,,,,,,,,,,,,,,,,,,,,,,,,,,,,,,,,,,,,,,,,,,,,,,,,,,,,,,,,,,,,,,,,,,,,,,,,,,,,,,,,,,,,,,,,,,,,,,,,,,,,,,,,,,,,,,,,,,,,,,,,,,,,
,,5fca888982a09a6a47620777,2023-12-14_19h06.44.230,kallum_motion_pilot,2023.2.3,Win32,15.01501502,5fca888982a09a6a47620777,657bb317c8798c6608bceb3f,657bb4911ad37ab31fbce947,0.0411,0.0412,1,43,205,80,1,fivesix,,,,,,,,,,,,,,,,,,,,,,,,,,,,,,,,,,,,,,,,,,,,,,,,,,,,,,,,,,,,,,,,,,,,,,,,,,,,,,,,,,,,,,,,,,,,,,,,,,,,,,,,,,,,,,,,,,,,,,,,,,,,,,,,,,,,,,,
,,5fca888982a09a6a47620777,2023-12-14_19h06.44.230,kallum_motion_pilot,2023.2.3,Win32,15.01501502,5fca888982a09a6a47620777,657bb317c8798c6608bceb3f,657bb4911ad37ab31fbce947,0.0413,0.0413,1,44,206,145,1,fiveseven,,,,,,,,,,,,,,,,,,,,,,,,,,,,,,,,,,,,,,,,,,,,,,,,,,,,,,,,,,,,,,,,,,,,,,,,,,,,,,,,,,,,,,,,,,,,,,,,,,,,,,,,,,,,,,,,,,,,,,,,,,,,,,,,,,,,,,,
,,5fca888982a09a6a47620777,2023-12-14_19h06.44.230,kallum_motion_pilot,2023.2.3,Win32,15.01501502,5fca888982a09a6a47620777,657bb317c8798c6608bceb3f,657bb4911ad37ab31fbce947,0.0413,0.0414,1,45,207,13,1,threefour,,,,,,,,,,,,,,,,,,,,,,,,,,,,,,,,,,,,,,,,,,,,,,,,,,,,,,,,,,,,,,,,,,,,,,,,,,,,,,,,,,,,,,,,,,,,,,,,,,,,,,,,,,,,,,,,,,,,,,,,,,,,,,,,,,,,,,,
,,5fca888982a09a6a47620777,2023-12-14_19h06.44.230,kallum_motion_pilot,2023.2.3,Win32,15.01501502,5fca888982a09a6a47620777,657bb317c8798c6608bceb3f,657bb4911ad37ab31fbce947,0.0415,0.0415,1,46,208,88,1,fivesix,,,,,,,,,,,,,,,,,,,,,,,,,,,,,,,,,,,,,,,,,,,,,,,,,,,,,,,,,,,,,,,,,,,,,,,,,,,,,,,,,,,,,,,,,,,,,,,,,,,,,,,,,,,,,,,,,,,,,,,,,,,,,,,,,,,,,,,
,,5fca888982a09a6a47620777,2023-12-14_19h06.44.230,kallum_motion_pilot,2023.2.3,Win32,15.01501502,5fca888982a09a6a47620777,657bb317c8798c6608bceb3f,657bb4911ad37ab31fbce947,0.0416,0.0417,1,47,209,48,1,onetwo,,,,,,,,,,,,,,,,,,,,,,,,,,,,,,,,,,,,,,,,,,,,,,,,,,,,,,,,,,,,,,,,,,,,,,,,,,,,,,,,,,,,,,,,,,,,,,,,,,,,,,,,,,,,,,,,,,,,,,,,,,,,,,,,,,,,,,,
,,5fca888982a09a6a47620777,2023-12-14_19h06.44.230,kallum_motion_pilot,2023.2.3,Win32,15.01501502,5fca888982a09a6a47620777,657bb317c8798c6608bceb3f,657bb4911ad37ab31fbce947,0.0417,0.0417,1,48,210,64,1,onetwo,,,,,,,,,,,,,,,,,,,,,,,,,,,,,,,,,,,,,,,,,,,,,,,,,,,,,,,,,,,,,,,,,,,,,,,,,,,,,,,,,,,,,,,,,,,,,,,,,,,,,,,,,,,,,,,,,,,,,,,,,,,,,,,,,,,,,,,
,,5fca888982a09a6a47620777,2023-12-14_19h06.44.230,kallum_motion_pilot,2023.2.3,Win32,15.01501502,5fca888982a09a6a47620777,657bb317c8798c6608bceb3f,657bb4911ad37ab31fbce947,0.0418,0.0418,1,49,211,102,1,eightsix,,,,,,,,,,,,,,,,,,,,,,,,,,,,,,,,,,,,,,,,,,,,,,,,,,,,,,,,,,,,,,,,,,,,,,,,,,,,,,,,,,,,,,,,,,,,,,,,,,,,,,,,,,,,,,,,,,,,,,,,,,,,,,,,,,,,,,,
,,5fca888982a09a6a47620777,2023-12-14_19h06.44.230,kallum_motion_pilot,2023.2.3,Win32,15.01501502,5fca888982a09a6a47620777,657bb317c8798c6608bceb3f,657bb4911ad37ab31fbce947,0.0419,0.042,1,50,212,90,1,sixfive,,,,,,,,,,,,,,,,,,,,,,,,,,,,,,,,,,,,,,,,,,,,,,,,,,,,,,,,,,,,,,,,,,,,,,,,,,,,,,,,,,,,,,,,,,,,,,,,,,,,,,,,,,,,,,,,,,,,,,,,,,,,,,,,,,,,,,,
,,5fca888982a09a6a47620777,2023-12-14_19h06.44.230,kallum_motion_pilot,2023.2.3,Win32,15.01501502,5fca888982a09a6a47620777,657bb317c8798c6608bceb3f,657bb4911ad37ab31fbce947,0.0421,0.0421,1,51,213,91,1,sixeight,,,,,,,,,,,,,,,,,,,,,,,,,,,,,,,,,,,,,,,,,,,,,,,,,,,,,,,,,,,,,,,,,,,,,,,,,,,,,,,,,,,,,,,,,,,,,,,,,,,,,,,,,,,,,,,,,,,,,,,,,,,,,,,,,,,,,,,
,,5fca888982a09a6a47620777,2023-12-14_19h06.44.230,kallum_motion_pilot,2023.2.3,Win32,15.01501502,5fca888982a09a6a47620777,657bb317c8798c6608bceb3f,657bb4911ad37ab31fbce947,0.0422,0.0422,1,52,214,23,1,fourthree,,,,,,,,,,,,,,,,,,,,,,,,,,,,,,,,,,,,,,,,,,,,,,,,,,,,,,,,,,,,,,,,,,,,,,,,,,,,,,,,,,,,,,,,,,,,,,,,,,,,,,,,,,,,,,,,,,,,,,,,,,,,,,,,,,,,,,,
,,5fca888982a09a6a47620777,2023-12-14_19h06.44.230,kallum_motion_pilot,2023.2.3,Win32,15.01501502,5fca888982a09a6a47620777,657bb317c8798c6608bceb3f,657bb4911ad37ab31fbce947,0.0423,0.0424,1,53,215,98,1,sixfive,,,,,,,,,,,,,,,,,,,,,,,,,,,,,,,,,,,,,,,,,,,,,,,,,,,,,,,,,,,,,,,,,,,,,,,,,,,,,,,,,,,,,,,,,,,,,,,,,,,,,,,,,,,,,,,,,,,,,,,,,,,,,,,,,,,,,,,
,,5fca888982a09a6a47620777,2023-12-14_19h06.44.230,kallum_motion_pilot,2023.2.3,Win32,15.01501502,5fca888982a09a6a47620777,657bb317c8798c6608bceb3f,657bb4911ad37ab31fbce947,0.0424,0.0425,1,54,216,5,1,threefour,,,,,,,,,,,,,,,,,,,,,,,,,,,,,,,,,,,,,,,,,,,,,,,,,,,,,,,,,,,,,,,,,,,,,,,,,,,,,,,,,,,,,,,,,,,,,,,,,,,,,,,,,,,,,,,,,,,,,,,,,,,,,,,,,,,,,,,
,,5fca888982a09a6a47620777,2023-12-14_19h06.44.230,kallum_motion_pilot,2023.2.3,Win32,15.01501502,5fca888982a09a6a47620777,657bb317c8798c6608bceb3f,657bb4911ad37ab31fbce947,0.0425,0.0426,1,55,217,149,1,seveneight,,,,,,,,,,,,,,,,,,,,,,,,,,,,,,,,,,,,,,,,,,,,,,,,,,,,,,,,,,,,,,,,,,,,,,,,,,,,,,,,,,,,,,,,,,,,,,,,,,,,,,,,,,,,,,,,,,,,,,,,,,,,,,,,,,,,,,,
,,5fca888982a09a6a47620777,2023-12-14_19h06.44.230,kallum_motion_pilot,2023.2.3,Win32,15.01501502,5fca888982a09a6a47620777,657bb317c8798c6608bceb3f,657bb4911ad37ab31fbce947,0.0426,0.0427,1,56,218,131,1,sixeight,,,,,,,,,,,,,,,,,,,,,,,,,,,,,,,,,,,,,,,,,,,,,,,,,,,,,,,,,,,,,,,,,,,,,,,,,,,,,,,,,,,,,,,,,,,,,,,,,,,,,,,,,,,,,,,,,,,,,,,,,,,,,,,,,,,,,,,
,,5fca888982a09a6a47620777,2023-12-14_19h06.44.230,kallum_motion_pilot,2023.2.3,Win32,15.01501502,5fca888982a09a6a47620777,657bb317c8798c6608bceb3f,657bb4911ad37ab31fbce947,0.0427,0.0428,1,57,219,11,1,twofour,,,,,,,,,,,,,,,,,,,,,,,,,,,,,,,,,,,,,,,,,,,,,,,,,,,,,,,,,,,,,,,,,,,,,,,,,,,,,,,,,,,,,,,,,,,,,,,,,,,,,,,,,,,,,,,,,,,,,,,,,,,,,,,,,,,,,,,
,,5fca888982a09a6a47620777,2023-12-14_19h06.44.230,kallum_motion_pilot,2023.2.3,Win32,15.01501502,5fca888982a09a6a47620777,657bb317c8798c6608bceb3f,657bb4911ad37ab31fbce947,0.0429,0.043,1,58,220,119,1,eightseven,,,,,,,,,,,,,,,,,,,,,,,,,,,,,,,,,,,,,,,,,,,,,,,,,,,,,,,,,,,,,,,,,,,,,,,,,,,,,,,,,,,,,,,,,,,,,,,,,,,,,,,,,,,,,,,,,,,,,,,,,,,,,,,,,,,,,,,
,,5fca888982a09a6a47620777,2023-12-14_19h06.44.230,kallum_motion_pilot,2023.2.3,Win32,15.01501502,5fca888982a09a6a47620777,657bb317c8798c6608bceb3f,657bb4911ad37ab31fbce947,0.0431,0.0431,1,59,221,158,1,eightsix,,,,,,,,,,,,,,,,,,,,,,,,,,,,,,,,,,,,,,,,,,,,,,,,,,,,,,,,,,,,,,,,,,,,,,,,,,,,,,,,,,,,,,,,,,,,,,,,,,,,,,,,,,,,,,,,,,,,,,,,,,,,,,,,,,,,,,,
,,5fca888982a09a6a47620777,2023-12-14_19h06.44.230,kallum_motion_pilot,2023.2.3,Win32,15.01501502,5fca888982a09a6a47620777,657bb317c8798c6608bceb3f,657bb4911ad37ab31fbce947,0.0432,0.0433,1,60,222,111,1,eightseven,,,,,,,,,,,,,,,,,,,,,,,,,,,,,,,,,,,,,,,,,,,,,,,,,,,,,,,,,,,,,,,,,,,,,,,,,,,,,,,,,,,,,,,,,,,,,,,,,,,,,,,,,,,,,,,,,,,,,,,,,,,,,,,,,,,,,,,
,,5fca888982a09a6a47620777,2023-12-14_19h06.44.230,kallum_motion_pilot,2023.2.3,Win32,15.01501502,5fca888982a09a6a47620777,657bb317c8798c6608bceb3f,657bb4911ad37ab31fbce947,0.0434,0.0434,1,61,223,126,1,eightsix,,,,,,,,,,,,,,,,,,,,,,,,,,,,,,,,,,,,,,,,,,,,,,,,,,,,,,,,,,,,,,,,,,,,,,,,,,,,,,,,,,,,,,,,,,,,,,,,,,,,,,,,,,,,,,,,,,,,,,,,,,,,,,,,,,,,,,,
,,5fca888982a09a6a47620777,2023-12-14_19h06.44.230,kallum_motion_pilot,2023.2.3,Win32,15.01501502,5fca888982a09a6a47620777,657bb317c8798c6608bceb3f,657bb4911ad37ab31fbce947,0.0434,0.0436,1,62,224,72,1,onetwo,,,,,,,,,,,,,,,,,,,,,,,,,,,,,,,,,,,,,,,,,,,,,,,,,,,,,,,,,,,,,,,,,,,,,,,,,,,,,,,,,,,,,,,,,,,,,,,,,,,,,,,,,,,,,,,,,,,,,,,,,,,,,,,,,,,,,,,
,,5fca888982a09a6a47620777,2023-12-14_19h06.44.230,kallum_motion_pilot,2023.2.3,Win32,15.01501502,5fca888982a09a6a47620777,657bb317c8798c6608bceb3f,657bb4911ad37ab31fbce947,0.0436,0.0438,1,63,225,79,1,eightseven,,,,,,,,,,,,,,,,,,,,,,,,,,,,,,,,,,,,,,,,,,,,,,,,,,,,,,,,,,,,,,,,,,,,,,,,,,,,,,,,,,,,,,,,,,,,,,,,,,,,,,,,,,,,,,,,,,,,,,,,,,,,,,,,,,,,,,,
,,5fca888982a09a6a47620777,2023-12-14_19h06.44.230,kallum_motion_pilot,2023.2.3,Win32,15.01501502,5fca888982a09a6a47620777,657bb317c8798c6608bceb3f,657bb4911ad37ab31fbce947,0.0438,0.0439,1,64,226,16,1,onetwo,,,,,,,,,,,,,,,,,,,,,,,,,,,,,,,,,,,,,,,,,,,,,,,,,,,,,,,,,,,,,,,,,,,,,,,,,,,,,,,,,,,,,,,,,,,,,,,,,,,,,,,,,,,,,,,,,,,,,,,,,,,,,,,,,,,,,,,
,,5fca888982a09a6a47620777,2023-12-14_19h06.44.230,kallum_motion_pilot,2023.2.3,Win32,15.01501502,5fca888982a09a6a47620777,657bb317c8798c6608bceb3f,657bb4911ad37ab31fbce947,0.044,0.044,1,65,227,34,1,twoone,,,,,,,,,,,,,,,,,,,,,,,,,,,,,,,,,,,,,,,,,,,,,,,,,,,,,,,,,,,,,,,,,,,,,,,,,,,,,,,,,,,,,,,,,,,,,,,,,,,,,,,,,,,,,,,,,,,,,,,,,,,,,,,,,,,,,,,
,,5fca888982a09a6a47620777,2023-12-14_19h06.44.230,kallum_motion_pilot,2023.2.3,Win32,15.01501502,5fca888982a09a6a47620777,657bb317c8798c6608bceb3f,657bb4911ad37ab31fbce947,0.0441,0.0442,1,66,228,115,1,sixeight,,,,,,,,,,,,,,,,,,,,,,,,,,,,,,,,,,,,,,,,,,,,,,,,,,,,,,,,,,,,,,,,,,,,,,,,,,,,,,,,,,,,,,,,,,,,,,,,,,,,,,,,,,,,,,,,,,,,,,,,,,,,,,,,,,,,,,,
,,5fca888982a09a6a47620777,2023-12-14_19h06.44.230,kallum_motion_pilot,2023.2.3,Win32,15.01501502,5fca888982a09a6a47620777,657bb317c8798c6608bceb3f,657bb4911ad37ab31fbce947,0.0443,0.0443,1,67,229,127,1,eightseven,,,,,,,,,,,,,,,,,,,,,,,,,,,,,,,,,,,,,,,,,,,,,,,,,,,,,,,,,,,,,,,,,,,,,,,,,,,,,,,,,,,,,,,,,,,,,,,,,,,,,,,,,,,,,,,,,,,,,,,,,,,,,,,,,,,,,,,
,,5fca888982a09a6a47620777,2023-12-14_19h06.44.230,kallum_motion_pilot,2023.2.3,Win32,15.01501502,5fca888982a09a6a47620777,657bb317c8798c6608bceb3f,657bb4911ad37ab31fbce947,0.0443,0.0444,1,68,230,129,1,fiveseven,,,,,,,,,,,,,,,,,,,,,,,,,,,,,,,,,,,,,,,,,,,,,,,,,,,,,,,,,,,,,,,,,,,,,,,,,,,,,,,,,,,,,,,,,,,,,,,,,,,,,,,,,,,,,,,,,,,,,,,,,,,,,,,,,,,,,,,
,,5fca888982a09a6a47620777,2023-12-14_19h06.44.230,kallum_motion_pilot,2023.2.3,Win32,15.01501502,5fca888982a09a6a47620777,657bb317c8798c6608bceb3f,657bb4911ad37ab31fbce947,0.0445,0.0446,1,69,231,30,1,fourtwo,,,,,,,,,,,,,,,,,,,,,,,,,,,,,,,,,,,,,,,,,,,,,,,,,,,,,,,,,,,,,,,,,,,,,,,,,,,,,,,,,,,,,,,,,,,,,,,,,,,,,,,,,,,,,,,,,,,,,,,,,,,,,,,,,,,,,,,
,,5fca888982a09a6a47620777,2023-12-14_19h06.44.230,kallum_motion_pilot,2023.2.3,Win32,15.01501502,5fca888982a09a6a47620777,657bb317c8798c6608bceb3f,657bb4911ad37ab31fbce947,0.0447,0.0448,1,70,232,3,1,twofour,,,,,,,,,,,,,,,,,,,,,,,,,,,,,,,,,,,,,,,,,,,,,,,,,,,,,,,,,,,,,,,,,,,,,,,,,,,,,,,,,,,,,,,,,,,,,,,,,,,,,,,,,,,,,,,,,,,,,,,,,,,,,,,,,,,,,,,
,,5fca888982a09a6a47620777,2023-12-14_19h06.44.230,kallum_motion_pilot,2023.2.3,Win32,15.01501502,5fca888982a09a6a47620777,657bb317c8798c6608bceb3f,657bb4911ad37ab31fbce947,0.0448,0.0449,1,71,233,2,1,twoone,,,,,,,,,,,,,,,,,,,,,,,,,,,,,,,,,,,,,,,,,,,,,,,,,,,,,,,,,,,,,,,,,,,,,,,,,,,,,,,,,,,,,,,,,,,,,,,,,,,,,,,,,,,,,,,,,,,,,,,,,,,,,,,,,,,,,,,
,,5fca888982a09a6a47620777,2023-12-14_19h06.44.230,kallum_motion_pilot,2023.2.3,Win32,15.01501502,5fca888982a09a6a47620777,657bb317c8798c6608bceb3f,657bb4911ad37ab31fbce947,0.0449,0.045,1,72,234,120,1,fivesix,,,,,,,,,,,,,,,,,,,,,,,,,,,,,,,,,,,,,,,,,,,,,,,,,,,,,,,,,,,,,,,,,,,,,,,,,,,,,,,,,,,,,,,,,,,,,,,,,,,,,,,,,,,,,,,,,,,,,,,,,,,,,,,,,,,,,,,
,,5fca888982a09a6a47620777,2023-12-14_19h06.44.230,kallum_motion_pilot,2023.2.3,Win32,15.01501502,5fca888982a09a6a47620777,657bb317c8798c6608bceb3f,657bb4911ad37ab31fbce947,0.0451,0.0452,1,73,235,44,1,threeone,,,,,,,,,,,,,,,,,,,,,,,,,,,,,,,,,,,,,,,,,,,,,,,,,,,,,,,,,,,,,,,,,,,,,,,,,,,,,,,,,,,,,,,,,,,,,,,,,,,,,,,,,,,,,,,,,,,,,,,,,,,,,,,,,,,,,,,
,,5fca888982a09a6a47620777,2023-12-14_19h06.44.230,kallum_motion_pilot,2023.2.3,Win32,15.01501502,5fca888982a09a6a47620777,657bb317c8798c6608bceb3f,657bb4911ad37ab31fbce947,0.0453,0.0453,1,74,236,7,1,fourthree,,,,,,,,,,,,,,,,,,,,,,,,,,,,,,,,,,,,,,,,,,,,,,,,,,,,,,,,,,,,,,,,,,,,,,,,,,,,,,,,,,,,,,,,,,,,,,,,,,,,,,,,,,,,,,,,,,,,,,,,,,,,,,,,,,,,,,,
,,5fca888982a09a6a47620777,2023-12-14_19h06.44.230,kallum_motion_pilot,2023.2.3,Win32,15.01501502,5fca888982a09a6a47620777,657bb317c8798c6608bceb3f,657bb4911ad37ab31fbce947,0.0454,0.0454,1,75,237,41,1,onethree,,,,,,,,,,,,,,,,,,,,,,,,,,,,,,,,,,,,,,,,,,,,,,,,,,,,,,,,,,,,,,,,,,,,,,,,,,,,,,,,,,,,,,,,,,,,,,,,,,,,,,,,,,,,,,,,,,,,,,,,,,,,,,,,,,,,,,,
,,5fca888982a09a6a47620777,2023-12-14_19h06.44.230,kallum_motion_pilot,2023.2.3,Win32,15.01501502,5fca888982a09a6a47620777,657bb317c8798c6608bceb3f,657bb4911ad37ab31fbce947,0.0454,0.0455,1,76,238,51,1,twofour,,,,,,,,,,,,,,,,,,,,,,,,,,,,,,,,,,,,,,,,,,,,,,,,,,,,,,,,,,,,,,,,,,,,,,,,,,,,,,,,,,,,,,,,,,,,,,,,,,,,,,,,,,,,,,,,,,,,,,,,,,,,,,,,,,,,,,,
,,5fca888982a09a6a47620777,2023-12-14_19h06.44.230,kallum_motion_pilot,2023.2.3,Win32,15.01501502,5fca888982a09a6a47620777,657bb317c8798c6608bceb3f,657bb4911ad37ab31fbce947,0.0456,0.0456,1,77,239,21,1,threefour,,,,,,,,,,,,,,,,,,,,,,,,,,,,,,,,,,,,,,,,,,,,,,,,,,,,,,,,,,,,,,,,,,,,,,,,,,,,,,,,,,,,,,,,,,,,,,,,,,,,,,,,,,,,,,,,,,,,,,,,,,,,,,,,,,,,,,,
,,5fca888982a09a6a47620777,2023-12-14_19h06.44.230,kallum_motion_pilot,2023.2.3,Win32,15.01501502,5fca888982a09a6a47620777,657bb317c8798c6608bceb3f,657bb4911ad37ab31fbce947,0.0457,0.0458,1,78,240,14,1,fourtwo,,,,,,,,,,,,,,,,,,,,,,,,,,,,,,,,,,,,,,,,,,,,,,,,,,,,,,,,,,,,,,,,,,,,,,,,,,,,,,,,,,,,,,,,,,,,,,,,,,,,,,,,,,,,,,,,,,,,,,,,,,,,,,,,,,,,,,,
,,5fca888982a09a6a47620777,2023-12-14_19h06.44.230,kallum_motion_pilot,2023.2.3,Win32,15.01501502,5fca888982a09a6a47620777,657bb317c8798c6608bceb3f,657bb4911ad37ab31fbce947,0.0458,0.0459,1,79,241,68,1,threeone,,,,,,,,,,,,,,,,,,,,,,,,,,,,,,,,,,,,,,,,,,,,,,,,,,,,,,,,,,,,,,,,,,,,,,,,,,,,,,,,,,,,,,,,,,,,,,,,,,,,,,,,,,,,,,,,,,,,,,,,,,,,,,,,,,,,,,,
,,5fca888982a09a6a47620777,2023-12-14_19h06.44.230,kallum_motion_pilot,2023.2.3,Win32,15.01501502,5fca888982a09a6a47620777,657bb317c8798c6608bceb3f,657bb4911ad37ab31fbce947,0.046,0.046,1,80,242,87,1,eightseven,,,,,,,,,,,,,,,,,,,,,,,,,,,,,,,,,,,,,,,,,,,,,,,,,,,,,,,,,,,,,,,,,,,,,,,,,,,,,,,,,,,,,,,,,,,,,,,,,,,,,,,,,,,,,,,,,,,,,,,,,,,,,,,,,,,,,,,
,,5fca888982a09a6a47620777,2023-12-14_19h06.44.230,kallum_motion_pilot,2023.2.3,Win32,15.01501502,5fca888982a09a6a47620777,657bb317c8798c6608bceb3f,657bb4911ad37ab31fbce947,0.0461,0.0462,1,81,243,28,1,threeone,,,,,,,,,,,,,,,,,,,,,,,,,,,,,,,,,,,,,,,,,,,,,,,,,,,,,,,,,,,,,,,,,,,,,,,,,,,,,,,,,,,,,,,,,,,,,,,,,,,,,,,,,,,,,,,,,,,,,,,,,,,,,,,,,,,,,,,
,,5fca888982a09a6a47620777,2023-12-14_19h06.44.230,kallum_motion_pilot,2023.2.3,Win32,15.01501502,5fca888982a09a6a47620777,657bb317c8798c6608bceb3f,657bb4911ad37ab31fbce947,0.0462,0.0463,1,82,244,85,1,seveneight,,,,,,,,,,,,,,,,,,,,,,,,,,,,,,,,,,,,,,,,,,,,,,,,,,,,,,,,,,,,,,,,,,,,,,,,,,,,,,,,,,,,,,,,,,,,,,,,,,,,,,,,,,,,,,,,,,,,,,,,,,,,,,,,,,,,,,,
,,5fca888982a09a6a47620777,2023-12-14_19h06.44.230,kallum_motion_pilot,2023.2.3,Win32,15.01501502,5fca888982a09a6a47620777,657bb317c8798c6608bceb3f,657bb4911ad37ab31fbce947,0.0463,0.0464,1,83,245,106,1,sixfive,,,,,,,,,,,,,,,,,,,,,,,,,,,,,,,,,,,,,,,,,,,,,,,,,,,,,,,,,,,,,,,,,,,,,,,,,,,,,,,,,,,,,,,,,,,,,,,,,,,,,,,,,,,,,,,,,,,,,,,,,,,,,,,,,,,,,,,
,,5fca888982a09a6a47620777,2023-12-14_19h06.44.230,kallum_motion_pilot,2023.2.3,Win32,15.01501502,5fca888982a09a6a47620777,657bb317c8798c6608bceb3f,657bb4911ad37ab31fbce947,0.0465,0.0465,1,84,246,150,1,eightsix,,,,,,,,,,,,,,,,,,,,,,,,,,,,,,,,,,,,,,,,,,,,,,,,,,,,,,,,,,,,,,,,,,,,,,,,,,,,,,,,,,,,,,,,,,,,,,,,,,,,,,,,,,,,,,,,,,,,,,,,,,,,,,,,,,,,,,,
,,5fca888982a09a6a47620777,2023-12-14_19h06.44.230,kallum_motion_pilot,2023.2.3,Win32,15.01501502,5fca888982a09a6a47620777,657bb317c8798c6608bceb3f,657bb4911ad37ab31fbce947,0.0466,0.0466,1,85,247,15,1,fourthree,,,,,,,,,,,,,,,,,,,,,,,,,,,,,,,,,,,,,,,,,,,,,,,,,,,,,,,,,,,,,,,,,,,,,,,,,,,,,,,,,,,,,,,,,,,,,,,,,,,,,,,,,,,,,,,,,,,,,,,,,,,,,,,,,,,,,,,
,,5fca888982a09a6a47620777,2023-12-14_19h06.44.230,kallum_motion_pilot,2023.2.3,Win32,15.01501502,5fca888982a09a6a47620777,657bb317c8798c6608bceb3f,657bb4911ad37ab31fbce947,0.0467,0.0468,1,86,248,24,1,onetwo,,,,,,,,,,,,,,,,,,,,,,,,,,,,,,,,,,,,,,,,,,,,,,,,,,,,,,,,,,,,,,,,,,,,,,,,,,,,,,,,,,,,,,,,,,,,,,,,,,,,,,,,,,,,,,,,,,,,,,,,,,,,,,,,,,,,,,,
,,5fca888982a09a6a47620777,2023-12-14_19h06.44.230,kallum_motion_pilot,2023.2.3,Win32,15.01501502,5fca888982a09a6a47620777,657bb317c8798c6608bceb3f,657bb4911ad37ab31fbce947,0.0468,0.0469,1,87,249,82,1,sixfive,,,,,,,,,,,,,,,,,,,,,,,,,,,,,,,,,,,,,,,,,,,,,,,,,,,,,,,,,,,,,,,,,,,,,,,,,,,,,,,,,,,,,,,,,,,,,,,,,,,,,,,,,,,,,,,,,,,,,,,,,,,,,,,,,,,,,,,
,,5fca888982a09a6a47620777,2023-12-14_19h06.44.230,kallum_motion_pilot,2023.2.3,Win32,15.01501502,5fca888982a09a6a47620777,657bb317c8798c6608bceb3f,657bb4911ad37ab31fbce947,0.047,0.0471,1,88,250,1,1,onethree,,,,,,,,,,,,,,,,,,,,,,,,,,,,,,,,,,,,,,,,,,,,,,,,,,,,,,,,,,,,,,,,,,,,,,,,,,,,,,,,,,,,,,,,,,,,,,,,,,,,,,,,,,,,,,,,,,,,,,,,,,,,,,,,,,,,,,,
,,5fca888982a09a6a47620777,2023-12-14_19h06.44.230,kallum_motion_pilot,2023.2.3,Win32,15.01501502,5fca888982a09a6a47620777,657bb317c8798c6608bceb3f,657bb4911ad37ab31fbce947,0.0471,0.0472,1,89,251,9,1,onethree,,,,,,,,,,,,,,,,,,,,,,,,,,,,,,,,,,,,,,,,,,,,,,,,,,,,,,,,,,,,,,,,,,,,,,,,,,,,,,,,,,,,,,,,,,,,,,,,,,,,,,,,,,,,,,,,,,,,,,,,,,,,,,,,,,,,,,,
,,5fca888982a09a6a47620777,2023-12-14_19h06.44.230,kallum_motion_pilot,2023.2.3,Win32,15.01501502,5fca888982a09a6a47620777,657bb317c8798c6608bceb3f,657bb4911ad37ab31fbce947,0.0472,0.0473,1,90,252,108,1,sevenfive,,,,,,,,,,,,,,,,,,,,,,,,,,,,,,,,,,,,,,,,,,,,,,,,,,,,,,,,,,,,,,,,,,,,,,,,,,,,,,,,,,,,,,,,,,,,,,,,,,,,,,,,,,,,,,,,,,,,,,,,,,,,,,,,,,,,,,,
,,5fca888982a09a6a47620777,2023-12-14_19h06.44.230,kallum_motion_pilot,2023.2.3,Win32,15.01501502,5fca888982a09a6a47620777,657bb317c8798c6608bceb3f,657bb4911ad37ab31fbce947,0.0473,0.0474,1,91,253,122,1,sixfive,,,,,,,,,,,,,,,,,,,,,,,,,,,,,,,,,,,,,,,,,,,,,,,,,,,,,,,,,,,,,,,,,,,,,,,,,,,,,,,,,,,,,,,,,,,,,,,,,,,,,,,,,,,,,,,,,,,,,,,,,,,,,,,,,,,,,,,
,,5fca888982a09a6a47620777,2023-12-14_19h06.44.230,kallum_motion_pilot,2023.2.3,Win32,15.01501502,5fca888982a09a6a47620777,657bb317c8798c6608bceb3f,657bb4911ad37ab31fbce947,0.0474,0.0476,1,92,254,45,1,threefour,,,,,,,,,,,,,,,,,,,,,,,,,,,,,,,,,,,,,,,,,,,,,,,,,,,,,,,,,,,,,,,,,,,,,,,,,,,,,,,,,,,,,,,,,,,,,,,,,,,,,,,,,,,,,,,,,,,,,,,,,,,,,,,,,,,,,,,
,,5fca888982a09a6a47620777,2023-12-14_19h06.44.230,kallum_motion_pilot,2023.2.3,Win32,15.01501502,5fca888982a09a6a47620777,657bb317c8798c6608bceb3f,657bb4911ad37ab31fbce947,0.0476,0.0477,1,93,255,143,1,eightseven,,,,,,,,,,,,,,,,,,,,,,,,,,,,,,,,,,,,,,,,,,,,,,,,,,,,,,,,,,,,,,,,,,,,,,,,,,,,,,,,,,,,,,,,,,,,,,,,,,,,,,,,,,,,,,,,,,,,,,,,,,,,,,,,,,,,,,,
,,5fca888982a09a6a47620777,2023-12-14_19h06.44.230,kallum_motion_pilot,2023.2.3,Win32,15.01501502,5fca888982a09a6a47620777,657bb317c8798c6608bceb3f,657bb4911ad37ab31fbce947,0.0478,0.0478,1,94,256,65,1,onethree,,,,,,,,,,,,,,,,,,,,,,,,,,,,,,,,,,,,,,,,,,,,,,,,,,,,,,,,,,,,,,,,,,,,,,,,,,,,,,,,,,,,,,,,,,,,,,,,,,,,,,,,,,,,,,,,,,,,,,,,,,,,,,,,,,,,,,,
,,5fca888982a09a6a47620777,2023-12-14_19h06.44.230,kallum_motion_pilot,2023.2.3,Win32,15.01501502,5fca888982a09a6a47620777,657bb317c8798c6608bceb3f,657bb4911ad37ab31fbce947,0.0478,0.048,1,95,257,33,1,onethree,,,,,,,,,,,,,,,,,,,,,,,,,,,,,,,,,,,,,,,,,,,,,,,,,,,,,,,,,,,,,,,,,,,,,,,,,,,,,,,,,,,,,,,,,,,,,,,,,,,,,,,,,,,,,,,,,,,,,,,,,,,,,,,,,,,,,,,
,,5fca888982a09a6a47620777,2023-12-14_19h06.44.230,kallum_motion_pilot,2023.2.3,Win32,15.01501502,5fca888982a09a6a47620777,657bb317c8798c6608bceb3f,657bb4911ad37ab31fbce947,0.048,0.0481,1,96,258,110,1,eightsix,,,,,,,,,,,,,,,,,,,,,,,,,,,,,,,,,,,,,,,,,,,,,,,,,,,,,,,,,,,,,,,,,,,,,,,,,,,,,,,,,,,,,,,,,,,,,,,,,,,,,,,,,,,,,,,,,,,,,,,,,,,,,,,,,,,,,,,
,,5fca888982a09a6a47620777,2023-12-14_19h06.44.230,kallum_motion_pilot,2023.2.3,Win32,15.01501502,5fca888982a09a6a47620777,657bb317c8798c6608bceb3f,657bb4911ad37ab31fbce947,0.0481,0.0483,1,97,259,26,1,twoone,,,,,,,,,,,,,,,,,,,,,,,,,,,,,,,,,,,,,,,,,,,,,,,,,,,,,,,,,,,,,,,,,,,,,,,,,,,,,,,,,,,,,,,,,,,,,,,,,,,,,,,,,,,,,,,,,,,,,,,,,,,,,,,,,,,,,,,
,,5fca888982a09a6a47620777,2023-12-14_19h06.44.230,kallum_motion_pilot,2023.2.3,Win32,15.01501502,5fca888982a09a6a47620777,657bb317c8798c6608bceb3f,657bb4911ad37ab31fbce947,0.0484,0.0484,1,98,260,134,1,eightsix,,,,,,,,,,,,,,,,,,,,,,,,,,,,,,,,,,,,,,,,,,,,,,,,,,,,,,,,,,,,,,,,,,,,,,,,,,,,,,,,,,,,,,,,,,,,,,,,,,,,,,,,,,,,,,,,,,,,,,,,,,,,,,,,,,,,,,,
,,5fca888982a09a6a47620777,2023-12-14_19h06.44.230,kallum_motion_pilot,2023.2.3,Win32,15.01501502,5fca888982a09a6a47620777,657bb317c8798c6608bceb3f,657bb4911ad37ab31fbce947,0.0485,0.0486,1,99,261,112,1,fivesix,,,,,,,,,,,,,,,,,,,,,,,,,,,,,,,,,,,,,,,,,,,,,,,,,,,,,,,,,,,,,,,,,,,,,,,,,,,,,,,,,,,,,,,,,,,,,,,,,,,,,,,,,,,,,,,,,,,,,,,,,,,,,,,,,,,,,,,
,,5fca888982a09a6a47620777,2023-12-14_19h06.44.230,kallum_motion_pilot,2023.2.3,Win32,15.01501502,5fca888982a09a6a47620777,657bb317c8798c6608bceb3f,657bb4911ad37ab31fbce947,0.0487,0.0487,1,100,262,144,1,fivesix,,,,,,,,,,,,,,,,,,,,,,,,,,,,,,,,,,,,,,,,,,,,,,,,,,,,,,,,,,,,,,,,,,,,,,,,,,,,,,,,,,,,,,,,,,,,,,,,,,,,,,,,,,,,,,,,,,,,,,,,,,,,,,,,,,,,,,,
,,5fca888982a09a6a47620777,2023-12-14_19h06.44.230,kallum_motion_pilot,2023.2.3,Win32,15.01501502,5fca888982a09a6a47620777,657bb317c8798c6608bceb3f,657bb4911ad37ab31fbce947,0.0488,0.0489,1,101,263,140,1,sevenfive,,,,,,,,,,,,,,,,,,,,,,,,,,,,,,,,,,,,,,,,,,,,,,,,,,,,,,,,,,,,,,,,,,,,,,,,,,,,,,,,,,,,,,,,,,,,,,,,,,,,,,,,,,,,,,,,,,,,,,,,,,,,,,,,,,,,,,,
,,5fca888982a09a6a47620777,2023-12-14_19h06.44.230,kallum_motion_pilot,2023.2.3,Win32,15.01501502,5fca888982a09a6a47620777,657bb317c8798c6608bceb3f,657bb4911ad37ab31fbce947,0.0489,0.049,1,102,264,40,1,onetwo,,,,,,,,,,,,,,,,,,,,,,,,,,,,,,,,,,,,,,,,,,,,,,,,,,,,,,,,,,,,,,,,,,,,,,,,,,,,,,,,,,,,,,,,,,,,,,,,,,,,,,,,,,,,,,,,,,,,,,,,,,,,,,,,,,,,,,,
,,5fca888982a09a6a47620777,2023-12-14_19h06.44.230,kallum_motion_pilot,2023.2.3,Win32,15.01501502,5fca888982a09a6a47620777,657bb317c8798c6608bceb3f,657bb4911ad37ab31fbce947,0.049,0.0491,1,103,265,76,1,threeone,,,,,,,,,,,,,,,,,,,,,,,,,,,,,,,,,,,,,,,,,,,,,,,,,,,,,,,,,,,,,,,,,,,,,,,,,,,,,,,,,,,,,,,,,,,,,,,,,,,,,,,,,,,,,,,,,,,,,,,,,,,,,,,,,,,,,,,
,,5fca888982a09a6a47620777,2023-12-14_19h06.44.230,kallum_motion_pilot,2023.2.3,Win32,15.01501502,5fca888982a09a6a47620777,657bb317c8798c6608bceb3f,657bb4911ad37ab31fbce947,0.0491,0.0492,1,104,266,160,1,fivesix,,,,,,,,,,,,,,,,,,,,,,,,,,,,,,,,,,,,,,,,,,,,,,,,,,,,,,,,,,,,,,,,,,,,,,,,,,,,,,,,,,,,,,,,,,,,,,,,,,,,,,,,,,,,,,,,,,,,,,,,,,,,,,,,,,,,,,,
,,5fca888982a09a6a47620777,2023-12-14_19h06.44.230,kallum_motion_pilot,2023.2.3,Win32,15.01501502,5fca888982a09a6a47620777,657bb317c8798c6608bceb3f,657bb4911ad37ab31fbce947,0.0493,0.0493,1,105,267,123,1,sixeight,,,,,,,,,,,,,,,,,,,,,,,,,,,,,,,,,,,,,,,,,,,,,,,,,,,,,,,,,,,,,,,,,,,,,,,,,,,,,,,,,,,,,,,,,,,,,,,,,,,,,,,,,,,,,,,,,,,,,,,,,,,,,,,,,,,,,,,
,,5fca888982a09a6a47620777,2023-12-14_19h06.44.230,kallum_motion_pilot,2023.2.3,Win32,15.01501502,5fca888982a09a6a47620777,657bb317c8798c6608bceb3f,657bb4911ad37ab31fbce947,0.0493,0.0495,1,106,268,86,1,eightsix,,,,,,,,,,,,,,,,,,,,,,,,,,,,,,,,,,,,,,,,,,,,,,,,,,,,,,,,,,,,,,,,,,,,,,,,,,,,,,,,,,,,,,,,,,,,,,,,,,,,,,,,,,,,,,,,,,,,,,,,,,,,,,,,,,,,,,,
,,5fca888982a09a6a47620777,2023-12-14_19h06.44.230,kallum_motion_pilot,2023.2.3,Win32,15.01501502,5fca888982a09a6a47620777,657bb317c8798c6608bceb3f,657bb4911ad37ab31fbce947,0.0495,0.0496,1,107,269,61,1,threefour,,,,,,,,,,,,,,,,,,,,,,,,,,,,,,,,,,,,,,,,,,,,,,,,,,,,,,,,,,,,,,,,,,,,,,,,,,,,,,,,,,,,,,,,,,,,,,,,,,,,,,,,,,,,,,,,,,,,,,,,,,,,,,,,,,,,,,,
,,5fca888982a09a6a47620777,2023-12-14_19h06.44.230,kallum_motion_pilot,2023.2.3,Win32,15.01501502,5fca888982a09a6a47620777,657bb317c8798c6608bceb3f,657bb4911ad37ab31fbce947,0.0497,0.0497,1,108,270,147,1,sixeight,,,,,,,,,,,,,,,,,,,,,,,,,,,,,,,,,,,,,,,,,,,,,,,,,,,,,,,,,,,,,,,,,,,,,,,,,,,,,,,,,,,,,,,,,,,,,,,,,,,,,,,,,,,,,,,,,,,,,,,,,,,,,,,,,,,,,,,
,,5fca888982a09a6a47620777,2023-12-14_19h06.44.230,kallum_motion_pilot,2023.2.3,Win32,15.01501502,5fca888982a09a6a47620777,657bb317c8798c6608bceb3f,657bb4911ad37ab31fbce947,0.0498,0.0499,1,109,271,139,1,sixeight,,,,,,,,,,,,,,,,,,,,,,,,,,,,,,,,,,,,,,,,,,,,,,,,,,,,,,,,,,,,,,,,,,,,,,,,,,,,,,,,,,,,,,,,,,,,,,,,,,,,,,,,,,,,,,,,,,,,,,,,,,,,,,,,,,,,,,,
,,5fca888982a09a6a47620777,2023-12-14_19h06.44.230,kallum_motion_pilot,2023.2.3,Win32,15.01501502,5fca888982a09a6a47620777,657bb317c8798c6608bceb3f,657bb4911ad37ab31fbce947,0.0501,0.0501,1,110,272,137,1,fiveseven,,,,,,,,,,,,,,,,,,,,,,,,,,,,,,,,,,,,,,,,,,,,,,,,,,,,,,,,,,,,,,,,,,,,,,,,,,,,,,,,,,,,,,,,,,,,,,,,,,,,,,,,,,,,,,,,,,,,,,,,,,,,,,,,,,,,,,,
,,5fca888982a09a6a47620777,2023-12-14_19h06.44.230,kallum_motion_pilot,2023.2.3,Win32,15.01501502,5fca888982a09a6a47620777,657bb317c8798c6608bceb3f,657bb4911ad37ab31fbce947,0.0502,0.0503,1,111,273,136,1,fivesix,,,,,,,,,,,,,,,,,,,,,,,,,,,,,,,,,,,,,,,,,,,,,,,,,,,,,,,,,,,,,,,,,,,,,,,,,,,,,,,,,,,,,,,,,,,,,,,,,,,,,,,,,,,,,,,,,,,,,,,,,,,,,,,,,,,,,,,
,,5fca888982a09a6a47620777,2023-12-14_19h06.44.230,kallum_motion_pilot,2023.2.3,Win32,15.01501502,5fca888982a09a6a47620777,657bb317c8798c6608bceb3f,657bb4911ad37ab31fbce947,0.0505,0.0506,1,112,274,159,1,eightseven,,,,,,,,,,,,,,,,,,,,,,,,,,,,,,,,,,,,,,,,,,,,,,,,,,,,,,,,,,,,,,,,,,,,,,,,,,,,,,,,,,,,,,,,,,,,,,,,,,,,,,,,,,,,,,,,,,,,,,,,,,,,,,,,,,,,,,,
,,5fca888982a09a6a47620777,2023-12-14_19h06.44.230,kallum_motion_pilot,2023.2.3,Win32,15.01501502,5fca888982a09a6a47620777,657bb317c8798c6608bceb3f,657bb4911ad37ab31fbce947,0.0506,0.0507,1,113,275,63,1,fourthree,,,,,,,,,,,,,,,,,,,,,,,,,,,,,,,,,,,,,,,,,,,,,,,,,,,,,,,,,,,,,,,,,,,,,,,,,,,,,,,,,,,,,,,,,,,,,,,,,,,,,,,,,,,,,,,,,,,,,,,,,,,,,,,,,,,,,,,
,,5fca888982a09a6a47620777,2023-12-14_19h06.44.230,kallum_motion_pilot,2023.2.3,Win32,15.01501502,5fca888982a09a6a47620777,657bb317c8798c6608bceb3f,657bb4911ad37ab31fbce947,0.0508,0.0508,1,114,276,138,1,sixfive,,,,,,,,,,,,,,,,,,,,,,,,,,,,,,,,,,,,,,,,,,,,,,,,,,,,,,,,,,,,,,,,,,,,,,,,,,,,,,,,,,,,,,,,,,,,,,,,,,,,,,,,,,,,,,,,,,,,,,,,,,,,,,,,,,,,,,,
,,5fca888982a09a6a47620777,2023-12-14_19h06.44.230,kallum_motion_pilot,2023.2.3,Win32,15.01501502,5fca888982a09a6a47620777,657bb317c8798c6608bceb3f,657bb4911ad37ab31fbce947,0.0509,0.051,1,115,277,141,1,seveneight,,,,,,,,,,,,,,,,,,,,,,,,,,,,,,,,,,,,,,,,,,,,,,,,,,,,,,,,,,,,,,,,,,,,,,,,,,,,,,,,,,,,,,,,,,,,,,,,,,,,,,,,,,,,,,,,,,,,,,,,,,,,,,,,,,,,,,,
,,5fca888982a09a6a47620777,2023-12-14_19h06.44.230,kallum_motion_pilot,2023.2.3,Win32,15.01501502,5fca888982a09a6a47620777,657bb317c8798c6608bceb3f,657bb4911ad37ab31fbce947,0.0511,0.0511,1,116,278,114,1,sixfive,,,,,,,,,,,,,,,,,,,,,,,,,,,,,,,,,,,,,,,,,,,,,,,,,,,,,,,,,,,,,,,,,,,,,,,,,,,,,,,,,,,,,,,,,,,,,,,,,,,,,,,,,,,,,,,,,,,,,,,,,,,,,,,,,,,,,,,
,,5fca888982a09a6a47620777,2023-12-14_19h06.44.230,kallum_motion_pilot,2023.2.3,Win32,15.01501502,5fca888982a09a6a47620777,657bb317c8798c6608bceb3f,657bb4911ad37ab31fbce947,0.0512,0.0513,1,117,279,71,1,fourthree,,,,,,,,,,,,,,,,,,,,,,,,,,,,,,,,,,,,,,,,,,,,,,,,,,,,,,,,,,,,,,,,,,,,,,,,,,,,,,,,,,,,,,,,,,,,,,,,,,,,,,,,,,,,,,,,,,,,,,,,,,,,,,,,,,,,,,,
