startup.started,startup.stopped,Prolific ID*,date,expName,psychopyVersion,OS,frameRate,participant,study_id,session,stimpositions.started,stimpositions.stopped,hardcoded_stimulus_positions.thisRepN,hardcoded_stimulus_positions.thisTrialN,hardcoded_stimulus_positions.thisN,hardcoded_stimulus_positions.thisIndex,hardcoded_stimulus_positions.ran,StimulusPos,stimorientation.started,stimorientation.stopped,prac_stimorientation_import_loop.thisRepN,prac_stimorientation_import_loop.thisTrialN,prac_stimorientation_import_loop.thisN,prac_stimorientation_import_loop.thisIndex,prac_stimorientation_import_loop.ran,Stimorientation,welcome_instr.started,welcome_instr.stopped,key_resp.keys,key_resp.rt,key_resp.duration,response_steppedout_1.started,response_steppedout_1.stopped,key_resp_20.keys,key_resp_20.rt,key_resp_20.duration,response_steppedout_2.started,response_steppedout_2.stopped,key_resp_19.keys,key_resp_19.rt,key_resp_19.duration,stim_response_instr.started,stim_response_instr.stopped,key_resp_15.keys,key_resp_15.rt,key_resp_15.duration,direction_instr_2.started,direction_instr_2.stopped,key_resp_9.keys,key_resp_9.rt,key_resp_9.duration,instr_prac.started,instr_prac.stopped,key_resp_10.keys,key_resp_10.rt,key_resp_10.duration,Stim1_display_prac.started,Stim1_display_prac.stopped,Ecc,Circle1_ori,Circle2_ori,response_prac.started,similarity,response_time,response_prac.stopped,mouse_5.x,mouse_5.y,mouse_5.leftButton,mouse_5.midButton,mouse_5.rightButton,mouse_5.clicked_name,responseprac_feedback.started,responseprac_feedback.stopped,summary2_prac.started,summary2_prac.stopped,mouse_6.x,mouse_6.y,mouse_6.leftButton,mouse_6.midButton,mouse_6.rightButton,mouse_6.clicked_name,duringprac.thisRepN,duringprac.thisTrialN,duringprac.thisN,duringprac.thisIndex,duringprac.ran,begin.started,begin.stopped,key_resp_22.keys,key_resp_22.rt,key_resp_22.duration,Stim1_display.started,Stim1_display.stopped,circle1_ori,circle2_ori,blank.started,blank.stopped,response.started,response.stopped,mouse.x,mouse.y,mouse.leftButton,mouse.midButton,mouse.rightButton,mouse.clicked_name,response_2.started,response_2.stopped,mouse_2.x,mouse_2.y,mouse_2.leftButton,mouse_2.midButton,mouse_2.rightButton,mouse_2.clicked_name,special_trial.started,special_trial.stopped,catch_1.started,catch_1.stopped,mouse_3.x,mouse_3.y,mouse_3.leftButton,mouse_3.midButton,mouse_3.rightButton,catchresponse,catchnumber,response_time_catch,Catch,response_sum.started,response_sum.stopped,mouse_11.x,mouse_11.y,mouse_11.leftButton,mouse_11.midButton,mouse_11.rightButton,main_trial.thisRepN,main_trial.thisTrialN,main_trial.thisN,main_trial.thisIndex,main_trial.ran,Orientationtrialno,xcircle1_ori,xcircle2_ori,flip_presentation_sequence_for_double_pass.started,flip_presentation_sequence_for_double_pass.stopped,double_pass.thisRepN,double_pass.thisTrialN,double_pass.thisN,double_pass.thisIndex,double_pass.ran,goodbye.started,goodbye.stopped,key_resp_3.keys,key_resp_3.rt,key_resp_3.duration
0,0,6086a082cfd8e051845166e0,2023-12-15_03h05.44.504,kallum_motion_pilot,2023.2.3,Win32,35.71428571,6086a082cfd8e051845166e0,657bb317c8798c6608bceb3f,657bb42705941aea7d1c6caa,,,,,,,,,,,,,,,,,,,,,,,,,,,,,,,,,,,,,,,,,,,,,,,,,,,,,,,,,,,,,,,,,,,,,,,,,,,,,,,,,,,,,,,,,,,,,,,,,,,,,,,,,,,,,,,,,,,,,,,,,,,,,,,,,,,,,,,,,,,,,,,
,,6086a082cfd8e051845166e0,2023-12-15_03h05.44.504,kallum_motion_pilot,2023.2.3,Win32,35.71428571,6086a082cfd8e051845166e0,657bb317c8798c6608bceb3f,657bb42705941aea7d1c6caa,0.011,0.011,0,0,0,6,1,fourtwo,,,,,,,,,,,,,,,,,,,,,,,,,,,,,,,,,,,,,,,,,,,,,,,,,,,,,,,,,,,,,,,,,,,,,,,,,,,,,,,,,,,,,,,,,,,,,,,,,,,,,,,,,,,,,,,,,,,,,,,,,,,,,,,,,,,,,,,
,,6086a082cfd8e051845166e0,2023-12-15_03h05.44.504,kallum_motion_pilot,2023.2.3,Win32,35.71428571,6086a082cfd8e051845166e0,657bb317c8798c6608bceb3f,657bb42705941aea7d1c6caa,0.012,0.012,0,1,1,121,1,fiveseven,,,,,,,,,,,,,,,,,,,,,,,,,,,,,,,,,,,,,,,,,,,,,,,,,,,,,,,,,,,,,,,,,,,,,,,,,,,,,,,,,,,,,,,,,,,,,,,,,,,,,,,,,,,,,,,,,,,,,,,,,,,,,,,,,,,,,,,
,,6086a082cfd8e051845166e0,2023-12-15_03h05.44.504,kallum_motion_pilot,2023.2.3,Win32,35.71428571,6086a082cfd8e051845166e0,657bb317c8798c6608bceb3f,657bb42705941aea7d1c6caa,0.012,0.012,0,2,2,75,1,twofour,,,,,,,,,,,,,,,,,,,,,,,,,,,,,,,,,,,,,,,,,,,,,,,,,,,,,,,,,,,,,,,,,,,,,,,,,,,,,,,,,,,,,,,,,,,,,,,,,,,,,,,,,,,,,,,,,,,,,,,,,,,,,,,,,,,,,,,
,,6086a082cfd8e051845166e0,2023-12-15_03h05.44.504,kallum_motion_pilot,2023.2.3,Win32,35.71428571,6086a082cfd8e051845166e0,657bb317c8798c6608bceb3f,657bb42705941aea7d1c6caa,0.012,0.012,0,3,3,61,1,threefour,,,,,,,,,,,,,,,,,,,,,,,,,,,,,,,,,,,,,,,,,,,,,,,,,,,,,,,,,,,,,,,,,,,,,,,,,,,,,,,,,,,,,,,,,,,,,,,,,,,,,,,,,,,,,,,,,,,,,,,,,,,,,,,,,,,,,,,
,,6086a082cfd8e051845166e0,2023-12-15_03h05.44.504,kallum_motion_pilot,2023.2.3,Win32,35.71428571,6086a082cfd8e051845166e0,657bb317c8798c6608bceb3f,657bb42705941aea7d1c6caa,0.012,0.012,0,4,4,65,1,onethree,,,,,,,,,,,,,,,,,,,,,,,,,,,,,,,,,,,,,,,,,,,,,,,,,,,,,,,,,,,,,,,,,,,,,,,,,,,,,,,,,,,,,,,,,,,,,,,,,,,,,,,,,,,,,,,,,,,,,,,,,,,,,,,,,,,,,,,
,,6086a082cfd8e051845166e0,2023-12-15_03h05.44.504,kallum_motion_pilot,2023.2.3,Win32,35.71428571,6086a082cfd8e051845166e0,657bb317c8798c6608bceb3f,657bb42705941aea7d1c6caa,0.012,0.012,0,5,5,8,1,onetwo,,,,,,,,,,,,,,,,,,,,,,,,,,,,,,,,,,,,,,,,,,,,,,,,,,,,,,,,,,,,,,,,,,,,,,,,,,,,,,,,,,,,,,,,,,,,,,,,,,,,,,,,,,,,,,,,,,,,,,,,,,,,,,,,,,,,,,,
,,6086a082cfd8e051845166e0,2023-12-15_03h05.44.504,kallum_motion_pilot,2023.2.3,Win32,35.71428571,6086a082cfd8e051845166e0,657bb317c8798c6608bceb3f,657bb42705941aea7d1c6caa,0.012,0.012,0,6,6,82,1,sixfive,,,,,,,,,,,,,,,,,,,,,,,,,,,,,,,,,,,,,,,,,,,,,,,,,,,,,,,,,,,,,,,,,,,,,,,,,,,,,,,,,,,,,,,,,,,,,,,,,,,,,,,,,,,,,,,,,,,,,,,,,,,,,,,,,,,,,,,
,,6086a082cfd8e051845166e0,2023-12-15_03h05.44.504,kallum_motion_pilot,2023.2.3,Win32,35.71428571,6086a082cfd8e051845166e0,657bb317c8798c6608bceb3f,657bb42705941aea7d1c6caa,0.012,0.012,0,7,7,68,1,threeone,,,,,,,,,,,,,,,,,,,,,,,,,,,,,,,,,,,,,,,,,,,,,,,,,,,,,,,,,,,,,,,,,,,,,,,,,,,,,,,,,,,,,,,,,,,,,,,,,,,,,,,,,,,,,,,,,,,,,,,,,,,,,,,,,,,,,,,
,,6086a082cfd8e051845166e0,2023-12-15_03h05.44.504,kallum_motion_pilot,2023.2.3,Win32,35.71428571,6086a082cfd8e051845166e0,657bb317c8798c6608bceb3f,657bb42705941aea7d1c6caa,0.012,0.012,0,8,8,115,1,sixeight,,,,,,,,,,,,,,,,,,,,,,,,,,,,,,,,,,,,,,,,,,,,,,,,,,,,,,,,,,,,,,,,,,,,,,,,,,,,,,,,,,,,,,,,,,,,,,,,,,,,,,,,,,,,,,,,,,,,,,,,,,,,,,,,,,,,,,,
,,6086a082cfd8e051845166e0,2023-12-15_03h05.44.504,kallum_motion_pilot,2023.2.3,Win32,35.71428571,6086a082cfd8e051845166e0,657bb317c8798c6608bceb3f,657bb42705941aea7d1c6caa,0.012,0.012,0,9,9,44,1,threeone,,,,,,,,,,,,,,,,,,,,,,,,,,,,,,,,,,,,,,,,,,,,,,,,,,,,,,,,,,,,,,,,,,,,,,,,,,,,,,,,,,,,,,,,,,,,,,,,,,,,,,,,,,,,,,,,,,,,,,,,,,,,,,,,,,,,,,,
,,6086a082cfd8e051845166e0,2023-12-15_03h05.44.504,kallum_motion_pilot,2023.2.3,Win32,35.71428571,6086a082cfd8e051845166e0,657bb317c8798c6608bceb3f,657bb42705941aea7d1c6caa,0.012,0.012,0,10,10,160,1,fivesix,,,,,,,,,,,,,,,,,,,,,,,,,,,,,,,,,,,,,,,,,,,,,,,,,,,,,,,,,,,,,,,,,,,,,,,,,,,,,,,,,,,,,,,,,,,,,,,,,,,,,,,,,,,,,,,,,,,,,,,,,,,,,,,,,,,,,,,
,,6086a082cfd8e051845166e0,2023-12-15_03h05.44.504,kallum_motion_pilot,2023.2.3,Win32,35.71428571,6086a082cfd8e051845166e0,657bb317c8798c6608bceb3f,657bb42705941aea7d1c6caa,0.012,0.012,0,11,11,158,1,eightsix,,,,,,,,,,,,,,,,,,,,,,,,,,,,,,,,,,,,,,,,,,,,,,,,,,,,,,,,,,,,,,,,,,,,,,,,,,,,,,,,,,,,,,,,,,,,,,,,,,,,,,,,,,,,,,,,,,,,,,,,,,,,,,,,,,,,,,,
,,6086a082cfd8e051845166e0,2023-12-15_03h05.44.504,kallum_motion_pilot,2023.2.3,Win32,35.71428571,6086a082cfd8e051845166e0,657bb317c8798c6608bceb3f,657bb42705941aea7d1c6caa,0.012,0.012,0,12,12,25,1,onethree,,,,,,,,,,,,,,,,,,,,,,,,,,,,,,,,,,,,,,,,,,,,,,,,,,,,,,,,,,,,,,,,,,,,,,,,,,,,,,,,,,,,,,,,,,,,,,,,,,,,,,,,,,,,,,,,,,,,,,,,,,,,,,,,,,,,,,,
,,6086a082cfd8e051845166e0,2023-12-15_03h05.44.504,kallum_motion_pilot,2023.2.3,Win32,35.71428571,6086a082cfd8e051845166e0,657bb317c8798c6608bceb3f,657bb42705941aea7d1c6caa,0.012,0.012,0,13,13,45,1,threefour,,,,,,,,,,,,,,,,,,,,,,,,,,,,,,,,,,,,,,,,,,,,,,,,,,,,,,,,,,,,,,,,,,,,,,,,,,,,,,,,,,,,,,,,,,,,,,,,,,,,,,,,,,,,,,,,,,,,,,,,,,,,,,,,,,,,,,,
,,6086a082cfd8e051845166e0,2023-12-15_03h05.44.504,kallum_motion_pilot,2023.2.3,Win32,35.71428571,6086a082cfd8e051845166e0,657bb317c8798c6608bceb3f,657bb42705941aea7d1c6caa,0.012,0.012,0,14,14,14,1,fourtwo,,,,,,,,,,,,,,,,,,,,,,,,,,,,,,,,,,,,,,,,,,,,,,,,,,,,,,,,,,,,,,,,,,,,,,,,,,,,,,,,,,,,,,,,,,,,,,,,,,,,,,,,,,,,,,,,,,,,,,,,,,,,,,,,,,,,,,,
,,6086a082cfd8e051845166e0,2023-12-15_03h05.44.504,kallum_motion_pilot,2023.2.3,Win32,35.71428571,6086a082cfd8e051845166e0,657bb317c8798c6608bceb3f,657bb42705941aea7d1c6caa,0.012,0.012,0,15,15,76,1,threeone,,,,,,,,,,,,,,,,,,,,,,,,,,,,,,,,,,,,,,,,,,,,,,,,,,,,,,,,,,,,,,,,,,,,,,,,,,,,,,,,,,,,,,,,,,,,,,,,,,,,,,,,,,,,,,,,,,,,,,,,,,,,,,,,,,,,,,,
,,6086a082cfd8e051845166e0,2023-12-15_03h05.44.504,kallum_motion_pilot,2023.2.3,Win32,35.71428571,6086a082cfd8e051845166e0,657bb317c8798c6608bceb3f,657bb42705941aea7d1c6caa,0.012,0.012,0,16,16,20,1,threeone,,,,,,,,,,,,,,,,,,,,,,,,,,,,,,,,,,,,,,,,,,,,,,,,,,,,,,,,,,,,,,,,,,,,,,,,,,,,,,,,,,,,,,,,,,,,,,,,,,,,,,,,,,,,,,,,,,,,,,,,,,,,,,,,,,,,,,,
,,6086a082cfd8e051845166e0,2023-12-15_03h05.44.504,kallum_motion_pilot,2023.2.3,Win32,35.71428571,6086a082cfd8e051845166e0,657bb317c8798c6608bceb3f,657bb42705941aea7d1c6caa,0.012,0.012,0,17,17,154,1,sixfive,,,,,,,,,,,,,,,,,,,,,,,,,,,,,,,,,,,,,,,,,,,,,,,,,,,,,,,,,,,,,,,,,,,,,,,,,,,,,,,,,,,,,,,,,,,,,,,,,,,,,,,,,,,,,,,,,,,,,,,,,,,,,,,,,,,,,,,
,,6086a082cfd8e051845166e0,2023-12-15_03h05.44.504,kallum_motion_pilot,2023.2.3,Win32,35.71428571,6086a082cfd8e051845166e0,657bb317c8798c6608bceb3f,657bb42705941aea7d1c6caa,0.012,0.012,0,18,18,135,1,eightseven,,,,,,,,,,,,,,,,,,,,,,,,,,,,,,,,,,,,,,,,,,,,,,,,,,,,,,,,,,,,,,,,,,,,,,,,,,,,,,,,,,,,,,,,,,,,,,,,,,,,,,,,,,,,,,,,,,,,,,,,,,,,,,,,,,,,,,,
,,6086a082cfd8e051845166e0,2023-12-15_03h05.44.504,kallum_motion_pilot,2023.2.3,Win32,35.71428571,6086a082cfd8e051845166e0,657bb317c8798c6608bceb3f,657bb42705941aea7d1c6caa,0.012,0.012,0,19,19,141,1,seveneight,,,,,,,,,,,,,,,,,,,,,,,,,,,,,,,,,,,,,,,,,,,,,,,,,,,,,,,,,,,,,,,,,,,,,,,,,,,,,,,,,,,,,,,,,,,,,,,,,,,,,,,,,,,,,,,,,,,,,,,,,,,,,,,,,,,,,,,
,,6086a082cfd8e051845166e0,2023-12-15_03h05.44.504,kallum_motion_pilot,2023.2.3,Win32,35.71428571,6086a082cfd8e051845166e0,657bb317c8798c6608bceb3f,657bb42705941aea7d1c6caa,0.012,0.012,0,20,20,32,1,onetwo,,,,,,,,,,,,,,,,,,,,,,,,,,,,,,,,,,,,,,,,,,,,,,,,,,,,,,,,,,,,,,,,,,,,,,,,,,,,,,,,,,,,,,,,,,,,,,,,,,,,,,,,,,,,,,,,,,,,,,,,,,,,,,,,,,,,,,,
,,6086a082cfd8e051845166e0,2023-12-15_03h05.44.504,kallum_motion_pilot,2023.2.3,Win32,35.71428571,6086a082cfd8e051845166e0,657bb317c8798c6608bceb3f,657bb42705941aea7d1c6caa,0.012,0.012,0,21,21,41,1,onethree,,,,,,,,,,,,,,,,,,,,,,,,,,,,,,,,,,,,,,,,,,,,,,,,,,,,,,,,,,,,,,,,,,,,,,,,,,,,,,,,,,,,,,,,,,,,,,,,,,,,,,,,,,,,,,,,,,,,,,,,,,,,,,,,,,,,,,,
,,6086a082cfd8e051845166e0,2023-12-15_03h05.44.504,kallum_motion_pilot,2023.2.3,Win32,35.71428571,6086a082cfd8e051845166e0,657bb317c8798c6608bceb3f,657bb42705941aea7d1c6caa,0.012,0.012,0,22,22,38,1,fourtwo,,,,,,,,,,,,,,,,,,,,,,,,,,,,,,,,,,,,,,,,,,,,,,,,,,,,,,,,,,,,,,,,,,,,,,,,,,,,,,,,,,,,,,,,,,,,,,,,,,,,,,,,,,,,,,,,,,,,,,,,,,,,,,,,,,,,,,,
,,6086a082cfd8e051845166e0,2023-12-15_03h05.44.504,kallum_motion_pilot,2023.2.3,Win32,35.71428571,6086a082cfd8e051845166e0,657bb317c8798c6608bceb3f,657bb42705941aea7d1c6caa,0.012,0.012,0,23,23,88,1,fivesix,,,,,,,,,,,,,,,,,,,,,,,,,,,,,,,,,,,,,,,,,,,,,,,,,,,,,,,,,,,,,,,,,,,,,,,,,,,,,,,,,,,,,,,,,,,,,,,,,,,,,,,,,,,,,,,,,,,,,,,,,,,,,,,,,,,,,,,
,,6086a082cfd8e051845166e0,2023-12-15_03h05.44.504,kallum_motion_pilot,2023.2.3,Win32,35.71428571,6086a082cfd8e051845166e0,657bb317c8798c6608bceb3f,657bb42705941aea7d1c6caa,0.012,0.012,0,24,24,112,1,fivesix,,,,,,,,,,,,,,,,,,,,,,,,,,,,,,,,,,,,,,,,,,,,,,,,,,,,,,,,,,,,,,,,,,,,,,,,,,,,,,,,,,,,,,,,,,,,,,,,,,,,,,,,,,,,,,,,,,,,,,,,,,,,,,,,,,,,,,,
,,6086a082cfd8e051845166e0,2023-12-15_03h05.44.504,kallum_motion_pilot,2023.2.3,Win32,35.71428571,6086a082cfd8e051845166e0,657bb317c8798c6608bceb3f,657bb42705941aea7d1c6caa,0.012,0.012,0,25,25,37,1,threefour,,,,,,,,,,,,,,,,,,,,,,,,,,,,,,,,,,,,,,,,,,,,,,,,,,,,,,,,,,,,,,,,,,,,,,,,,,,,,,,,,,,,,,,,,,,,,,,,,,,,,,,,,,,,,,,,,,,,,,,,,,,,,,,,,,,,,,,
,,6086a082cfd8e051845166e0,2023-12-15_03h05.44.504,kallum_motion_pilot,2023.2.3,Win32,35.71428571,6086a082cfd8e051845166e0,657bb317c8798c6608bceb3f,657bb42705941aea7d1c6caa,0.012,0.012,0,26,26,119,1,eightseven,,,,,,,,,,,,,,,,,,,,,,,,,,,,,,,,,,,,,,,,,,,,,,,,,,,,,,,,,,,,,,,,,,,,,,,,,,,,,,,,,,,,,,,,,,,,,,,,,,,,,,,,,,,,,,,,,,,,,,,,,,,,,,,,,,,,,,,
,,6086a082cfd8e051845166e0,2023-12-15_03h05.44.504,kallum_motion_pilot,2023.2.3,Win32,35.71428571,6086a082cfd8e051845166e0,657bb317c8798c6608bceb3f,657bb42705941aea7d1c6caa,0.012,0.012,0,27,27,3,1,twofour,,,,,,,,,,,,,,,,,,,,,,,,,,,,,,,,,,,,,,,,,,,,,,,,,,,,,,,,,,,,,,,,,,,,,,,,,,,,,,,,,,,,,,,,,,,,,,,,,,,,,,,,,,,,,,,,,,,,,,,,,,,,,,,,,,,,,,,
,,6086a082cfd8e051845166e0,2023-12-15_03h05.44.504,kallum_motion_pilot,2023.2.3,Win32,35.71428571,6086a082cfd8e051845166e0,657bb317c8798c6608bceb3f,657bb42705941aea7d1c6caa,0.012,0.012,0,28,28,104,1,fivesix,,,,,,,,,,,,,,,,,,,,,,,,,,,,,,,,,,,,,,,,,,,,,,,,,,,,,,,,,,,,,,,,,,,,,,,,,,,,,,,,,,,,,,,,,,,,,,,,,,,,,,,,,,,,,,,,,,,,,,,,,,,,,,,,,,,,,,,
,,6086a082cfd8e051845166e0,2023-12-15_03h05.44.504,kallum_motion_pilot,2023.2.3,Win32,35.71428571,6086a082cfd8e051845166e0,657bb317c8798c6608bceb3f,657bb42705941aea7d1c6caa,0.012,0.012,0,29,29,26,1,twoone,,,,,,,,,,,,,,,,,,,,,,,,,,,,,,,,,,,,,,,,,,,,,,,,,,,,,,,,,,,,,,,,,,,,,,,,,,,,,,,,,,,,,,,,,,,,,,,,,,,,,,,,,,,,,,,,,,,,,,,,,,,,,,,,,,,,,,,
,,6086a082cfd8e051845166e0,2023-12-15_03h05.44.504,kallum_motion_pilot,2023.2.3,Win32,35.71428571,6086a082cfd8e051845166e0,657bb317c8798c6608bceb3f,657bb42705941aea7d1c6caa,0.012,0.012,0,30,30,59,1,twofour,,,,,,,,,,,,,,,,,,,,,,,,,,,,,,,,,,,,,,,,,,,,,,,,,,,,,,,,,,,,,,,,,,,,,,,,,,,,,,,,,,,,,,,,,,,,,,,,,,,,,,,,,,,,,,,,,,,,,,,,,,,,,,,,,,,,,,,
,,6086a082cfd8e051845166e0,2023-12-15_03h05.44.504,kallum_motion_pilot,2023.2.3,Win32,35.71428571,6086a082cfd8e051845166e0,657bb317c8798c6608bceb3f,657bb42705941aea7d1c6caa,0.012,0.012,0,31,31,11,1,twofour,,,,,,,,,,,,,,,,,,,,,,,,,,,,,,,,,,,,,,,,,,,,,,,,,,,,,,,,,,,,,,,,,,,,,,,,,,,,,,,,,,,,,,,,,,,,,,,,,,,,,,,,,,,,,,,,,,,,,,,,,,,,,,,,,,,,,,,
,,6086a082cfd8e051845166e0,2023-12-15_03h05.44.504,kallum_motion_pilot,2023.2.3,Win32,35.71428571,6086a082cfd8e051845166e0,657bb317c8798c6608bceb3f,657bb42705941aea7d1c6caa,0.013,0.013,0,32,32,17,1,onethree,,,,,,,,,,,,,,,,,,,,,,,,,,,,,,,,,,,,,,,,,,,,,,,,,,,,,,,,,,,,,,,,,,,,,,,,,,,,,,,,,,,,,,,,,,,,,,,,,,,,,,,,,,,,,,,,,,,,,,,,,,,,,,,,,,,,,,,
,,6086a082cfd8e051845166e0,2023-12-15_03h05.44.504,kallum_motion_pilot,2023.2.3,Win32,35.71428571,6086a082cfd8e051845166e0,657bb317c8798c6608bceb3f,657bb42705941aea7d1c6caa,0.013,0.013,0,33,33,9,1,onethree,,,,,,,,,,,,,,,,,,,,,,,,,,,,,,,,,,,,,,,,,,,,,,,,,,,,,,,,,,,,,,,,,,,,,,,,,,,,,,,,,,,,,,,,,,,,,,,,,,,,,,,,,,,,,,,,,,,,,,,,,,,,,,,,,,,,,,,
,,6086a082cfd8e051845166e0,2023-12-15_03h05.44.504,kallum_motion_pilot,2023.2.3,Win32,35.71428571,6086a082cfd8e051845166e0,657bb317c8798c6608bceb3f,657bb42705941aea7d1c6caa,0.013,0.013,0,34,34,148,1,sevenfive,,,,,,,,,,,,,,,,,,,,,,,,,,,,,,,,,,,,,,,,,,,,,,,,,,,,,,,,,,,,,,,,,,,,,,,,,,,,,,,,,,,,,,,,,,,,,,,,,,,,,,,,,,,,,,,,,,,,,,,,,,,,,,,,,,,,,,,
,,6086a082cfd8e051845166e0,2023-12-15_03h05.44.504,kallum_motion_pilot,2023.2.3,Win32,35.71428571,6086a082cfd8e051845166e0,657bb317c8798c6608bceb3f,657bb42705941aea7d1c6caa,0.013,0.013,0,35,35,144,1,fivesix,,,,,,,,,,,,,,,,,,,,,,,,,,,,,,,,,,,,,,,,,,,,,,,,,,,,,,,,,,,,,,,,,,,,,,,,,,,,,,,,,,,,,,,,,,,,,,,,,,,,,,,,,,,,,,,,,,,,,,,,,,,,,,,,,,,,,,,
,,6086a082cfd8e051845166e0,2023-12-15_03h05.44.504,kallum_motion_pilot,2023.2.3,Win32,35.71428571,6086a082cfd8e051845166e0,657bb317c8798c6608bceb3f,657bb42705941aea7d1c6caa,0.013,0.013,0,36,36,4,1,threeone,,,,,,,,,,,,,,,,,,,,,,,,,,,,,,,,,,,,,,,,,,,,,,,,,,,,,,,,,,,,,,,,,,,,,,,,,,,,,,,,,,,,,,,,,,,,,,,,,,,,,,,,,,,,,,,,,,,,,,,,,,,,,,,,,,,,,,,
,,6086a082cfd8e051845166e0,2023-12-15_03h05.44.504,kallum_motion_pilot,2023.2.3,Win32,35.71428571,6086a082cfd8e051845166e0,657bb317c8798c6608bceb3f,657bb42705941aea7d1c6caa,0.013,0.013,0,37,37,13,1,threefour,,,,,,,,,,,,,,,,,,,,,,,,,,,,,,,,,,,,,,,,,,,,,,,,,,,,,,,,,,,,,,,,,,,,,,,,,,,,,,,,,,,,,,,,,,,,,,,,,,,,,,,,,,,,,,,,,,,,,,,,,,,,,,,,,,,,,,,
,,6086a082cfd8e051845166e0,2023-12-15_03h05.44.504,kallum_motion_pilot,2023.2.3,Win32,35.71428571,6086a082cfd8e051845166e0,657bb317c8798c6608bceb3f,657bb42705941aea7d1c6caa,0.013,0.013,0,38,38,48,1,onetwo,,,,,,,,,,,,,,,,,,,,,,,,,,,,,,,,,,,,,,,,,,,,,,,,,,,,,,,,,,,,,,,,,,,,,,,,,,,,,,,,,,,,,,,,,,,,,,,,,,,,,,,,,,,,,,,,,,,,,,,,,,,,,,,,,,,,,,,
,,6086a082cfd8e051845166e0,2023-12-15_03h05.44.504,kallum_motion_pilot,2023.2.3,Win32,35.71428571,6086a082cfd8e051845166e0,657bb317c8798c6608bceb3f,657bb42705941aea7d1c6caa,0.013,0.013,0,39,39,84,1,sevenfive,,,,,,,,,,,,,,,,,,,,,,,,,,,,,,,,,,,,,,,,,,,,,,,,,,,,,,,,,,,,,,,,,,,,,,,,,,,,,,,,,,,,,,,,,,,,,,,,,,,,,,,,,,,,,,,,,,,,,,,,,,,,,,,,,,,,,,,
,,6086a082cfd8e051845166e0,2023-12-15_03h05.44.504,kallum_motion_pilot,2023.2.3,Win32,35.71428571,6086a082cfd8e051845166e0,657bb317c8798c6608bceb3f,657bb42705941aea7d1c6caa,0.013,0.013,0,40,40,130,1,sixfive,,,,,,,,,,,,,,,,,,,,,,,,,,,,,,,,,,,,,,,,,,,,,,,,,,,,,,,,,,,,,,,,,,,,,,,,,,,,,,,,,,,,,,,,,,,,,,,,,,,,,,,,,,,,,,,,,,,,,,,,,,,,,,,,,,,,,,,
,,6086a082cfd8e051845166e0,2023-12-15_03h05.44.504,kallum_motion_pilot,2023.2.3,Win32,35.71428571,6086a082cfd8e051845166e0,657bb317c8798c6608bceb3f,657bb42705941aea7d1c6caa,0.013,0.013,0,41,41,143,1,eightseven,,,,,,,,,,,,,,,,,,,,,,,,,,,,,,,,,,,,,,,,,,,,,,,,,,,,,,,,,,,,,,,,,,,,,,,,,,,,,,,,,,,,,,,,,,,,,,,,,,,,,,,,,,,,,,,,,,,,,,,,,,,,,,,,,,,,,,,
,,6086a082cfd8e051845166e0,2023-12-15_03h05.44.504,kallum_motion_pilot,2023.2.3,Win32,35.71428571,6086a082cfd8e051845166e0,657bb317c8798c6608bceb3f,657bb42705941aea7d1c6caa,0.013,0.013,0,42,42,58,1,twoone,,,,,,,,,,,,,,,,,,,,,,,,,,,,,,,,,,,,,,,,,,,,,,,,,,,,,,,,,,,,,,,,,,,,,,,,,,,,,,,,,,,,,,,,,,,,,,,,,,,,,,,,,,,,,,,,,,,,,,,,,,,,,,,,,,,,,,,
,,6086a082cfd8e051845166e0,2023-12-15_03h05.44.504,kallum_motion_pilot,2023.2.3,Win32,35.71428571,6086a082cfd8e051845166e0,657bb317c8798c6608bceb3f,657bb42705941aea7d1c6caa,0.013,0.013,0,43,43,100,1,sevenfive,,,,,,,,,,,,,,,,,,,,,,,,,,,,,,,,,,,,,,,,,,,,,,,,,,,,,,,,,,,,,,,,,,,,,,,,,,,,,,,,,,,,,,,,,,,,,,,,,,,,,,,,,,,,,,,,,,,,,,,,,,,,,,,,,,,,,,,
,,6086a082cfd8e051845166e0,2023-12-15_03h05.44.504,kallum_motion_pilot,2023.2.3,Win32,35.71428571,6086a082cfd8e051845166e0,657bb317c8798c6608bceb3f,657bb42705941aea7d1c6caa,0.013,0.013,0,44,44,94,1,eightsix,,,,,,,,,,,,,,,,,,,,,,,,,,,,,,,,,,,,,,,,,,,,,,,,,,,,,,,,,,,,,,,,,,,,,,,,,,,,,,,,,,,,,,,,,,,,,,,,,,,,,,,,,,,,,,,,,,,,,,,,,,,,,,,,,,,,,,,
,,6086a082cfd8e051845166e0,2023-12-15_03h05.44.504,kallum_motion_pilot,2023.2.3,Win32,35.71428571,6086a082cfd8e051845166e0,657bb317c8798c6608bceb3f,657bb42705941aea7d1c6caa,0.013,0.013,0,45,45,43,1,twofour,,,,,,,,,,,,,,,,,,,,,,,,,,,,,,,,,,,,,,,,,,,,,,,,,,,,,,,,,,,,,,,,,,,,,,,,,,,,,,,,,,,,,,,,,,,,,,,,,,,,,,,,,,,,,,,,,,,,,,,,,,,,,,,,,,,,,,,
,,6086a082cfd8e051845166e0,2023-12-15_03h05.44.504,kallum_motion_pilot,2023.2.3,Win32,35.71428571,6086a082cfd8e051845166e0,657bb317c8798c6608bceb3f,657bb42705941aea7d1c6caa,0.013,0.013,0,46,46,107,1,sixeight,,,,,,,,,,,,,,,,,,,,,,,,,,,,,,,,,,,,,,,,,,,,,,,,,,,,,,,,,,,,,,,,,,,,,,,,,,,,,,,,,,,,,,,,,,,,,,,,,,,,,,,,,,,,,,,,,,,,,,,,,,,,,,,,,,,,,,,
,,6086a082cfd8e051845166e0,2023-12-15_03h05.44.504,kallum_motion_pilot,2023.2.3,Win32,35.71428571,6086a082cfd8e051845166e0,657bb317c8798c6608bceb3f,657bb42705941aea7d1c6caa,0.013,0.013,0,47,47,125,1,seveneight,,,,,,,,,,,,,,,,,,,,,,,,,,,,,,,,,,,,,,,,,,,,,,,,,,,,,,,,,,,,,,,,,,,,,,,,,,,,,,,,,,,,,,,,,,,,,,,,,,,,,,,,,,,,,,,,,,,,,,,,,,,,,,,,,,,,,,,
,,6086a082cfd8e051845166e0,2023-12-15_03h05.44.504,kallum_motion_pilot,2023.2.3,Win32,35.71428571,6086a082cfd8e051845166e0,657bb317c8798c6608bceb3f,657bb42705941aea7d1c6caa,0.013,0.013,0,48,48,138,1,sixfive,,,,,,,,,,,,,,,,,,,,,,,,,,,,,,,,,,,,,,,,,,,,,,,,,,,,,,,,,,,,,,,,,,,,,,,,,,,,,,,,,,,,,,,,,,,,,,,,,,,,,,,,,,,,,,,,,,,,,,,,,,,,,,,,,,,,,,,
,,6086a082cfd8e051845166e0,2023-12-15_03h05.44.504,kallum_motion_pilot,2023.2.3,Win32,35.71428571,6086a082cfd8e051845166e0,657bb317c8798c6608bceb3f,657bb42705941aea7d1c6caa,0.013,0.013,0,49,49,39,1,fourthree,,,,,,,,,,,,,,,,,,,,,,,,,,,,,,,,,,,,,,,,,,,,,,,,,,,,,,,,,,,,,,,,,,,,,,,,,,,,,,,,,,,,,,,,,,,,,,,,,,,,,,,,,,,,,,,,,,,,,,,,,,,,,,,,,,,,,,,
,,6086a082cfd8e051845166e0,2023-12-15_03h05.44.504,kallum_motion_pilot,2023.2.3,Win32,35.71428571,6086a082cfd8e051845166e0,657bb317c8798c6608bceb3f,657bb42705941aea7d1c6caa,0.013,0.013,0,50,50,95,1,eightseven,,,,,,,,,,,,,,,,,,,,,,,,,,,,,,,,,,,,,,,,,,,,,,,,,,,,,,,,,,,,,,,,,,,,,,,,,,,,,,,,,,,,,,,,,,,,,,,,,,,,,,,,,,,,,,,,,,,,,,,,,,,,,,,,,,,,,,,
,,6086a082cfd8e051845166e0,2023-12-15_03h05.44.504,kallum_motion_pilot,2023.2.3,Win32,35.71428571,6086a082cfd8e051845166e0,657bb317c8798c6608bceb3f,657bb42705941aea7d1c6caa,0.013,0.013,0,51,51,55,1,fourthree,,,,,,,,,,,,,,,,,,,,,,,,,,,,,,,,,,,,,,,,,,,,,,,,,,,,,,,,,,,,,,,,,,,,,,,,,,,,,,,,,,,,,,,,,,,,,,,,,,,,,,,,,,,,,,,,,,,,,,,,,,,,,,,,,,,,,,,
,,6086a082cfd8e051845166e0,2023-12-15_03h05.44.504,kallum_motion_pilot,2023.2.3,Win32,35.71428571,6086a082cfd8e051845166e0,657bb317c8798c6608bceb3f,657bb42705941aea7d1c6caa,0.013,0.013,0,52,52,152,1,fivesix,,,,,,,,,,,,,,,,,,,,,,,,,,,,,,,,,,,,,,,,,,,,,,,,,,,,,,,,,,,,,,,,,,,,,,,,,,,,,,,,,,,,,,,,,,,,,,,,,,,,,,,,,,,,,,,,,,,,,,,,,,,,,,,,,,,,,,,
,,6086a082cfd8e051845166e0,2023-12-15_03h05.44.504,kallum_motion_pilot,2023.2.3,Win32,35.71428571,6086a082cfd8e051845166e0,657bb317c8798c6608bceb3f,657bb42705941aea7d1c6caa,0.013,0.013,0,53,53,79,1,eightseven,,,,,,,,,,,,,,,,,,,,,,,,,,,,,,,,,,,,,,,,,,,,,,,,,,,,,,,,,,,,,,,,,,,,,,,,,,,,,,,,,,,,,,,,,,,,,,,,,,,,,,,,,,,,,,,,,,,,,,,,,,,,,,,,,,,,,,,
,,6086a082cfd8e051845166e0,2023-12-15_03h05.44.504,kallum_motion_pilot,2023.2.3,Win32,35.71428571,6086a082cfd8e051845166e0,657bb317c8798c6608bceb3f,657bb42705941aea7d1c6caa,0.013,0.013,0,54,54,105,1,fiveseven,,,,,,,,,,,,,,,,,,,,,,,,,,,,,,,,,,,,,,,,,,,,,,,,,,,,,,,,,,,,,,,,,,,,,,,,,,,,,,,,,,,,,,,,,,,,,,,,,,,,,,,,,,,,,,,,,,,,,,,,,,,,,,,,,,,,,,,
,,6086a082cfd8e051845166e0,2023-12-15_03h05.44.504,kallum_motion_pilot,2023.2.3,Win32,35.71428571,6086a082cfd8e051845166e0,657bb317c8798c6608bceb3f,657bb42705941aea7d1c6caa,0.013,0.013,0,55,55,73,1,onethree,,,,,,,,,,,,,,,,,,,,,,,,,,,,,,,,,,,,,,,,,,,,,,,,,,,,,,,,,,,,,,,,,,,,,,,,,,,,,,,,,,,,,,,,,,,,,,,,,,,,,,,,,,,,,,,,,,,,,,,,,,,,,,,,,,,,,,,
,,6086a082cfd8e051845166e0,2023-12-15_03h05.44.504,kallum_motion_pilot,2023.2.3,Win32,35.71428571,6086a082cfd8e051845166e0,657bb317c8798c6608bceb3f,657bb42705941aea7d1c6caa,0.013,0.013,0,56,56,106,1,sixfive,,,,,,,,,,,,,,,,,,,,,,,,,,,,,,,,,,,,,,,,,,,,,,,,,,,,,,,,,,,,,,,,,,,,,,,,,,,,,,,,,,,,,,,,,,,,,,,,,,,,,,,,,,,,,,,,,,,,,,,,,,,,,,,,,,,,,,,
,,6086a082cfd8e051845166e0,2023-12-15_03h05.44.504,kallum_motion_pilot,2023.2.3,Win32,35.71428571,6086a082cfd8e051845166e0,657bb317c8798c6608bceb3f,657bb42705941aea7d1c6caa,0.013,0.013,0,57,57,12,1,threeone,,,,,,,,,,,,,,,,,,,,,,,,,,,,,,,,,,,,,,,,,,,,,,,,,,,,,,,,,,,,,,,,,,,,,,,,,,,,,,,,,,,,,,,,,,,,,,,,,,,,,,,,,,,,,,,,,,,,,,,,,,,,,,,,,,,,,,,
,,6086a082cfd8e051845166e0,2023-12-15_03h05.44.504,kallum_motion_pilot,2023.2.3,Win32,35.71428571,6086a082cfd8e051845166e0,657bb317c8798c6608bceb3f,657bb42705941aea7d1c6caa,0.013,0.013,0,58,58,101,1,seveneight,,,,,,,,,,,,,,,,,,,,,,,,,,,,,,,,,,,,,,,,,,,,,,,,,,,,,,,,,,,,,,,,,,,,,,,,,,,,,,,,,,,,,,,,,,,,,,,,,,,,,,,,,,,,,,,,,,,,,,,,,,,,,,,,,,,,,,,
,,6086a082cfd8e051845166e0,2023-12-15_03h05.44.504,kallum_motion_pilot,2023.2.3,Win32,35.71428571,6086a082cfd8e051845166e0,657bb317c8798c6608bceb3f,657bb42705941aea7d1c6caa,0.013,0.013,0,59,59,136,1,fivesix,,,,,,,,,,,,,,,,,,,,,,,,,,,,,,,,,,,,,,,,,,,,,,,,,,,,,,,,,,,,,,,,,,,,,,,,,,,,,,,,,,,,,,,,,,,,,,,,,,,,,,,,,,,,,,,,,,,,,,,,,,,,,,,,,,,,,,,
,,6086a082cfd8e051845166e0,2023-12-15_03h05.44.504,kallum_motion_pilot,2023.2.3,Win32,35.71428571,6086a082cfd8e051845166e0,657bb317c8798c6608bceb3f,657bb42705941aea7d1c6caa,0.014,0.014,0,60,60,117,1,seveneight,,,,,,,,,,,,,,,,,,,,,,,,,,,,,,,,,,,,,,,,,,,,,,,,,,,,,,,,,,,,,,,,,,,,,,,,,,,,,,,,,,,,,,,,,,,,,,,,,,,,,,,,,,,,,,,,,,,,,,,,,,,,,,,,,,,,,,,
,,6086a082cfd8e051845166e0,2023-12-15_03h05.44.504,kallum_motion_pilot,2023.2.3,Win32,35.71428571,6086a082cfd8e051845166e0,657bb317c8798c6608bceb3f,657bb42705941aea7d1c6caa,0.014,0.014,0,61,61,116,1,sevenfive,,,,,,,,,,,,,,,,,,,,,,,,,,,,,,,,,,,,,,,,,,,,,,,,,,,,,,,,,,,,,,,,,,,,,,,,,,,,,,,,,,,,,,,,,,,,,,,,,,,,,,,,,,,,,,,,,,,,,,,,,,,,,,,,,,,,,,,
,,6086a082cfd8e051845166e0,2023-12-15_03h05.44.504,kallum_motion_pilot,2023.2.3,Win32,35.71428571,6086a082cfd8e051845166e0,657bb317c8798c6608bceb3f,657bb42705941aea7d1c6caa,0.014,0.014,0,62,62,161,1,fiveseven,,,,,,,,,,,,,,,,,,,,,,,,,,,,,,,,,,,,,,,,,,,,,,,,,,,,,,,,,,,,,,,,,,,,,,,,,,,,,,,,,,,,,,,,,,,,,,,,,,,,,,,,,,,,,,,,,,,,,,,,,,,,,,,,,,,,,,,
,,6086a082cfd8e051845166e0,2023-12-15_03h05.44.504,kallum_motion_pilot,2023.2.3,Win32,35.71428571,6086a082cfd8e051845166e0,657bb317c8798c6608bceb3f,657bb42705941aea7d1c6caa,0.015,0.015,0,63,63,157,1,seveneight,,,,,,,,,,,,,,,,,,,,,,,,,,,,,,,,,,,,,,,,,,,,,,,,,,,,,,,,,,,,,,,,,,,,,,,,,,,,,,,,,,,,,,,,,,,,,,,,,,,,,,,,,,,,,,,,,,,,,,,,,,,,,,,,,,,,,,,
,,6086a082cfd8e051845166e0,2023-12-15_03h05.44.504,kallum_motion_pilot,2023.2.3,Win32,35.71428571,6086a082cfd8e051845166e0,657bb317c8798c6608bceb3f,657bb42705941aea7d1c6caa,0.015,0.015,0,64,64,67,1,twofour,,,,,,,,,,,,,,,,,,,,,,,,,,,,,,,,,,,,,,,,,,,,,,,,,,,,,,,,,,,,,,,,,,,,,,,,,,,,,,,,,,,,,,,,,,,,,,,,,,,,,,,,,,,,,,,,,,,,,,,,,,,,,,,,,,,,,,,
,,6086a082cfd8e051845166e0,2023-12-15_03h05.44.504,kallum_motion_pilot,2023.2.3,Win32,35.71428571,6086a082cfd8e051845166e0,657bb317c8798c6608bceb3f,657bb42705941aea7d1c6caa,0.015,0.015,0,65,65,21,1,threefour,,,,,,,,,,,,,,,,,,,,,,,,,,,,,,,,,,,,,,,,,,,,,,,,,,,,,,,,,,,,,,,,,,,,,,,,,,,,,,,,,,,,,,,,,,,,,,,,,,,,,,,,,,,,,,,,,,,,,,,,,,,,,,,,,,,,,,,
,,6086a082cfd8e051845166e0,2023-12-15_03h05.44.504,kallum_motion_pilot,2023.2.3,Win32,35.71428571,6086a082cfd8e051845166e0,657bb317c8798c6608bceb3f,657bb42705941aea7d1c6caa,0.015,0.015,0,66,66,124,1,sevenfive,,,,,,,,,,,,,,,,,,,,,,,,,,,,,,,,,,,,,,,,,,,,,,,,,,,,,,,,,,,,,,,,,,,,,,,,,,,,,,,,,,,,,,,,,,,,,,,,,,,,,,,,,,,,,,,,,,,,,,,,,,,,,,,,,,,,,,,
,,6086a082cfd8e051845166e0,2023-12-15_03h05.44.504,kallum_motion_pilot,2023.2.3,Win32,35.71428571,6086a082cfd8e051845166e0,657bb317c8798c6608bceb3f,657bb42705941aea7d1c6caa,0.015,0.015,0,67,67,40,1,onetwo,,,,,,,,,,,,,,,,,,,,,,,,,,,,,,,,,,,,,,,,,,,,,,,,,,,,,,,,,,,,,,,,,,,,,,,,,,,,,,,,,,,,,,,,,,,,,,,,,,,,,,,,,,,,,,,,,,,,,,,,,,,,,,,,,,,,,,,
,,6086a082cfd8e051845166e0,2023-12-15_03h05.44.504,kallum_motion_pilot,2023.2.3,Win32,35.71428571,6086a082cfd8e051845166e0,657bb317c8798c6608bceb3f,657bb42705941aea7d1c6caa,0.015,0.015,0,68,68,147,1,sixeight,,,,,,,,,,,,,,,,,,,,,,,,,,,,,,,,,,,,,,,,,,,,,,,,,,,,,,,,,,,,,,,,,,,,,,,,,,,,,,,,,,,,,,,,,,,,,,,,,,,,,,,,,,,,,,,,,,,,,,,,,,,,,,,,,,,,,,,
,,6086a082cfd8e051845166e0,2023-12-15_03h05.44.504,kallum_motion_pilot,2023.2.3,Win32,35.71428571,6086a082cfd8e051845166e0,657bb317c8798c6608bceb3f,657bb42705941aea7d1c6caa,0.015,0.015,0,69,69,0,1,onetwo,,,,,,,,,,,,,,,,,,,,,,,,,,,,,,,,,,,,,,,,,,,,,,,,,,,,,,,,,,,,,,,,,,,,,,,,,,,,,,,,,,,,,,,,,,,,,,,,,,,,,,,,,,,,,,,,,,,,,,,,,,,,,,,,,,,,,,,
,,6086a082cfd8e051845166e0,2023-12-15_03h05.44.504,kallum_motion_pilot,2023.2.3,Win32,35.71428571,6086a082cfd8e051845166e0,657bb317c8798c6608bceb3f,657bb42705941aea7d1c6caa,0.015,0.015,0,70,70,22,1,fourtwo,,,,,,,,,,,,,,,,,,,,,,,,,,,,,,,,,,,,,,,,,,,,,,,,,,,,,,,,,,,,,,,,,,,,,,,,,,,,,,,,,,,,,,,,,,,,,,,,,,,,,,,,,,,,,,,,,,,,,,,,,,,,,,,,,,,,,,,
,,6086a082cfd8e051845166e0,2023-12-15_03h05.44.504,kallum_motion_pilot,2023.2.3,Win32,35.71428571,6086a082cfd8e051845166e0,657bb317c8798c6608bceb3f,657bb42705941aea7d1c6caa,0.015,0.015,0,71,71,159,1,eightseven,,,,,,,,,,,,,,,,,,,,,,,,,,,,,,,,,,,,,,,,,,,,,,,,,,,,,,,,,,,,,,,,,,,,,,,,,,,,,,,,,,,,,,,,,,,,,,,,,,,,,,,,,,,,,,,,,,,,,,,,,,,,,,,,,,,,,,,
,,6086a082cfd8e051845166e0,2023-12-15_03h05.44.504,kallum_motion_pilot,2023.2.3,Win32,35.71428571,6086a082cfd8e051845166e0,657bb317c8798c6608bceb3f,657bb42705941aea7d1c6caa,0.015,0.015,0,72,72,24,1,onetwo,,,,,,,,,,,,,,,,,,,,,,,,,,,,,,,,,,,,,,,,,,,,,,,,,,,,,,,,,,,,,,,,,,,,,,,,,,,,,,,,,,,,,,,,,,,,,,,,,,,,,,,,,,,,,,,,,,,,,,,,,,,,,,,,,,,,,,,
,,6086a082cfd8e051845166e0,2023-12-15_03h05.44.504,kallum_motion_pilot,2023.2.3,Win32,35.71428571,6086a082cfd8e051845166e0,657bb317c8798c6608bceb3f,657bb42705941aea7d1c6caa,0.015,0.015,0,73,73,19,1,twofour,,,,,,,,,,,,,,,,,,,,,,,,,,,,,,,,,,,,,,,,,,,,,,,,,,,,,,,,,,,,,,,,,,,,,,,,,,,,,,,,,,,,,,,,,,,,,,,,,,,,,,,,,,,,,,,,,,,,,,,,,,,,,,,,,,,,,,,
,,6086a082cfd8e051845166e0,2023-12-15_03h05.44.504,kallum_motion_pilot,2023.2.3,Win32,35.71428571,6086a082cfd8e051845166e0,657bb317c8798c6608bceb3f,657bb42705941aea7d1c6caa,0.015,0.015,0,74,74,132,1,sevenfive,,,,,,,,,,,,,,,,,,,,,,,,,,,,,,,,,,,,,,,,,,,,,,,,,,,,,,,,,,,,,,,,,,,,,,,,,,,,,,,,,,,,,,,,,,,,,,,,,,,,,,,,,,,,,,,,,,,,,,,,,,,,,,,,,,,,,,,
,,6086a082cfd8e051845166e0,2023-12-15_03h05.44.504,kallum_motion_pilot,2023.2.3,Win32,35.71428571,6086a082cfd8e051845166e0,657bb317c8798c6608bceb3f,657bb42705941aea7d1c6caa,0.015,0.015,0,75,75,74,1,twoone,,,,,,,,,,,,,,,,,,,,,,,,,,,,,,,,,,,,,,,,,,,,,,,,,,,,,,,,,,,,,,,,,,,,,,,,,,,,,,,,,,,,,,,,,,,,,,,,,,,,,,,,,,,,,,,,,,,,,,,,,,,,,,,,,,,,,,,
,,6086a082cfd8e051845166e0,2023-12-15_03h05.44.504,kallum_motion_pilot,2023.2.3,Win32,35.71428571,6086a082cfd8e051845166e0,657bb317c8798c6608bceb3f,657bb42705941aea7d1c6caa,0.015,0.015,0,76,76,140,1,sevenfive,,,,,,,,,,,,,,,,,,,,,,,,,,,,,,,,,,,,,,,,,,,,,,,,,,,,,,,,,,,,,,,,,,,,,,,,,,,,,,,,,,,,,,,,,,,,,,,,,,,,,,,,,,,,,,,,,,,,,,,,,,,,,,,,,,,,,,,
,,6086a082cfd8e051845166e0,2023-12-15_03h05.44.504,kallum_motion_pilot,2023.2.3,Win32,35.71428571,6086a082cfd8e051845166e0,657bb317c8798c6608bceb3f,657bb42705941aea7d1c6caa,0.015,0.015,0,77,77,89,1,fiveseven,,,,,,,,,,,,,,,,,,,,,,,,,,,,,,,,,,,,,,,,,,,,,,,,,,,,,,,,,,,,,,,,,,,,,,,,,,,,,,,,,,,,,,,,,,,,,,,,,,,,,,,,,,,,,,,,,,,,,,,,,,,,,,,,,,,,,,,
,,6086a082cfd8e051845166e0,2023-12-15_03h05.44.504,kallum_motion_pilot,2023.2.3,Win32,35.71428571,6086a082cfd8e051845166e0,657bb317c8798c6608bceb3f,657bb42705941aea7d1c6caa,0.015,0.015,0,78,78,50,1,twoone,,,,,,,,,,,,,,,,,,,,,,,,,,,,,,,,,,,,,,,,,,,,,,,,,,,,,,,,,,,,,,,,,,,,,,,,,,,,,,,,,,,,,,,,,,,,,,,,,,,,,,,,,,,,,,,,,,,,,,,,,,,,,,,,,,,,,,,
,,6086a082cfd8e051845166e0,2023-12-15_03h05.44.504,kallum_motion_pilot,2023.2.3,Win32,35.71428571,6086a082cfd8e051845166e0,657bb317c8798c6608bceb3f,657bb42705941aea7d1c6caa,0.015,0.015,0,79,79,77,1,threefour,,,,,,,,,,,,,,,,,,,,,,,,,,,,,,,,,,,,,,,,,,,,,,,,,,,,,,,,,,,,,,,,,,,,,,,,,,,,,,,,,,,,,,,,,,,,,,,,,,,,,,,,,,,,,,,,,,,,,,,,,,,,,,,,,,,,,,,
,,6086a082cfd8e051845166e0,2023-12-15_03h05.44.504,kallum_motion_pilot,2023.2.3,Win32,35.71428571,6086a082cfd8e051845166e0,657bb317c8798c6608bceb3f,657bb42705941aea7d1c6caa,0.015,0.015,0,80,80,126,1,eightsix,,,,,,,,,,,,,,,,,,,,,,,,,,,,,,,,,,,,,,,,,,,,,,,,,,,,,,,,,,,,,,,,,,,,,,,,,,,,,,,,,,,,,,,,,,,,,,,,,,,,,,,,,,,,,,,,,,,,,,,,,,,,,,,,,,,,,,,
,,6086a082cfd8e051845166e0,2023-12-15_03h05.44.504,kallum_motion_pilot,2023.2.3,Win32,35.71428571,6086a082cfd8e051845166e0,657bb317c8798c6608bceb3f,657bb42705941aea7d1c6caa,0.015,0.015,0,81,81,15,1,fourthree,,,,,,,,,,,,,,,,,,,,,,,,,,,,,,,,,,,,,,,,,,,,,,,,,,,,,,,,,,,,,,,,,,,,,,,,,,,,,,,,,,,,,,,,,,,,,,,,,,,,,,,,,,,,,,,,,,,,,,,,,,,,,,,,,,,,,,,
,,6086a082cfd8e051845166e0,2023-12-15_03h05.44.504,kallum_motion_pilot,2023.2.3,Win32,35.71428571,6086a082cfd8e051845166e0,657bb317c8798c6608bceb3f,657bb42705941aea7d1c6caa,0.015,0.015,0,82,82,18,1,twoone,,,,,,,,,,,,,,,,,,,,,,,,,,,,,,,,,,,,,,,,,,,,,,,,,,,,,,,,,,,,,,,,,,,,,,,,,,,,,,,,,,,,,,,,,,,,,,,,,,,,,,,,,,,,,,,,,,,,,,,,,,,,,,,,,,,,,,,
,,6086a082cfd8e051845166e0,2023-12-15_03h05.44.504,kallum_motion_pilot,2023.2.3,Win32,35.71428571,6086a082cfd8e051845166e0,657bb317c8798c6608bceb3f,657bb42705941aea7d1c6caa,0.015,0.015,0,83,83,149,1,seveneight,,,,,,,,,,,,,,,,,,,,,,,,,,,,,,,,,,,,,,,,,,,,,,,,,,,,,,,,,,,,,,,,,,,,,,,,,,,,,,,,,,,,,,,,,,,,,,,,,,,,,,,,,,,,,,,,,,,,,,,,,,,,,,,,,,,,,,,
,,6086a082cfd8e051845166e0,2023-12-15_03h05.44.504,kallum_motion_pilot,2023.2.3,Win32,35.71428571,6086a082cfd8e051845166e0,657bb317c8798c6608bceb3f,657bb42705941aea7d1c6caa,0.015,0.015,0,84,84,155,1,sixeight,,,,,,,,,,,,,,,,,,,,,,,,,,,,,,,,,,,,,,,,,,,,,,,,,,,,,,,,,,,,,,,,,,,,,,,,,,,,,,,,,,,,,,,,,,,,,,,,,,,,,,,,,,,,,,,,,,,,,,,,,,,,,,,,,,,,,,,
,,6086a082cfd8e051845166e0,2023-12-15_03h05.44.504,kallum_motion_pilot,2023.2.3,Win32,35.71428571,6086a082cfd8e051845166e0,657bb317c8798c6608bceb3f,657bb42705941aea7d1c6caa,0.015,0.015,0,85,85,72,1,onetwo,,,,,,,,,,,,,,,,,,,,,,,,,,,,,,,,,,,,,,,,,,,,,,,,,,,,,,,,,,,,,,,,,,,,,,,,,,,,,,,,,,,,,,,,,,,,,,,,,,,,,,,,,,,,,,,,,,,,,,,,,,,,,,,,,,,,,,,
,,6086a082cfd8e051845166e0,2023-12-15_03h05.44.504,kallum_motion_pilot,2023.2.3,Win32,35.71428571,6086a082cfd8e051845166e0,657bb317c8798c6608bceb3f,657bb42705941aea7d1c6caa,0.015,0.015,0,86,86,151,1,eightseven,,,,,,,,,,,,,,,,,,,,,,,,,,,,,,,,,,,,,,,,,,,,,,,,,,,,,,,,,,,,,,,,,,,,,,,,,,,,,,,,,,,,,,,,,,,,,,,,,,,,,,,,,,,,,,,,,,,,,,,,,,,,,,,,,,,,,,,
,,6086a082cfd8e051845166e0,2023-12-15_03h05.44.504,kallum_motion_pilot,2023.2.3,Win32,35.71428571,6086a082cfd8e051845166e0,657bb317c8798c6608bceb3f,657bb42705941aea7d1c6caa,0.015,0.015,0,87,87,83,1,sixeight,,,,,,,,,,,,,,,,,,,,,,,,,,,,,,,,,,,,,,,,,,,,,,,,,,,,,,,,,,,,,,,,,,,,,,,,,,,,,,,,,,,,,,,,,,,,,,,,,,,,,,,,,,,,,,,,,,,,,,,,,,,,,,,,,,,,,,,
,,6086a082cfd8e051845166e0,2023-12-15_03h05.44.504,kallum_motion_pilot,2023.2.3,Win32,35.71428571,6086a082cfd8e051845166e0,657bb317c8798c6608bceb3f,657bb42705941aea7d1c6caa,0.015,0.015,0,88,88,56,1,onetwo,,,,,,,,,,,,,,,,,,,,,,,,,,,,,,,,,,,,,,,,,,,,,,,,,,,,,,,,,,,,,,,,,,,,,,,,,,,,,,,,,,,,,,,,,,,,,,,,,,,,,,,,,,,,,,,,,,,,,,,,,,,,,,,,,,,,,,,
,,6086a082cfd8e051845166e0,2023-12-15_03h05.44.504,kallum_motion_pilot,2023.2.3,Win32,35.71428571,6086a082cfd8e051845166e0,657bb317c8798c6608bceb3f,657bb42705941aea7d1c6caa,0.015,0.015,0,89,89,86,1,eightsix,,,,,,,,,,,,,,,,,,,,,,,,,,,,,,,,,,,,,,,,,,,,,,,,,,,,,,,,,,,,,,,,,,,,,,,,,,,,,,,,,,,,,,,,,,,,,,,,,,,,,,,,,,,,,,,,,,,,,,,,,,,,,,,,,,,,,,,
,,6086a082cfd8e051845166e0,2023-12-15_03h05.44.504,kallum_motion_pilot,2023.2.3,Win32,35.71428571,6086a082cfd8e051845166e0,657bb317c8798c6608bceb3f,657bb42705941aea7d1c6caa,0.015,0.015,0,90,90,53,1,threefour,,,,,,,,,,,,,,,,,,,,,,,,,,,,,,,,,,,,,,,,,,,,,,,,,,,,,,,,,,,,,,,,,,,,,,,,,,,,,,,,,,,,,,,,,,,,,,,,,,,,,,,,,,,,,,,,,,,,,,,,,,,,,,,,,,,,,,,
,,6086a082cfd8e051845166e0,2023-12-15_03h05.44.504,kallum_motion_pilot,2023.2.3,Win32,35.71428571,6086a082cfd8e051845166e0,657bb317c8798c6608bceb3f,657bb42705941aea7d1c6caa,0.015,0.015,0,91,91,64,1,onetwo,,,,,,,,,,,,,,,,,,,,,,,,,,,,,,,,,,,,,,,,,,,,,,,,,,,,,,,,,,,,,,,,,,,,,,,,,,,,,,,,,,,,,,,,,,,,,,,,,,,,,,,,,,,,,,,,,,,,,,,,,,,,,,,,,,,,,,,
,,6086a082cfd8e051845166e0,2023-12-15_03h05.44.504,kallum_motion_pilot,2023.2.3,Win32,35.71428571,6086a082cfd8e051845166e0,657bb317c8798c6608bceb3f,657bb42705941aea7d1c6caa,0.015,0.015,0,92,92,10,1,twoone,,,,,,,,,,,,,,,,,,,,,,,,,,,,,,,,,,,,,,,,,,,,,,,,,,,,,,,,,,,,,,,,,,,,,,,,,,,,,,,,,,,,,,,,,,,,,,,,,,,,,,,,,,,,,,,,,,,,,,,,,,,,,,,,,,,,,,,
,,6086a082cfd8e051845166e0,2023-12-15_03h05.44.504,kallum_motion_pilot,2023.2.3,Win32,35.71428571,6086a082cfd8e051845166e0,657bb317c8798c6608bceb3f,657bb42705941aea7d1c6caa,0.015,0.015,0,93,93,29,1,threefour,,,,,,,,,,,,,,,,,,,,,,,,,,,,,,,,,,,,,,,,,,,,,,,,,,,,,,,,,,,,,,,,,,,,,,,,,,,,,,,,,,,,,,,,,,,,,,,,,,,,,,,,,,,,,,,,,,,,,,,,,,,,,,,,,,,,,,,
,,6086a082cfd8e051845166e0,2023-12-15_03h05.44.504,kallum_motion_pilot,2023.2.3,Win32,35.71428571,6086a082cfd8e051845166e0,657bb317c8798c6608bceb3f,657bb42705941aea7d1c6caa,0.016,0.016,0,94,94,42,1,twoone,,,,,,,,,,,,,,,,,,,,,,,,,,,,,,,,,,,,,,,,,,,,,,,,,,,,,,,,,,,,,,,,,,,,,,,,,,,,,,,,,,,,,,,,,,,,,,,,,,,,,,,,,,,,,,,,,,,,,,,,,,,,,,,,,,,,,,,
,,6086a082cfd8e051845166e0,2023-12-15_03h05.44.504,kallum_motion_pilot,2023.2.3,Win32,35.71428571,6086a082cfd8e051845166e0,657bb317c8798c6608bceb3f,657bb42705941aea7d1c6caa,0.016,0.016,0,95,95,153,1,fiveseven,,,,,,,,,,,,,,,,,,,,,,,,,,,,,,,,,,,,,,,,,,,,,,,,,,,,,,,,,,,,,,,,,,,,,,,,,,,,,,,,,,,,,,,,,,,,,,,,,,,,,,,,,,,,,,,,,,,,,,,,,,,,,,,,,,,,,,,
,,6086a082cfd8e051845166e0,2023-12-15_03h05.44.504,kallum_motion_pilot,2023.2.3,Win32,35.71428571,6086a082cfd8e051845166e0,657bb317c8798c6608bceb3f,657bb42705941aea7d1c6caa,0.016,0.016,0,96,96,102,1,eightsix,,,,,,,,,,,,,,,,,,,,,,,,,,,,,,,,,,,,,,,,,,,,,,,,,,,,,,,,,,,,,,,,,,,,,,,,,,,,,,,,,,,,,,,,,,,,,,,,,,,,,,,,,,,,,,,,,,,,,,,,,,,,,,,,,,,,,,,
,,6086a082cfd8e051845166e0,2023-12-15_03h05.44.504,kallum_motion_pilot,2023.2.3,Win32,35.71428571,6086a082cfd8e051845166e0,657bb317c8798c6608bceb3f,657bb42705941aea7d1c6caa,0.016,0.016,0,97,97,62,1,fourtwo,,,,,,,,,,,,,,,,,,,,,,,,,,,,,,,,,,,,,,,,,,,,,,,,,,,,,,,,,,,,,,,,,,,,,,,,,,,,,,,,,,,,,,,,,,,,,,,,,,,,,,,,,,,,,,,,,,,,,,,,,,,,,,,,,,,,,,,
,,6086a082cfd8e051845166e0,2023-12-15_03h05.44.504,kallum_motion_pilot,2023.2.3,Win32,35.71428571,6086a082cfd8e051845166e0,657bb317c8798c6608bceb3f,657bb42705941aea7d1c6caa,0.016,0.016,0,98,98,70,1,fourtwo,,,,,,,,,,,,,,,,,,,,,,,,,,,,,,,,,,,,,,,,,,,,,,,,,,,,,,,,,,,,,,,,,,,,,,,,,,,,,,,,,,,,,,,,,,,,,,,,,,,,,,,,,,,,,,,,,,,,,,,,,,,,,,,,,,,,,,,
,,6086a082cfd8e051845166e0,2023-12-15_03h05.44.504,kallum_motion_pilot,2023.2.3,Win32,35.71428571,6086a082cfd8e051845166e0,657bb317c8798c6608bceb3f,657bb42705941aea7d1c6caa,0.016,0.016,0,99,99,146,1,sixfive,,,,,,,,,,,,,,,,,,,,,,,,,,,,,,,,,,,,,,,,,,,,,,,,,,,,,,,,,,,,,,,,,,,,,,,,,,,,,,,,,,,,,,,,,,,,,,,,,,,,,,,,,,,,,,,,,,,,,,,,,,,,,,,,,,,,,,,
,,6086a082cfd8e051845166e0,2023-12-15_03h05.44.504,kallum_motion_pilot,2023.2.3,Win32,35.71428571,6086a082cfd8e051845166e0,657bb317c8798c6608bceb3f,657bb42705941aea7d1c6caa,0.016,0.016,0,100,100,137,1,fiveseven,,,,,,,,,,,,,,,,,,,,,,,,,,,,,,,,,,,,,,,,,,,,,,,,,,,,,,,,,,,,,,,,,,,,,,,,,,,,,,,,,,,,,,,,,,,,,,,,,,,,,,,,,,,,,,,,,,,,,,,,,,,,,,,,,,,,,,,
,,6086a082cfd8e051845166e0,2023-12-15_03h05.44.504,kallum_motion_pilot,2023.2.3,Win32,35.71428571,6086a082cfd8e051845166e0,657bb317c8798c6608bceb3f,657bb42705941aea7d1c6caa,0.016,0.016,0,101,101,35,1,twofour,,,,,,,,,,,,,,,,,,,,,,,,,,,,,,,,,,,,,,,,,,,,,,,,,,,,,,,,,,,,,,,,,,,,,,,,,,,,,,,,,,,,,,,,,,,,,,,,,,,,,,,,,,,,,,,,,,,,,,,,,,,,,,,,,,,,,,,
,,6086a082cfd8e051845166e0,2023-12-15_03h05.44.504,kallum_motion_pilot,2023.2.3,Win32,35.71428571,6086a082cfd8e051845166e0,657bb317c8798c6608bceb3f,657bb42705941aea7d1c6caa,0.016,0.016,0,102,102,127,1,eightseven,,,,,,,,,,,,,,,,,,,,,,,,,,,,,,,,,,,,,,,,,,,,,,,,,,,,,,,,,,,,,,,,,,,,,,,,,,,,,,,,,,,,,,,,,,,,,,,,,,,,,,,,,,,,,,,,,,,,,,,,,,,,,,,,,,,,,,,
,,6086a082cfd8e051845166e0,2023-12-15_03h05.44.504,kallum_motion_pilot,2023.2.3,Win32,35.71428571,6086a082cfd8e051845166e0,657bb317c8798c6608bceb3f,657bb42705941aea7d1c6caa,0.016,0.016,0,103,103,129,1,fiveseven,,,,,,,,,,,,,,,,,,,,,,,,,,,,,,,,,,,,,,,,,,,,,,,,,,,,,,,,,,,,,,,,,,,,,,,,,,,,,,,,,,,,,,,,,,,,,,,,,,,,,,,,,,,,,,,,,,,,,,,,,,,,,,,,,,,,,,,
,,6086a082cfd8e051845166e0,2023-12-15_03h05.44.504,kallum_motion_pilot,2023.2.3,Win32,35.71428571,6086a082cfd8e051845166e0,657bb317c8798c6608bceb3f,657bb42705941aea7d1c6caa,0.016,0.016,0,104,104,34,1,twoone,,,,,,,,,,,,,,,,,,,,,,,,,,,,,,,,,,,,,,,,,,,,,,,,,,,,,,,,,,,,,,,,,,,,,,,,,,,,,,,,,,,,,,,,,,,,,,,,,,,,,,,,,,,,,,,,,,,,,,,,,,,,,,,,,,,,,,,
,,6086a082cfd8e051845166e0,2023-12-15_03h05.44.504,kallum_motion_pilot,2023.2.3,Win32,35.71428571,6086a082cfd8e051845166e0,657bb317c8798c6608bceb3f,657bb42705941aea7d1c6caa,0.016,0.016,0,105,105,103,1,eightseven,,,,,,,,,,,,,,,,,,,,,,,,,,,,,,,,,,,,,,,,,,,,,,,,,,,,,,,,,,,,,,,,,,,,,,,,,,,,,,,,,,,,,,,,,,,,,,,,,,,,,,,,,,,,,,,,,,,,,,,,,,,,,,,,,,,,,,,
,,6086a082cfd8e051845166e0,2023-12-15_03h05.44.504,kallum_motion_pilot,2023.2.3,Win32,35.71428571,6086a082cfd8e051845166e0,657bb317c8798c6608bceb3f,657bb42705941aea7d1c6caa,0.016,0.016,0,106,106,145,1,fiveseven,,,,,,,,,,,,,,,,,,,,,,,,,,,,,,,,,,,,,,,,,,,,,,,,,,,,,,,,,,,,,,,,,,,,,,,,,,,,,,,,,,,,,,,,,,,,,,,,,,,,,,,,,,,,,,,,,,,,,,,,,,,,,,,,,,,,,,,
,,6086a082cfd8e051845166e0,2023-12-15_03h05.44.504,kallum_motion_pilot,2023.2.3,Win32,35.71428571,6086a082cfd8e051845166e0,657bb317c8798c6608bceb3f,657bb42705941aea7d1c6caa,0.016,0.016,0,107,107,128,1,fivesix,,,,,,,,,,,,,,,,,,,,,,,,,,,,,,,,,,,,,,,,,,,,,,,,,,,,,,,,,,,,,,,,,,,,,,,,,,,,,,,,,,,,,,,,,,,,,,,,,,,,,,,,,,,,,,,,,,,,,,,,,,,,,,,,,,,,,,,
,,6086a082cfd8e051845166e0,2023-12-15_03h05.44.504,kallum_motion_pilot,2023.2.3,Win32,35.71428571,6086a082cfd8e051845166e0,657bb317c8798c6608bceb3f,657bb42705941aea7d1c6caa,0.016,0.016,0,108,108,156,1,sevenfive,,,,,,,,,,,,,,,,,,,,,,,,,,,,,,,,,,,,,,,,,,,,,,,,,,,,,,,,,,,,,,,,,,,,,,,,,,,,,,,,,,,,,,,,,,,,,,,,,,,,,,,,,,,,,,,,,,,,,,,,,,,,,,,,,,,,,,,
,,6086a082cfd8e051845166e0,2023-12-15_03h05.44.504,kallum_motion_pilot,2023.2.3,Win32,35.71428571,6086a082cfd8e051845166e0,657bb317c8798c6608bceb3f,657bb42705941aea7d1c6caa,0.016,0.016,0,109,109,96,1,fivesix,,,,,,,,,,,,,,,,,,,,,,,,,,,,,,,,,,,,,,,,,,,,,,,,,,,,,,,,,,,,,,,,,,,,,,,,,,,,,,,,,,,,,,,,,,,,,,,,,,,,,,,,,,,,,,,,,,,,,,,,,,,,,,,,,,,,,,,
,,6086a082cfd8e051845166e0,2023-12-15_03h05.44.504,kallum_motion_pilot,2023.2.3,Win32,35.71428571,6086a082cfd8e051845166e0,657bb317c8798c6608bceb3f,657bb42705941aea7d1c6caa,0.016,0.016,0,110,110,52,1,threeone,,,,,,,,,,,,,,,,,,,,,,,,,,,,,,,,,,,,,,,,,,,,,,,,,,,,,,,,,,,,,,,,,,,,,,,,,,,,,,,,,,,,,,,,,,,,,,,,,,,,,,,,,,,,,,,,,,,,,,,,,,,,,,,,,,,,,,,
,,6086a082cfd8e051845166e0,2023-12-15_03h05.44.504,kallum_motion_pilot,2023.2.3,Win32,35.71428571,6086a082cfd8e051845166e0,657bb317c8798c6608bceb3f,657bb42705941aea7d1c6caa,0.016,0.016,0,111,111,57,1,onethree,,,,,,,,,,,,,,,,,,,,,,,,,,,,,,,,,,,,,,,,,,,,,,,,,,,,,,,,,,,,,,,,,,,,,,,,,,,,,,,,,,,,,,,,,,,,,,,,,,,,,,,,,,,,,,,,,,,,,,,,,,,,,,,,,,,,,,,
,,6086a082cfd8e051845166e0,2023-12-15_03h05.44.504,kallum_motion_pilot,2023.2.3,Win32,35.71428571,6086a082cfd8e051845166e0,657bb317c8798c6608bceb3f,657bb42705941aea7d1c6caa,0.016,0.016,0,112,112,31,1,fourthree,,,,,,,,,,,,,,,,,,,,,,,,,,,,,,,,,,,,,,,,,,,,,,,,,,,,,,,,,,,,,,,,,,,,,,,,,,,,,,,,,,,,,,,,,,,,,,,,,,,,,,,,,,,,,,,,,,,,,,,,,,,,,,,,,,,,,,,
,,6086a082cfd8e051845166e0,2023-12-15_03h05.44.504,kallum_motion_pilot,2023.2.3,Win32,35.71428571,6086a082cfd8e051845166e0,657bb317c8798c6608bceb3f,657bb42705941aea7d1c6caa,0.016,0.016,0,113,113,109,1,seveneight,,,,,,,,,,,,,,,,,,,,,,,,,,,,,,,,,,,,,,,,,,,,,,,,,,,,,,,,,,,,,,,,,,,,,,,,,,,,,,,,,,,,,,,,,,,,,,,,,,,,,,,,,,,,,,,,,,,,,,,,,,,,,,,,,,,,,,,
,,6086a082cfd8e051845166e0,2023-12-15_03h05.44.504,kallum_motion_pilot,2023.2.3,Win32,35.71428571,6086a082cfd8e051845166e0,657bb317c8798c6608bceb3f,657bb42705941aea7d1c6caa,0.016,0.016,0,114,114,80,1,fivesix,,,,,,,,,,,,,,,,,,,,,,,,,,,,,,,,,,,,,,,,,,,,,,,,,,,,,,,,,,,,,,,,,,,,,,,,,,,,,,,,,,,,,,,,,,,,,,,,,,,,,,,,,,,,,,,,,,,,,,,,,,,,,,,,,,,,,,,
,,6086a082cfd8e051845166e0,2023-12-15_03h05.44.504,kallum_motion_pilot,2023.2.3,Win32,35.71428571,6086a082cfd8e051845166e0,657bb317c8798c6608bceb3f,657bb42705941aea7d1c6caa,0.016,0.016,0,115,115,98,1,sixfive,,,,,,,,,,,,,,,,,,,,,,,,,,,,,,,,,,,,,,,,,,,,,,,,,,,,,,,,,,,,,,,,,,,,,,,,,,,,,,,,,,,,,,,,,,,,,,,,,,,,,,,,,,,,,,,,,,,,,,,,,,,,,,,,,,,,,,,
,,6086a082cfd8e051845166e0,2023-12-15_03h05.44.504,kallum_motion_pilot,2023.2.3,Win32,35.71428571,6086a082cfd8e051845166e0,657bb317c8798c6608bceb3f,657bb42705941aea7d1c6caa,0.016,0.016,0,116,116,114,1,sixfive,,,,,,,,,,,,,,,,,,,,,,,,,,,,,,,,,,,,,,,,,,,,,,,,,,,,,,,,,,,,,,,,,,,,,,,,,,,,,,,,,,,,,,,,,,,,,,,,,,,,,,,,,,,,,,,,,,,,,,,,,,,,,,,,,,,,,,,
,,6086a082cfd8e051845166e0,2023-12-15_03h05.44.504,kallum_motion_pilot,2023.2.3,Win32,35.71428571,6086a082cfd8e051845166e0,657bb317c8798c6608bceb3f,657bb42705941aea7d1c6caa,0.016,0.016,0,117,117,92,1,sevenfive,,,,,,,,,,,,,,,,,,,,,,,,,,,,,,,,,,,,,,,,,,,,,,,,,,,,,,,,,,,,,,,,,,,,,,,,,,,,,,,,,,,,,,,,,,,,,,,,,,,,,,,,,,,,,,,,,,,,,,,,,,,,,,,,,,,,,,,
,,6086a082cfd8e051845166e0,2023-12-15_03h05.44.504,kallum_motion_pilot,2023.2.3,Win32,35.71428571,6086a082cfd8e051845166e0,657bb317c8798c6608bceb3f,657bb42705941aea7d1c6caa,0.016,0.016,0,118,118,60,1,threeone,,,,,,,,,,,,,,,,,,,,,,,,,,,,,,,,,,,,,,,,,,,,,,,,,,,,,,,,,,,,,,,,,,,,,,,,,,,,,,,,,,,,,,,,,,,,,,,,,,,,,,,,,,,,,,,,,,,,,,,,,,,,,,,,,,,,,,,
,,6086a082cfd8e051845166e0,2023-12-15_03h05.44.504,kallum_motion_pilot,2023.2.3,Win32,35.71428571,6086a082cfd8e051845166e0,657bb317c8798c6608bceb3f,657bb42705941aea7d1c6caa,0.016,0.016,0,119,119,90,1,sixfive,,,,,,,,,,,,,,,,,,,,,,,,,,,,,,,,,,,,,,,,,,,,,,,,,,,,,,,,,,,,,,,,,,,,,,,,,,,,,,,,,,,,,,,,,,,,,,,,,,,,,,,,,,,,,,,,,,,,,,,,,,,,,,,,,,,,,,,
,,6086a082cfd8e051845166e0,2023-12-15_03h05.44.504,kallum_motion_pilot,2023.2.3,Win32,35.71428571,6086a082cfd8e051845166e0,657bb317c8798c6608bceb3f,657bb42705941aea7d1c6caa,0.016,0.016,0,120,120,142,1,eightsix,,,,,,,,,,,,,,,,,,,,,,,,,,,,,,,,,,,,,,,,,,,,,,,,,,,,,,,,,,,,,,,,,,,,,,,,,,,,,,,,,,,,,,,,,,,,,,,,,,,,,,,,,,,,,,,,,,,,,,,,,,,,,,,,,,,,,,,
,,6086a082cfd8e051845166e0,2023-12-15_03h05.44.504,kallum_motion_pilot,2023.2.3,Win32,35.71428571,6086a082cfd8e051845166e0,657bb317c8798c6608bceb3f,657bb42705941aea7d1c6caa,0.016,0.016,0,121,121,47,1,fourthree,,,,,,,,,,,,,,,,,,,,,,,,,,,,,,,,,,,,,,,,,,,,,,,,,,,,,,,,,,,,,,,,,,,,,,,,,,,,,,,,,,,,,,,,,,,,,,,,,,,,,,,,,,,,,,,,,,,,,,,,,,,,,,,,,,,,,,,
,,6086a082cfd8e051845166e0,2023-12-15_03h05.44.504,kallum_motion_pilot,2023.2.3,Win32,35.71428571,6086a082cfd8e051845166e0,657bb317c8798c6608bceb3f,657bb42705941aea7d1c6caa,0.016,0.016,0,122,122,85,1,seveneight,,,,,,,,,,,,,,,,,,,,,,,,,,,,,,,,,,,,,,,,,,,,,,,,,,,,,,,,,,,,,,,,,,,,,,,,,,,,,,,,,,,,,,,,,,,,,,,,,,,,,,,,,,,,,,,,,,,,,,,,,,,,,,,,,,,,,,,
,,6086a082cfd8e051845166e0,2023-12-15_03h05.44.504,kallum_motion_pilot,2023.2.3,Win32,35.71428571,6086a082cfd8e051845166e0,657bb317c8798c6608bceb3f,657bb42705941aea7d1c6caa,0.017,0.017,0,123,123,69,1,threefour,,,,,,,,,,,,,,,,,,,,,,,,,,,,,,,,,,,,,,,,,,,,,,,,,,,,,,,,,,,,,,,,,,,,,,,,,,,,,,,,,,,,,,,,,,,,,,,,,,,,,,,,,,,,,,,,,,,,,,,,,,,,,,,,,,,,,,,
,,6086a082cfd8e051845166e0,2023-12-15_03h05.44.504,kallum_motion_pilot,2023.2.3,Win32,35.71428571,6086a082cfd8e051845166e0,657bb317c8798c6608bceb3f,657bb42705941aea7d1c6caa,0.017,0.017,0,124,124,97,1,fiveseven,,,,,,,,,,,,,,,,,,,,,,,,,,,,,,,,,,,,,,,,,,,,,,,,,,,,,,,,,,,,,,,,,,,,,,,,,,,,,,,,,,,,,,,,,,,,,,,,,,,,,,,,,,,,,,,,,,,,,,,,,,,,,,,,,,,,,,,
,,6086a082cfd8e051845166e0,2023-12-15_03h05.44.504,kallum_motion_pilot,2023.2.3,Win32,35.71428571,6086a082cfd8e051845166e0,657bb317c8798c6608bceb3f,657bb42705941aea7d1c6caa,0.017,0.017,0,125,125,87,1,eightseven,,,,,,,,,,,,,,,,,,,,,,,,,,,,,,,,,,,,,,,,,,,,,,,,,,,,,,,,,,,,,,,,,,,,,,,,,,,,,,,,,,,,,,,,,,,,,,,,,,,,,,,,,,,,,,,,,,,,,,,,,,,,,,,,,,,,,,,
,,6086a082cfd8e051845166e0,2023-12-15_03h05.44.504,kallum_motion_pilot,2023.2.3,Win32,35.71428571,6086a082cfd8e051845166e0,657bb317c8798c6608bceb3f,657bb42705941aea7d1c6caa,0.017,0.017,0,126,126,150,1,eightsix,,,,,,,,,,,,,,,,,,,,,,,,,,,,,,,,,,,,,,,,,,,,,,,,,,,,,,,,,,,,,,,,,,,,,,,,,,,,,,,,,,,,,,,,,,,,,,,,,,,,,,,,,,,,,,,,,,,,,,,,,,,,,,,,,,,,,,,
,,6086a082cfd8e051845166e0,2023-12-15_03h05.44.504,kallum_motion_pilot,2023.2.3,Win32,35.71428571,6086a082cfd8e051845166e0,657bb317c8798c6608bceb3f,657bb42705941aea7d1c6caa,0.017,0.017,0,127,127,122,1,sixfive,,,,,,,,,,,,,,,,,,,,,,,,,,,,,,,,,,,,,,,,,,,,,,,,,,,,,,,,,,,,,,,,,,,,,,,,,,,,,,,,,,,,,,,,,,,,,,,,,,,,,,,,,,,,,,,,,,,,,,,,,,,,,,,,,,,,,,,
,,6086a082cfd8e051845166e0,2023-12-15_03h05.44.504,kallum_motion_pilot,2023.2.3,Win32,35.71428571,6086a082cfd8e051845166e0,657bb317c8798c6608bceb3f,657bb42705941aea7d1c6caa,0.017,0.017,0,128,128,23,1,fourthree,,,,,,,,,,,,,,,,,,,,,,,,,,,,,,,,,,,,,,,,,,,,,,,,,,,,,,,,,,,,,,,,,,,,,,,,,,,,,,,,,,,,,,,,,,,,,,,,,,,,,,,,,,,,,,,,,,,,,,,,,,,,,,,,,,,,,,,
,,6086a082cfd8e051845166e0,2023-12-15_03h05.44.504,kallum_motion_pilot,2023.2.3,Win32,35.71428571,6086a082cfd8e051845166e0,657bb317c8798c6608bceb3f,657bb42705941aea7d1c6caa,0.017,0.017,0,129,129,123,1,sixeight,,,,,,,,,,,,,,,,,,,,,,,,,,,,,,,,,,,,,,,,,,,,,,,,,,,,,,,,,,,,,,,,,,,,,,,,,,,,,,,,,,,,,,,,,,,,,,,,,,,,,,,,,,,,,,,,,,,,,,,,,,,,,,,,,,,,,,,
,,6086a082cfd8e051845166e0,2023-12-15_03h05.44.504,kallum_motion_pilot,2023.2.3,Win32,35.71428571,6086a082cfd8e051845166e0,657bb317c8798c6608bceb3f,657bb42705941aea7d1c6caa,0.017,0.017,0,130,130,139,1,sixeight,,,,,,,,,,,,,,,,,,,,,,,,,,,,,,,,,,,,,,,,,,,,,,,,,,,,,,,,,,,,,,,,,,,,,,,,,,,,,,,,,,,,,,,,,,,,,,,,,,,,,,,,,,,,,,,,,,,,,,,,,,,,,,,,,,,,,,,
,,6086a082cfd8e051845166e0,2023-12-15_03h05.44.504,kallum_motion_pilot,2023.2.3,Win32,35.71428571,6086a082cfd8e051845166e0,657bb317c8798c6608bceb3f,657bb42705941aea7d1c6caa,0.017,0.017,0,131,131,66,1,twoone,,,,,,,,,,,,,,,,,,,,,,,,,,,,,,,,,,,,,,,,,,,,,,,,,,,,,,,,,,,,,,,,,,,,,,,,,,,,,,,,,,,,,,,,,,,,,,,,,,,,,,,,,,,,,,,,,,,,,,,,,,,,,,,,,,,,,,,
,,6086a082cfd8e051845166e0,2023-12-15_03h05.44.504,kallum_motion_pilot,2023.2.3,Win32,35.71428571,6086a082cfd8e051845166e0,657bb317c8798c6608bceb3f,657bb42705941aea7d1c6caa,0.017,0.017,0,132,132,28,1,threeone,,,,,,,,,,,,,,,,,,,,,,,,,,,,,,,,,,,,,,,,,,,,,,,,,,,,,,,,,,,,,,,,,,,,,,,,,,,,,,,,,,,,,,,,,,,,,,,,,,,,,,,,,,,,,,,,,,,,,,,,,,,,,,,,,,,,,,,
,,6086a082cfd8e051845166e0,2023-12-15_03h05.44.504,kallum_motion_pilot,2023.2.3,Win32,35.71428571,6086a082cfd8e051845166e0,657bb317c8798c6608bceb3f,657bb42705941aea7d1c6caa,0.017,0.017,0,133,133,134,1,eightsix,,,,,,,,,,,,,,,,,,,,,,,,,,,,,,,,,,,,,,,,,,,,,,,,,,,,,,,,,,,,,,,,,,,,,,,,,,,,,,,,,,,,,,,,,,,,,,,,,,,,,,,,,,,,,,,,,,,,,,,,,,,,,,,,,,,,,,,
,,6086a082cfd8e051845166e0,2023-12-15_03h05.44.504,kallum_motion_pilot,2023.2.3,Win32,35.71428571,6086a082cfd8e051845166e0,657bb317c8798c6608bceb3f,657bb42705941aea7d1c6caa,0.017,0.017,0,134,134,78,1,fourtwo,,,,,,,,,,,,,,,,,,,,,,,,,,,,,,,,,,,,,,,,,,,,,,,,,,,,,,,,,,,,,,,,,,,,,,,,,,,,,,,,,,,,,,,,,,,,,,,,,,,,,,,,,,,,,,,,,,,,,,,,,,,,,,,,,,,,,,,
,,6086a082cfd8e051845166e0,2023-12-15_03h05.44.504,kallum_motion_pilot,2023.2.3,Win32,35.71428571,6086a082cfd8e051845166e0,657bb317c8798c6608bceb3f,657bb42705941aea7d1c6caa,0.017,0.017,0,135,135,7,1,fourthree,,,,,,,,,,,,,,,,,,,,,,,,,,,,,,,,,,,,,,,,,,,,,,,,,,,,,,,,,,,,,,,,,,,,,,,,,,,,,,,,,,,,,,,,,,,,,,,,,,,,,,,,,,,,,,,,,,,,,,,,,,,,,,,,,,,,,,,
,,6086a082cfd8e051845166e0,2023-12-15_03h05.44.504,kallum_motion_pilot,2023.2.3,Win32,35.71428571,6086a082cfd8e051845166e0,657bb317c8798c6608bceb3f,657bb42705941aea7d1c6caa,0.018,0.018,0,136,136,30,1,fourtwo,,,,,,,,,,,,,,,,,,,,,,,,,,,,,,,,,,,,,,,,,,,,,,,,,,,,,,,,,,,,,,,,,,,,,,,,,,,,,,,,,,,,,,,,,,,,,,,,,,,,,,,,,,,,,,,,,,,,,,,,,,,,,,,,,,,,,,,
,,6086a082cfd8e051845166e0,2023-12-15_03h05.44.504,kallum_motion_pilot,2023.2.3,Win32,35.71428571,6086a082cfd8e051845166e0,657bb317c8798c6608bceb3f,657bb42705941aea7d1c6caa,0.018,0.018,0,137,137,5,1,threefour,,,,,,,,,,,,,,,,,,,,,,,,,,,,,,,,,,,,,,,,,,,,,,,,,,,,,,,,,,,,,,,,,,,,,,,,,,,,,,,,,,,,,,,,,,,,,,,,,,,,,,,,,,,,,,,,,,,,,,,,,,,,,,,,,,,,,,,
,,6086a082cfd8e051845166e0,2023-12-15_03h05.44.504,kallum_motion_pilot,2023.2.3,Win32,35.71428571,6086a082cfd8e051845166e0,657bb317c8798c6608bceb3f,657bb42705941aea7d1c6caa,0.018,0.018,0,138,138,91,1,sixeight,,,,,,,,,,,,,,,,,,,,,,,,,,,,,,,,,,,,,,,,,,,,,,,,,,,,,,,,,,,,,,,,,,,,,,,,,,,,,,,,,,,,,,,,,,,,,,,,,,,,,,,,,,,,,,,,,,,,,,,,,,,,,,,,,,,,,,,
,,6086a082cfd8e051845166e0,2023-12-15_03h05.44.504,kallum_motion_pilot,2023.2.3,Win32,35.71428571,6086a082cfd8e051845166e0,657bb317c8798c6608bceb3f,657bb42705941aea7d1c6caa,0.018,0.018,0,139,139,108,1,sevenfive,,,,,,,,,,,,,,,,,,,,,,,,,,,,,,,,,,,,,,,,,,,,,,,,,,,,,,,,,,,,,,,,,,,,,,,,,,,,,,,,,,,,,,,,,,,,,,,,,,,,,,,,,,,,,,,,,,,,,,,,,,,,,,,,,,,,,,,
,,6086a082cfd8e051845166e0,2023-12-15_03h05.44.504,kallum_motion_pilot,2023.2.3,Win32,35.71428571,6086a082cfd8e051845166e0,657bb317c8798c6608bceb3f,657bb42705941aea7d1c6caa,0.018,0.018,0,140,140,81,1,fiveseven,,,,,,,,,,,,,,,,,,,,,,,,,,,,,,,,,,,,,,,,,,,,,,,,,,,,,,,,,,,,,,,,,,,,,,,,,,,,,,,,,,,,,,,,,,,,,,,,,,,,,,,,,,,,,,,,,,,,,,,,,,,,,,,,,,,,,,,
,,6086a082cfd8e051845166e0,2023-12-15_03h05.44.504,kallum_motion_pilot,2023.2.3,Win32,35.71428571,6086a082cfd8e051845166e0,657bb317c8798c6608bceb3f,657bb42705941aea7d1c6caa,0.018,0.018,0,141,141,54,1,fourtwo,,,,,,,,,,,,,,,,,,,,,,,,,,,,,,,,,,,,,,,,,,,,,,,,,,,,,,,,,,,,,,,,,,,,,,,,,,,,,,,,,,,,,,,,,,,,,,,,,,,,,,,,,,,,,,,,,,,,,,,,,,,,,,,,,,,,,,,
,,6086a082cfd8e051845166e0,2023-12-15_03h05.44.504,kallum_motion_pilot,2023.2.3,Win32,35.71428571,6086a082cfd8e051845166e0,657bb317c8798c6608bceb3f,657bb42705941aea7d1c6caa,0.018,0.018,0,142,142,33,1,onethree,,,,,,,,,,,,,,,,,,,,,,,,,,,,,,,,,,,,,,,,,,,,,,,,,,,,,,,,,,,,,,,,,,,,,,,,,,,,,,,,,,,,,,,,,,,,,,,,,,,,,,,,,,,,,,,,,,,,,,,,,,,,,,,,,,,,,,,
,,6086a082cfd8e051845166e0,2023-12-15_03h05.44.504,kallum_motion_pilot,2023.2.3,Win32,35.71428571,6086a082cfd8e051845166e0,657bb317c8798c6608bceb3f,657bb42705941aea7d1c6caa,0.018,0.018,0,143,143,110,1,eightsix,,,,,,,,,,,,,,,,,,,,,,,,,,,,,,,,,,,,,,,,,,,,,,,,,,,,,,,,,,,,,,,,,,,,,,,,,,,,,,,,,,,,,,,,,,,,,,,,,,,,,,,,,,,,,,,,,,,,,,,,,,,,,,,,,,,,,,,
,,6086a082cfd8e051845166e0,2023-12-15_03h05.44.504,kallum_motion_pilot,2023.2.3,Win32,35.71428571,6086a082cfd8e051845166e0,657bb317c8798c6608bceb3f,657bb42705941aea7d1c6caa,0.018,0.018,0,144,144,118,1,eightsix,,,,,,,,,,,,,,,,,,,,,,,,,,,,,,,,,,,,,,,,,,,,,,,,,,,,,,,,,,,,,,,,,,,,,,,,,,,,,,,,,,,,,,,,,,,,,,,,,,,,,,,,,,,,,,,,,,,,,,,,,,,,,,,,,,,,,,,
,,6086a082cfd8e051845166e0,2023-12-15_03h05.44.504,kallum_motion_pilot,2023.2.3,Win32,35.71428571,6086a082cfd8e051845166e0,657bb317c8798c6608bceb3f,657bb42705941aea7d1c6caa,0.018,0.018,0,145,145,71,1,fourthree,,,,,,,,,,,,,,,,,,,,,,,,,,,,,,,,,,,,,,,,,,,,,,,,,,,,,,,,,,,,,,,,,,,,,,,,,,,,,,,,,,,,,,,,,,,,,,,,,,,,,,,,,,,,,,,,,,,,,,,,,,,,,,,,,,,,,,,
,,6086a082cfd8e051845166e0,2023-12-15_03h05.44.504,kallum_motion_pilot,2023.2.3,Win32,35.71428571,6086a082cfd8e051845166e0,657bb317c8798c6608bceb3f,657bb42705941aea7d1c6caa,0.018,0.018,0,146,146,27,1,twofour,,,,,,,,,,,,,,,,,,,,,,,,,,,,,,,,,,,,,,,,,,,,,,,,,,,,,,,,,,,,,,,,,,,,,,,,,,,,,,,,,,,,,,,,,,,,,,,,,,,,,,,,,,,,,,,,,,,,,,,,,,,,,,,,,,,,,,,
,,6086a082cfd8e051845166e0,2023-12-15_03h05.44.504,kallum_motion_pilot,2023.2.3,Win32,35.71428571,6086a082cfd8e051845166e0,657bb317c8798c6608bceb3f,657bb42705941aea7d1c6caa,0.018,0.018,0,147,147,131,1,sixeight,,,,,,,,,,,,,,,,,,,,,,,,,,,,,,,,,,,,,,,,,,,,,,,,,,,,,,,,,,,,,,,,,,,,,,,,,,,,,,,,,,,,,,,,,,,,,,,,,,,,,,,,,,,,,,,,,,,,,,,,,,,,,,,,,,,,,,,
,,6086a082cfd8e051845166e0,2023-12-15_03h05.44.504,kallum_motion_pilot,2023.2.3,Win32,35.71428571,6086a082cfd8e051845166e0,657bb317c8798c6608bceb3f,657bb42705941aea7d1c6caa,0.018,0.018,0,148,148,111,1,eightseven,,,,,,,,,,,,,,,,,,,,,,,,,,,,,,,,,,,,,,,,,,,,,,,,,,,,,,,,,,,,,,,,,,,,,,,,,,,,,,,,,,,,,,,,,,,,,,,,,,,,,,,,,,,,,,,,,,,,,,,,,,,,,,,,,,,,,,,
,,6086a082cfd8e051845166e0,2023-12-15_03h05.44.504,kallum_motion_pilot,2023.2.3,Win32,35.71428571,6086a082cfd8e051845166e0,657bb317c8798c6608bceb3f,657bb42705941aea7d1c6caa,0.018,0.018,0,149,149,63,1,fourthree,,,,,,,,,,,,,,,,,,,,,,,,,,,,,,,,,,,,,,,,,,,,,,,,,,,,,,,,,,,,,,,,,,,,,,,,,,,,,,,,,,,,,,,,,,,,,,,,,,,,,,,,,,,,,,,,,,,,,,,,,,,,,,,,,,,,,,,
,,6086a082cfd8e051845166e0,2023-12-15_03h05.44.504,kallum_motion_pilot,2023.2.3,Win32,35.71428571,6086a082cfd8e051845166e0,657bb317c8798c6608bceb3f,657bb42705941aea7d1c6caa,0.018,0.019,0,150,150,133,1,seveneight,,,,,,,,,,,,,,,,,,,,,,,,,,,,,,,,,,,,,,,,,,,,,,,,,,,,,,,,,,,,,,,,,,,,,,,,,,,,,,,,,,,,,,,,,,,,,,,,,,,,,,,,,,,,,,,,,,,,,,,,,,,,,,,,,,,,,,,
,,6086a082cfd8e051845166e0,2023-12-15_03h05.44.504,kallum_motion_pilot,2023.2.3,Win32,35.71428571,6086a082cfd8e051845166e0,657bb317c8798c6608bceb3f,657bb42705941aea7d1c6caa,0.019,0.019,0,151,151,2,1,twoone,,,,,,,,,,,,,,,,,,,,,,,,,,,,,,,,,,,,,,,,,,,,,,,,,,,,,,,,,,,,,,,,,,,,,,,,,,,,,,,,,,,,,,,,,,,,,,,,,,,,,,,,,,,,,,,,,,,,,,,,,,,,,,,,,,,,,,,
,,6086a082cfd8e051845166e0,2023-12-15_03h05.44.504,kallum_motion_pilot,2023.2.3,Win32,35.71428571,6086a082cfd8e051845166e0,657bb317c8798c6608bceb3f,657bb42705941aea7d1c6caa,0.019,0.019,0,152,152,99,1,sixeight,,,,,,,,,,,,,,,,,,,,,,,,,,,,,,,,,,,,,,,,,,,,,,,,,,,,,,,,,,,,,,,,,,,,,,,,,,,,,,,,,,,,,,,,,,,,,,,,,,,,,,,,,,,,,,,,,,,,,,,,,,,,,,,,,,,,,,,
,,6086a082cfd8e051845166e0,2023-12-15_03h05.44.504,kallum_motion_pilot,2023.2.3,Win32,35.71428571,6086a082cfd8e051845166e0,657bb317c8798c6608bceb3f,657bb42705941aea7d1c6caa,0.019,0.019,0,153,153,36,1,threeone,,,,,,,,,,,,,,,,,,,,,,,,,,,,,,,,,,,,,,,,,,,,,,,,,,,,,,,,,,,,,,,,,,,,,,,,,,,,,,,,,,,,,,,,,,,,,,,,,,,,,,,,,,,,,,,,,,,,,,,,,,,,,,,,,,,,,,,
,,6086a082cfd8e051845166e0,2023-12-15_03h05.44.504,kallum_motion_pilot,2023.2.3,Win32,35.71428571,6086a082cfd8e051845166e0,657bb317c8798c6608bceb3f,657bb42705941aea7d1c6caa,0.019,0.019,0,154,154,46,1,fourtwo,,,,,,,,,,,,,,,,,,,,,,,,,,,,,,,,,,,,,,,,,,,,,,,,,,,,,,,,,,,,,,,,,,,,,,,,,,,,,,,,,,,,,,,,,,,,,,,,,,,,,,,,,,,,,,,,,,,,,,,,,,,,,,,,,,,,,,,
,,6086a082cfd8e051845166e0,2023-12-15_03h05.44.504,kallum_motion_pilot,2023.2.3,Win32,35.71428571,6086a082cfd8e051845166e0,657bb317c8798c6608bceb3f,657bb42705941aea7d1c6caa,0.019,0.019,0,155,155,51,1,twofour,,,,,,,,,,,,,,,,,,,,,,,,,,,,,,,,,,,,,,,,,,,,,,,,,,,,,,,,,,,,,,,,,,,,,,,,,,,,,,,,,,,,,,,,,,,,,,,,,,,,,,,,,,,,,,,,,,,,,,,,,,,,,,,,,,,,,,,
,,6086a082cfd8e051845166e0,2023-12-15_03h05.44.504,kallum_motion_pilot,2023.2.3,Win32,35.71428571,6086a082cfd8e051845166e0,657bb317c8798c6608bceb3f,657bb42705941aea7d1c6caa,0.019,0.019,0,156,156,113,1,fiveseven,,,,,,,,,,,,,,,,,,,,,,,,,,,,,,,,,,,,,,,,,,,,,,,,,,,,,,,,,,,,,,,,,,,,,,,,,,,,,,,,,,,,,,,,,,,,,,,,,,,,,,,,,,,,,,,,,,,,,,,,,,,,,,,,,,,,,,,
,,6086a082cfd8e051845166e0,2023-12-15_03h05.44.504,kallum_motion_pilot,2023.2.3,Win32,35.71428571,6086a082cfd8e051845166e0,657bb317c8798c6608bceb3f,657bb42705941aea7d1c6caa,0.019,0.019,0,157,157,1,1,onethree,,,,,,,,,,,,,,,,,,,,,,,,,,,,,,,,,,,,,,,,,,,,,,,,,,,,,,,,,,,,,,,,,,,,,,,,,,,,,,,,,,,,,,,,,,,,,,,,,,,,,,,,,,,,,,,,,,,,,,,,,,,,,,,,,,,,,,,
,,6086a082cfd8e051845166e0,2023-12-15_03h05.44.504,kallum_motion_pilot,2023.2.3,Win32,35.71428571,6086a082cfd8e051845166e0,657bb317c8798c6608bceb3f,657bb42705941aea7d1c6caa,0.019,0.019,0,158,158,49,1,onethree,,,,,,,,,,,,,,,,,,,,,,,,,,,,,,,,,,,,,,,,,,,,,,,,,,,,,,,,,,,,,,,,,,,,,,,,,,,,,,,,,,,,,,,,,,,,,,,,,,,,,,,,,,,,,,,,,,,,,,,,,,,,,,,,,,,,,,,
,,6086a082cfd8e051845166e0,2023-12-15_03h05.44.504,kallum_motion_pilot,2023.2.3,Win32,35.71428571,6086a082cfd8e051845166e0,657bb317c8798c6608bceb3f,657bb42705941aea7d1c6caa,0.019,0.019,0,159,159,16,1,onetwo,,,,,,,,,,,,,,,,,,,,,,,,,,,,,,,,,,,,,,,,,,,,,,,,,,,,,,,,,,,,,,,,,,,,,,,,,,,,,,,,,,,,,,,,,,,,,,,,,,,,,,,,,,,,,,,,,,,,,,,,,,,,,,,,,,,,,,,
,,6086a082cfd8e051845166e0,2023-12-15_03h05.44.504,kallum_motion_pilot,2023.2.3,Win32,35.71428571,6086a082cfd8e051845166e0,657bb317c8798c6608bceb3f,657bb42705941aea7d1c6caa,0.019,0.019,0,160,160,120,1,fivesix,,,,,,,,,,,,,,,,,,,,,,,,,,,,,,,,,,,,,,,,,,,,,,,,,,,,,,,,,,,,,,,,,,,,,,,,,,,,,,,,,,,,,,,,,,,,,,,,,,,,,,,,,,,,,,,,,,,,,,,,,,,,,,,,,,,,,,,
,,6086a082cfd8e051845166e0,2023-12-15_03h05.44.504,kallum_motion_pilot,2023.2.3,Win32,35.71428571,6086a082cfd8e051845166e0,657bb317c8798c6608bceb3f,657bb42705941aea7d1c6caa,0.019,0.019,0,161,161,93,1,seveneight,,,,,,,,,,,,,,,,,,,,,,,,,,,,,,,,,,,,,,,,,,,,,,,,,,,,,,,,,,,,,,,,,,,,,,,,,,,,,,,,,,,,,,,,,,,,,,,,,,,,,,,,,,,,,,,,,,,,,,,,,,,,,,,,,,,,,,,
,,6086a082cfd8e051845166e0,2023-12-15_03h05.44.504,kallum_motion_pilot,2023.2.3,Win32,35.71428571,6086a082cfd8e051845166e0,657bb317c8798c6608bceb3f,657bb42705941aea7d1c6caa,0.019,0.019,1,0,162,81,1,fiveseven,,,,,,,,,,,,,,,,,,,,,,,,,,,,,,,,,,,,,,,,,,,,,,,,,,,,,,,,,,,,,,,,,,,,,,,,,,,,,,,,,,,,,,,,,,,,,,,,,,,,,,,,,,,,,,,,,,,,,,,,,,,,,,,,,,,,,,,
,,6086a082cfd8e051845166e0,2023-12-15_03h05.44.504,kallum_motion_pilot,2023.2.3,Win32,35.71428571,6086a082cfd8e051845166e0,657bb317c8798c6608bceb3f,657bb42705941aea7d1c6caa,0.019,0.019,1,1,163,152,1,fivesix,,,,,,,,,,,,,,,,,,,,,,,,,,,,,,,,,,,,,,,,,,,,,,,,,,,,,,,,,,,,,,,,,,,,,,,,,,,,,,,,,,,,,,,,,,,,,,,,,,,,,,,,,,,,,,,,,,,,,,,,,,,,,,,,,,,,,,,
,,6086a082cfd8e051845166e0,2023-12-15_03h05.44.504,kallum_motion_pilot,2023.2.3,Win32,35.71428571,6086a082cfd8e051845166e0,657bb317c8798c6608bceb3f,657bb42705941aea7d1c6caa,0.019,0.019,1,2,164,24,1,onetwo,,,,,,,,,,,,,,,,,,,,,,,,,,,,,,,,,,,,,,,,,,,,,,,,,,,,,,,,,,,,,,,,,,,,,,,,,,,,,,,,,,,,,,,,,,,,,,,,,,,,,,,,,,,,,,,,,,,,,,,,,,,,,,,,,,,,,,,
,,6086a082cfd8e051845166e0,2023-12-15_03h05.44.504,kallum_motion_pilot,2023.2.3,Win32,35.71428571,6086a082cfd8e051845166e0,657bb317c8798c6608bceb3f,657bb42705941aea7d1c6caa,0.019,0.019,1,3,165,43,1,twofour,,,,,,,,,,,,,,,,,,,,,,,,,,,,,,,,,,,,,,,,,,,,,,,,,,,,,,,,,,,,,,,,,,,,,,,,,,,,,,,,,,,,,,,,,,,,,,,,,,,,,,,,,,,,,,,,,,,,,,,,,,,,,,,,,,,,,,,
,,6086a082cfd8e051845166e0,2023-12-15_03h05.44.504,kallum_motion_pilot,2023.2.3,Win32,35.71428571,6086a082cfd8e051845166e0,657bb317c8798c6608bceb3f,657bb42705941aea7d1c6caa,0.019,0.019,1,4,166,82,1,sixfive,,,,,,,,,,,,,,,,,,,,,,,,,,,,,,,,,,,,,,,,,,,,,,,,,,,,,,,,,,,,,,,,,,,,,,,,,,,,,,,,,,,,,,,,,,,,,,,,,,,,,,,,,,,,,,,,,,,,,,,,,,,,,,,,,,,,,,,
,,6086a082cfd8e051845166e0,2023-12-15_03h05.44.504,kallum_motion_pilot,2023.2.3,Win32,35.71428571,6086a082cfd8e051845166e0,657bb317c8798c6608bceb3f,657bb42705941aea7d1c6caa,0.019,0.019,1,5,167,6,1,fourtwo,,,,,,,,,,,,,,,,,,,,,,,,,,,,,,,,,,,,,,,,,,,,,,,,,,,,,,,,,,,,,,,,,,,,,,,,,,,,,,,,,,,,,,,,,,,,,,,,,,,,,,,,,,,,,,,,,,,,,,,,,,,,,,,,,,,,,,,
,,6086a082cfd8e051845166e0,2023-12-15_03h05.44.504,kallum_motion_pilot,2023.2.3,Win32,35.71428571,6086a082cfd8e051845166e0,657bb317c8798c6608bceb3f,657bb42705941aea7d1c6caa,0.019,0.019,1,6,168,138,1,sixfive,,,,,,,,,,,,,,,,,,,,,,,,,,,,,,,,,,,,,,,,,,,,,,,,,,,,,,,,,,,,,,,,,,,,,,,,,,,,,,,,,,,,,,,,,,,,,,,,,,,,,,,,,,,,,,,,,,,,,,,,,,,,,,,,,,,,,,,
,,6086a082cfd8e051845166e0,2023-12-15_03h05.44.504,kallum_motion_pilot,2023.2.3,Win32,35.71428571,6086a082cfd8e051845166e0,657bb317c8798c6608bceb3f,657bb42705941aea7d1c6caa,0.019,0.019,1,7,169,1,1,onethree,,,,,,,,,,,,,,,,,,,,,,,,,,,,,,,,,,,,,,,,,,,,,,,,,,,,,,,,,,,,,,,,,,,,,,,,,,,,,,,,,,,,,,,,,,,,,,,,,,,,,,,,,,,,,,,,,,,,,,,,,,,,,,,,,,,,,,,
,,6086a082cfd8e051845166e0,2023-12-15_03h05.44.504,kallum_motion_pilot,2023.2.3,Win32,35.71428571,6086a082cfd8e051845166e0,657bb317c8798c6608bceb3f,657bb42705941aea7d1c6caa,0.019,0.019,1,8,170,76,1,threeone,,,,,,,,,,,,,,,,,,,,,,,,,,,,,,,,,,,,,,,,,,,,,,,,,,,,,,,,,,,,,,,,,,,,,,,,,,,,,,,,,,,,,,,,,,,,,,,,,,,,,,,,,,,,,,,,,,,,,,,,,,,,,,,,,,,,,,,
,,6086a082cfd8e051845166e0,2023-12-15_03h05.44.504,kallum_motion_pilot,2023.2.3,Win32,35.71428571,6086a082cfd8e051845166e0,657bb317c8798c6608bceb3f,657bb42705941aea7d1c6caa,0.019,0.019,1,9,171,131,1,sixeight,,,,,,,,,,,,,,,,,,,,,,,,,,,,,,,,,,,,,,,,,,,,,,,,,,,,,,,,,,,,,,,,,,,,,,,,,,,,,,,,,,,,,,,,,,,,,,,,,,,,,,,,,,,,,,,,,,,,,,,,,,,,,,,,,,,,,,,
,,6086a082cfd8e051845166e0,2023-12-15_03h05.44.504,kallum_motion_pilot,2023.2.3,Win32,35.71428571,6086a082cfd8e051845166e0,657bb317c8798c6608bceb3f,657bb42705941aea7d1c6caa,0.019,0.019,1,10,172,89,1,fiveseven,,,,,,,,,,,,,,,,,,,,,,,,,,,,,,,,,,,,,,,,,,,,,,,,,,,,,,,,,,,,,,,,,,,,,,,,,,,,,,,,,,,,,,,,,,,,,,,,,,,,,,,,,,,,,,,,,,,,,,,,,,,,,,,,,,,,,,,
,,6086a082cfd8e051845166e0,2023-12-15_03h05.44.504,kallum_motion_pilot,2023.2.3,Win32,35.71428571,6086a082cfd8e051845166e0,657bb317c8798c6608bceb3f,657bb42705941aea7d1c6caa,0.019,0.019,1,11,173,102,1,eightsix,,,,,,,,,,,,,,,,,,,,,,,,,,,,,,,,,,,,,,,,,,,,,,,,,,,,,,,,,,,,,,,,,,,,,,,,,,,,,,,,,,,,,,,,,,,,,,,,,,,,,,,,,,,,,,,,,,,,,,,,,,,,,,,,,,,,,,,
,,6086a082cfd8e051845166e0,2023-12-15_03h05.44.504,kallum_motion_pilot,2023.2.3,Win32,35.71428571,6086a082cfd8e051845166e0,657bb317c8798c6608bceb3f,657bb42705941aea7d1c6caa,0.019,0.019,1,12,174,93,1,seveneight,,,,,,,,,,,,,,,,,,,,,,,,,,,,,,,,,,,,,,,,,,,,,,,,,,,,,,,,,,,,,,,,,,,,,,,,,,,,,,,,,,,,,,,,,,,,,,,,,,,,,,,,,,,,,,,,,,,,,,,,,,,,,,,,,,,,,,,
,,6086a082cfd8e051845166e0,2023-12-15_03h05.44.504,kallum_motion_pilot,2023.2.3,Win32,35.71428571,6086a082cfd8e051845166e0,657bb317c8798c6608bceb3f,657bb42705941aea7d1c6caa,0.019,0.019,1,13,175,147,1,sixeight,,,,,,,,,,,,,,,,,,,,,,,,,,,,,,,,,,,,,,,,,,,,,,,,,,,,,,,,,,,,,,,,,,,,,,,,,,,,,,,,,,,,,,,,,,,,,,,,,,,,,,,,,,,,,,,,,,,,,,,,,,,,,,,,,,,,,,,
,,6086a082cfd8e051845166e0,2023-12-15_03h05.44.504,kallum_motion_pilot,2023.2.3,Win32,35.71428571,6086a082cfd8e051845166e0,657bb317c8798c6608bceb3f,657bb42705941aea7d1c6caa,0.019,0.019,1,14,176,71,1,fourthree,,,,,,,,,,,,,,,,,,,,,,,,,,,,,,,,,,,,,,,,,,,,,,,,,,,,,,,,,,,,,,,,,,,,,,,,,,,,,,,,,,,,,,,,,,,,,,,,,,,,,,,,,,,,,,,,,,,,,,,,,,,,,,,,,,,,,,,
,,6086a082cfd8e051845166e0,2023-12-15_03h05.44.504,kallum_motion_pilot,2023.2.3,Win32,35.71428571,6086a082cfd8e051845166e0,657bb317c8798c6608bceb3f,657bb42705941aea7d1c6caa,0.019,0.019,1,15,177,29,1,threefour,,,,,,,,,,,,,,,,,,,,,,,,,,,,,,,,,,,,,,,,,,,,,,,,,,,,,,,,,,,,,,,,,,,,,,,,,,,,,,,,,,,,,,,,,,,,,,,,,,,,,,,,,,,,,,,,,,,,,,,,,,,,,,,,,,,,,,,
,,6086a082cfd8e051845166e0,2023-12-15_03h05.44.504,kallum_motion_pilot,2023.2.3,Win32,35.71428571,6086a082cfd8e051845166e0,657bb317c8798c6608bceb3f,657bb42705941aea7d1c6caa,0.019,0.019,1,16,178,67,1,twofour,,,,,,,,,,,,,,,,,,,,,,,,,,,,,,,,,,,,,,,,,,,,,,,,,,,,,,,,,,,,,,,,,,,,,,,,,,,,,,,,,,,,,,,,,,,,,,,,,,,,,,,,,,,,,,,,,,,,,,,,,,,,,,,,,,,,,,,
,,6086a082cfd8e051845166e0,2023-12-15_03h05.44.504,kallum_motion_pilot,2023.2.3,Win32,35.71428571,6086a082cfd8e051845166e0,657bb317c8798c6608bceb3f,657bb42705941aea7d1c6caa,0.019,0.019,1,17,179,14,1,fourtwo,,,,,,,,,,,,,,,,,,,,,,,,,,,,,,,,,,,,,,,,,,,,,,,,,,,,,,,,,,,,,,,,,,,,,,,,,,,,,,,,,,,,,,,,,,,,,,,,,,,,,,,,,,,,,,,,,,,,,,,,,,,,,,,,,,,,,,,
,,6086a082cfd8e051845166e0,2023-12-15_03h05.44.504,kallum_motion_pilot,2023.2.3,Win32,35.71428571,6086a082cfd8e051845166e0,657bb317c8798c6608bceb3f,657bb42705941aea7d1c6caa,0.02,0.02,1,18,180,50,1,twoone,,,,,,,,,,,,,,,,,,,,,,,,,,,,,,,,,,,,,,,,,,,,,,,,,,,,,,,,,,,,,,,,,,,,,,,,,,,,,,,,,,,,,,,,,,,,,,,,,,,,,,,,,,,,,,,,,,,,,,,,,,,,,,,,,,,,,,,
,,6086a082cfd8e051845166e0,2023-12-15_03h05.44.504,kallum_motion_pilot,2023.2.3,Win32,35.71428571,6086a082cfd8e051845166e0,657bb317c8798c6608bceb3f,657bb42705941aea7d1c6caa,0.02,0.02,1,19,181,39,1,fourthree,,,,,,,,,,,,,,,,,,,,,,,,,,,,,,,,,,,,,,,,,,,,,,,,,,,,,,,,,,,,,,,,,,,,,,,,,,,,,,,,,,,,,,,,,,,,,,,,,,,,,,,,,,,,,,,,,,,,,,,,,,,,,,,,,,,,,,,
,,6086a082cfd8e051845166e0,2023-12-15_03h05.44.504,kallum_motion_pilot,2023.2.3,Win32,35.71428571,6086a082cfd8e051845166e0,657bb317c8798c6608bceb3f,657bb42705941aea7d1c6caa,0.02,0.02,1,20,182,13,1,threefour,,,,,,,,,,,,,,,,,,,,,,,,,,,,,,,,,,,,,,,,,,,,,,,,,,,,,,,,,,,,,,,,,,,,,,,,,,,,,,,,,,,,,,,,,,,,,,,,,,,,,,,,,,,,,,,,,,,,,,,,,,,,,,,,,,,,,,,
,,6086a082cfd8e051845166e0,2023-12-15_03h05.44.504,kallum_motion_pilot,2023.2.3,Win32,35.71428571,6086a082cfd8e051845166e0,657bb317c8798c6608bceb3f,657bb42705941aea7d1c6caa,0.02,0.02,1,21,183,41,1,onethree,,,,,,,,,,,,,,,,,,,,,,,,,,,,,,,,,,,,,,,,,,,,,,,,,,,,,,,,,,,,,,,,,,,,,,,,,,,,,,,,,,,,,,,,,,,,,,,,,,,,,,,,,,,,,,,,,,,,,,,,,,,,,,,,,,,,,,,
,,6086a082cfd8e051845166e0,2023-12-15_03h05.44.504,kallum_motion_pilot,2023.2.3,Win32,35.71428571,6086a082cfd8e051845166e0,657bb317c8798c6608bceb3f,657bb42705941aea7d1c6caa,0.02,0.02,1,22,184,62,1,fourtwo,,,,,,,,,,,,,,,,,,,,,,,,,,,,,,,,,,,,,,,,,,,,,,,,,,,,,,,,,,,,,,,,,,,,,,,,,,,,,,,,,,,,,,,,,,,,,,,,,,,,,,,,,,,,,,,,,,,,,,,,,,,,,,,,,,,,,,,
,,6086a082cfd8e051845166e0,2023-12-15_03h05.44.504,kallum_motion_pilot,2023.2.3,Win32,35.71428571,6086a082cfd8e051845166e0,657bb317c8798c6608bceb3f,657bb42705941aea7d1c6caa,0.02,0.02,1,23,185,32,1,onetwo,,,,,,,,,,,,,,,,,,,,,,,,,,,,,,,,,,,,,,,,,,,,,,,,,,,,,,,,,,,,,,,,,,,,,,,,,,,,,,,,,,,,,,,,,,,,,,,,,,,,,,,,,,,,,,,,,,,,,,,,,,,,,,,,,,,,,,,
,,6086a082cfd8e051845166e0,2023-12-15_03h05.44.504,kallum_motion_pilot,2023.2.3,Win32,35.71428571,6086a082cfd8e051845166e0,657bb317c8798c6608bceb3f,657bb42705941aea7d1c6caa,0.02,0.02,1,24,186,143,1,eightseven,,,,,,,,,,,,,,,,,,,,,,,,,,,,,,,,,,,,,,,,,,,,,,,,,,,,,,,,,,,,,,,,,,,,,,,,,,,,,,,,,,,,,,,,,,,,,,,,,,,,,,,,,,,,,,,,,,,,,,,,,,,,,,,,,,,,,,,
,,6086a082cfd8e051845166e0,2023-12-15_03h05.44.504,kallum_motion_pilot,2023.2.3,Win32,35.71428571,6086a082cfd8e051845166e0,657bb317c8798c6608bceb3f,657bb42705941aea7d1c6caa,0.021,0.021,1,25,187,31,1,fourthree,,,,,,,,,,,,,,,,,,,,,,,,,,,,,,,,,,,,,,,,,,,,,,,,,,,,,,,,,,,,,,,,,,,,,,,,,,,,,,,,,,,,,,,,,,,,,,,,,,,,,,,,,,,,,,,,,,,,,,,,,,,,,,,,,,,,,,,
,,6086a082cfd8e051845166e0,2023-12-15_03h05.44.504,kallum_motion_pilot,2023.2.3,Win32,35.71428571,6086a082cfd8e051845166e0,657bb317c8798c6608bceb3f,657bb42705941aea7d1c6caa,0.021,0.021,1,26,188,0,1,onetwo,,,,,,,,,,,,,,,,,,,,,,,,,,,,,,,,,,,,,,,,,,,,,,,,,,,,,,,,,,,,,,,,,,,,,,,,,,,,,,,,,,,,,,,,,,,,,,,,,,,,,,,,,,,,,,,,,,,,,,,,,,,,,,,,,,,,,,,
,,6086a082cfd8e051845166e0,2023-12-15_03h05.44.504,kallum_motion_pilot,2023.2.3,Win32,35.71428571,6086a082cfd8e051845166e0,657bb317c8798c6608bceb3f,657bb42705941aea7d1c6caa,0.021,0.021,1,27,189,149,1,seveneight,,,,,,,,,,,,,,,,,,,,,,,,,,,,,,,,,,,,,,,,,,,,,,,,,,,,,,,,,,,,,,,,,,,,,,,,,,,,,,,,,,,,,,,,,,,,,,,,,,,,,,,,,,,,,,,,,,,,,,,,,,,,,,,,,,,,,,,
,,6086a082cfd8e051845166e0,2023-12-15_03h05.44.504,kallum_motion_pilot,2023.2.3,Win32,35.71428571,6086a082cfd8e051845166e0,657bb317c8798c6608bceb3f,657bb42705941aea7d1c6caa,0.021,0.021,1,28,190,60,1,threeone,,,,,,,,,,,,,,,,,,,,,,,,,,,,,,,,,,,,,,,,,,,,,,,,,,,,,,,,,,,,,,,,,,,,,,,,,,,,,,,,,,,,,,,,,,,,,,,,,,,,,,,,,,,,,,,,,,,,,,,,,,,,,,,,,,,,,,,
,,6086a082cfd8e051845166e0,2023-12-15_03h05.44.504,kallum_motion_pilot,2023.2.3,Win32,35.71428571,6086a082cfd8e051845166e0,657bb317c8798c6608bceb3f,657bb42705941aea7d1c6caa,0.021,0.021,1,29,191,28,1,threeone,,,,,,,,,,,,,,,,,,,,,,,,,,,,,,,,,,,,,,,,,,,,,,,,,,,,,,,,,,,,,,,,,,,,,,,,,,,,,,,,,,,,,,,,,,,,,,,,,,,,,,,,,,,,,,,,,,,,,,,,,,,,,,,,,,,,,,,
,,6086a082cfd8e051845166e0,2023-12-15_03h05.44.504,kallum_motion_pilot,2023.2.3,Win32,35.71428571,6086a082cfd8e051845166e0,657bb317c8798c6608bceb3f,657bb42705941aea7d1c6caa,0.021,0.021,1,30,192,140,1,sevenfive,,,,,,,,,,,,,,,,,,,,,,,,,,,,,,,,,,,,,,,,,,,,,,,,,,,,,,,,,,,,,,,,,,,,,,,,,,,,,,,,,,,,,,,,,,,,,,,,,,,,,,,,,,,,,,,,,,,,,,,,,,,,,,,,,,,,,,,
,,6086a082cfd8e051845166e0,2023-12-15_03h05.44.504,kallum_motion_pilot,2023.2.3,Win32,35.71428571,6086a082cfd8e051845166e0,657bb317c8798c6608bceb3f,657bb42705941aea7d1c6caa,0.021,0.021,1,31,193,85,1,seveneight,,,,,,,,,,,,,,,,,,,,,,,,,,,,,,,,,,,,,,,,,,,,,,,,,,,,,,,,,,,,,,,,,,,,,,,,,,,,,,,,,,,,,,,,,,,,,,,,,,,,,,,,,,,,,,,,,,,,,,,,,,,,,,,,,,,,,,,
,,6086a082cfd8e051845166e0,2023-12-15_03h05.44.504,kallum_motion_pilot,2023.2.3,Win32,35.71428571,6086a082cfd8e051845166e0,657bb317c8798c6608bceb3f,657bb42705941aea7d1c6caa,0.021,0.021,1,32,194,79,1,eightseven,,,,,,,,,,,,,,,,,,,,,,,,,,,,,,,,,,,,,,,,,,,,,,,,,,,,,,,,,,,,,,,,,,,,,,,,,,,,,,,,,,,,,,,,,,,,,,,,,,,,,,,,,,,,,,,,,,,,,,,,,,,,,,,,,,,,,,,
,,6086a082cfd8e051845166e0,2023-12-15_03h05.44.504,kallum_motion_pilot,2023.2.3,Win32,35.71428571,6086a082cfd8e051845166e0,657bb317c8798c6608bceb3f,657bb42705941aea7d1c6caa,0.021,0.021,1,33,195,119,1,eightseven,,,,,,,,,,,,,,,,,,,,,,,,,,,,,,,,,,,,,,,,,,,,,,,,,,,,,,,,,,,,,,,,,,,,,,,,,,,,,,,,,,,,,,,,,,,,,,,,,,,,,,,,,,,,,,,,,,,,,,,,,,,,,,,,,,,,,,,
,,6086a082cfd8e051845166e0,2023-12-15_03h05.44.504,kallum_motion_pilot,2023.2.3,Win32,35.71428571,6086a082cfd8e051845166e0,657bb317c8798c6608bceb3f,657bb42705941aea7d1c6caa,0.021,0.021,1,34,196,8,1,onetwo,,,,,,,,,,,,,,,,,,,,,,,,,,,,,,,,,,,,,,,,,,,,,,,,,,,,,,,,,,,,,,,,,,,,,,,,,,,,,,,,,,,,,,,,,,,,,,,,,,,,,,,,,,,,,,,,,,,,,,,,,,,,,,,,,,,,,,,
,,6086a082cfd8e051845166e0,2023-12-15_03h05.44.504,kallum_motion_pilot,2023.2.3,Win32,35.71428571,6086a082cfd8e051845166e0,657bb317c8798c6608bceb3f,657bb42705941aea7d1c6caa,0.021,0.021,1,35,197,136,1,fivesix,,,,,,,,,,,,,,,,,,,,,,,,,,,,,,,,,,,,,,,,,,,,,,,,,,,,,,,,,,,,,,,,,,,,,,,,,,,,,,,,,,,,,,,,,,,,,,,,,,,,,,,,,,,,,,,,,,,,,,,,,,,,,,,,,,,,,,,
,,6086a082cfd8e051845166e0,2023-12-15_03h05.44.504,kallum_motion_pilot,2023.2.3,Win32,35.71428571,6086a082cfd8e051845166e0,657bb317c8798c6608bceb3f,657bb42705941aea7d1c6caa,0.021,0.021,1,36,198,127,1,eightseven,,,,,,,,,,,,,,,,,,,,,,,,,,,,,,,,,,,,,,,,,,,,,,,,,,,,,,,,,,,,,,,,,,,,,,,,,,,,,,,,,,,,,,,,,,,,,,,,,,,,,,,,,,,,,,,,,,,,,,,,,,,,,,,,,,,,,,,
,,6086a082cfd8e051845166e0,2023-12-15_03h05.44.504,kallum_motion_pilot,2023.2.3,Win32,35.71428571,6086a082cfd8e051845166e0,657bb317c8798c6608bceb3f,657bb42705941aea7d1c6caa,0.021,0.021,1,37,199,48,1,onetwo,,,,,,,,,,,,,,,,,,,,,,,,,,,,,,,,,,,,,,,,,,,,,,,,,,,,,,,,,,,,,,,,,,,,,,,,,,,,,,,,,,,,,,,,,,,,,,,,,,,,,,,,,,,,,,,,,,,,,,,,,,,,,,,,,,,,,,,
,,6086a082cfd8e051845166e0,2023-12-15_03h05.44.504,kallum_motion_pilot,2023.2.3,Win32,35.71428571,6086a082cfd8e051845166e0,657bb317c8798c6608bceb3f,657bb42705941aea7d1c6caa,0.021,0.021,1,38,200,125,1,seveneight,,,,,,,,,,,,,,,,,,,,,,,,,,,,,,,,,,,,,,,,,,,,,,,,,,,,,,,,,,,,,,,,,,,,,,,,,,,,,,,,,,,,,,,,,,,,,,,,,,,,,,,,,,,,,,,,,,,,,,,,,,,,,,,,,,,,,,,
,,6086a082cfd8e051845166e0,2023-12-15_03h05.44.504,kallum_motion_pilot,2023.2.3,Win32,35.71428571,6086a082cfd8e051845166e0,657bb317c8798c6608bceb3f,657bb42705941aea7d1c6caa,0.021,0.021,1,39,201,155,1,sixeight,,,,,,,,,,,,,,,,,,,,,,,,,,,,,,,,,,,,,,,,,,,,,,,,,,,,,,,,,,,,,,,,,,,,,,,,,,,,,,,,,,,,,,,,,,,,,,,,,,,,,,,,,,,,,,,,,,,,,,,,,,,,,,,,,,,,,,,
,,6086a082cfd8e051845166e0,2023-12-15_03h05.44.504,kallum_motion_pilot,2023.2.3,Win32,35.71428571,6086a082cfd8e051845166e0,657bb317c8798c6608bceb3f,657bb42705941aea7d1c6caa,0.021,0.021,1,40,202,95,1,eightseven,,,,,,,,,,,,,,,,,,,,,,,,,,,,,,,,,,,,,,,,,,,,,,,,,,,,,,,,,,,,,,,,,,,,,,,,,,,,,,,,,,,,,,,,,,,,,,,,,,,,,,,,,,,,,,,,,,,,,,,,,,,,,,,,,,,,,,,
,,6086a082cfd8e051845166e0,2023-12-15_03h05.44.504,kallum_motion_pilot,2023.2.3,Win32,35.71428571,6086a082cfd8e051845166e0,657bb317c8798c6608bceb3f,657bb42705941aea7d1c6caa,0.021,0.021,1,41,203,83,1,sixeight,,,,,,,,,,,,,,,,,,,,,,,,,,,,,,,,,,,,,,,,,,,,,,,,,,,,,,,,,,,,,,,,,,,,,,,,,,,,,,,,,,,,,,,,,,,,,,,,,,,,,,,,,,,,,,,,,,,,,,,,,,,,,,,,,,,,,,,
,,6086a082cfd8e051845166e0,2023-12-15_03h05.44.504,kallum_motion_pilot,2023.2.3,Win32,35.71428571,6086a082cfd8e051845166e0,657bb317c8798c6608bceb3f,657bb42705941aea7d1c6caa,0.021,0.021,1,42,204,161,1,fiveseven,,,,,,,,,,,,,,,,,,,,,,,,,,,,,,,,,,,,,,,,,,,,,,,,,,,,,,,,,,,,,,,,,,,,,,,,,,,,,,,,,,,,,,,,,,,,,,,,,,,,,,,,,,,,,,,,,,,,,,,,,,,,,,,,,,,,,,,
,,6086a082cfd8e051845166e0,2023-12-15_03h05.44.504,kallum_motion_pilot,2023.2.3,Win32,35.71428571,6086a082cfd8e051845166e0,657bb317c8798c6608bceb3f,657bb42705941aea7d1c6caa,0.021,0.021,1,43,205,22,1,fourtwo,,,,,,,,,,,,,,,,,,,,,,,,,,,,,,,,,,,,,,,,,,,,,,,,,,,,,,,,,,,,,,,,,,,,,,,,,,,,,,,,,,,,,,,,,,,,,,,,,,,,,,,,,,,,,,,,,,,,,,,,,,,,,,,,,,,,,,,
,,6086a082cfd8e051845166e0,2023-12-15_03h05.44.504,kallum_motion_pilot,2023.2.3,Win32,35.71428571,6086a082cfd8e051845166e0,657bb317c8798c6608bceb3f,657bb42705941aea7d1c6caa,0.021,0.021,1,44,206,36,1,threeone,,,,,,,,,,,,,,,,,,,,,,,,,,,,,,,,,,,,,,,,,,,,,,,,,,,,,,,,,,,,,,,,,,,,,,,,,,,,,,,,,,,,,,,,,,,,,,,,,,,,,,,,,,,,,,,,,,,,,,,,,,,,,,,,,,,,,,,
,,6086a082cfd8e051845166e0,2023-12-15_03h05.44.504,kallum_motion_pilot,2023.2.3,Win32,35.71428571,6086a082cfd8e051845166e0,657bb317c8798c6608bceb3f,657bb42705941aea7d1c6caa,0.021,0.021,1,45,207,154,1,sixfive,,,,,,,,,,,,,,,,,,,,,,,,,,,,,,,,,,,,,,,,,,,,,,,,,,,,,,,,,,,,,,,,,,,,,,,,,,,,,,,,,,,,,,,,,,,,,,,,,,,,,,,,,,,,,,,,,,,,,,,,,,,,,,,,,,,,,,,
,,6086a082cfd8e051845166e0,2023-12-15_03h05.44.504,kallum_motion_pilot,2023.2.3,Win32,35.71428571,6086a082cfd8e051845166e0,657bb317c8798c6608bceb3f,657bb42705941aea7d1c6caa,0.021,0.021,1,46,208,94,1,eightsix,,,,,,,,,,,,,,,,,,,,,,,,,,,,,,,,,,,,,,,,,,,,,,,,,,,,,,,,,,,,,,,,,,,,,,,,,,,,,,,,,,,,,,,,,,,,,,,,,,,,,,,,,,,,,,,,,,,,,,,,,,,,,,,,,,,,,,,
,,6086a082cfd8e051845166e0,2023-12-15_03h05.44.504,kallum_motion_pilot,2023.2.3,Win32,35.71428571,6086a082cfd8e051845166e0,657bb317c8798c6608bceb3f,657bb42705941aea7d1c6caa,0.021,0.021,1,47,209,105,1,fiveseven,,,,,,,,,,,,,,,,,,,,,,,,,,,,,,,,,,,,,,,,,,,,,,,,,,,,,,,,,,,,,,,,,,,,,,,,,,,,,,,,,,,,,,,,,,,,,,,,,,,,,,,,,,,,,,,,,,,,,,,,,,,,,,,,,,,,,,,
,,6086a082cfd8e051845166e0,2023-12-15_03h05.44.504,kallum_motion_pilot,2023.2.3,Win32,35.71428571,6086a082cfd8e051845166e0,657bb317c8798c6608bceb3f,657bb42705941aea7d1c6caa,0.021,0.021,1,48,210,144,1,fivesix,,,,,,,,,,,,,,,,,,,,,,,,,,,,,,,,,,,,,,,,,,,,,,,,,,,,,,,,,,,,,,,,,,,,,,,,,,,,,,,,,,,,,,,,,,,,,,,,,,,,,,,,,,,,,,,,,,,,,,,,,,,,,,,,,,,,,,,
,,6086a082cfd8e051845166e0,2023-12-15_03h05.44.504,kallum_motion_pilot,2023.2.3,Win32,35.71428571,6086a082cfd8e051845166e0,657bb317c8798c6608bceb3f,657bb42705941aea7d1c6caa,0.021,0.021,1,49,211,121,1,fiveseven,,,,,,,,,,,,,,,,,,,,,,,,,,,,,,,,,,,,,,,,,,,,,,,,,,,,,,,,,,,,,,,,,,,,,,,,,,,,,,,,,,,,,,,,,,,,,,,,,,,,,,,,,,,,,,,,,,,,,,,,,,,,,,,,,,,,,,,
,,6086a082cfd8e051845166e0,2023-12-15_03h05.44.504,kallum_motion_pilot,2023.2.3,Win32,35.71428571,6086a082cfd8e051845166e0,657bb317c8798c6608bceb3f,657bb42705941aea7d1c6caa,0.021,0.021,1,50,212,55,1,fourthree,,,,,,,,,,,,,,,,,,,,,,,,,,,,,,,,,,,,,,,,,,,,,,,,,,,,,,,,,,,,,,,,,,,,,,,,,,,,,,,,,,,,,,,,,,,,,,,,,,,,,,,,,,,,,,,,,,,,,,,,,,,,,,,,,,,,,,,
,,6086a082cfd8e051845166e0,2023-12-15_03h05.44.504,kallum_motion_pilot,2023.2.3,Win32,35.71428571,6086a082cfd8e051845166e0,657bb317c8798c6608bceb3f,657bb42705941aea7d1c6caa,0.021,0.022,1,51,213,96,1,fivesix,,,,,,,,,,,,,,,,,,,,,,,,,,,,,,,,,,,,,,,,,,,,,,,,,,,,,,,,,,,,,,,,,,,,,,,,,,,,,,,,,,,,,,,,,,,,,,,,,,,,,,,,,,,,,,,,,,,,,,,,,,,,,,,,,,,,,,,
,,6086a082cfd8e051845166e0,2023-12-15_03h05.44.504,kallum_motion_pilot,2023.2.3,Win32,35.71428571,6086a082cfd8e051845166e0,657bb317c8798c6608bceb3f,657bb42705941aea7d1c6caa,0.022,0.022,1,52,214,34,1,twoone,,,,,,,,,,,,,,,,,,,,,,,,,,,,,,,,,,,,,,,,,,,,,,,,,,,,,,,,,,,,,,,,,,,,,,,,,,,,,,,,,,,,,,,,,,,,,,,,,,,,,,,,,,,,,,,,,,,,,,,,,,,,,,,,,,,,,,,
,,6086a082cfd8e051845166e0,2023-12-15_03h05.44.504,kallum_motion_pilot,2023.2.3,Win32,35.71428571,6086a082cfd8e051845166e0,657bb317c8798c6608bceb3f,657bb42705941aea7d1c6caa,0.022,0.022,1,53,215,124,1,sevenfive,,,,,,,,,,,,,,,,,,,,,,,,,,,,,,,,,,,,,,,,,,,,,,,,,,,,,,,,,,,,,,,,,,,,,,,,,,,,,,,,,,,,,,,,,,,,,,,,,,,,,,,,,,,,,,,,,,,,,,,,,,,,,,,,,,,,,,,
,,6086a082cfd8e051845166e0,2023-12-15_03h05.44.504,kallum_motion_pilot,2023.2.3,Win32,35.71428571,6086a082cfd8e051845166e0,657bb317c8798c6608bceb3f,657bb42705941aea7d1c6caa,0.022,0.022,1,54,216,100,1,sevenfive,,,,,,,,,,,,,,,,,,,,,,,,,,,,,,,,,,,,,,,,,,,,,,,,,,,,,,,,,,,,,,,,,,,,,,,,,,,,,,,,,,,,,,,,,,,,,,,,,,,,,,,,,,,,,,,,,,,,,,,,,,,,,,,,,,,,,,,
,,6086a082cfd8e051845166e0,2023-12-15_03h05.44.504,kallum_motion_pilot,2023.2.3,Win32,35.71428571,6086a082cfd8e051845166e0,657bb317c8798c6608bceb3f,657bb42705941aea7d1c6caa,0.022,0.022,1,55,217,148,1,sevenfive,,,,,,,,,,,,,,,,,,,,,,,,,,,,,,,,,,,,,,,,,,,,,,,,,,,,,,,,,,,,,,,,,,,,,,,,,,,,,,,,,,,,,,,,,,,,,,,,,,,,,,,,,,,,,,,,,,,,,,,,,,,,,,,,,,,,,,,
,,6086a082cfd8e051845166e0,2023-12-15_03h05.44.504,kallum_motion_pilot,2023.2.3,Win32,35.71428571,6086a082cfd8e051845166e0,657bb317c8798c6608bceb3f,657bb42705941aea7d1c6caa,0.022,0.022,1,56,218,59,1,twofour,,,,,,,,,,,,,,,,,,,,,,,,,,,,,,,,,,,,,,,,,,,,,,,,,,,,,,,,,,,,,,,,,,,,,,,,,,,,,,,,,,,,,,,,,,,,,,,,,,,,,,,,,,,,,,,,,,,,,,,,,,,,,,,,,,,,,,,
,,6086a082cfd8e051845166e0,2023-12-15_03h05.44.504,kallum_motion_pilot,2023.2.3,Win32,35.71428571,6086a082cfd8e051845166e0,657bb317c8798c6608bceb3f,657bb42705941aea7d1c6caa,0.022,0.022,1,57,219,9,1,onethree,,,,,,,,,,,,,,,,,,,,,,,,,,,,,,,,,,,,,,,,,,,,,,,,,,,,,,,,,,,,,,,,,,,,,,,,,,,,,,,,,,,,,,,,,,,,,,,,,,,,,,,,,,,,,,,,,,,,,,,,,,,,,,,,,,,,,,,
,,6086a082cfd8e051845166e0,2023-12-15_03h05.44.504,kallum_motion_pilot,2023.2.3,Win32,35.71428571,6086a082cfd8e051845166e0,657bb317c8798c6608bceb3f,657bb42705941aea7d1c6caa,0.022,0.022,1,58,220,25,1,onethree,,,,,,,,,,,,,,,,,,,,,,,,,,,,,,,,,,,,,,,,,,,,,,,,,,,,,,,,,,,,,,,,,,,,,,,,,,,,,,,,,,,,,,,,,,,,,,,,,,,,,,,,,,,,,,,,,,,,,,,,,,,,,,,,,,,,,,,
,,6086a082cfd8e051845166e0,2023-12-15_03h05.44.504,kallum_motion_pilot,2023.2.3,Win32,35.71428571,6086a082cfd8e051845166e0,657bb317c8798c6608bceb3f,657bb42705941aea7d1c6caa,0.022,0.022,1,59,221,118,1,eightsix,,,,,,,,,,,,,,,,,,,,,,,,,,,,,,,,,,,,,,,,,,,,,,,,,,,,,,,,,,,,,,,,,,,,,,,,,,,,,,,,,,,,,,,,,,,,,,,,,,,,,,,,,,,,,,,,,,,,,,,,,,,,,,,,,,,,,,,
,,6086a082cfd8e051845166e0,2023-12-15_03h05.44.504,kallum_motion_pilot,2023.2.3,Win32,35.71428571,6086a082cfd8e051845166e0,657bb317c8798c6608bceb3f,657bb42705941aea7d1c6caa,0.022,0.022,1,60,222,15,1,fourthree,,,,,,,,,,,,,,,,,,,,,,,,,,,,,,,,,,,,,,,,,,,,,,,,,,,,,,,,,,,,,,,,,,,,,,,,,,,,,,,,,,,,,,,,,,,,,,,,,,,,,,,,,,,,,,,,,,,,,,,,,,,,,,,,,,,,,,,
,,6086a082cfd8e051845166e0,2023-12-15_03h05.44.504,kallum_motion_pilot,2023.2.3,Win32,35.71428571,6086a082cfd8e051845166e0,657bb317c8798c6608bceb3f,657bb42705941aea7d1c6caa,0.022,0.022,1,61,223,141,1,seveneight,,,,,,,,,,,,,,,,,,,,,,,,,,,,,,,,,,,,,,,,,,,,,,,,,,,,,,,,,,,,,,,,,,,,,,,,,,,,,,,,,,,,,,,,,,,,,,,,,,,,,,,,,,,,,,,,,,,,,,,,,,,,,,,,,,,,,,,
,,6086a082cfd8e051845166e0,2023-12-15_03h05.44.504,kallum_motion_pilot,2023.2.3,Win32,35.71428571,6086a082cfd8e051845166e0,657bb317c8798c6608bceb3f,657bb42705941aea7d1c6caa,0.022,0.022,1,62,224,142,1,eightsix,,,,,,,,,,,,,,,,,,,,,,,,,,,,,,,,,,,,,,,,,,,,,,,,,,,,,,,,,,,,,,,,,,,,,,,,,,,,,,,,,,,,,,,,,,,,,,,,,,,,,,,,,,,,,,,,,,,,,,,,,,,,,,,,,,,,,,,
,,6086a082cfd8e051845166e0,2023-12-15_03h05.44.504,kallum_motion_pilot,2023.2.3,Win32,35.71428571,6086a082cfd8e051845166e0,657bb317c8798c6608bceb3f,657bb42705941aea7d1c6caa,0.022,0.022,1,63,225,104,1,fivesix,,,,,,,,,,,,,,,,,,,,,,,,,,,,,,,,,,,,,,,,,,,,,,,,,,,,,,,,,,,,,,,,,,,,,,,,,,,,,,,,,,,,,,,,,,,,,,,,,,,,,,,,,,,,,,,,,,,,,,,,,,,,,,,,,,,,,,,
,,6086a082cfd8e051845166e0,2023-12-15_03h05.44.504,kallum_motion_pilot,2023.2.3,Win32,35.71428571,6086a082cfd8e051845166e0,657bb317c8798c6608bceb3f,657bb42705941aea7d1c6caa,0.022,0.022,1,64,226,4,1,threeone,,,,,,,,,,,,,,,,,,,,,,,,,,,,,,,,,,,,,,,,,,,,,,,,,,,,,,,,,,,,,,,,,,,,,,,,,,,,,,,,,,,,,,,,,,,,,,,,,,,,,,,,,,,,,,,,,,,,,,,,,,,,,,,,,,,,,,,
,,6086a082cfd8e051845166e0,2023-12-15_03h05.44.504,kallum_motion_pilot,2023.2.3,Win32,35.71428571,6086a082cfd8e051845166e0,657bb317c8798c6608bceb3f,657bb42705941aea7d1c6caa,0.022,0.022,1,65,227,78,1,fourtwo,,,,,,,,,,,,,,,,,,,,,,,,,,,,,,,,,,,,,,,,,,,,,,,,,,,,,,,,,,,,,,,,,,,,,,,,,,,,,,,,,,,,,,,,,,,,,,,,,,,,,,,,,,,,,,,,,,,,,,,,,,,,,,,,,,,,,,,
,,6086a082cfd8e051845166e0,2023-12-15_03h05.44.504,kallum_motion_pilot,2023.2.3,Win32,35.71428571,6086a082cfd8e051845166e0,657bb317c8798c6608bceb3f,657bb42705941aea7d1c6caa,0.022,0.022,1,66,228,40,1,onetwo,,,,,,,,,,,,,,,,,,,,,,,,,,,,,,,,,,,,,,,,,,,,,,,,,,,,,,,,,,,,,,,,,,,,,,,,,,,,,,,,,,,,,,,,,,,,,,,,,,,,,,,,,,,,,,,,,,,,,,,,,,,,,,,,,,,,,,,
,,6086a082cfd8e051845166e0,2023-12-15_03h05.44.504,kallum_motion_pilot,2023.2.3,Win32,35.71428571,6086a082cfd8e051845166e0,657bb317c8798c6608bceb3f,657bb42705941aea7d1c6caa,0.022,0.022,1,67,229,74,1,twoone,,,,,,,,,,,,,,,,,,,,,,,,,,,,,,,,,,,,,,,,,,,,,,,,,,,,,,,,,,,,,,,,,,,,,,,,,,,,,,,,,,,,,,,,,,,,,,,,,,,,,,,,,,,,,,,,,,,,,,,,,,,,,,,,,,,,,,,
,,6086a082cfd8e051845166e0,2023-12-15_03h05.44.504,kallum_motion_pilot,2023.2.3,Win32,35.71428571,6086a082cfd8e051845166e0,657bb317c8798c6608bceb3f,657bb42705941aea7d1c6caa,0.022,0.022,1,68,230,38,1,fourtwo,,,,,,,,,,,,,,,,,,,,,,,,,,,,,,,,,,,,,,,,,,,,,,,,,,,,,,,,,,,,,,,,,,,,,,,,,,,,,,,,,,,,,,,,,,,,,,,,,,,,,,,,,,,,,,,,,,,,,,,,,,,,,,,,,,,,,,,
,,6086a082cfd8e051845166e0,2023-12-15_03h05.44.504,kallum_motion_pilot,2023.2.3,Win32,35.71428571,6086a082cfd8e051845166e0,657bb317c8798c6608bceb3f,657bb42705941aea7d1c6caa,0.022,0.022,1,69,231,156,1,sevenfive,,,,,,,,,,,,,,,,,,,,,,,,,,,,,,,,,,,,,,,,,,,,,,,,,,,,,,,,,,,,,,,,,,,,,,,,,,,,,,,,,,,,,,,,,,,,,,,,,,,,,,,,,,,,,,,,,,,,,,,,,,,,,,,,,,,,,,,
,,6086a082cfd8e051845166e0,2023-12-15_03h05.44.504,kallum_motion_pilot,2023.2.3,Win32,35.71428571,6086a082cfd8e051845166e0,657bb317c8798c6608bceb3f,657bb42705941aea7d1c6caa,0.022,0.022,1,70,232,114,1,sixfive,,,,,,,,,,,,,,,,,,,,,,,,,,,,,,,,,,,,,,,,,,,,,,,,,,,,,,,,,,,,,,,,,,,,,,,,,,,,,,,,,,,,,,,,,,,,,,,,,,,,,,,,,,,,,,,,,,,,,,,,,,,,,,,,,,,,,,,
,,6086a082cfd8e051845166e0,2023-12-15_03h05.44.504,kallum_motion_pilot,2023.2.3,Win32,35.71428571,6086a082cfd8e051845166e0,657bb317c8798c6608bceb3f,657bb42705941aea7d1c6caa,0.022,0.022,1,71,233,134,1,eightsix,,,,,,,,,,,,,,,,,,,,,,,,,,,,,,,,,,,,,,,,,,,,,,,,,,,,,,,,,,,,,,,,,,,,,,,,,,,,,,,,,,,,,,,,,,,,,,,,,,,,,,,,,,,,,,,,,,,,,,,,,,,,,,,,,,,,,,,
,,6086a082cfd8e051845166e0,2023-12-15_03h05.44.504,kallum_motion_pilot,2023.2.3,Win32,35.71428571,6086a082cfd8e051845166e0,657bb317c8798c6608bceb3f,657bb42705941aea7d1c6caa,0.022,0.022,1,72,234,18,1,twoone,,,,,,,,,,,,,,,,,,,,,,,,,,,,,,,,,,,,,,,,,,,,,,,,,,,,,,,,,,,,,,,,,,,,,,,,,,,,,,,,,,,,,,,,,,,,,,,,,,,,,,,,,,,,,,,,,,,,,,,,,,,,,,,,,,,,,,,
,,6086a082cfd8e051845166e0,2023-12-15_03h05.44.504,kallum_motion_pilot,2023.2.3,Win32,35.71428571,6086a082cfd8e051845166e0,657bb317c8798c6608bceb3f,657bb42705941aea7d1c6caa,0.023,0.023,1,73,235,20,1,threeone,,,,,,,,,,,,,,,,,,,,,,,,,,,,,,,,,,,,,,,,,,,,,,,,,,,,,,,,,,,,,,,,,,,,,,,,,,,,,,,,,,,,,,,,,,,,,,,,,,,,,,,,,,,,,,,,,,,,,,,,,,,,,,,,,,,,,,,
,,6086a082cfd8e051845166e0,2023-12-15_03h05.44.504,kallum_motion_pilot,2023.2.3,Win32,35.71428571,6086a082cfd8e051845166e0,657bb317c8798c6608bceb3f,657bb42705941aea7d1c6caa,0.023,0.023,1,74,236,23,1,fourthree,,,,,,,,,,,,,,,,,,,,,,,,,,,,,,,,,,,,,,,,,,,,,,,,,,,,,,,,,,,,,,,,,,,,,,,,,,,,,,,,,,,,,,,,,,,,,,,,,,,,,,,,,,,,,,,,,,,,,,,,,,,,,,,,,,,,,,,
,,6086a082cfd8e051845166e0,2023-12-15_03h05.44.504,kallum_motion_pilot,2023.2.3,Win32,35.71428571,6086a082cfd8e051845166e0,657bb317c8798c6608bceb3f,657bb42705941aea7d1c6caa,0.023,0.023,1,75,237,120,1,fivesix,,,,,,,,,,,,,,,,,,,,,,,,,,,,,,,,,,,,,,,,,,,,,,,,,,,,,,,,,,,,,,,,,,,,,,,,,,,,,,,,,,,,,,,,,,,,,,,,,,,,,,,,,,,,,,,,,,,,,,,,,,,,,,,,,,,,,,,
,,6086a082cfd8e051845166e0,2023-12-15_03h05.44.504,kallum_motion_pilot,2023.2.3,Win32,35.71428571,6086a082cfd8e051845166e0,657bb317c8798c6608bceb3f,657bb42705941aea7d1c6caa,0.023,0.023,1,76,238,37,1,threefour,,,,,,,,,,,,,,,,,,,,,,,,,,,,,,,,,,,,,,,,,,,,,,,,,,,,,,,,,,,,,,,,,,,,,,,,,,,,,,,,,,,,,,,,,,,,,,,,,,,,,,,,,,,,,,,,,,,,,,,,,,,,,,,,,,,,,,,
,,6086a082cfd8e051845166e0,2023-12-15_03h05.44.504,kallum_motion_pilot,2023.2.3,Win32,35.71428571,6086a082cfd8e051845166e0,657bb317c8798c6608bceb3f,657bb42705941aea7d1c6caa,0.023,0.023,1,77,239,27,1,twofour,,,,,,,,,,,,,,,,,,,,,,,,,,,,,,,,,,,,,,,,,,,,,,,,,,,,,,,,,,,,,,,,,,,,,,,,,,,,,,,,,,,,,,,,,,,,,,,,,,,,,,,,,,,,,,,,,,,,,,,,,,,,,,,,,,,,,,,
,,6086a082cfd8e051845166e0,2023-12-15_03h05.44.504,kallum_motion_pilot,2023.2.3,Win32,35.71428571,6086a082cfd8e051845166e0,657bb317c8798c6608bceb3f,657bb42705941aea7d1c6caa,0.023,0.023,1,78,240,91,1,sixeight,,,,,,,,,,,,,,,,,,,,,,,,,,,,,,,,,,,,,,,,,,,,,,,,,,,,,,,,,,,,,,,,,,,,,,,,,,,,,,,,,,,,,,,,,,,,,,,,,,,,,,,,,,,,,,,,,,,,,,,,,,,,,,,,,,,,,,,
,,6086a082cfd8e051845166e0,2023-12-15_03h05.44.504,kallum_motion_pilot,2023.2.3,Win32,35.71428571,6086a082cfd8e051845166e0,657bb317c8798c6608bceb3f,657bb42705941aea7d1c6caa,0.023,0.023,1,79,241,117,1,seveneight,,,,,,,,,,,,,,,,,,,,,,,,,,,,,,,,,,,,,,,,,,,,,,,,,,,,,,,,,,,,,,,,,,,,,,,,,,,,,,,,,,,,,,,,,,,,,,,,,,,,,,,,,,,,,,,,,,,,,,,,,,,,,,,,,,,,,,,
,,6086a082cfd8e051845166e0,2023-12-15_03h05.44.504,kallum_motion_pilot,2023.2.3,Win32,35.71428571,6086a082cfd8e051845166e0,657bb317c8798c6608bceb3f,657bb42705941aea7d1c6caa,0.023,0.023,1,80,242,46,1,fourtwo,,,,,,,,,,,,,,,,,,,,,,,,,,,,,,,,,,,,,,,,,,,,,,,,,,,,,,,,,,,,,,,,,,,,,,,,,,,,,,,,,,,,,,,,,,,,,,,,,,,,,,,,,,,,,,,,,,,,,,,,,,,,,,,,,,,,,,,
,,6086a082cfd8e051845166e0,2023-12-15_03h05.44.504,kallum_motion_pilot,2023.2.3,Win32,35.71428571,6086a082cfd8e051845166e0,657bb317c8798c6608bceb3f,657bb42705941aea7d1c6caa,0.023,0.023,1,81,243,145,1,fiveseven,,,,,,,,,,,,,,,,,,,,,,,,,,,,,,,,,,,,,,,,,,,,,,,,,,,,,,,,,,,,,,,,,,,,,,,,,,,,,,,,,,,,,,,,,,,,,,,,,,,,,,,,,,,,,,,,,,,,,,,,,,,,,,,,,,,,,,,
,,6086a082cfd8e051845166e0,2023-12-15_03h05.44.504,kallum_motion_pilot,2023.2.3,Win32,35.71428571,6086a082cfd8e051845166e0,657bb317c8798c6608bceb3f,657bb42705941aea7d1c6caa,0.023,0.023,1,82,244,101,1,seveneight,,,,,,,,,,,,,,,,,,,,,,,,,,,,,,,,,,,,,,,,,,,,,,,,,,,,,,,,,,,,,,,,,,,,,,,,,,,,,,,,,,,,,,,,,,,,,,,,,,,,,,,,,,,,,,,,,,,,,,,,,,,,,,,,,,,,,,,
,,6086a082cfd8e051845166e0,2023-12-15_03h05.44.504,kallum_motion_pilot,2023.2.3,Win32,35.71428571,6086a082cfd8e051845166e0,657bb317c8798c6608bceb3f,657bb42705941aea7d1c6caa,0.023,0.023,1,83,245,115,1,sixeight,,,,,,,,,,,,,,,,,,,,,,,,,,,,,,,,,,,,,,,,,,,,,,,,,,,,,,,,,,,,,,,,,,,,,,,,,,,,,,,,,,,,,,,,,,,,,,,,,,,,,,,,,,,,,,,,,,,,,,,,,,,,,,,,,,,,,,,
,,6086a082cfd8e051845166e0,2023-12-15_03h05.44.504,kallum_motion_pilot,2023.2.3,Win32,35.71428571,6086a082cfd8e051845166e0,657bb317c8798c6608bceb3f,657bb42705941aea7d1c6caa,0.023,0.023,1,84,246,110,1,eightsix,,,,,,,,,,,,,,,,,,,,,,,,,,,,,,,,,,,,,,,,,,,,,,,,,,,,,,,,,,,,,,,,,,,,,,,,,,,,,,,,,,,,,,,,,,,,,,,,,,,,,,,,,,,,,,,,,,,,,,,,,,,,,,,,,,,,,,,
,,6086a082cfd8e051845166e0,2023-12-15_03h05.44.504,kallum_motion_pilot,2023.2.3,Win32,35.71428571,6086a082cfd8e051845166e0,657bb317c8798c6608bceb3f,657bb42705941aea7d1c6caa,0.023,0.023,1,85,247,51,1,twofour,,,,,,,,,,,,,,,,,,,,,,,,,,,,,,,,,,,,,,,,,,,,,,,,,,,,,,,,,,,,,,,,,,,,,,,,,,,,,,,,,,,,,,,,,,,,,,,,,,,,,,,,,,,,,,,,,,,,,,,,,,,,,,,,,,,,,,,
,,6086a082cfd8e051845166e0,2023-12-15_03h05.44.504,kallum_motion_pilot,2023.2.3,Win32,35.71428571,6086a082cfd8e051845166e0,657bb317c8798c6608bceb3f,657bb42705941aea7d1c6caa,0.024,0.024,1,86,248,12,1,threeone,,,,,,,,,,,,,,,,,,,,,,,,,,,,,,,,,,,,,,,,,,,,,,,,,,,,,,,,,,,,,,,,,,,,,,,,,,,,,,,,,,,,,,,,,,,,,,,,,,,,,,,,,,,,,,,,,,,,,,,,,,,,,,,,,,,,,,,
,,6086a082cfd8e051845166e0,2023-12-15_03h05.44.504,kallum_motion_pilot,2023.2.3,Win32,35.71428571,6086a082cfd8e051845166e0,657bb317c8798c6608bceb3f,657bb42705941aea7d1c6caa,0.024,0.024,1,87,249,72,1,onetwo,,,,,,,,,,,,,,,,,,,,,,,,,,,,,,,,,,,,,,,,,,,,,,,,,,,,,,,,,,,,,,,,,,,,,,,,,,,,,,,,,,,,,,,,,,,,,,,,,,,,,,,,,,,,,,,,,,,,,,,,,,,,,,,,,,,,,,,
,,6086a082cfd8e051845166e0,2023-12-15_03h05.44.504,kallum_motion_pilot,2023.2.3,Win32,35.71428571,6086a082cfd8e051845166e0,657bb317c8798c6608bceb3f,657bb42705941aea7d1c6caa,0.024,0.024,1,88,250,44,1,threeone,,,,,,,,,,,,,,,,,,,,,,,,,,,,,,,,,,,,,,,,,,,,,,,,,,,,,,,,,,,,,,,,,,,,,,,,,,,,,,,,,,,,,,,,,,,,,,,,,,,,,,,,,,,,,,,,,,,,,,,,,,,,,,,,,,,,,,,
,,6086a082cfd8e051845166e0,2023-12-15_03h05.44.504,kallum_motion_pilot,2023.2.3,Win32,35.71428571,6086a082cfd8e051845166e0,657bb317c8798c6608bceb3f,657bb42705941aea7d1c6caa,0.024,0.024,1,89,251,56,1,onetwo,,,,,,,,,,,,,,,,,,,,,,,,,,,,,,,,,,,,,,,,,,,,,,,,,,,,,,,,,,,,,,,,,,,,,,,,,,,,,,,,,,,,,,,,,,,,,,,,,,,,,,,,,,,,,,,,,,,,,,,,,,,,,,,,,,,,,,,
,,6086a082cfd8e051845166e0,2023-12-15_03h05.44.504,kallum_motion_pilot,2023.2.3,Win32,35.71428571,6086a082cfd8e051845166e0,657bb317c8798c6608bceb3f,657bb42705941aea7d1c6caa,0.024,0.024,1,90,252,107,1,sixeight,,,,,,,,,,,,,,,,,,,,,,,,,,,,,,,,,,,,,,,,,,,,,,,,,,,,,,,,,,,,,,,,,,,,,,,,,,,,,,,,,,,,,,,,,,,,,,,,,,,,,,,,,,,,,,,,,,,,,,,,,,,,,,,,,,,,,,,
,,6086a082cfd8e051845166e0,2023-12-15_03h05.44.504,kallum_motion_pilot,2023.2.3,Win32,35.71428571,6086a082cfd8e051845166e0,657bb317c8798c6608bceb3f,657bb42705941aea7d1c6caa,0.024,0.024,1,91,253,98,1,sixfive,,,,,,,,,,,,,,,,,,,,,,,,,,,,,,,,,,,,,,,,,,,,,,,,,,,,,,,,,,,,,,,,,,,,,,,,,,,,,,,,,,,,,,,,,,,,,,,,,,,,,,,,,,,,,,,,,,,,,,,,,,,,,,,,,,,,,,,
,,6086a082cfd8e051845166e0,2023-12-15_03h05.44.504,kallum_motion_pilot,2023.2.3,Win32,35.71428571,6086a082cfd8e051845166e0,657bb317c8798c6608bceb3f,657bb42705941aea7d1c6caa,0.024,0.024,1,92,254,80,1,fivesix,,,,,,,,,,,,,,,,,,,,,,,,,,,,,,,,,,,,,,,,,,,,,,,,,,,,,,,,,,,,,,,,,,,,,,,,,,,,,,,,,,,,,,,,,,,,,,,,,,,,,,,,,,,,,,,,,,,,,,,,,,,,,,,,,,,,,,,
,,6086a082cfd8e051845166e0,2023-12-15_03h05.44.504,kallum_motion_pilot,2023.2.3,Win32,35.71428571,6086a082cfd8e051845166e0,657bb317c8798c6608bceb3f,657bb42705941aea7d1c6caa,0.024,0.024,1,93,255,77,1,threefour,,,,,,,,,,,,,,,,,,,,,,,,,,,,,,,,,,,,,,,,,,,,,,,,,,,,,,,,,,,,,,,,,,,,,,,,,,,,,,,,,,,,,,,,,,,,,,,,,,,,,,,,,,,,,,,,,,,,,,,,,,,,,,,,,,,,,,,
,,6086a082cfd8e051845166e0,2023-12-15_03h05.44.504,kallum_motion_pilot,2023.2.3,Win32,35.71428571,6086a082cfd8e051845166e0,657bb317c8798c6608bceb3f,657bb42705941aea7d1c6caa,0.024,0.024,1,94,256,122,1,sixfive,,,,,,,,,,,,,,,,,,,,,,,,,,,,,,,,,,,,,,,,,,,,,,,,,,,,,,,,,,,,,,,,,,,,,,,,,,,,,,,,,,,,,,,,,,,,,,,,,,,,,,,,,,,,,,,,,,,,,,,,,,,,,,,,,,,,,,,
,,6086a082cfd8e051845166e0,2023-12-15_03h05.44.504,kallum_motion_pilot,2023.2.3,Win32,35.71428571,6086a082cfd8e051845166e0,657bb317c8798c6608bceb3f,657bb42705941aea7d1c6caa,0.024,0.024,1,95,257,158,1,eightsix,,,,,,,,,,,,,,,,,,,,,,,,,,,,,,,,,,,,,,,,,,,,,,,,,,,,,,,,,,,,,,,,,,,,,,,,,,,,,,,,,,,,,,,,,,,,,,,,,,,,,,,,,,,,,,,,,,,,,,,,,,,,,,,,,,,,,,,
,,6086a082cfd8e051845166e0,2023-12-15_03h05.44.504,kallum_motion_pilot,2023.2.3,Win32,35.71428571,6086a082cfd8e051845166e0,657bb317c8798c6608bceb3f,657bb42705941aea7d1c6caa,0.024,0.024,1,96,258,160,1,fivesix,,,,,,,,,,,,,,,,,,,,,,,,,,,,,,,,,,,,,,,,,,,,,,,,,,,,,,,,,,,,,,,,,,,,,,,,,,,,,,,,,,,,,,,,,,,,,,,,,,,,,,,,,,,,,,,,,,,,,,,,,,,,,,,,,,,,,,,
,,6086a082cfd8e051845166e0,2023-12-15_03h05.44.504,kallum_motion_pilot,2023.2.3,Win32,35.71428571,6086a082cfd8e051845166e0,657bb317c8798c6608bceb3f,657bb42705941aea7d1c6caa,0.024,0.024,1,97,259,112,1,fivesix,,,,,,,,,,,,,,,,,,,,,,,,,,,,,,,,,,,,,,,,,,,,,,,,,,,,,,,,,,,,,,,,,,,,,,,,,,,,,,,,,,,,,,,,,,,,,,,,,,,,,,,,,,,,,,,,,,,,,,,,,,,,,,,,,,,,,,,
,,6086a082cfd8e051845166e0,2023-12-15_03h05.44.504,kallum_motion_pilot,2023.2.3,Win32,35.71428571,6086a082cfd8e051845166e0,657bb317c8798c6608bceb3f,657bb42705941aea7d1c6caa,0.024,0.024,1,98,260,58,1,twoone,,,,,,,,,,,,,,,,,,,,,,,,,,,,,,,,,,,,,,,,,,,,,,,,,,,,,,,,,,,,,,,,,,,,,,,,,,,,,,,,,,,,,,,,,,,,,,,,,,,,,,,,,,,,,,,,,,,,,,,,,,,,,,,,,,,,,,,
,,6086a082cfd8e051845166e0,2023-12-15_03h05.44.504,kallum_motion_pilot,2023.2.3,Win32,35.71428571,6086a082cfd8e051845166e0,657bb317c8798c6608bceb3f,657bb42705941aea7d1c6caa,0.024,0.024,1,99,261,75,1,twofour,,,,,,,,,,,,,,,,,,,,,,,,,,,,,,,,,,,,,,,,,,,,,,,,,,,,,,,,,,,,,,,,,,,,,,,,,,,,,,,,,,,,,,,,,,,,,,,,,,,,,,,,,,,,,,,,,,,,,,,,,,,,,,,,,,,,,,,
,,6086a082cfd8e051845166e0,2023-12-15_03h05.44.504,kallum_motion_pilot,2023.2.3,Win32,35.71428571,6086a082cfd8e051845166e0,657bb317c8798c6608bceb3f,657bb42705941aea7d1c6caa,0.024,0.024,1,100,262,68,1,threeone,,,,,,,,,,,,,,,,,,,,,,,,,,,,,,,,,,,,,,,,,,,,,,,,,,,,,,,,,,,,,,,,,,,,,,,,,,,,,,,,,,,,,,,,,,,,,,,,,,,,,,,,,,,,,,,,,,,,,,,,,,,,,,,,,,,,,,,
,,6086a082cfd8e051845166e0,2023-12-15_03h05.44.504,kallum_motion_pilot,2023.2.3,Win32,35.71428571,6086a082cfd8e051845166e0,657bb317c8798c6608bceb3f,657bb42705941aea7d1c6caa,0.024,0.024,1,101,263,63,1,fourthree,,,,,,,,,,,,,,,,,,,,,,,,,,,,,,,,,,,,,,,,,,,,,,,,,,,,,,,,,,,,,,,,,,,,,,,,,,,,,,,,,,,,,,,,,,,,,,,,,,,,,,,,,,,,,,,,,,,,,,,,,,,,,,,,,,,,,,,
,,6086a082cfd8e051845166e0,2023-12-15_03h05.44.504,kallum_motion_pilot,2023.2.3,Win32,35.71428571,6086a082cfd8e051845166e0,657bb317c8798c6608bceb3f,657bb42705941aea7d1c6caa,0.024,0.024,1,102,264,65,1,onethree,,,,,,,,,,,,,,,,,,,,,,,,,,,,,,,,,,,,,,,,,,,,,,,,,,,,,,,,,,,,,,,,,,,,,,,,,,,,,,,,,,,,,,,,,,,,,,,,,,,,,,,,,,,,,,,,,,,,,,,,,,,,,,,,,,,,,,,
,,6086a082cfd8e051845166e0,2023-12-15_03h05.44.504,kallum_motion_pilot,2023.2.3,Win32,35.71428571,6086a082cfd8e051845166e0,657bb317c8798c6608bceb3f,657bb42705941aea7d1c6caa,0.024,0.024,1,103,265,99,1,sixeight,,,,,,,,,,,,,,,,,,,,,,,,,,,,,,,,,,,,,,,,,,,,,,,,,,,,,,,,,,,,,,,,,,,,,,,,,,,,,,,,,,,,,,,,,,,,,,,,,,,,,,,,,,,,,,,,,,,,,,,,,,,,,,,,,,,,,,,
,,6086a082cfd8e051845166e0,2023-12-15_03h05.44.504,kallum_motion_pilot,2023.2.3,Win32,35.71428571,6086a082cfd8e051845166e0,657bb317c8798c6608bceb3f,657bb42705941aea7d1c6caa,0.024,0.024,1,104,266,26,1,twoone,,,,,,,,,,,,,,,,,,,,,,,,,,,,,,,,,,,,,,,,,,,,,,,,,,,,,,,,,,,,,,,,,,,,,,,,,,,,,,,,,,,,,,,,,,,,,,,,,,,,,,,,,,,,,,,,,,,,,,,,,,,,,,,,,,,,,,,
,,6086a082cfd8e051845166e0,2023-12-15_03h05.44.504,kallum_motion_pilot,2023.2.3,Win32,35.71428571,6086a082cfd8e051845166e0,657bb317c8798c6608bceb3f,657bb42705941aea7d1c6caa,0.024,0.025,1,105,267,3,1,twofour,,,,,,,,,,,,,,,,,,,,,,,,,,,,,,,,,,,,,,,,,,,,,,,,,,,,,,,,,,,,,,,,,,,,,,,,,,,,,,,,,,,,,,,,,,,,,,,,,,,,,,,,,,,,,,,,,,,,,,,,,,,,,,,,,,,,,,,
,,6086a082cfd8e051845166e0,2023-12-15_03h05.44.504,kallum_motion_pilot,2023.2.3,Win32,35.71428571,6086a082cfd8e051845166e0,657bb317c8798c6608bceb3f,657bb42705941aea7d1c6caa,0.025,0.025,1,106,268,97,1,fiveseven,,,,,,,,,,,,,,,,,,,,,,,,,,,,,,,,,,,,,,,,,,,,,,,,,,,,,,,,,,,,,,,,,,,,,,,,,,,,,,,,,,,,,,,,,,,,,,,,,,,,,,,,,,,,,,,,,,,,,,,,,,,,,,,,,,,,,,,
,,6086a082cfd8e051845166e0,2023-12-15_03h05.44.504,kallum_motion_pilot,2023.2.3,Win32,35.71428571,6086a082cfd8e051845166e0,657bb317c8798c6608bceb3f,657bb42705941aea7d1c6caa,0.025,0.025,1,107,269,69,1,threefour,,,,,,,,,,,,,,,,,,,,,,,,,,,,,,,,,,,,,,,,,,,,,,,,,,,,,,,,,,,,,,,,,,,,,,,,,,,,,,,,,,,,,,,,,,,,,,,,,,,,,,,,,,,,,,,,,,,,,,,,,,,,,,,,,,,,,,,
,,6086a082cfd8e051845166e0,2023-12-15_03h05.44.504,kallum_motion_pilot,2023.2.3,Win32,35.71428571,6086a082cfd8e051845166e0,657bb317c8798c6608bceb3f,657bb42705941aea7d1c6caa,0.025,0.025,1,108,270,132,1,sevenfive,,,,,,,,,,,,,,,,,,,,,,,,,,,,,,,,,,,,,,,,,,,,,,,,,,,,,,,,,,,,,,,,,,,,,,,,,,,,,,,,,,,,,,,,,,,,,,,,,,,,,,,,,,,,,,,,,,,,,,,,,,,,,,,,,,,,,,,
,,6086a082cfd8e051845166e0,2023-12-15_03h05.44.504,kallum_motion_pilot,2023.2.3,Win32,35.71428571,6086a082cfd8e051845166e0,657bb317c8798c6608bceb3f,657bb42705941aea7d1c6caa,0.025,0.025,1,109,271,61,1,threefour,,,,,,,,,,,,,,,,,,,,,,,,,,,,,,,,,,,,,,,,,,,,,,,,,,,,,,,,,,,,,,,,,,,,,,,,,,,,,,,,,,,,,,,,,,,,,,,,,,,,,,,,,,,,,,,,,,,,,,,,,,,,,,,,,,,,,,,
,,6086a082cfd8e051845166e0,2023-12-15_03h05.44.504,kallum_motion_pilot,2023.2.3,Win32,35.71428571,6086a082cfd8e051845166e0,657bb317c8798c6608bceb3f,657bb42705941aea7d1c6caa,0.025,0.025,1,110,272,139,1,sixeight,,,,,,,,,,,,,,,,,,,,,,,,,,,,,,,,,,,,,,,,,,,,,,,,,,,,,,,,,,,,,,,,,,,,,,,,,,,,,,,,,,,,,,,,,,,,,,,,,,,,,,,,,,,,,,,,,,,,,,,,,,,,,,,,,,,,,,,
,,6086a082cfd8e051845166e0,2023-12-15_03h05.44.504,kallum_motion_pilot,2023.2.3,Win32,35.71428571,6086a082cfd8e051845166e0,657bb317c8798c6608bceb3f,657bb42705941aea7d1c6caa,0.025,0.025,1,111,273,106,1,sixfive,,,,,,,,,,,,,,,,,,,,,,,,,,,,,,,,,,,,,,,,,,,,,,,,,,,,,,,,,,,,,,,,,,,,,,,,,,,,,,,,,,,,,,,,,,,,,,,,,,,,,,,,,,,,,,,,,,,,,,,,,,,,,,,,,,,,,,,
,,6086a082cfd8e051845166e0,2023-12-15_03h05.44.504,kallum_motion_pilot,2023.2.3,Win32,35.71428571,6086a082cfd8e051845166e0,657bb317c8798c6608bceb3f,657bb42705941aea7d1c6caa,0.025,0.025,1,112,274,103,1,eightseven,,,,,,,,,,,,,,,,,,,,,,,,,,,,,,,,,,,,,,,,,,,,,,,,,,,,,,,,,,,,,,,,,,,,,,,,,,,,,,,,,,,,,,,,,,,,,,,,,,,,,,,,,,,,,,,,,,,,,,,,,,,,,,,,,,,,,,,
,,6086a082cfd8e051845166e0,2023-12-15_03h05.44.504,kallum_motion_pilot,2023.2.3,Win32,35.71428571,6086a082cfd8e051845166e0,657bb317c8798c6608bceb3f,657bb42705941aea7d1c6caa,0.025,0.025,1,113,275,128,1,fivesix,,,,,,,,,,,,,,,,,,,,,,,,,,,,,,,,,,,,,,,,,,,,,,,,,,,,,,,,,,,,,,,,,,,,,,,,,,,,,,,,,,,,,,,,,,,,,,,,,,,,,,,,,,,,,,,,,,,,,,,,,,,,,,,,,,,,,,,
,,6086a082cfd8e051845166e0,2023-12-15_03h05.44.504,kallum_motion_pilot,2023.2.3,Win32,35.71428571,6086a082cfd8e051845166e0,657bb317c8798c6608bceb3f,657bb42705941aea7d1c6caa,0.025,0.025,1,114,276,129,1,fiveseven,,,,,,,,,,,,,,,,,,,,,,,,,,,,,,,,,,,,,,,,,,,,,,,,,,,,,,,,,,,,,,,,,,,,,,,,,,,,,,,,,,,,,,,,,,,,,,,,,,,,,,,,,,,,,,,,,,,,,,,,,,,,,,,,,,,,,,,
,,6086a082cfd8e051845166e0,2023-12-15_03h05.44.504,kallum_motion_pilot,2023.2.3,Win32,35.71428571,6086a082cfd8e051845166e0,657bb317c8798c6608bceb3f,657bb42705941aea7d1c6caa,0.025,0.025,1,115,277,133,1,seveneight,,,,,,,,,,,,,,,,,,,,,,,,,,,,,,,,,,,,,,,,,,,,,,,,,,,,,,,,,,,,,,,,,,,,,,,,,,,,,,,,,,,,,,,,,,,,,,,,,,,,,,,,,,,,,,,,,,,,,,,,,,,,,,,,,,,,,,,
,,6086a082cfd8e051845166e0,2023-12-15_03h05.44.504,kallum_motion_pilot,2023.2.3,Win32,35.71428571,6086a082cfd8e051845166e0,657bb317c8798c6608bceb3f,657bb42705941aea7d1c6caa,0.025,0.025,1,116,278,47,1,fourthree,,,,,,,,,,,,,,,,,,,,,,,,,,,,,,,,,,,,,,,,,,,,,,,,,,,,,,,,,,,,,,,,,,,,,,,,,,,,,,,,,,,,,,,,,,,,,,,,,,,,,,,,,,,,,,,,,,,,,,,,,,,,,,,,,,,,,,,
,,6086a082cfd8e051845166e0,2023-12-15_03h05.44.504,kallum_motion_pilot,2023.2.3,Win32,35.71428571,6086a082cfd8e051845166e0,657bb317c8798c6608bceb3f,657bb42705941aea7d1c6caa,0.025,0.025,1,117,279,10,1,twoone,,,,,,,,,,,,,,,,,,,,,,,,,,,,,,,,,,,,,,,,,,,,,,,,,,,,,,,,,,,,,,,,,,,,,,,,,,,,,,,,,,,,,,,,,,,,,,,,,,,,,,,,,,,,,,,,,,,,,,,,,,,,,,,,,,,,,,,
,,6086a082cfd8e051845166e0,2023-12-15_03h05.44.504,kallum_motion_pilot,2023.2.3,Win32,35.71428571,6086a082cfd8e051845166e0,657bb317c8798c6608bceb3f,657bb42705941aea7d1c6caa,0.025,0.025,1,118,280,49,1,onethree,,,,,,,,,,,,,,,,,,,,,,,,,,,,,,,,,,,,,,,,,,,,,,,,,,,,,,,,,,,,,,,,,,,,,,,,,,,,,,,,,,,,,,,,,,,,,,,,,,,,,,,,,,,,,,,,,,,,,,,,,,,,,,,,,,,,,,,
