startup.started,startup.stopped,Prolific ID*,date,expName,psychopyVersion,OS,frameRate,participant,study_id,session,stimpositions.started,stimpositions.stopped,hardcoded_stimulus_positions.thisRepN,hardcoded_stimulus_positions.thisTrialN,hardcoded_stimulus_positions.thisN,hardcoded_stimulus_positions.thisIndex,hardcoded_stimulus_positions.ran,StimulusPos,stimorientation.started,stimorientation.stopped,prac_stimorientation_import_loop.thisRepN,prac_stimorientation_import_loop.thisTrialN,prac_stimorientation_import_loop.thisN,prac_stimorientation_import_loop.thisIndex,prac_stimorientation_import_loop.ran,Stimorientation,welcome_instr.started,welcome_instr.stopped,key_resp.keys,key_resp.rt,key_resp.duration,response_steppedout_1.started,response_steppedout_1.stopped,key_resp_20.keys,key_resp_20.rt,key_resp_20.duration,response_steppedout_2.started,response_steppedout_2.stopped,key_resp_19.keys,key_resp_19.rt,key_resp_19.duration,stim_response_instr.started,stim_response_instr.stopped,key_resp_15.keys,key_resp_15.rt,key_resp_15.duration,direction_instr_2.started,direction_instr_2.stopped,key_resp_9.keys,key_resp_9.rt,key_resp_9.duration,instr_prac.started,instr_prac.stopped,key_resp_10.keys,key_resp_10.rt,key_resp_10.duration,Stim1_display_prac.started,Stim1_display_prac.stopped,Ecc,Circle1_ori,Circle2_ori,response_prac.started,similarity,response_time,response_prac.stopped,mouse_5.x,mouse_5.y,mouse_5.leftButton,mouse_5.midButton,mouse_5.rightButton,mouse_5.clicked_name,responseprac_feedback.started,responseprac_feedback.stopped,summary2_prac.started,summary2_prac.stopped,mouse_6.x,mouse_6.y,mouse_6.leftButton,mouse_6.midButton,mouse_6.rightButton,mouse_6.clicked_name,duringprac.thisRepN,duringprac.thisTrialN,duringprac.thisN,duringprac.thisIndex,duringprac.ran,begin.started,begin.stopped,key_resp_22.keys,key_resp_22.rt,key_resp_22.duration,Stim1_display.started,Stim1_display.stopped,circle1_ori,circle2_ori,blank.started,blank.stopped,response.started,response.stopped,mouse.x,mouse.y,mouse.leftButton,mouse.midButton,mouse.rightButton,mouse.clicked_name,response_2.started,response_2.stopped,mouse_2.x,mouse_2.y,mouse_2.leftButton,mouse_2.midButton,mouse_2.rightButton,mouse_2.clicked_name,special_trial.started,special_trial.stopped,catch_1.started,catch_1.stopped,mouse_3.x,mouse_3.y,mouse_3.leftButton,mouse_3.midButton,mouse_3.rightButton,catchresponse,catchnumber,response_time_catch,Catch,response_sum.started,response_sum.stopped,mouse_11.x,mouse_11.y,mouse_11.leftButton,mouse_11.midButton,mouse_11.rightButton,main_trial.thisRepN,main_trial.thisTrialN,main_trial.thisN,main_trial.thisIndex,main_trial.ran,Orientationtrialno,xcircle1_ori,xcircle2_ori,flip_presentation_sequence_for_double_pass.started,flip_presentation_sequence_for_double_pass.stopped,double_pass.thisRepN,double_pass.thisTrialN,double_pass.thisN,double_pass.thisIndex,double_pass.ran,goodbye.started,goodbye.stopped,key_resp_3.keys,key_resp_3.rt,key_resp_3.duration
0.0006,0.0008,609f0b539d4cd74841ffb116,2023-12-15_04h20.09.326,kallum_motion_pilot,2023.2.3,Win32,60.35367252,609f0b539d4cd74841ffb116,657bb317c8798c6608bceb3f,657bb4710ee1ce3f0fe37e1b,,,,,,,,,,,,,,,,,,,,,,,,,,,,,,,,,,,,,,,,,,,,,,,,,,,,,,,,,,,,,,,,,,,,,,,,,,,,,,,,,,,,,,,,,,,,,,,,,,,,,,,,,,,,,,,,,,,,,,,,,,,,,,,,,,,,,,,,,,,,,,,
,,609f0b539d4cd74841ffb116,2023-12-15_04h20.09.326,kallum_motion_pilot,2023.2.3,Win32,60.35367252,609f0b539d4cd74841ffb116,657bb317c8798c6608bceb3f,657bb4710ee1ce3f0fe37e1b,0.0849,0.0853,0,0,0,71,1,fourthree,,,,,,,,,,,,,,,,,,,,,,,,,,,,,,,,,,,,,,,,,,,,,,,,,,,,,,,,,,,,,,,,,,,,,,,,,,,,,,,,,,,,,,,,,,,,,,,,,,,,,,,,,,,,,,,,,,,,,,,,,,,,,,,,,,,,,,,
,,609f0b539d4cd74841ffb116,2023-12-15_04h20.09.326,kallum_motion_pilot,2023.2.3,Win32,60.35367252,609f0b539d4cd74841ffb116,657bb317c8798c6608bceb3f,657bb4710ee1ce3f0fe37e1b,0.0858,0.0858,0,1,1,128,1,fivesix,,,,,,,,,,,,,,,,,,,,,,,,,,,,,,,,,,,,,,,,,,,,,,,,,,,,,,,,,,,,,,,,,,,,,,,,,,,,,,,,,,,,,,,,,,,,,,,,,,,,,,,,,,,,,,,,,,,,,,,,,,,,,,,,,,,,,,,
,,609f0b539d4cd74841ffb116,2023-12-15_04h20.09.326,kallum_motion_pilot,2023.2.3,Win32,60.35367252,609f0b539d4cd74841ffb116,657bb317c8798c6608bceb3f,657bb4710ee1ce3f0fe37e1b,0.0862,0.0862,0,2,2,5,1,threefour,,,,,,,,,,,,,,,,,,,,,,,,,,,,,,,,,,,,,,,,,,,,,,,,,,,,,,,,,,,,,,,,,,,,,,,,,,,,,,,,,,,,,,,,,,,,,,,,,,,,,,,,,,,,,,,,,,,,,,,,,,,,,,,,,,,,,,,
,,609f0b539d4cd74841ffb116,2023-12-15_04h20.09.326,kallum_motion_pilot,2023.2.3,Win32,60.35367252,609f0b539d4cd74841ffb116,657bb317c8798c6608bceb3f,657bb4710ee1ce3f0fe37e1b,0.0865,0.0865,0,3,3,156,1,sevenfive,,,,,,,,,,,,,,,,,,,,,,,,,,,,,,,,,,,,,,,,,,,,,,,,,,,,,,,,,,,,,,,,,,,,,,,,,,,,,,,,,,,,,,,,,,,,,,,,,,,,,,,,,,,,,,,,,,,,,,,,,,,,,,,,,,,,,,,
,,609f0b539d4cd74841ffb116,2023-12-15_04h20.09.326,kallum_motion_pilot,2023.2.3,Win32,60.35367252,609f0b539d4cd74841ffb116,657bb317c8798c6608bceb3f,657bb4710ee1ce3f0fe37e1b,0.0868,0.0868,0,4,4,75,1,twofour,,,,,,,,,,,,,,,,,,,,,,,,,,,,,,,,,,,,,,,,,,,,,,,,,,,,,,,,,,,,,,,,,,,,,,,,,,,,,,,,,,,,,,,,,,,,,,,,,,,,,,,,,,,,,,,,,,,,,,,,,,,,,,,,,,,,,,,
,,609f0b539d4cd74841ffb116,2023-12-15_04h20.09.326,kallum_motion_pilot,2023.2.3,Win32,60.35367252,609f0b539d4cd74841ffb116,657bb317c8798c6608bceb3f,657bb4710ee1ce3f0fe37e1b,0.0871,0.0872,0,5,5,9,1,onethree,,,,,,,,,,,,,,,,,,,,,,,,,,,,,,,,,,,,,,,,,,,,,,,,,,,,,,,,,,,,,,,,,,,,,,,,,,,,,,,,,,,,,,,,,,,,,,,,,,,,,,,,,,,,,,,,,,,,,,,,,,,,,,,,,,,,,,,
,,609f0b539d4cd74841ffb116,2023-12-15_04h20.09.326,kallum_motion_pilot,2023.2.3,Win32,60.35367252,609f0b539d4cd74841ffb116,657bb317c8798c6608bceb3f,657bb4710ee1ce3f0fe37e1b,0.0876,0.0879,0,6,6,46,1,fourtwo,,,,,,,,,,,,,,,,,,,,,,,,,,,,,,,,,,,,,,,,,,,,,,,,,,,,,,,,,,,,,,,,,,,,,,,,,,,,,,,,,,,,,,,,,,,,,,,,,,,,,,,,,,,,,,,,,,,,,,,,,,,,,,,,,,,,,,,
,,609f0b539d4cd74841ffb116,2023-12-15_04h20.09.326,kallum_motion_pilot,2023.2.3,Win32,60.35367252,609f0b539d4cd74841ffb116,657bb317c8798c6608bceb3f,657bb4710ee1ce3f0fe37e1b,0.0885,0.0886,0,7,7,51,1,twofour,,,,,,,,,,,,,,,,,,,,,,,,,,,,,,,,,,,,,,,,,,,,,,,,,,,,,,,,,,,,,,,,,,,,,,,,,,,,,,,,,,,,,,,,,,,,,,,,,,,,,,,,,,,,,,,,,,,,,,,,,,,,,,,,,,,,,,,
,,609f0b539d4cd74841ffb116,2023-12-15_04h20.09.326,kallum_motion_pilot,2023.2.3,Win32,60.35367252,609f0b539d4cd74841ffb116,657bb317c8798c6608bceb3f,657bb4710ee1ce3f0fe37e1b,0.0891,0.0893,0,8,8,4,1,threeone,,,,,,,,,,,,,,,,,,,,,,,,,,,,,,,,,,,,,,,,,,,,,,,,,,,,,,,,,,,,,,,,,,,,,,,,,,,,,,,,,,,,,,,,,,,,,,,,,,,,,,,,,,,,,,,,,,,,,,,,,,,,,,,,,,,,,,,
,,609f0b539d4cd74841ffb116,2023-12-15_04h20.09.326,kallum_motion_pilot,2023.2.3,Win32,60.35367252,609f0b539d4cd74841ffb116,657bb317c8798c6608bceb3f,657bb4710ee1ce3f0fe37e1b,0.09,0.0901,0,9,9,79,1,eightseven,,,,,,,,,,,,,,,,,,,,,,,,,,,,,,,,,,,,,,,,,,,,,,,,,,,,,,,,,,,,,,,,,,,,,,,,,,,,,,,,,,,,,,,,,,,,,,,,,,,,,,,,,,,,,,,,,,,,,,,,,,,,,,,,,,,,,,,
,,609f0b539d4cd74841ffb116,2023-12-15_04h20.09.326,kallum_motion_pilot,2023.2.3,Win32,60.35367252,609f0b539d4cd74841ffb116,657bb317c8798c6608bceb3f,657bb4710ee1ce3f0fe37e1b,0.0906,0.0906,0,10,10,135,1,eightseven,,,,,,,,,,,,,,,,,,,,,,,,,,,,,,,,,,,,,,,,,,,,,,,,,,,,,,,,,,,,,,,,,,,,,,,,,,,,,,,,,,,,,,,,,,,,,,,,,,,,,,,,,,,,,,,,,,,,,,,,,,,,,,,,,,,,,,,
,,609f0b539d4cd74841ffb116,2023-12-15_04h20.09.326,kallum_motion_pilot,2023.2.3,Win32,60.35367252,609f0b539d4cd74841ffb116,657bb317c8798c6608bceb3f,657bb4710ee1ce3f0fe37e1b,0.0911,0.0912,0,11,11,121,1,fiveseven,,,,,,,,,,,,,,,,,,,,,,,,,,,,,,,,,,,,,,,,,,,,,,,,,,,,,,,,,,,,,,,,,,,,,,,,,,,,,,,,,,,,,,,,,,,,,,,,,,,,,,,,,,,,,,,,,,,,,,,,,,,,,,,,,,,,,,,
,,609f0b539d4cd74841ffb116,2023-12-15_04h20.09.326,kallum_motion_pilot,2023.2.3,Win32,60.35367252,609f0b539d4cd74841ffb116,657bb317c8798c6608bceb3f,657bb4710ee1ce3f0fe37e1b,0.0916,0.0917,0,12,12,138,1,sixfive,,,,,,,,,,,,,,,,,,,,,,,,,,,,,,,,,,,,,,,,,,,,,,,,,,,,,,,,,,,,,,,,,,,,,,,,,,,,,,,,,,,,,,,,,,,,,,,,,,,,,,,,,,,,,,,,,,,,,,,,,,,,,,,,,,,,,,,
,,609f0b539d4cd74841ffb116,2023-12-15_04h20.09.326,kallum_motion_pilot,2023.2.3,Win32,60.35367252,609f0b539d4cd74841ffb116,657bb317c8798c6608bceb3f,657bb4710ee1ce3f0fe37e1b,0.0919,0.092,0,13,13,6,1,fourtwo,,,,,,,,,,,,,,,,,,,,,,,,,,,,,,,,,,,,,,,,,,,,,,,,,,,,,,,,,,,,,,,,,,,,,,,,,,,,,,,,,,,,,,,,,,,,,,,,,,,,,,,,,,,,,,,,,,,,,,,,,,,,,,,,,,,,,,,
,,609f0b539d4cd74841ffb116,2023-12-15_04h20.09.326,kallum_motion_pilot,2023.2.3,Win32,60.35367252,609f0b539d4cd74841ffb116,657bb317c8798c6608bceb3f,657bb4710ee1ce3f0fe37e1b,0.0923,0.0924,0,14,14,85,1,seveneight,,,,,,,,,,,,,,,,,,,,,,,,,,,,,,,,,,,,,,,,,,,,,,,,,,,,,,,,,,,,,,,,,,,,,,,,,,,,,,,,,,,,,,,,,,,,,,,,,,,,,,,,,,,,,,,,,,,,,,,,,,,,,,,,,,,,,,,
,,609f0b539d4cd74841ffb116,2023-12-15_04h20.09.326,kallum_motion_pilot,2023.2.3,Win32,60.35367252,609f0b539d4cd74841ffb116,657bb317c8798c6608bceb3f,657bb4710ee1ce3f0fe37e1b,0.0928,0.0928,0,15,15,30,1,fourtwo,,,,,,,,,,,,,,,,,,,,,,,,,,,,,,,,,,,,,,,,,,,,,,,,,,,,,,,,,,,,,,,,,,,,,,,,,,,,,,,,,,,,,,,,,,,,,,,,,,,,,,,,,,,,,,,,,,,,,,,,,,,,,,,,,,,,,,,
,,609f0b539d4cd74841ffb116,2023-12-15_04h20.09.326,kallum_motion_pilot,2023.2.3,Win32,60.35367252,609f0b539d4cd74841ffb116,657bb317c8798c6608bceb3f,657bb4710ee1ce3f0fe37e1b,0.0931,0.0933,0,16,16,124,1,sevenfive,,,,,,,,,,,,,,,,,,,,,,,,,,,,,,,,,,,,,,,,,,,,,,,,,,,,,,,,,,,,,,,,,,,,,,,,,,,,,,,,,,,,,,,,,,,,,,,,,,,,,,,,,,,,,,,,,,,,,,,,,,,,,,,,,,,,,,,
,,609f0b539d4cd74841ffb116,2023-12-15_04h20.09.326,kallum_motion_pilot,2023.2.3,Win32,60.35367252,609f0b539d4cd74841ffb116,657bb317c8798c6608bceb3f,657bb4710ee1ce3f0fe37e1b,0.0935,0.0936,0,17,17,76,1,threeone,,,,,,,,,,,,,,,,,,,,,,,,,,,,,,,,,,,,,,,,,,,,,,,,,,,,,,,,,,,,,,,,,,,,,,,,,,,,,,,,,,,,,,,,,,,,,,,,,,,,,,,,,,,,,,,,,,,,,,,,,,,,,,,,,,,,,,,
,,609f0b539d4cd74841ffb116,2023-12-15_04h20.09.326,kallum_motion_pilot,2023.2.3,Win32,60.35367252,609f0b539d4cd74841ffb116,657bb317c8798c6608bceb3f,657bb4710ee1ce3f0fe37e1b,0.0939,0.0941,0,18,18,1,1,onethree,,,,,,,,,,,,,,,,,,,,,,,,,,,,,,,,,,,,,,,,,,,,,,,,,,,,,,,,,,,,,,,,,,,,,,,,,,,,,,,,,,,,,,,,,,,,,,,,,,,,,,,,,,,,,,,,,,,,,,,,,,,,,,,,,,,,,,,
,,609f0b539d4cd74841ffb116,2023-12-15_04h20.09.326,kallum_motion_pilot,2023.2.3,Win32,60.35367252,609f0b539d4cd74841ffb116,657bb317c8798c6608bceb3f,657bb4710ee1ce3f0fe37e1b,0.0943,0.0944,0,19,19,52,1,threeone,,,,,,,,,,,,,,,,,,,,,,,,,,,,,,,,,,,,,,,,,,,,,,,,,,,,,,,,,,,,,,,,,,,,,,,,,,,,,,,,,,,,,,,,,,,,,,,,,,,,,,,,,,,,,,,,,,,,,,,,,,,,,,,,,,,,,,,
,,609f0b539d4cd74841ffb116,2023-12-15_04h20.09.326,kallum_motion_pilot,2023.2.3,Win32,60.35367252,609f0b539d4cd74841ffb116,657bb317c8798c6608bceb3f,657bb4710ee1ce3f0fe37e1b,0.0947,0.0947,0,20,20,18,1,twoone,,,,,,,,,,,,,,,,,,,,,,,,,,,,,,,,,,,,,,,,,,,,,,,,,,,,,,,,,,,,,,,,,,,,,,,,,,,,,,,,,,,,,,,,,,,,,,,,,,,,,,,,,,,,,,,,,,,,,,,,,,,,,,,,,,,,,,,
,,609f0b539d4cd74841ffb116,2023-12-15_04h20.09.326,kallum_motion_pilot,2023.2.3,Win32,60.35367252,609f0b539d4cd74841ffb116,657bb317c8798c6608bceb3f,657bb4710ee1ce3f0fe37e1b,0.095,0.0951,0,21,21,129,1,fiveseven,,,,,,,,,,,,,,,,,,,,,,,,,,,,,,,,,,,,,,,,,,,,,,,,,,,,,,,,,,,,,,,,,,,,,,,,,,,,,,,,,,,,,,,,,,,,,,,,,,,,,,,,,,,,,,,,,,,,,,,,,,,,,,,,,,,,,,,
,,609f0b539d4cd74841ffb116,2023-12-15_04h20.09.326,kallum_motion_pilot,2023.2.3,Win32,60.35367252,609f0b539d4cd74841ffb116,657bb317c8798c6608bceb3f,657bb4710ee1ce3f0fe37e1b,0.0953,0.0953,0,22,22,87,1,eightseven,,,,,,,,,,,,,,,,,,,,,,,,,,,,,,,,,,,,,,,,,,,,,,,,,,,,,,,,,,,,,,,,,,,,,,,,,,,,,,,,,,,,,,,,,,,,,,,,,,,,,,,,,,,,,,,,,,,,,,,,,,,,,,,,,,,,,,,
,,609f0b539d4cd74841ffb116,2023-12-15_04h20.09.326,kallum_motion_pilot,2023.2.3,Win32,60.35367252,609f0b539d4cd74841ffb116,657bb317c8798c6608bceb3f,657bb4710ee1ce3f0fe37e1b,0.0955,0.0955,0,23,23,125,1,seveneight,,,,,,,,,,,,,,,,,,,,,,,,,,,,,,,,,,,,,,,,,,,,,,,,,,,,,,,,,,,,,,,,,,,,,,,,,,,,,,,,,,,,,,,,,,,,,,,,,,,,,,,,,,,,,,,,,,,,,,,,,,,,,,,,,,,,,,,
,,609f0b539d4cd74841ffb116,2023-12-15_04h20.09.326,kallum_motion_pilot,2023.2.3,Win32,60.35367252,609f0b539d4cd74841ffb116,657bb317c8798c6608bceb3f,657bb4710ee1ce3f0fe37e1b,0.0958,0.0959,0,24,24,141,1,seveneight,,,,,,,,,,,,,,,,,,,,,,,,,,,,,,,,,,,,,,,,,,,,,,,,,,,,,,,,,,,,,,,,,,,,,,,,,,,,,,,,,,,,,,,,,,,,,,,,,,,,,,,,,,,,,,,,,,,,,,,,,,,,,,,,,,,,,,,
,,609f0b539d4cd74841ffb116,2023-12-15_04h20.09.326,kallum_motion_pilot,2023.2.3,Win32,60.35367252,609f0b539d4cd74841ffb116,657bb317c8798c6608bceb3f,657bb4710ee1ce3f0fe37e1b,0.0961,0.0962,0,25,25,108,1,sevenfive,,,,,,,,,,,,,,,,,,,,,,,,,,,,,,,,,,,,,,,,,,,,,,,,,,,,,,,,,,,,,,,,,,,,,,,,,,,,,,,,,,,,,,,,,,,,,,,,,,,,,,,,,,,,,,,,,,,,,,,,,,,,,,,,,,,,,,,
,,609f0b539d4cd74841ffb116,2023-12-15_04h20.09.326,kallum_motion_pilot,2023.2.3,Win32,60.35367252,609f0b539d4cd74841ffb116,657bb317c8798c6608bceb3f,657bb4710ee1ce3f0fe37e1b,0.0965,0.0967,0,26,26,150,1,eightsix,,,,,,,,,,,,,,,,,,,,,,,,,,,,,,,,,,,,,,,,,,,,,,,,,,,,,,,,,,,,,,,,,,,,,,,,,,,,,,,,,,,,,,,,,,,,,,,,,,,,,,,,,,,,,,,,,,,,,,,,,,,,,,,,,,,,,,,
,,609f0b539d4cd74841ffb116,2023-12-15_04h20.09.326,kallum_motion_pilot,2023.2.3,Win32,60.35367252,609f0b539d4cd74841ffb116,657bb317c8798c6608bceb3f,657bb4710ee1ce3f0fe37e1b,0.0972,0.0973,0,27,27,27,1,twofour,,,,,,,,,,,,,,,,,,,,,,,,,,,,,,,,,,,,,,,,,,,,,,,,,,,,,,,,,,,,,,,,,,,,,,,,,,,,,,,,,,,,,,,,,,,,,,,,,,,,,,,,,,,,,,,,,,,,,,,,,,,,,,,,,,,,,,,
,,609f0b539d4cd74841ffb116,2023-12-15_04h20.09.326,kallum_motion_pilot,2023.2.3,Win32,60.35367252,609f0b539d4cd74841ffb116,657bb317c8798c6608bceb3f,657bb4710ee1ce3f0fe37e1b,0.0976,0.0977,0,28,28,65,1,onethree,,,,,,,,,,,,,,,,,,,,,,,,,,,,,,,,,,,,,,,,,,,,,,,,,,,,,,,,,,,,,,,,,,,,,,,,,,,,,,,,,,,,,,,,,,,,,,,,,,,,,,,,,,,,,,,,,,,,,,,,,,,,,,,,,,,,,,,
,,609f0b539d4cd74841ffb116,2023-12-15_04h20.09.326,kallum_motion_pilot,2023.2.3,Win32,60.35367252,609f0b539d4cd74841ffb116,657bb317c8798c6608bceb3f,657bb4710ee1ce3f0fe37e1b,0.0983,0.0983,0,29,29,12,1,threeone,,,,,,,,,,,,,,,,,,,,,,,,,,,,,,,,,,,,,,,,,,,,,,,,,,,,,,,,,,,,,,,,,,,,,,,,,,,,,,,,,,,,,,,,,,,,,,,,,,,,,,,,,,,,,,,,,,,,,,,,,,,,,,,,,,,,,,,
,,609f0b539d4cd74841ffb116,2023-12-15_04h20.09.326,kallum_motion_pilot,2023.2.3,Win32,60.35367252,609f0b539d4cd74841ffb116,657bb317c8798c6608bceb3f,657bb4710ee1ce3f0fe37e1b,0.0987,0.0989,0,30,30,86,1,eightsix,,,,,,,,,,,,,,,,,,,,,,,,,,,,,,,,,,,,,,,,,,,,,,,,,,,,,,,,,,,,,,,,,,,,,,,,,,,,,,,,,,,,,,,,,,,,,,,,,,,,,,,,,,,,,,,,,,,,,,,,,,,,,,,,,,,,,,,
,,609f0b539d4cd74841ffb116,2023-12-15_04h20.09.326,kallum_motion_pilot,2023.2.3,Win32,60.35367252,609f0b539d4cd74841ffb116,657bb317c8798c6608bceb3f,657bb4710ee1ce3f0fe37e1b,0.0994,0.0995,0,31,31,144,1,fivesix,,,,,,,,,,,,,,,,,,,,,,,,,,,,,,,,,,,,,,,,,,,,,,,,,,,,,,,,,,,,,,,,,,,,,,,,,,,,,,,,,,,,,,,,,,,,,,,,,,,,,,,,,,,,,,,,,,,,,,,,,,,,,,,,,,,,,,,
,,609f0b539d4cd74841ffb116,2023-12-15_04h20.09.326,kallum_motion_pilot,2023.2.3,Win32,60.35367252,609f0b539d4cd74841ffb116,657bb317c8798c6608bceb3f,657bb4710ee1ce3f0fe37e1b,0.0998,0.0998,0,32,32,13,1,threefour,,,,,,,,,,,,,,,,,,,,,,,,,,,,,,,,,,,,,,,,,,,,,,,,,,,,,,,,,,,,,,,,,,,,,,,,,,,,,,,,,,,,,,,,,,,,,,,,,,,,,,,,,,,,,,,,,,,,,,,,,,,,,,,,,,,,,,,
,,609f0b539d4cd74841ffb116,2023-12-15_04h20.09.326,kallum_motion_pilot,2023.2.3,Win32,60.35367252,609f0b539d4cd74841ffb116,657bb317c8798c6608bceb3f,657bb4710ee1ce3f0fe37e1b,0.1001,0.1002,0,33,33,57,1,onethree,,,,,,,,,,,,,,,,,,,,,,,,,,,,,,,,,,,,,,,,,,,,,,,,,,,,,,,,,,,,,,,,,,,,,,,,,,,,,,,,,,,,,,,,,,,,,,,,,,,,,,,,,,,,,,,,,,,,,,,,,,,,,,,,,,,,,,,
,,609f0b539d4cd74841ffb116,2023-12-15_04h20.09.326,kallum_motion_pilot,2023.2.3,Win32,60.35367252,609f0b539d4cd74841ffb116,657bb317c8798c6608bceb3f,657bb4710ee1ce3f0fe37e1b,0.1005,0.1006,0,34,34,33,1,onethree,,,,,,,,,,,,,,,,,,,,,,,,,,,,,,,,,,,,,,,,,,,,,,,,,,,,,,,,,,,,,,,,,,,,,,,,,,,,,,,,,,,,,,,,,,,,,,,,,,,,,,,,,,,,,,,,,,,,,,,,,,,,,,,,,,,,,,,
,,609f0b539d4cd74841ffb116,2023-12-15_04h20.09.326,kallum_motion_pilot,2023.2.3,Win32,60.35367252,609f0b539d4cd74841ffb116,657bb317c8798c6608bceb3f,657bb4710ee1ce3f0fe37e1b,0.1009,0.1009,0,35,35,131,1,sixeight,,,,,,,,,,,,,,,,,,,,,,,,,,,,,,,,,,,,,,,,,,,,,,,,,,,,,,,,,,,,,,,,,,,,,,,,,,,,,,,,,,,,,,,,,,,,,,,,,,,,,,,,,,,,,,,,,,,,,,,,,,,,,,,,,,,,,,,
,,609f0b539d4cd74841ffb116,2023-12-15_04h20.09.326,kallum_motion_pilot,2023.2.3,Win32,60.35367252,609f0b539d4cd74841ffb116,657bb317c8798c6608bceb3f,657bb4710ee1ce3f0fe37e1b,0.1013,0.1014,0,36,36,104,1,fivesix,,,,,,,,,,,,,,,,,,,,,,,,,,,,,,,,,,,,,,,,,,,,,,,,,,,,,,,,,,,,,,,,,,,,,,,,,,,,,,,,,,,,,,,,,,,,,,,,,,,,,,,,,,,,,,,,,,,,,,,,,,,,,,,,,,,,,,,
,,609f0b539d4cd74841ffb116,2023-12-15_04h20.09.326,kallum_motion_pilot,2023.2.3,Win32,60.35367252,609f0b539d4cd74841ffb116,657bb317c8798c6608bceb3f,657bb4710ee1ce3f0fe37e1b,0.1017,0.1017,0,37,37,29,1,threefour,,,,,,,,,,,,,,,,,,,,,,,,,,,,,,,,,,,,,,,,,,,,,,,,,,,,,,,,,,,,,,,,,,,,,,,,,,,,,,,,,,,,,,,,,,,,,,,,,,,,,,,,,,,,,,,,,,,,,,,,,,,,,,,,,,,,,,,
,,609f0b539d4cd74841ffb116,2023-12-15_04h20.09.326,kallum_motion_pilot,2023.2.3,Win32,60.35367252,609f0b539d4cd74841ffb116,657bb317c8798c6608bceb3f,657bb4710ee1ce3f0fe37e1b,0.102,0.1021,0,38,38,107,1,sixeight,,,,,,,,,,,,,,,,,,,,,,,,,,,,,,,,,,,,,,,,,,,,,,,,,,,,,,,,,,,,,,,,,,,,,,,,,,,,,,,,,,,,,,,,,,,,,,,,,,,,,,,,,,,,,,,,,,,,,,,,,,,,,,,,,,,,,,,
,,609f0b539d4cd74841ffb116,2023-12-15_04h20.09.326,kallum_motion_pilot,2023.2.3,Win32,60.35367252,609f0b539d4cd74841ffb116,657bb317c8798c6608bceb3f,657bb4710ee1ce3f0fe37e1b,0.1024,0.1024,0,39,39,149,1,seveneight,,,,,,,,,,,,,,,,,,,,,,,,,,,,,,,,,,,,,,,,,,,,,,,,,,,,,,,,,,,,,,,,,,,,,,,,,,,,,,,,,,,,,,,,,,,,,,,,,,,,,,,,,,,,,,,,,,,,,,,,,,,,,,,,,,,,,,,
,,609f0b539d4cd74841ffb116,2023-12-15_04h20.09.326,kallum_motion_pilot,2023.2.3,Win32,60.35367252,609f0b539d4cd74841ffb116,657bb317c8798c6608bceb3f,657bb4710ee1ce3f0fe37e1b,0.1027,0.1029,0,40,40,47,1,fourthree,,,,,,,,,,,,,,,,,,,,,,,,,,,,,,,,,,,,,,,,,,,,,,,,,,,,,,,,,,,,,,,,,,,,,,,,,,,,,,,,,,,,,,,,,,,,,,,,,,,,,,,,,,,,,,,,,,,,,,,,,,,,,,,,,,,,,,,
,,609f0b539d4cd74841ffb116,2023-12-15_04h20.09.326,kallum_motion_pilot,2023.2.3,Win32,60.35367252,609f0b539d4cd74841ffb116,657bb317c8798c6608bceb3f,657bb4710ee1ce3f0fe37e1b,0.1031,0.1032,0,41,41,64,1,onetwo,,,,,,,,,,,,,,,,,,,,,,,,,,,,,,,,,,,,,,,,,,,,,,,,,,,,,,,,,,,,,,,,,,,,,,,,,,,,,,,,,,,,,,,,,,,,,,,,,,,,,,,,,,,,,,,,,,,,,,,,,,,,,,,,,,,,,,,
,,609f0b539d4cd74841ffb116,2023-12-15_04h20.09.326,kallum_motion_pilot,2023.2.3,Win32,60.35367252,609f0b539d4cd74841ffb116,657bb317c8798c6608bceb3f,657bb4710ee1ce3f0fe37e1b,0.1035,0.1035,0,42,42,134,1,eightsix,,,,,,,,,,,,,,,,,,,,,,,,,,,,,,,,,,,,,,,,,,,,,,,,,,,,,,,,,,,,,,,,,,,,,,,,,,,,,,,,,,,,,,,,,,,,,,,,,,,,,,,,,,,,,,,,,,,,,,,,,,,,,,,,,,,,,,,
,,609f0b539d4cd74841ffb116,2023-12-15_04h20.09.326,kallum_motion_pilot,2023.2.3,Win32,60.35367252,609f0b539d4cd74841ffb116,657bb317c8798c6608bceb3f,657bb4710ee1ce3f0fe37e1b,0.1038,0.1039,0,43,43,38,1,fourtwo,,,,,,,,,,,,,,,,,,,,,,,,,,,,,,,,,,,,,,,,,,,,,,,,,,,,,,,,,,,,,,,,,,,,,,,,,,,,,,,,,,,,,,,,,,,,,,,,,,,,,,,,,,,,,,,,,,,,,,,,,,,,,,,,,,,,,,,
,,609f0b539d4cd74841ffb116,2023-12-15_04h20.09.326,kallum_motion_pilot,2023.2.3,Win32,60.35367252,609f0b539d4cd74841ffb116,657bb317c8798c6608bceb3f,657bb4710ee1ce3f0fe37e1b,0.1042,0.1043,0,44,44,102,1,eightsix,,,,,,,,,,,,,,,,,,,,,,,,,,,,,,,,,,,,,,,,,,,,,,,,,,,,,,,,,,,,,,,,,,,,,,,,,,,,,,,,,,,,,,,,,,,,,,,,,,,,,,,,,,,,,,,,,,,,,,,,,,,,,,,,,,,,,,,
,,609f0b539d4cd74841ffb116,2023-12-15_04h20.09.326,kallum_motion_pilot,2023.2.3,Win32,60.35367252,609f0b539d4cd74841ffb116,657bb317c8798c6608bceb3f,657bb4710ee1ce3f0fe37e1b,0.1045,0.1046,0,45,45,145,1,fiveseven,,,,,,,,,,,,,,,,,,,,,,,,,,,,,,,,,,,,,,,,,,,,,,,,,,,,,,,,,,,,,,,,,,,,,,,,,,,,,,,,,,,,,,,,,,,,,,,,,,,,,,,,,,,,,,,,,,,,,,,,,,,,,,,,,,,,,,,
,,609f0b539d4cd74841ffb116,2023-12-15_04h20.09.326,kallum_motion_pilot,2023.2.3,Win32,60.35367252,609f0b539d4cd74841ffb116,657bb317c8798c6608bceb3f,657bb4710ee1ce3f0fe37e1b,0.1067,0.1068,0,46,46,31,1,fourthree,,,,,,,,,,,,,,,,,,,,,,,,,,,,,,,,,,,,,,,,,,,,,,,,,,,,,,,,,,,,,,,,,,,,,,,,,,,,,,,,,,,,,,,,,,,,,,,,,,,,,,,,,,,,,,,,,,,,,,,,,,,,,,,,,,,,,,,
,,609f0b539d4cd74841ffb116,2023-12-15_04h20.09.326,kallum_motion_pilot,2023.2.3,Win32,60.35367252,609f0b539d4cd74841ffb116,657bb317c8798c6608bceb3f,657bb4710ee1ce3f0fe37e1b,0.1071,0.1072,0,47,47,62,1,fourtwo,,,,,,,,,,,,,,,,,,,,,,,,,,,,,,,,,,,,,,,,,,,,,,,,,,,,,,,,,,,,,,,,,,,,,,,,,,,,,,,,,,,,,,,,,,,,,,,,,,,,,,,,,,,,,,,,,,,,,,,,,,,,,,,,,,,,,,,
,,609f0b539d4cd74841ffb116,2023-12-15_04h20.09.326,kallum_motion_pilot,2023.2.3,Win32,60.35367252,609f0b539d4cd74841ffb116,657bb317c8798c6608bceb3f,657bb4710ee1ce3f0fe37e1b,0.1075,0.1076,0,48,48,154,1,sixfive,,,,,,,,,,,,,,,,,,,,,,,,,,,,,,,,,,,,,,,,,,,,,,,,,,,,,,,,,,,,,,,,,,,,,,,,,,,,,,,,,,,,,,,,,,,,,,,,,,,,,,,,,,,,,,,,,,,,,,,,,,,,,,,,,,,,,,,
,,609f0b539d4cd74841ffb116,2023-12-15_04h20.09.326,kallum_motion_pilot,2023.2.3,Win32,60.35367252,609f0b539d4cd74841ffb116,657bb317c8798c6608bceb3f,657bb4710ee1ce3f0fe37e1b,0.1079,0.1079,0,49,49,54,1,fourtwo,,,,,,,,,,,,,,,,,,,,,,,,,,,,,,,,,,,,,,,,,,,,,,,,,,,,,,,,,,,,,,,,,,,,,,,,,,,,,,,,,,,,,,,,,,,,,,,,,,,,,,,,,,,,,,,,,,,,,,,,,,,,,,,,,,,,,,,
,,609f0b539d4cd74841ffb116,2023-12-15_04h20.09.326,kallum_motion_pilot,2023.2.3,Win32,60.35367252,609f0b539d4cd74841ffb116,657bb317c8798c6608bceb3f,657bb4710ee1ce3f0fe37e1b,0.1082,0.1083,0,50,50,24,1,onetwo,,,,,,,,,,,,,,,,,,,,,,,,,,,,,,,,,,,,,,,,,,,,,,,,,,,,,,,,,,,,,,,,,,,,,,,,,,,,,,,,,,,,,,,,,,,,,,,,,,,,,,,,,,,,,,,,,,,,,,,,,,,,,,,,,,,,,,,
,,609f0b539d4cd74841ffb116,2023-12-15_04h20.09.326,kallum_motion_pilot,2023.2.3,Win32,60.35367252,609f0b539d4cd74841ffb116,657bb317c8798c6608bceb3f,657bb4710ee1ce3f0fe37e1b,0.1085,0.1086,0,51,51,78,1,fourtwo,,,,,,,,,,,,,,,,,,,,,,,,,,,,,,,,,,,,,,,,,,,,,,,,,,,,,,,,,,,,,,,,,,,,,,,,,,,,,,,,,,,,,,,,,,,,,,,,,,,,,,,,,,,,,,,,,,,,,,,,,,,,,,,,,,,,,,,
,,609f0b539d4cd74841ffb116,2023-12-15_04h20.09.326,kallum_motion_pilot,2023.2.3,Win32,60.35367252,609f0b539d4cd74841ffb116,657bb317c8798c6608bceb3f,657bb4710ee1ce3f0fe37e1b,0.1089,0.109,0,52,52,160,1,fivesix,,,,,,,,,,,,,,,,,,,,,,,,,,,,,,,,,,,,,,,,,,,,,,,,,,,,,,,,,,,,,,,,,,,,,,,,,,,,,,,,,,,,,,,,,,,,,,,,,,,,,,,,,,,,,,,,,,,,,,,,,,,,,,,,,,,,,,,
,,609f0b539d4cd74841ffb116,2023-12-15_04h20.09.326,kallum_motion_pilot,2023.2.3,Win32,60.35367252,609f0b539d4cd74841ffb116,657bb317c8798c6608bceb3f,657bb4710ee1ce3f0fe37e1b,0.1093,0.1095,0,53,53,66,1,twoone,,,,,,,,,,,,,,,,,,,,,,,,,,,,,,,,,,,,,,,,,,,,,,,,,,,,,,,,,,,,,,,,,,,,,,,,,,,,,,,,,,,,,,,,,,,,,,,,,,,,,,,,,,,,,,,,,,,,,,,,,,,,,,,,,,,,,,,
,,609f0b539d4cd74841ffb116,2023-12-15_04h20.09.326,kallum_motion_pilot,2023.2.3,Win32,60.35367252,609f0b539d4cd74841ffb116,657bb317c8798c6608bceb3f,657bb4710ee1ce3f0fe37e1b,0.1098,0.1099,0,54,54,81,1,fiveseven,,,,,,,,,,,,,,,,,,,,,,,,,,,,,,,,,,,,,,,,,,,,,,,,,,,,,,,,,,,,,,,,,,,,,,,,,,,,,,,,,,,,,,,,,,,,,,,,,,,,,,,,,,,,,,,,,,,,,,,,,,,,,,,,,,,,,,,
,,609f0b539d4cd74841ffb116,2023-12-15_04h20.09.326,kallum_motion_pilot,2023.2.3,Win32,60.35367252,609f0b539d4cd74841ffb116,657bb317c8798c6608bceb3f,657bb4710ee1ce3f0fe37e1b,0.1103,0.1103,0,55,55,148,1,sevenfive,,,,,,,,,,,,,,,,,,,,,,,,,,,,,,,,,,,,,,,,,,,,,,,,,,,,,,,,,,,,,,,,,,,,,,,,,,,,,,,,,,,,,,,,,,,,,,,,,,,,,,,,,,,,,,,,,,,,,,,,,,,,,,,,,,,,,,,
,,609f0b539d4cd74841ffb116,2023-12-15_04h20.09.326,kallum_motion_pilot,2023.2.3,Win32,60.35367252,609f0b539d4cd74841ffb116,657bb317c8798c6608bceb3f,657bb4710ee1ce3f0fe37e1b,0.1106,0.1107,0,56,56,58,1,twoone,,,,,,,,,,,,,,,,,,,,,,,,,,,,,,,,,,,,,,,,,,,,,,,,,,,,,,,,,,,,,,,,,,,,,,,,,,,,,,,,,,,,,,,,,,,,,,,,,,,,,,,,,,,,,,,,,,,,,,,,,,,,,,,,,,,,,,,
,,609f0b539d4cd74841ffb116,2023-12-15_04h20.09.326,kallum_motion_pilot,2023.2.3,Win32,60.35367252,609f0b539d4cd74841ffb116,657bb317c8798c6608bceb3f,657bb4710ee1ce3f0fe37e1b,0.111,0.111,0,57,57,120,1,fivesix,,,,,,,,,,,,,,,,,,,,,,,,,,,,,,,,,,,,,,,,,,,,,,,,,,,,,,,,,,,,,,,,,,,,,,,,,,,,,,,,,,,,,,,,,,,,,,,,,,,,,,,,,,,,,,,,,,,,,,,,,,,,,,,,,,,,,,,
,,609f0b539d4cd74841ffb116,2023-12-15_04h20.09.326,kallum_motion_pilot,2023.2.3,Win32,60.35367252,609f0b539d4cd74841ffb116,657bb317c8798c6608bceb3f,657bb4710ee1ce3f0fe37e1b,0.1112,0.1113,0,58,58,50,1,twoone,,,,,,,,,,,,,,,,,,,,,,,,,,,,,,,,,,,,,,,,,,,,,,,,,,,,,,,,,,,,,,,,,,,,,,,,,,,,,,,,,,,,,,,,,,,,,,,,,,,,,,,,,,,,,,,,,,,,,,,,,,,,,,,,,,,,,,,
,,609f0b539d4cd74841ffb116,2023-12-15_04h20.09.326,kallum_motion_pilot,2023.2.3,Win32,60.35367252,609f0b539d4cd74841ffb116,657bb317c8798c6608bceb3f,657bb4710ee1ce3f0fe37e1b,0.1114,0.1115,0,59,59,132,1,sevenfive,,,,,,,,,,,,,,,,,,,,,,,,,,,,,,,,,,,,,,,,,,,,,,,,,,,,,,,,,,,,,,,,,,,,,,,,,,,,,,,,,,,,,,,,,,,,,,,,,,,,,,,,,,,,,,,,,,,,,,,,,,,,,,,,,,,,,,,
,,609f0b539d4cd74841ffb116,2023-12-15_04h20.09.326,kallum_motion_pilot,2023.2.3,Win32,60.35367252,609f0b539d4cd74841ffb116,657bb317c8798c6608bceb3f,657bb4710ee1ce3f0fe37e1b,0.1117,0.1118,0,60,60,143,1,eightseven,,,,,,,,,,,,,,,,,,,,,,,,,,,,,,,,,,,,,,,,,,,,,,,,,,,,,,,,,,,,,,,,,,,,,,,,,,,,,,,,,,,,,,,,,,,,,,,,,,,,,,,,,,,,,,,,,,,,,,,,,,,,,,,,,,,,,,,
,,609f0b539d4cd74841ffb116,2023-12-15_04h20.09.326,kallum_motion_pilot,2023.2.3,Win32,60.35367252,609f0b539d4cd74841ffb116,657bb317c8798c6608bceb3f,657bb4710ee1ce3f0fe37e1b,0.112,0.112,0,61,61,49,1,onethree,,,,,,,,,,,,,,,,,,,,,,,,,,,,,,,,,,,,,,,,,,,,,,,,,,,,,,,,,,,,,,,,,,,,,,,,,,,,,,,,,,,,,,,,,,,,,,,,,,,,,,,,,,,,,,,,,,,,,,,,,,,,,,,,,,,,,,,
,,609f0b539d4cd74841ffb116,2023-12-15_04h20.09.326,kallum_motion_pilot,2023.2.3,Win32,60.35367252,609f0b539d4cd74841ffb116,657bb317c8798c6608bceb3f,657bb4710ee1ce3f0fe37e1b,0.1123,0.1125,0,62,62,70,1,fourtwo,,,,,,,,,,,,,,,,,,,,,,,,,,,,,,,,,,,,,,,,,,,,,,,,,,,,,,,,,,,,,,,,,,,,,,,,,,,,,,,,,,,,,,,,,,,,,,,,,,,,,,,,,,,,,,,,,,,,,,,,,,,,,,,,,,,,,,,
,,609f0b539d4cd74841ffb116,2023-12-15_04h20.09.326,kallum_motion_pilot,2023.2.3,Win32,60.35367252,609f0b539d4cd74841ffb116,657bb317c8798c6608bceb3f,657bb4710ee1ce3f0fe37e1b,0.1129,0.1131,0,63,63,22,1,fourtwo,,,,,,,,,,,,,,,,,,,,,,,,,,,,,,,,,,,,,,,,,,,,,,,,,,,,,,,,,,,,,,,,,,,,,,,,,,,,,,,,,,,,,,,,,,,,,,,,,,,,,,,,,,,,,,,,,,,,,,,,,,,,,,,,,,,,,,,
,,609f0b539d4cd74841ffb116,2023-12-15_04h20.09.326,kallum_motion_pilot,2023.2.3,Win32,60.35367252,609f0b539d4cd74841ffb116,657bb317c8798c6608bceb3f,657bb4710ee1ce3f0fe37e1b,0.1134,0.1135,0,64,64,82,1,sixfive,,,,,,,,,,,,,,,,,,,,,,,,,,,,,,,,,,,,,,,,,,,,,,,,,,,,,,,,,,,,,,,,,,,,,,,,,,,,,,,,,,,,,,,,,,,,,,,,,,,,,,,,,,,,,,,,,,,,,,,,,,,,,,,,,,,,,,,
,,609f0b539d4cd74841ffb116,2023-12-15_04h20.09.326,kallum_motion_pilot,2023.2.3,Win32,60.35367252,609f0b539d4cd74841ffb116,657bb317c8798c6608bceb3f,657bb4710ee1ce3f0fe37e1b,0.1138,0.1139,0,65,65,114,1,sixfive,,,,,,,,,,,,,,,,,,,,,,,,,,,,,,,,,,,,,,,,,,,,,,,,,,,,,,,,,,,,,,,,,,,,,,,,,,,,,,,,,,,,,,,,,,,,,,,,,,,,,,,,,,,,,,,,,,,,,,,,,,,,,,,,,,,,,,,
,,609f0b539d4cd74841ffb116,2023-12-15_04h20.09.326,kallum_motion_pilot,2023.2.3,Win32,60.35367252,609f0b539d4cd74841ffb116,657bb317c8798c6608bceb3f,657bb4710ee1ce3f0fe37e1b,0.1142,0.1143,0,66,66,146,1,sixfive,,,,,,,,,,,,,,,,,,,,,,,,,,,,,,,,,,,,,,,,,,,,,,,,,,,,,,,,,,,,,,,,,,,,,,,,,,,,,,,,,,,,,,,,,,,,,,,,,,,,,,,,,,,,,,,,,,,,,,,,,,,,,,,,,,,,,,,
,,609f0b539d4cd74841ffb116,2023-12-15_04h20.09.326,kallum_motion_pilot,2023.2.3,Win32,60.35367252,609f0b539d4cd74841ffb116,657bb317c8798c6608bceb3f,657bb4710ee1ce3f0fe37e1b,0.1148,0.115,0,67,67,55,1,fourthree,,,,,,,,,,,,,,,,,,,,,,,,,,,,,,,,,,,,,,,,,,,,,,,,,,,,,,,,,,,,,,,,,,,,,,,,,,,,,,,,,,,,,,,,,,,,,,,,,,,,,,,,,,,,,,,,,,,,,,,,,,,,,,,,,,,,,,,
,,609f0b539d4cd74841ffb116,2023-12-15_04h20.09.326,kallum_motion_pilot,2023.2.3,Win32,60.35367252,609f0b539d4cd74841ffb116,657bb317c8798c6608bceb3f,657bb4710ee1ce3f0fe37e1b,0.1153,0.1154,0,68,68,119,1,eightseven,,,,,,,,,,,,,,,,,,,,,,,,,,,,,,,,,,,,,,,,,,,,,,,,,,,,,,,,,,,,,,,,,,,,,,,,,,,,,,,,,,,,,,,,,,,,,,,,,,,,,,,,,,,,,,,,,,,,,,,,,,,,,,,,,,,,,,,
,,609f0b539d4cd74841ffb116,2023-12-15_04h20.09.326,kallum_motion_pilot,2023.2.3,Win32,60.35367252,609f0b539d4cd74841ffb116,657bb317c8798c6608bceb3f,657bb4710ee1ce3f0fe37e1b,0.1158,0.116,0,69,69,41,1,onethree,,,,,,,,,,,,,,,,,,,,,,,,,,,,,,,,,,,,,,,,,,,,,,,,,,,,,,,,,,,,,,,,,,,,,,,,,,,,,,,,,,,,,,,,,,,,,,,,,,,,,,,,,,,,,,,,,,,,,,,,,,,,,,,,,,,,,,,
,,609f0b539d4cd74841ffb116,2023-12-15_04h20.09.326,kallum_motion_pilot,2023.2.3,Win32,60.35367252,609f0b539d4cd74841ffb116,657bb317c8798c6608bceb3f,657bb4710ee1ce3f0fe37e1b,0.1162,0.1163,0,70,70,3,1,twofour,,,,,,,,,,,,,,,,,,,,,,,,,,,,,,,,,,,,,,,,,,,,,,,,,,,,,,,,,,,,,,,,,,,,,,,,,,,,,,,,,,,,,,,,,,,,,,,,,,,,,,,,,,,,,,,,,,,,,,,,,,,,,,,,,,,,,,,
,,609f0b539d4cd74841ffb116,2023-12-15_04h20.09.326,kallum_motion_pilot,2023.2.3,Win32,60.35367252,609f0b539d4cd74841ffb116,657bb317c8798c6608bceb3f,657bb4710ee1ce3f0fe37e1b,0.1166,0.1166,0,71,71,2,1,twoone,,,,,,,,,,,,,,,,,,,,,,,,,,,,,,,,,,,,,,,,,,,,,,,,,,,,,,,,,,,,,,,,,,,,,,,,,,,,,,,,,,,,,,,,,,,,,,,,,,,,,,,,,,,,,,,,,,,,,,,,,,,,,,,,,,,,,,,
,,609f0b539d4cd74841ffb116,2023-12-15_04h20.09.326,kallum_motion_pilot,2023.2.3,Win32,60.35367252,609f0b539d4cd74841ffb116,657bb317c8798c6608bceb3f,657bb4710ee1ce3f0fe37e1b,0.1169,0.1169,0,72,72,137,1,fiveseven,,,,,,,,,,,,,,,,,,,,,,,,,,,,,,,,,,,,,,,,,,,,,,,,,,,,,,,,,,,,,,,,,,,,,,,,,,,,,,,,,,,,,,,,,,,,,,,,,,,,,,,,,,,,,,,,,,,,,,,,,,,,,,,,,,,,,,,
,,609f0b539d4cd74841ffb116,2023-12-15_04h20.09.326,kallum_motion_pilot,2023.2.3,Win32,60.35367252,609f0b539d4cd74841ffb116,657bb317c8798c6608bceb3f,657bb4710ee1ce3f0fe37e1b,0.1171,0.1172,0,73,73,159,1,eightseven,,,,,,,,,,,,,,,,,,,,,,,,,,,,,,,,,,,,,,,,,,,,,,,,,,,,,,,,,,,,,,,,,,,,,,,,,,,,,,,,,,,,,,,,,,,,,,,,,,,,,,,,,,,,,,,,,,,,,,,,,,,,,,,,,,,,,,,
,,609f0b539d4cd74841ffb116,2023-12-15_04h20.09.326,kallum_motion_pilot,2023.2.3,Win32,60.35367252,609f0b539d4cd74841ffb116,657bb317c8798c6608bceb3f,657bb4710ee1ce3f0fe37e1b,0.1174,0.1175,0,74,74,32,1,onetwo,,,,,,,,,,,,,,,,,,,,,,,,,,,,,,,,,,,,,,,,,,,,,,,,,,,,,,,,,,,,,,,,,,,,,,,,,,,,,,,,,,,,,,,,,,,,,,,,,,,,,,,,,,,,,,,,,,,,,,,,,,,,,,,,,,,,,,,
,,609f0b539d4cd74841ffb116,2023-12-15_04h20.09.326,kallum_motion_pilot,2023.2.3,Win32,60.35367252,609f0b539d4cd74841ffb116,657bb317c8798c6608bceb3f,657bb4710ee1ce3f0fe37e1b,0.1177,0.1177,0,75,75,115,1,sixeight,,,,,,,,,,,,,,,,,,,,,,,,,,,,,,,,,,,,,,,,,,,,,,,,,,,,,,,,,,,,,,,,,,,,,,,,,,,,,,,,,,,,,,,,,,,,,,,,,,,,,,,,,,,,,,,,,,,,,,,,,,,,,,,,,,,,,,,
,,609f0b539d4cd74841ffb116,2023-12-15_04h20.09.326,kallum_motion_pilot,2023.2.3,Win32,60.35367252,609f0b539d4cd74841ffb116,657bb317c8798c6608bceb3f,657bb4710ee1ce3f0fe37e1b,0.1179,0.118,0,76,76,101,1,seveneight,,,,,,,,,,,,,,,,,,,,,,,,,,,,,,,,,,,,,,,,,,,,,,,,,,,,,,,,,,,,,,,,,,,,,,,,,,,,,,,,,,,,,,,,,,,,,,,,,,,,,,,,,,,,,,,,,,,,,,,,,,,,,,,,,,,,,,,
,,609f0b539d4cd74841ffb116,2023-12-15_04h20.09.326,kallum_motion_pilot,2023.2.3,Win32,60.35367252,609f0b539d4cd74841ffb116,657bb317c8798c6608bceb3f,657bb4710ee1ce3f0fe37e1b,0.1182,0.1183,0,77,77,25,1,onethree,,,,,,,,,,,,,,,,,,,,,,,,,,,,,,,,,,,,,,,,,,,,,,,,,,,,,,,,,,,,,,,,,,,,,,,,,,,,,,,,,,,,,,,,,,,,,,,,,,,,,,,,,,,,,,,,,,,,,,,,,,,,,,,,,,,,,,,
,,609f0b539d4cd74841ffb116,2023-12-15_04h20.09.326,kallum_motion_pilot,2023.2.3,Win32,60.35367252,609f0b539d4cd74841ffb116,657bb317c8798c6608bceb3f,657bb4710ee1ce3f0fe37e1b,0.1184,0.1185,0,78,78,43,1,twofour,,,,,,,,,,,,,,,,,,,,,,,,,,,,,,,,,,,,,,,,,,,,,,,,,,,,,,,,,,,,,,,,,,,,,,,,,,,,,,,,,,,,,,,,,,,,,,,,,,,,,,,,,,,,,,,,,,,,,,,,,,,,,,,,,,,,,,,
,,609f0b539d4cd74841ffb116,2023-12-15_04h20.09.326,kallum_motion_pilot,2023.2.3,Win32,60.35367252,609f0b539d4cd74841ffb116,657bb317c8798c6608bceb3f,657bb4710ee1ce3f0fe37e1b,0.1187,0.1188,0,79,79,56,1,onetwo,,,,,,,,,,,,,,,,,,,,,,,,,,,,,,,,,,,,,,,,,,,,,,,,,,,,,,,,,,,,,,,,,,,,,,,,,,,,,,,,,,,,,,,,,,,,,,,,,,,,,,,,,,,,,,,,,,,,,,,,,,,,,,,,,,,,,,,
,,609f0b539d4cd74841ffb116,2023-12-15_04h20.09.326,kallum_motion_pilot,2023.2.3,Win32,60.35367252,609f0b539d4cd74841ffb116,657bb317c8798c6608bceb3f,657bb4710ee1ce3f0fe37e1b,0.119,0.1192,0,80,80,109,1,seveneight,,,,,,,,,,,,,,,,,,,,,,,,,,,,,,,,,,,,,,,,,,,,,,,,,,,,,,,,,,,,,,,,,,,,,,,,,,,,,,,,,,,,,,,,,,,,,,,,,,,,,,,,,,,,,,,,,,,,,,,,,,,,,,,,,,,,,,,
,,609f0b539d4cd74841ffb116,2023-12-15_04h20.09.326,kallum_motion_pilot,2023.2.3,Win32,60.35367252,609f0b539d4cd74841ffb116,657bb317c8798c6608bceb3f,657bb4710ee1ce3f0fe37e1b,0.1194,0.1197,0,81,81,157,1,seveneight,,,,,,,,,,,,,,,,,,,,,,,,,,,,,,,,,,,,,,,,,,,,,,,,,,,,,,,,,,,,,,,,,,,,,,,,,,,,,,,,,,,,,,,,,,,,,,,,,,,,,,,,,,,,,,,,,,,,,,,,,,,,,,,,,,,,,,,
,,609f0b539d4cd74841ffb116,2023-12-15_04h20.09.326,kallum_motion_pilot,2023.2.3,Win32,60.35367252,609f0b539d4cd74841ffb116,657bb317c8798c6608bceb3f,657bb4710ee1ce3f0fe37e1b,0.12,0.1202,0,82,82,74,1,twoone,,,,,,,,,,,,,,,,,,,,,,,,,,,,,,,,,,,,,,,,,,,,,,,,,,,,,,,,,,,,,,,,,,,,,,,,,,,,,,,,,,,,,,,,,,,,,,,,,,,,,,,,,,,,,,,,,,,,,,,,,,,,,,,,,,,,,,,
,,609f0b539d4cd74841ffb116,2023-12-15_04h20.09.326,kallum_motion_pilot,2023.2.3,Win32,60.35367252,609f0b539d4cd74841ffb116,657bb317c8798c6608bceb3f,657bb4710ee1ce3f0fe37e1b,0.1205,0.1206,0,83,83,153,1,fiveseven,,,,,,,,,,,,,,,,,,,,,,,,,,,,,,,,,,,,,,,,,,,,,,,,,,,,,,,,,,,,,,,,,,,,,,,,,,,,,,,,,,,,,,,,,,,,,,,,,,,,,,,,,,,,,,,,,,,,,,,,,,,,,,,,,,,,,,,
,,609f0b539d4cd74841ffb116,2023-12-15_04h20.09.326,kallum_motion_pilot,2023.2.3,Win32,60.35367252,609f0b539d4cd74841ffb116,657bb317c8798c6608bceb3f,657bb4710ee1ce3f0fe37e1b,0.1209,0.1211,0,84,84,155,1,sixeight,,,,,,,,,,,,,,,,,,,,,,,,,,,,,,,,,,,,,,,,,,,,,,,,,,,,,,,,,,,,,,,,,,,,,,,,,,,,,,,,,,,,,,,,,,,,,,,,,,,,,,,,,,,,,,,,,,,,,,,,,,,,,,,,,,,,,,,
,,609f0b539d4cd74841ffb116,2023-12-15_04h20.09.326,kallum_motion_pilot,2023.2.3,Win32,60.35367252,609f0b539d4cd74841ffb116,657bb317c8798c6608bceb3f,657bb4710ee1ce3f0fe37e1b,0.1213,0.1215,0,85,85,123,1,sixeight,,,,,,,,,,,,,,,,,,,,,,,,,,,,,,,,,,,,,,,,,,,,,,,,,,,,,,,,,,,,,,,,,,,,,,,,,,,,,,,,,,,,,,,,,,,,,,,,,,,,,,,,,,,,,,,,,,,,,,,,,,,,,,,,,,,,,,,
,,609f0b539d4cd74841ffb116,2023-12-15_04h20.09.326,kallum_motion_pilot,2023.2.3,Win32,60.35367252,609f0b539d4cd74841ffb116,657bb317c8798c6608bceb3f,657bb4710ee1ce3f0fe37e1b,0.1218,0.122,0,86,86,97,1,fiveseven,,,,,,,,,,,,,,,,,,,,,,,,,,,,,,,,,,,,,,,,,,,,,,,,,,,,,,,,,,,,,,,,,,,,,,,,,,,,,,,,,,,,,,,,,,,,,,,,,,,,,,,,,,,,,,,,,,,,,,,,,,,,,,,,,,,,,,,
,,609f0b539d4cd74841ffb116,2023-12-15_04h20.09.326,kallum_motion_pilot,2023.2.3,Win32,60.35367252,609f0b539d4cd74841ffb116,657bb317c8798c6608bceb3f,657bb4710ee1ce3f0fe37e1b,0.1222,0.1224,0,87,87,23,1,fourthree,,,,,,,,,,,,,,,,,,,,,,,,,,,,,,,,,,,,,,,,,,,,,,,,,,,,,,,,,,,,,,,,,,,,,,,,,,,,,,,,,,,,,,,,,,,,,,,,,,,,,,,,,,,,,,,,,,,,,,,,,,,,,,,,,,,,,,,
,,609f0b539d4cd74841ffb116,2023-12-15_04h20.09.326,kallum_motion_pilot,2023.2.3,Win32,60.35367252,609f0b539d4cd74841ffb116,657bb317c8798c6608bceb3f,657bb4710ee1ce3f0fe37e1b,0.1227,0.1227,0,88,88,161,1,fiveseven,,,,,,,,,,,,,,,,,,,,,,,,,,,,,,,,,,,,,,,,,,,,,,,,,,,,,,,,,,,,,,,,,,,,,,,,,,,,,,,,,,,,,,,,,,,,,,,,,,,,,,,,,,,,,,,,,,,,,,,,,,,,,,,,,,,,,,,
,,609f0b539d4cd74841ffb116,2023-12-15_04h20.09.326,kallum_motion_pilot,2023.2.3,Win32,60.35367252,609f0b539d4cd74841ffb116,657bb317c8798c6608bceb3f,657bb4710ee1ce3f0fe37e1b,0.1231,0.1232,0,89,89,67,1,twofour,,,,,,,,,,,,,,,,,,,,,,,,,,,,,,,,,,,,,,,,,,,,,,,,,,,,,,,,,,,,,,,,,,,,,,,,,,,,,,,,,,,,,,,,,,,,,,,,,,,,,,,,,,,,,,,,,,,,,,,,,,,,,,,,,,,,,,,
,,609f0b539d4cd74841ffb116,2023-12-15_04h20.09.326,kallum_motion_pilot,2023.2.3,Win32,60.35367252,609f0b539d4cd74841ffb116,657bb317c8798c6608bceb3f,657bb4710ee1ce3f0fe37e1b,0.1235,0.1237,0,90,90,44,1,threeone,,,,,,,,,,,,,,,,,,,,,,,,,,,,,,,,,,,,,,,,,,,,,,,,,,,,,,,,,,,,,,,,,,,,,,,,,,,,,,,,,,,,,,,,,,,,,,,,,,,,,,,,,,,,,,,,,,,,,,,,,,,,,,,,,,,,,,,
,,609f0b539d4cd74841ffb116,2023-12-15_04h20.09.326,kallum_motion_pilot,2023.2.3,Win32,60.35367252,609f0b539d4cd74841ffb116,657bb317c8798c6608bceb3f,657bb4710ee1ce3f0fe37e1b,0.1238,0.124,0,91,91,96,1,fivesix,,,,,,,,,,,,,,,,,,,,,,,,,,,,,,,,,,,,,,,,,,,,,,,,,,,,,,,,,,,,,,,,,,,,,,,,,,,,,,,,,,,,,,,,,,,,,,,,,,,,,,,,,,,,,,,,,,,,,,,,,,,,,,,,,,,,,,,
,,609f0b539d4cd74841ffb116,2023-12-15_04h20.09.326,kallum_motion_pilot,2023.2.3,Win32,60.35367252,609f0b539d4cd74841ffb116,657bb317c8798c6608bceb3f,657bb4710ee1ce3f0fe37e1b,0.1243,0.1245,0,92,92,10,1,twoone,,,,,,,,,,,,,,,,,,,,,,,,,,,,,,,,,,,,,,,,,,,,,,,,,,,,,,,,,,,,,,,,,,,,,,,,,,,,,,,,,,,,,,,,,,,,,,,,,,,,,,,,,,,,,,,,,,,,,,,,,,,,,,,,,,,,,,,
,,609f0b539d4cd74841ffb116,2023-12-15_04h20.09.326,kallum_motion_pilot,2023.2.3,Win32,60.35367252,609f0b539d4cd74841ffb116,657bb317c8798c6608bceb3f,657bb4710ee1ce3f0fe37e1b,0.1247,0.125,0,93,93,7,1,fourthree,,,,,,,,,,,,,,,,,,,,,,,,,,,,,,,,,,,,,,,,,,,,,,,,,,,,,,,,,,,,,,,,,,,,,,,,,,,,,,,,,,,,,,,,,,,,,,,,,,,,,,,,,,,,,,,,,,,,,,,,,,,,,,,,,,,,,,,
,,609f0b539d4cd74841ffb116,2023-12-15_04h20.09.326,kallum_motion_pilot,2023.2.3,Win32,60.35367252,609f0b539d4cd74841ffb116,657bb317c8798c6608bceb3f,657bb4710ee1ce3f0fe37e1b,0.1252,0.1254,0,94,94,35,1,twofour,,,,,,,,,,,,,,,,,,,,,,,,,,,,,,,,,,,,,,,,,,,,,,,,,,,,,,,,,,,,,,,,,,,,,,,,,,,,,,,,,,,,,,,,,,,,,,,,,,,,,,,,,,,,,,,,,,,,,,,,,,,,,,,,,,,,,,,
,,609f0b539d4cd74841ffb116,2023-12-15_04h20.09.326,kallum_motion_pilot,2023.2.3,Win32,60.35367252,609f0b539d4cd74841ffb116,657bb317c8798c6608bceb3f,657bb4710ee1ce3f0fe37e1b,0.1257,0.1259,0,95,95,140,1,sevenfive,,,,,,,,,,,,,,,,,,,,,,,,,,,,,,,,,,,,,,,,,,,,,,,,,,,,,,,,,,,,,,,,,,,,,,,,,,,,,,,,,,,,,,,,,,,,,,,,,,,,,,,,,,,,,,,,,,,,,,,,,,,,,,,,,,,,,,,
,,609f0b539d4cd74841ffb116,2023-12-15_04h20.09.326,kallum_motion_pilot,2023.2.3,Win32,60.35367252,609f0b539d4cd74841ffb116,657bb317c8798c6608bceb3f,657bb4710ee1ce3f0fe37e1b,0.1262,0.1262,0,96,96,19,1,twofour,,,,,,,,,,,,,,,,,,,,,,,,,,,,,,,,,,,,,,,,,,,,,,,,,,,,,,,,,,,,,,,,,,,,,,,,,,,,,,,,,,,,,,,,,,,,,,,,,,,,,,,,,,,,,,,,,,,,,,,,,,,,,,,,,,,,,,,
,,609f0b539d4cd74841ffb116,2023-12-15_04h20.09.326,kallum_motion_pilot,2023.2.3,Win32,60.35367252,609f0b539d4cd74841ffb116,657bb317c8798c6608bceb3f,657bb4710ee1ce3f0fe37e1b,0.1266,0.1267,0,97,97,16,1,onetwo,,,,,,,,,,,,,,,,,,,,,,,,,,,,,,,,,,,,,,,,,,,,,,,,,,,,,,,,,,,,,,,,,,,,,,,,,,,,,,,,,,,,,,,,,,,,,,,,,,,,,,,,,,,,,,,,,,,,,,,,,,,,,,,,,,,,,,,
,,609f0b539d4cd74841ffb116,2023-12-15_04h20.09.326,kallum_motion_pilot,2023.2.3,Win32,60.35367252,609f0b539d4cd74841ffb116,657bb317c8798c6608bceb3f,657bb4710ee1ce3f0fe37e1b,0.1269,0.1271,0,98,98,39,1,fourthree,,,,,,,,,,,,,,,,,,,,,,,,,,,,,,,,,,,,,,,,,,,,,,,,,,,,,,,,,,,,,,,,,,,,,,,,,,,,,,,,,,,,,,,,,,,,,,,,,,,,,,,,,,,,,,,,,,,,,,,,,,,,,,,,,,,,,,,
,,609f0b539d4cd74841ffb116,2023-12-15_04h20.09.326,kallum_motion_pilot,2023.2.3,Win32,60.35367252,609f0b539d4cd74841ffb116,657bb317c8798c6608bceb3f,657bb4710ee1ce3f0fe37e1b,0.1275,0.1276,0,99,99,36,1,threeone,,,,,,,,,,,,,,,,,,,,,,,,,,,,,,,,,,,,,,,,,,,,,,,,,,,,,,,,,,,,,,,,,,,,,,,,,,,,,,,,,,,,,,,,,,,,,,,,,,,,,,,,,,,,,,,,,,,,,,,,,,,,,,,,,,,,,,,
,,609f0b539d4cd74841ffb116,2023-12-15_04h20.09.326,kallum_motion_pilot,2023.2.3,Win32,60.35367252,609f0b539d4cd74841ffb116,657bb317c8798c6608bceb3f,657bb4710ee1ce3f0fe37e1b,0.1279,0.1281,0,100,100,17,1,onethree,,,,,,,,,,,,,,,,,,,,,,,,,,,,,,,,,,,,,,,,,,,,,,,,,,,,,,,,,,,,,,,,,,,,,,,,,,,,,,,,,,,,,,,,,,,,,,,,,,,,,,,,,,,,,,,,,,,,,,,,,,,,,,,,,,,,,,,
,,609f0b539d4cd74841ffb116,2023-12-15_04h20.09.326,kallum_motion_pilot,2023.2.3,Win32,60.35367252,609f0b539d4cd74841ffb116,657bb317c8798c6608bceb3f,657bb4710ee1ce3f0fe37e1b,0.1283,0.1285,0,101,101,110,1,eightsix,,,,,,,,,,,,,,,,,,,,,,,,,,,,,,,,,,,,,,,,,,,,,,,,,,,,,,,,,,,,,,,,,,,,,,,,,,,,,,,,,,,,,,,,,,,,,,,,,,,,,,,,,,,,,,,,,,,,,,,,,,,,,,,,,,,,,,,
,,609f0b539d4cd74841ffb116,2023-12-15_04h20.09.326,kallum_motion_pilot,2023.2.3,Win32,60.35367252,609f0b539d4cd74841ffb116,657bb317c8798c6608bceb3f,657bb4710ee1ce3f0fe37e1b,0.1288,0.1289,0,102,102,59,1,twofour,,,,,,,,,,,,,,,,,,,,,,,,,,,,,,,,,,,,,,,,,,,,,,,,,,,,,,,,,,,,,,,,,,,,,,,,,,,,,,,,,,,,,,,,,,,,,,,,,,,,,,,,,,,,,,,,,,,,,,,,,,,,,,,,,,,,,,,
,,609f0b539d4cd74841ffb116,2023-12-15_04h20.09.326,kallum_motion_pilot,2023.2.3,Win32,60.35367252,609f0b539d4cd74841ffb116,657bb317c8798c6608bceb3f,657bb4710ee1ce3f0fe37e1b,0.1292,0.1294,0,103,103,158,1,eightsix,,,,,,,,,,,,,,,,,,,,,,,,,,,,,,,,,,,,,,,,,,,,,,,,,,,,,,,,,,,,,,,,,,,,,,,,,,,,,,,,,,,,,,,,,,,,,,,,,,,,,,,,,,,,,,,,,,,,,,,,,,,,,,,,,,,,,,,
,,609f0b539d4cd74841ffb116,2023-12-15_04h20.09.326,kallum_motion_pilot,2023.2.3,Win32,60.35367252,609f0b539d4cd74841ffb116,657bb317c8798c6608bceb3f,657bb4710ee1ce3f0fe37e1b,0.1297,0.13,0,104,104,103,1,eightseven,,,,,,,,,,,,,,,,,,,,,,,,,,,,,,,,,,,,,,,,,,,,,,,,,,,,,,,,,,,,,,,,,,,,,,,,,,,,,,,,,,,,,,,,,,,,,,,,,,,,,,,,,,,,,,,,,,,,,,,,,,,,,,,,,,,,,,,
,,609f0b539d4cd74841ffb116,2023-12-15_04h20.09.326,kallum_motion_pilot,2023.2.3,Win32,60.35367252,609f0b539d4cd74841ffb116,657bb317c8798c6608bceb3f,657bb4710ee1ce3f0fe37e1b,0.1302,0.1304,0,105,105,112,1,fivesix,,,,,,,,,,,,,,,,,,,,,,,,,,,,,,,,,,,,,,,,,,,,,,,,,,,,,,,,,,,,,,,,,,,,,,,,,,,,,,,,,,,,,,,,,,,,,,,,,,,,,,,,,,,,,,,,,,,,,,,,,,,,,,,,,,,,,,,
,,609f0b539d4cd74841ffb116,2023-12-15_04h20.09.326,kallum_motion_pilot,2023.2.3,Win32,60.35367252,609f0b539d4cd74841ffb116,657bb317c8798c6608bceb3f,657bb4710ee1ce3f0fe37e1b,0.1307,0.1309,0,106,106,99,1,sixeight,,,,,,,,,,,,,,,,,,,,,,,,,,,,,,,,,,,,,,,,,,,,,,,,,,,,,,,,,,,,,,,,,,,,,,,,,,,,,,,,,,,,,,,,,,,,,,,,,,,,,,,,,,,,,,,,,,,,,,,,,,,,,,,,,,,,,,,
,,609f0b539d4cd74841ffb116,2023-12-15_04h20.09.326,kallum_motion_pilot,2023.2.3,Win32,60.35367252,609f0b539d4cd74841ffb116,657bb317c8798c6608bceb3f,657bb4710ee1ce3f0fe37e1b,0.1311,0.1312,0,107,107,151,1,eightseven,,,,,,,,,,,,,,,,,,,,,,,,,,,,,,,,,,,,,,,,,,,,,,,,,,,,,,,,,,,,,,,,,,,,,,,,,,,,,,,,,,,,,,,,,,,,,,,,,,,,,,,,,,,,,,,,,,,,,,,,,,,,,,,,,,,,,,,
,,609f0b539d4cd74841ffb116,2023-12-15_04h20.09.326,kallum_motion_pilot,2023.2.3,Win32,60.35367252,609f0b539d4cd74841ffb116,657bb317c8798c6608bceb3f,657bb4710ee1ce3f0fe37e1b,0.1319,0.132,0,108,108,37,1,threefour,,,,,,,,,,,,,,,,,,,,,,,,,,,,,,,,,,,,,,,,,,,,,,,,,,,,,,,,,,,,,,,,,,,,,,,,,,,,,,,,,,,,,,,,,,,,,,,,,,,,,,,,,,,,,,,,,,,,,,,,,,,,,,,,,,,,,,,
,,609f0b539d4cd74841ffb116,2023-12-15_04h20.09.326,kallum_motion_pilot,2023.2.3,Win32,60.35367252,609f0b539d4cd74841ffb116,657bb317c8798c6608bceb3f,657bb4710ee1ce3f0fe37e1b,0.1323,0.1324,0,109,109,60,1,threeone,,,,,,,,,,,,,,,,,,,,,,,,,,,,,,,,,,,,,,,,,,,,,,,,,,,,,,,,,,,,,,,,,,,,,,,,,,,,,,,,,,,,,,,,,,,,,,,,,,,,,,,,,,,,,,,,,,,,,,,,,,,,,,,,,,,,,,,
,,609f0b539d4cd74841ffb116,2023-12-15_04h20.09.326,kallum_motion_pilot,2023.2.3,Win32,60.35367252,609f0b539d4cd74841ffb116,657bb317c8798c6608bceb3f,657bb4710ee1ce3f0fe37e1b,0.1327,0.1329,0,110,110,21,1,threefour,,,,,,,,,,,,,,,,,,,,,,,,,,,,,,,,,,,,,,,,,,,,,,,,,,,,,,,,,,,,,,,,,,,,,,,,,,,,,,,,,,,,,,,,,,,,,,,,,,,,,,,,,,,,,,,,,,,,,,,,,,,,,,,,,,,,,,,
,,609f0b539d4cd74841ffb116,2023-12-15_04h20.09.326,kallum_motion_pilot,2023.2.3,Win32,60.35367252,609f0b539d4cd74841ffb116,657bb317c8798c6608bceb3f,657bb4710ee1ce3f0fe37e1b,0.1332,0.1334,0,111,111,90,1,sixfive,,,,,,,,,,,,,,,,,,,,,,,,,,,,,,,,,,,,,,,,,,,,,,,,,,,,,,,,,,,,,,,,,,,,,,,,,,,,,,,,,,,,,,,,,,,,,,,,,,,,,,,,,,,,,,,,,,,,,,,,,,,,,,,,,,,,,,,
,,609f0b539d4cd74841ffb116,2023-12-15_04h20.09.326,kallum_motion_pilot,2023.2.3,Win32,60.35367252,609f0b539d4cd74841ffb116,657bb317c8798c6608bceb3f,657bb4710ee1ce3f0fe37e1b,0.1336,0.1338,0,112,112,127,1,eightseven,,,,,,,,,,,,,,,,,,,,,,,,,,,,,,,,,,,,,,,,,,,,,,,,,,,,,,,,,,,,,,,,,,,,,,,,,,,,,,,,,,,,,,,,,,,,,,,,,,,,,,,,,,,,,,,,,,,,,,,,,,,,,,,,,,,,,,,
,,609f0b539d4cd74841ffb116,2023-12-15_04h20.09.326,kallum_motion_pilot,2023.2.3,Win32,60.35367252,609f0b539d4cd74841ffb116,657bb317c8798c6608bceb3f,657bb4710ee1ce3f0fe37e1b,0.134,0.1342,0,113,113,113,1,fiveseven,,,,,,,,,,,,,,,,,,,,,,,,,,,,,,,,,,,,,,,,,,,,,,,,,,,,,,,,,,,,,,,,,,,,,,,,,,,,,,,,,,,,,,,,,,,,,,,,,,,,,,,,,,,,,,,,,,,,,,,,,,,,,,,,,,,,,,,
,,609f0b539d4cd74841ffb116,2023-12-15_04h20.09.326,kallum_motion_pilot,2023.2.3,Win32,60.35367252,609f0b539d4cd74841ffb116,657bb317c8798c6608bceb3f,657bb4710ee1ce3f0fe37e1b,0.1345,0.1346,0,114,114,130,1,sixfive,,,,,,,,,,,,,,,,,,,,,,,,,,,,,,,,,,,,,,,,,,,,,,,,,,,,,,,,,,,,,,,,,,,,,,,,,,,,,,,,,,,,,,,,,,,,,,,,,,,,,,,,,,,,,,,,,,,,,,,,,,,,,,,,,,,,,,,
,,609f0b539d4cd74841ffb116,2023-12-15_04h20.09.326,kallum_motion_pilot,2023.2.3,Win32,60.35367252,609f0b539d4cd74841ffb116,657bb317c8798c6608bceb3f,657bb4710ee1ce3f0fe37e1b,0.135,0.1351,0,115,115,34,1,twoone,,,,,,,,,,,,,,,,,,,,,,,,,,,,,,,,,,,,,,,,,,,,,,,,,,,,,,,,,,,,,,,,,,,,,,,,,,,,,,,,,,,,,,,,,,,,,,,,,,,,,,,,,,,,,,,,,,,,,,,,,,,,,,,,,,,,,,,
,,609f0b539d4cd74841ffb116,2023-12-15_04h20.09.326,kallum_motion_pilot,2023.2.3,Win32,60.35367252,609f0b539d4cd74841ffb116,657bb317c8798c6608bceb3f,657bb4710ee1ce3f0fe37e1b,0.1354,0.1355,0,116,116,0,1,onetwo,,,,,,,,,,,,,,,,,,,,,,,,,,,,,,,,,,,,,,,,,,,,,,,,,,,,,,,,,,,,,,,,,,,,,,,,,,,,,,,,,,,,,,,,,,,,,,,,,,,,,,,,,,,,,,,,,,,,,,,,,,,,,,,,,,,,,,,
,,609f0b539d4cd74841ffb116,2023-12-15_04h20.09.326,kallum_motion_pilot,2023.2.3,Win32,60.35367252,609f0b539d4cd74841ffb116,657bb317c8798c6608bceb3f,657bb4710ee1ce3f0fe37e1b,0.1358,0.136,0,117,117,106,1,sixfive,,,,,,,,,,,,,,,,,,,,,,,,,,,,,,,,,,,,,,,,,,,,,,,,,,,,,,,,,,,,,,,,,,,,,,,,,,,,,,,,,,,,,,,,,,,,,,,,,,,,,,,,,,,,,,,,,,,,,,,,,,,,,,,,,,,,,,,
,,609f0b539d4cd74841ffb116,2023-12-15_04h20.09.326,kallum_motion_pilot,2023.2.3,Win32,60.35367252,609f0b539d4cd74841ffb116,657bb317c8798c6608bceb3f,657bb4710ee1ce3f0fe37e1b,0.1363,0.1364,0,118,118,89,1,fiveseven,,,,,,,,,,,,,,,,,,,,,,,,,,,,,,,,,,,,,,,,,,,,,,,,,,,,,,,,,,,,,,,,,,,,,,,,,,,,,,,,,,,,,,,,,,,,,,,,,,,,,,,,,,,,,,,,,,,,,,,,,,,,,,,,,,,,,,,
,,609f0b539d4cd74841ffb116,2023-12-15_04h20.09.326,kallum_motion_pilot,2023.2.3,Win32,60.35367252,609f0b539d4cd74841ffb116,657bb317c8798c6608bceb3f,657bb4710ee1ce3f0fe37e1b,0.1368,0.1369,0,119,119,93,1,seveneight,,,,,,,,,,,,,,,,,,,,,,,,,,,,,,,,,,,,,,,,,,,,,,,,,,,,,,,,,,,,,,,,,,,,,,,,,,,,,,,,,,,,,,,,,,,,,,,,,,,,,,,,,,,,,,,,,,,,,,,,,,,,,,,,,,,,,,,
,,609f0b539d4cd74841ffb116,2023-12-15_04h20.09.326,kallum_motion_pilot,2023.2.3,Win32,60.35367252,609f0b539d4cd74841ffb116,657bb317c8798c6608bceb3f,657bb4710ee1ce3f0fe37e1b,0.1372,0.1373,0,120,120,111,1,eightseven,,,,,,,,,,,,,,,,,,,,,,,,,,,,,,,,,,,,,,,,,,,,,,,,,,,,,,,,,,,,,,,,,,,,,,,,,,,,,,,,,,,,,,,,,,,,,,,,,,,,,,,,,,,,,,,,,,,,,,,,,,,,,,,,,,,,,,,
,,609f0b539d4cd74841ffb116,2023-12-15_04h20.09.326,kallum_motion_pilot,2023.2.3,Win32,60.35367252,609f0b539d4cd74841ffb116,657bb317c8798c6608bceb3f,657bb4710ee1ce3f0fe37e1b,0.1376,0.1378,0,121,121,142,1,eightsix,,,,,,,,,,,,,,,,,,,,,,,,,,,,,,,,,,,,,,,,,,,,,,,,,,,,,,,,,,,,,,,,,,,,,,,,,,,,,,,,,,,,,,,,,,,,,,,,,,,,,,,,,,,,,,,,,,,,,,,,,,,,,,,,,,,,,,,
,,609f0b539d4cd74841ffb116,2023-12-15_04h20.09.326,kallum_motion_pilot,2023.2.3,Win32,60.35367252,609f0b539d4cd74841ffb116,657bb317c8798c6608bceb3f,657bb4710ee1ce3f0fe37e1b,0.1381,0.1383,0,122,122,83,1,sixeight,,,,,,,,,,,,,,,,,,,,,,,,,,,,,,,,,,,,,,,,,,,,,,,,,,,,,,,,,,,,,,,,,,,,,,,,,,,,,,,,,,,,,,,,,,,,,,,,,,,,,,,,,,,,,,,,,,,,,,,,,,,,,,,,,,,,,,,
,,609f0b539d4cd74841ffb116,2023-12-15_04h20.09.326,kallum_motion_pilot,2023.2.3,Win32,60.35367252,609f0b539d4cd74841ffb116,657bb317c8798c6608bceb3f,657bb4710ee1ce3f0fe37e1b,0.1386,0.1387,0,123,123,15,1,fourthree,,,,,,,,,,,,,,,,,,,,,,,,,,,,,,,,,,,,,,,,,,,,,,,,,,,,,,,,,,,,,,,,,,,,,,,,,,,,,,,,,,,,,,,,,,,,,,,,,,,,,,,,,,,,,,,,,,,,,,,,,,,,,,,,,,,,,,,
,,609f0b539d4cd74841ffb116,2023-12-15_04h20.09.326,kallum_motion_pilot,2023.2.3,Win32,60.35367252,609f0b539d4cd74841ffb116,657bb317c8798c6608bceb3f,657bb4710ee1ce3f0fe37e1b,0.1391,0.1394,0,124,124,91,1,sixeight,,,,,,,,,,,,,,,,,,,,,,,,,,,,,,,,,,,,,,,,,,,,,,,,,,,,,,,,,,,,,,,,,,,,,,,,,,,,,,,,,,,,,,,,,,,,,,,,,,,,,,,,,,,,,,,,,,,,,,,,,,,,,,,,,,,,,,,
,,609f0b539d4cd74841ffb116,2023-12-15_04h20.09.326,kallum_motion_pilot,2023.2.3,Win32,60.35367252,609f0b539d4cd74841ffb116,657bb317c8798c6608bceb3f,657bb4710ee1ce3f0fe37e1b,0.1396,0.1399,0,125,125,28,1,threeone,,,,,,,,,,,,,,,,,,,,,,,,,,,,,,,,,,,,,,,,,,,,,,,,,,,,,,,,,,,,,,,,,,,,,,,,,,,,,,,,,,,,,,,,,,,,,,,,,,,,,,,,,,,,,,,,,,,,,,,,,,,,,,,,,,,,,,,
,,609f0b539d4cd74841ffb116,2023-12-15_04h20.09.326,kallum_motion_pilot,2023.2.3,Win32,60.35367252,609f0b539d4cd74841ffb116,657bb317c8798c6608bceb3f,657bb4710ee1ce3f0fe37e1b,0.1403,0.1404,0,126,126,116,1,sevenfive,,,,,,,,,,,,,,,,,,,,,,,,,,,,,,,,,,,,,,,,,,,,,,,,,,,,,,,,,,,,,,,,,,,,,,,,,,,,,,,,,,,,,,,,,,,,,,,,,,,,,,,,,,,,,,,,,,,,,,,,,,,,,,,,,,,,,,,
,,609f0b539d4cd74841ffb116,2023-12-15_04h20.09.326,kallum_motion_pilot,2023.2.3,Win32,60.35367252,609f0b539d4cd74841ffb116,657bb317c8798c6608bceb3f,657bb4710ee1ce3f0fe37e1b,0.1407,0.1409,0,127,127,42,1,twoone,,,,,,,,,,,,,,,,,,,,,,,,,,,,,,,,,,,,,,,,,,,,,,,,,,,,,,,,,,,,,,,,,,,,,,,,,,,,,,,,,,,,,,,,,,,,,,,,,,,,,,,,,,,,,,,,,,,,,,,,,,,,,,,,,,,,,,,
,,609f0b539d4cd74841ffb116,2023-12-15_04h20.09.326,kallum_motion_pilot,2023.2.3,Win32,60.35367252,609f0b539d4cd74841ffb116,657bb317c8798c6608bceb3f,657bb4710ee1ce3f0fe37e1b,0.1411,0.1413,0,128,128,68,1,threeone,,,,,,,,,,,,,,,,,,,,,,,,,,,,,,,,,,,,,,,,,,,,,,,,,,,,,,,,,,,,,,,,,,,,,,,,,,,,,,,,,,,,,,,,,,,,,,,,,,,,,,,,,,,,,,,,,,,,,,,,,,,,,,,,,,,,,,,
,,609f0b539d4cd74841ffb116,2023-12-15_04h20.09.326,kallum_motion_pilot,2023.2.3,Win32,60.35367252,609f0b539d4cd74841ffb116,657bb317c8798c6608bceb3f,657bb4710ee1ce3f0fe37e1b,0.1416,0.1418,0,129,129,8,1,onetwo,,,,,,,,,,,,,,,,,,,,,,,,,,,,,,,,,,,,,,,,,,,,,,,,,,,,,,,,,,,,,,,,,,,,,,,,,,,,,,,,,,,,,,,,,,,,,,,,,,,,,,,,,,,,,,,,,,,,,,,,,,,,,,,,,,,,,,,
,,609f0b539d4cd74841ffb116,2023-12-15_04h20.09.326,kallum_motion_pilot,2023.2.3,Win32,60.35367252,609f0b539d4cd74841ffb116,657bb317c8798c6608bceb3f,657bb4710ee1ce3f0fe37e1b,0.1421,0.1423,0,130,130,14,1,fourtwo,,,,,,,,,,,,,,,,,,,,,,,,,,,,,,,,,,,,,,,,,,,,,,,,,,,,,,,,,,,,,,,,,,,,,,,,,,,,,,,,,,,,,,,,,,,,,,,,,,,,,,,,,,,,,,,,,,,,,,,,,,,,,,,,,,,,,,,
,,609f0b539d4cd74841ffb116,2023-12-15_04h20.09.326,kallum_motion_pilot,2023.2.3,Win32,60.35367252,609f0b539d4cd74841ffb116,657bb317c8798c6608bceb3f,657bb4710ee1ce3f0fe37e1b,0.1426,0.1428,0,131,131,105,1,fiveseven,,,,,,,,,,,,,,,,,,,,,,,,,,,,,,,,,,,,,,,,,,,,,,,,,,,,,,,,,,,,,,,,,,,,,,,,,,,,,,,,,,,,,,,,,,,,,,,,,,,,,,,,,,,,,,,,,,,,,,,,,,,,,,,,,,,,,,,
,,609f0b539d4cd74841ffb116,2023-12-15_04h20.09.326,kallum_motion_pilot,2023.2.3,Win32,60.35367252,609f0b539d4cd74841ffb116,657bb317c8798c6608bceb3f,657bb4710ee1ce3f0fe37e1b,0.1431,0.1433,0,132,132,72,1,onetwo,,,,,,,,,,,,,,,,,,,,,,,,,,,,,,,,,,,,,,,,,,,,,,,,,,,,,,,,,,,,,,,,,,,,,,,,,,,,,,,,,,,,,,,,,,,,,,,,,,,,,,,,,,,,,,,,,,,,,,,,,,,,,,,,,,,,,,,
,,609f0b539d4cd74841ffb116,2023-12-15_04h20.09.326,kallum_motion_pilot,2023.2.3,Win32,60.35367252,609f0b539d4cd74841ffb116,657bb317c8798c6608bceb3f,657bb4710ee1ce3f0fe37e1b,0.1436,0.1438,0,133,133,136,1,fivesix,,,,,,,,,,,,,,,,,,,,,,,,,,,,,,,,,,,,,,,,,,,,,,,,,,,,,,,,,,,,,,,,,,,,,,,,,,,,,,,,,,,,,,,,,,,,,,,,,,,,,,,,,,,,,,,,,,,,,,,,,,,,,,,,,,,,,,,
,,609f0b539d4cd74841ffb116,2023-12-15_04h20.09.326,kallum_motion_pilot,2023.2.3,Win32,60.35367252,609f0b539d4cd74841ffb116,657bb317c8798c6608bceb3f,657bb4710ee1ce3f0fe37e1b,0.144,0.1441,0,134,134,84,1,sevenfive,,,,,,,,,,,,,,,,,,,,,,,,,,,,,,,,,,,,,,,,,,,,,,,,,,,,,,,,,,,,,,,,,,,,,,,,,,,,,,,,,,,,,,,,,,,,,,,,,,,,,,,,,,,,,,,,,,,,,,,,,,,,,,,,,,,,,,,
,,609f0b539d4cd74841ffb116,2023-12-15_04h20.09.326,kallum_motion_pilot,2023.2.3,Win32,60.35367252,609f0b539d4cd74841ffb116,657bb317c8798c6608bceb3f,657bb4710ee1ce3f0fe37e1b,0.1444,0.1447,0,135,135,11,1,twofour,,,,,,,,,,,,,,,,,,,,,,,,,,,,,,,,,,,,,,,,,,,,,,,,,,,,,,,,,,,,,,,,,,,,,,,,,,,,,,,,,,,,,,,,,,,,,,,,,,,,,,,,,,,,,,,,,,,,,,,,,,,,,,,,,,,,,,,
,,609f0b539d4cd74841ffb116,2023-12-15_04h20.09.326,kallum_motion_pilot,2023.2.3,Win32,60.35367252,609f0b539d4cd74841ffb116,657bb317c8798c6608bceb3f,657bb4710ee1ce3f0fe37e1b,0.1449,0.1451,0,136,136,94,1,eightsix,,,,,,,,,,,,,,,,,,,,,,,,,,,,,,,,,,,,,,,,,,,,,,,,,,,,,,,,,,,,,,,,,,,,,,,,,,,,,,,,,,,,,,,,,,,,,,,,,,,,,,,,,,,,,,,,,,,,,,,,,,,,,,,,,,,,,,,
,,609f0b539d4cd74841ffb116,2023-12-15_04h20.09.326,kallum_motion_pilot,2023.2.3,Win32,60.35367252,609f0b539d4cd74841ffb116,657bb317c8798c6608bceb3f,657bb4710ee1ce3f0fe37e1b,0.1453,0.1455,0,137,137,95,1,eightseven,,,,,,,,,,,,,,,,,,,,,,,,,,,,,,,,,,,,,,,,,,,,,,,,,,,,,,,,,,,,,,,,,,,,,,,,,,,,,,,,,,,,,,,,,,,,,,,,,,,,,,,,,,,,,,,,,,,,,,,,,,,,,,,,,,,,,,,
,,609f0b539d4cd74841ffb116,2023-12-15_04h20.09.326,kallum_motion_pilot,2023.2.3,Win32,60.35367252,609f0b539d4cd74841ffb116,657bb317c8798c6608bceb3f,657bb4710ee1ce3f0fe37e1b,0.1458,0.146,0,138,138,80,1,fivesix,,,,,,,,,,,,,,,,,,,,,,,,,,,,,,,,,,,,,,,,,,,,,,,,,,,,,,,,,,,,,,,,,,,,,,,,,,,,,,,,,,,,,,,,,,,,,,,,,,,,,,,,,,,,,,,,,,,,,,,,,,,,,,,,,,,,,,,
,,609f0b539d4cd74841ffb116,2023-12-15_04h20.09.326,kallum_motion_pilot,2023.2.3,Win32,60.35367252,609f0b539d4cd74841ffb116,657bb317c8798c6608bceb3f,657bb4710ee1ce3f0fe37e1b,0.1463,0.1465,0,139,139,139,1,sixeight,,,,,,,,,,,,,,,,,,,,,,,,,,,,,,,,,,,,,,,,,,,,,,,,,,,,,,,,,,,,,,,,,,,,,,,,,,,,,,,,,,,,,,,,,,,,,,,,,,,,,,,,,,,,,,,,,,,,,,,,,,,,,,,,,,,,,,,
,,609f0b539d4cd74841ffb116,2023-12-15_04h20.09.326,kallum_motion_pilot,2023.2.3,Win32,60.35367252,609f0b539d4cd74841ffb116,657bb317c8798c6608bceb3f,657bb4710ee1ce3f0fe37e1b,0.1469,0.147,0,140,140,100,1,sevenfive,,,,,,,,,,,,,,,,,,,,,,,,,,,,,,,,,,,,,,,,,,,,,,,,,,,,,,,,,,,,,,,,,,,,,,,,,,,,,,,,,,,,,,,,,,,,,,,,,,,,,,,,,,,,,,,,,,,,,,,,,,,,,,,,,,,,,,,
,,609f0b539d4cd74841ffb116,2023-12-15_04h20.09.326,kallum_motion_pilot,2023.2.3,Win32,60.35367252,609f0b539d4cd74841ffb116,657bb317c8798c6608bceb3f,657bb4710ee1ce3f0fe37e1b,0.1473,0.1475,0,141,141,92,1,sevenfive,,,,,,,,,,,,,,,,,,,,,,,,,,,,,,,,,,,,,,,,,,,,,,,,,,,,,,,,,,,,,,,,,,,,,,,,,,,,,,,,,,,,,,,,,,,,,,,,,,,,,,,,,,,,,,,,,,,,,,,,,,,,,,,,,,,,,,,
,,609f0b539d4cd74841ffb116,2023-12-15_04h20.09.326,kallum_motion_pilot,2023.2.3,Win32,60.35367252,609f0b539d4cd74841ffb116,657bb317c8798c6608bceb3f,657bb4710ee1ce3f0fe37e1b,0.1478,0.1482,0,142,142,48,1,onetwo,,,,,,,,,,,,,,,,,,,,,,,,,,,,,,,,,,,,,,,,,,,,,,,,,,,,,,,,,,,,,,,,,,,,,,,,,,,,,,,,,,,,,,,,,,,,,,,,,,,,,,,,,,,,,,,,,,,,,,,,,,,,,,,,,,,,,,,
,,609f0b539d4cd74841ffb116,2023-12-15_04h20.09.326,kallum_motion_pilot,2023.2.3,Win32,60.35367252,609f0b539d4cd74841ffb116,657bb317c8798c6608bceb3f,657bb4710ee1ce3f0fe37e1b,0.1488,0.1491,0,143,143,98,1,sixfive,,,,,,,,,,,,,,,,,,,,,,,,,,,,,,,,,,,,,,,,,,,,,,,,,,,,,,,,,,,,,,,,,,,,,,,,,,,,,,,,,,,,,,,,,,,,,,,,,,,,,,,,,,,,,,,,,,,,,,,,,,,,,,,,,,,,,,,
,,609f0b539d4cd74841ffb116,2023-12-15_04h20.09.326,kallum_motion_pilot,2023.2.3,Win32,60.35367252,609f0b539d4cd74841ffb116,657bb317c8798c6608bceb3f,657bb4710ee1ce3f0fe37e1b,0.1495,0.1497,0,144,144,20,1,threeone,,,,,,,,,,,,,,,,,,,,,,,,,,,,,,,,,,,,,,,,,,,,,,,,,,,,,,,,,,,,,,,,,,,,,,,,,,,,,,,,,,,,,,,,,,,,,,,,,,,,,,,,,,,,,,,,,,,,,,,,,,,,,,,,,,,,,,,
,,609f0b539d4cd74841ffb116,2023-12-15_04h20.09.326,kallum_motion_pilot,2023.2.3,Win32,60.35367252,609f0b539d4cd74841ffb116,657bb317c8798c6608bceb3f,657bb4710ee1ce3f0fe37e1b,0.1501,0.1502,0,145,145,26,1,twoone,,,,,,,,,,,,,,,,,,,,,,,,,,,,,,,,,,,,,,,,,,,,,,,,,,,,,,,,,,,,,,,,,,,,,,,,,,,,,,,,,,,,,,,,,,,,,,,,,,,,,,,,,,,,,,,,,,,,,,,,,,,,,,,,,,,,,,,
,,609f0b539d4cd74841ffb116,2023-12-15_04h20.09.326,kallum_motion_pilot,2023.2.3,Win32,60.35367252,609f0b539d4cd74841ffb116,657bb317c8798c6608bceb3f,657bb4710ee1ce3f0fe37e1b,0.1504,0.1507,0,146,146,133,1,seveneight,,,,,,,,,,,,,,,,,,,,,,,,,,,,,,,,,,,,,,,,,,,,,,,,,,,,,,,,,,,,,,,,,,,,,,,,,,,,,,,,,,,,,,,,,,,,,,,,,,,,,,,,,,,,,,,,,,,,,,,,,,,,,,,,,,,,,,,
,,609f0b539d4cd74841ffb116,2023-12-15_04h20.09.326,kallum_motion_pilot,2023.2.3,Win32,60.35367252,609f0b539d4cd74841ffb116,657bb317c8798c6608bceb3f,657bb4710ee1ce3f0fe37e1b,0.1509,0.1512,0,147,147,122,1,sixfive,,,,,,,,,,,,,,,,,,,,,,,,,,,,,,,,,,,,,,,,,,,,,,,,,,,,,,,,,,,,,,,,,,,,,,,,,,,,,,,,,,,,,,,,,,,,,,,,,,,,,,,,,,,,,,,,,,,,,,,,,,,,,,,,,,,,,,,
,,609f0b539d4cd74841ffb116,2023-12-15_04h20.09.326,kallum_motion_pilot,2023.2.3,Win32,60.35367252,609f0b539d4cd74841ffb116,657bb317c8798c6608bceb3f,657bb4710ee1ce3f0fe37e1b,0.1514,0.1517,0,148,148,61,1,threefour,,,,,,,,,,,,,,,,,,,,,,,,,,,,,,,,,,,,,,,,,,,,,,,,,,,,,,,,,,,,,,,,,,,,,,,,,,,,,,,,,,,,,,,,,,,,,,,,,,,,,,,,,,,,,,,,,,,,,,,,,,,,,,,,,,,,,,,
,,609f0b539d4cd74841ffb116,2023-12-15_04h20.09.326,kallum_motion_pilot,2023.2.3,Win32,60.35367252,609f0b539d4cd74841ffb116,657bb317c8798c6608bceb3f,657bb4710ee1ce3f0fe37e1b,0.152,0.1521,0,149,149,88,1,fivesix,,,,,,,,,,,,,,,,,,,,,,,,,,,,,,,,,,,,,,,,,,,,,,,,,,,,,,,,,,,,,,,,,,,,,,,,,,,,,,,,,,,,,,,,,,,,,,,,,,,,,,,,,,,,,,,,,,,,,,,,,,,,,,,,,,,,,,,
,,609f0b539d4cd74841ffb116,2023-12-15_04h20.09.326,kallum_motion_pilot,2023.2.3,Win32,60.35367252,609f0b539d4cd74841ffb116,657bb317c8798c6608bceb3f,657bb4710ee1ce3f0fe37e1b,0.1524,0.1526,0,150,150,147,1,sixeight,,,,,,,,,,,,,,,,,,,,,,,,,,,,,,,,,,,,,,,,,,,,,,,,,,,,,,,,,,,,,,,,,,,,,,,,,,,,,,,,,,,,,,,,,,,,,,,,,,,,,,,,,,,,,,,,,,,,,,,,,,,,,,,,,,,,,,,
,,609f0b539d4cd74841ffb116,2023-12-15_04h20.09.326,kallum_motion_pilot,2023.2.3,Win32,60.35367252,609f0b539d4cd74841ffb116,657bb317c8798c6608bceb3f,657bb4710ee1ce3f0fe37e1b,0.1529,0.1531,0,151,151,63,1,fourthree,,,,,,,,,,,,,,,,,,,,,,,,,,,,,,,,,,,,,,,,,,,,,,,,,,,,,,,,,,,,,,,,,,,,,,,,,,,,,,,,,,,,,,,,,,,,,,,,,,,,,,,,,,,,,,,,,,,,,,,,,,,,,,,,,,,,,,,
,,609f0b539d4cd74841ffb116,2023-12-15_04h20.09.326,kallum_motion_pilot,2023.2.3,Win32,60.35367252,609f0b539d4cd74841ffb116,657bb317c8798c6608bceb3f,657bb4710ee1ce3f0fe37e1b,0.1534,0.1536,0,152,152,53,1,threefour,,,,,,,,,,,,,,,,,,,,,,,,,,,,,,,,,,,,,,,,,,,,,,,,,,,,,,,,,,,,,,,,,,,,,,,,,,,,,,,,,,,,,,,,,,,,,,,,,,,,,,,,,,,,,,,,,,,,,,,,,,,,,,,,,,,,,,,
,,609f0b539d4cd74841ffb116,2023-12-15_04h20.09.326,kallum_motion_pilot,2023.2.3,Win32,60.35367252,609f0b539d4cd74841ffb116,657bb317c8798c6608bceb3f,657bb4710ee1ce3f0fe37e1b,0.1539,0.1542,0,153,153,118,1,eightsix,,,,,,,,,,,,,,,,,,,,,,,,,,,,,,,,,,,,,,,,,,,,,,,,,,,,,,,,,,,,,,,,,,,,,,,,,,,,,,,,,,,,,,,,,,,,,,,,,,,,,,,,,,,,,,,,,,,,,,,,,,,,,,,,,,,,,,,
,,609f0b539d4cd74841ffb116,2023-12-15_04h20.09.326,kallum_motion_pilot,2023.2.3,Win32,60.35367252,609f0b539d4cd74841ffb116,657bb317c8798c6608bceb3f,657bb4710ee1ce3f0fe37e1b,0.1545,0.1547,0,154,154,117,1,seveneight,,,,,,,,,,,,,,,,,,,,,,,,,,,,,,,,,,,,,,,,,,,,,,,,,,,,,,,,,,,,,,,,,,,,,,,,,,,,,,,,,,,,,,,,,,,,,,,,,,,,,,,,,,,,,,,,,,,,,,,,,,,,,,,,,,,,,,,
,,609f0b539d4cd74841ffb116,2023-12-15_04h20.09.326,kallum_motion_pilot,2023.2.3,Win32,60.35367252,609f0b539d4cd74841ffb116,657bb317c8798c6608bceb3f,657bb4710ee1ce3f0fe37e1b,0.155,0.1551,0,155,155,77,1,threefour,,,,,,,,,,,,,,,,,,,,,,,,,,,,,,,,,,,,,,,,,,,,,,,,,,,,,,,,,,,,,,,,,,,,,,,,,,,,,,,,,,,,,,,,,,,,,,,,,,,,,,,,,,,,,,,,,,,,,,,,,,,,,,,,,,,,,,,
,,609f0b539d4cd74841ffb116,2023-12-15_04h20.09.326,kallum_motion_pilot,2023.2.3,Win32,60.35367252,609f0b539d4cd74841ffb116,657bb317c8798c6608bceb3f,657bb4710ee1ce3f0fe37e1b,0.1554,0.1556,0,156,156,152,1,fivesix,,,,,,,,,,,,,,,,,,,,,,,,,,,,,,,,,,,,,,,,,,,,,,,,,,,,,,,,,,,,,,,,,,,,,,,,,,,,,,,,,,,,,,,,,,,,,,,,,,,,,,,,,,,,,,,,,,,,,,,,,,,,,,,,,,,,,,,
,,609f0b539d4cd74841ffb116,2023-12-15_04h20.09.326,kallum_motion_pilot,2023.2.3,Win32,60.35367252,609f0b539d4cd74841ffb116,657bb317c8798c6608bceb3f,657bb4710ee1ce3f0fe37e1b,0.1559,0.1561,0,157,157,45,1,threefour,,,,,,,,,,,,,,,,,,,,,,,,,,,,,,,,,,,,,,,,,,,,,,,,,,,,,,,,,,,,,,,,,,,,,,,,,,,,,,,,,,,,,,,,,,,,,,,,,,,,,,,,,,,,,,,,,,,,,,,,,,,,,,,,,,,,,,,
,,609f0b539d4cd74841ffb116,2023-12-15_04h20.09.326,kallum_motion_pilot,2023.2.3,Win32,60.35367252,609f0b539d4cd74841ffb116,657bb317c8798c6608bceb3f,657bb4710ee1ce3f0fe37e1b,0.1563,0.1567,0,158,158,126,1,eightsix,,,,,,,,,,,,,,,,,,,,,,,,,,,,,,,,,,,,,,,,,,,,,,,,,,,,,,,,,,,,,,,,,,,,,,,,,,,,,,,,,,,,,,,,,,,,,,,,,,,,,,,,,,,,,,,,,,,,,,,,,,,,,,,,,,,,,,,
,,609f0b539d4cd74841ffb116,2023-12-15_04h20.09.326,kallum_motion_pilot,2023.2.3,Win32,60.35367252,609f0b539d4cd74841ffb116,657bb317c8798c6608bceb3f,657bb4710ee1ce3f0fe37e1b,0.1569,0.1571,0,159,159,40,1,onetwo,,,,,,,,,,,,,,,,,,,,,,,,,,,,,,,,,,,,,,,,,,,,,,,,,,,,,,,,,,,,,,,,,,,,,,,,,,,,,,,,,,,,,,,,,,,,,,,,,,,,,,,,,,,,,,,,,,,,,,,,,,,,,,,,,,,,,,,
,,609f0b539d4cd74841ffb116,2023-12-15_04h20.09.326,kallum_motion_pilot,2023.2.3,Win32,60.35367252,609f0b539d4cd74841ffb116,657bb317c8798c6608bceb3f,657bb4710ee1ce3f0fe37e1b,0.1574,0.1576,0,160,160,73,1,onethree,,,,,,,,,,,,,,,,,,,,,,,,,,,,,,,,,,,,,,,,,,,,,,,,,,,,,,,,,,,,,,,,,,,,,,,,,,,,,,,,,,,,,,,,,,,,,,,,,,,,,,,,,,,,,,,,,,,,,,,,,,,,,,,,,,,,,,,
,,609f0b539d4cd74841ffb116,2023-12-15_04h20.09.326,kallum_motion_pilot,2023.2.3,Win32,60.35367252,609f0b539d4cd74841ffb116,657bb317c8798c6608bceb3f,657bb4710ee1ce3f0fe37e1b,0.1579,0.1581,0,161,161,69,1,threefour,,,,,,,,,,,,,,,,,,,,,,,,,,,,,,,,,,,,,,,,,,,,,,,,,,,,,,,,,,,,,,,,,,,,,,,,,,,,,,,,,,,,,,,,,,,,,,,,,,,,,,,,,,,,,,,,,,,,,,,,,,,,,,,,,,,,,,,
,,609f0b539d4cd74841ffb116,2023-12-15_04h20.09.326,kallum_motion_pilot,2023.2.3,Win32,60.35367252,609f0b539d4cd74841ffb116,657bb317c8798c6608bceb3f,657bb4710ee1ce3f0fe37e1b,0.1583,0.1586,1,0,162,75,1,twofour,,,,,,,,,,,,,,,,,,,,,,,,,,,,,,,,,,,,,,,,,,,,,,,,,,,,,,,,,,,,,,,,,,,,,,,,,,,,,,,,,,,,,,,,,,,,,,,,,,,,,,,,,,,,,,,,,,,,,,,,,,,,,,,,,,,,,,,
,,609f0b539d4cd74841ffb116,2023-12-15_04h20.09.326,kallum_motion_pilot,2023.2.3,Win32,60.35367252,609f0b539d4cd74841ffb116,657bb317c8798c6608bceb3f,657bb4710ee1ce3f0fe37e1b,0.1588,0.1591,1,1,163,144,1,fivesix,,,,,,,,,,,,,,,,,,,,,,,,,,,,,,,,,,,,,,,,,,,,,,,,,,,,,,,,,,,,,,,,,,,,,,,,,,,,,,,,,,,,,,,,,,,,,,,,,,,,,,,,,,,,,,,,,,,,,,,,,,,,,,,,,,,,,,,
,,609f0b539d4cd74841ffb116,2023-12-15_04h20.09.326,kallum_motion_pilot,2023.2.3,Win32,60.35367252,609f0b539d4cd74841ffb116,657bb317c8798c6608bceb3f,657bb4710ee1ce3f0fe37e1b,0.1594,0.1596,1,2,164,138,1,sixfive,,,,,,,,,,,,,,,,,,,,,,,,,,,,,,,,,,,,,,,,,,,,,,,,,,,,,,,,,,,,,,,,,,,,,,,,,,,,,,,,,,,,,,,,,,,,,,,,,,,,,,,,,,,,,,,,,,,,,,,,,,,,,,,,,,,,,,,
,,609f0b539d4cd74841ffb116,2023-12-15_04h20.09.326,kallum_motion_pilot,2023.2.3,Win32,60.35367252,609f0b539d4cd74841ffb116,657bb317c8798c6608bceb3f,657bb4710ee1ce3f0fe37e1b,0.1599,0.1602,1,3,165,32,1,onetwo,,,,,,,,,,,,,,,,,,,,,,,,,,,,,,,,,,,,,,,,,,,,,,,,,,,,,,,,,,,,,,,,,,,,,,,,,,,,,,,,,,,,,,,,,,,,,,,,,,,,,,,,,,,,,,,,,,,,,,,,,,,,,,,,,,,,,,,
,,609f0b539d4cd74841ffb116,2023-12-15_04h20.09.326,kallum_motion_pilot,2023.2.3,Win32,60.35367252,609f0b539d4cd74841ffb116,657bb317c8798c6608bceb3f,657bb4710ee1ce3f0fe37e1b,0.1604,0.1605,1,4,166,115,1,sixeight,,,,,,,,,,,,,,,,,,,,,,,,,,,,,,,,,,,,,,,,,,,,,,,,,,,,,,,,,,,,,,,,,,,,,,,,,,,,,,,,,,,,,,,,,,,,,,,,,,,,,,,,,,,,,,,,,,,,,,,,,,,,,,,,,,,,,,,
,,609f0b539d4cd74841ffb116,2023-12-15_04h20.09.326,kallum_motion_pilot,2023.2.3,Win32,60.35367252,609f0b539d4cd74841ffb116,657bb317c8798c6608bceb3f,657bb4710ee1ce3f0fe37e1b,0.1609,0.161,1,5,167,53,1,threefour,,,,,,,,,,,,,,,,,,,,,,,,,,,,,,,,,,,,,,,,,,,,,,,,,,,,,,,,,,,,,,,,,,,,,,,,,,,,,,,,,,,,,,,,,,,,,,,,,,,,,,,,,,,,,,,,,,,,,,,,,,,,,,,,,,,,,,,
,,609f0b539d4cd74841ffb116,2023-12-15_04h20.09.326,kallum_motion_pilot,2023.2.3,Win32,60.35367252,609f0b539d4cd74841ffb116,657bb317c8798c6608bceb3f,657bb4710ee1ce3f0fe37e1b,0.1613,0.1616,1,6,168,11,1,twofour,,,,,,,,,,,,,,,,,,,,,,,,,,,,,,,,,,,,,,,,,,,,,,,,,,,,,,,,,,,,,,,,,,,,,,,,,,,,,,,,,,,,,,,,,,,,,,,,,,,,,,,,,,,,,,,,,,,,,,,,,,,,,,,,,,,,,,,
,,609f0b539d4cd74841ffb116,2023-12-15_04h20.09.326,kallum_motion_pilot,2023.2.3,Win32,60.35367252,609f0b539d4cd74841ffb116,657bb317c8798c6608bceb3f,657bb4710ee1ce3f0fe37e1b,0.1618,0.1621,1,7,169,158,1,eightsix,,,,,,,,,,,,,,,,,,,,,,,,,,,,,,,,,,,,,,,,,,,,,,,,,,,,,,,,,,,,,,,,,,,,,,,,,,,,,,,,,,,,,,,,,,,,,,,,,,,,,,,,,,,,,,,,,,,,,,,,,,,,,,,,,,,,,,,
,,609f0b539d4cd74841ffb116,2023-12-15_04h20.09.326,kallum_motion_pilot,2023.2.3,Win32,60.35367252,609f0b539d4cd74841ffb116,657bb317c8798c6608bceb3f,657bb4710ee1ce3f0fe37e1b,0.1624,0.1626,1,8,170,30,1,fourtwo,,,,,,,,,,,,,,,,,,,,,,,,,,,,,,,,,,,,,,,,,,,,,,,,,,,,,,,,,,,,,,,,,,,,,,,,,,,,,,,,,,,,,,,,,,,,,,,,,,,,,,,,,,,,,,,,,,,,,,,,,,,,,,,,,,,,,,,
,,609f0b539d4cd74841ffb116,2023-12-15_04h20.09.326,kallum_motion_pilot,2023.2.3,Win32,60.35367252,609f0b539d4cd74841ffb116,657bb317c8798c6608bceb3f,657bb4710ee1ce3f0fe37e1b,0.1629,0.1631,1,9,171,9,1,onethree,,,,,,,,,,,,,,,,,,,,,,,,,,,,,,,,,,,,,,,,,,,,,,,,,,,,,,,,,,,,,,,,,,,,,,,,,,,,,,,,,,,,,,,,,,,,,,,,,,,,,,,,,,,,,,,,,,,,,,,,,,,,,,,,,,,,,,,
,,609f0b539d4cd74841ffb116,2023-12-15_04h20.09.326,kallum_motion_pilot,2023.2.3,Win32,60.35367252,609f0b539d4cd74841ffb116,657bb317c8798c6608bceb3f,657bb4710ee1ce3f0fe37e1b,0.1634,0.1635,1,10,172,62,1,fourtwo,,,,,,,,,,,,,,,,,,,,,,,,,,,,,,,,,,,,,,,,,,,,,,,,,,,,,,,,,,,,,,,,,,,,,,,,,,,,,,,,,,,,,,,,,,,,,,,,,,,,,,,,,,,,,,,,,,,,,,,,,,,,,,,,,,,,,,,
,,609f0b539d4cd74841ffb116,2023-12-15_04h20.09.326,kallum_motion_pilot,2023.2.3,Win32,60.35367252,609f0b539d4cd74841ffb116,657bb317c8798c6608bceb3f,657bb4710ee1ce3f0fe37e1b,0.1638,0.1641,1,11,173,73,1,onethree,,,,,,,,,,,,,,,,,,,,,,,,,,,,,,,,,,,,,,,,,,,,,,,,,,,,,,,,,,,,,,,,,,,,,,,,,,,,,,,,,,,,,,,,,,,,,,,,,,,,,,,,,,,,,,,,,,,,,,,,,,,,,,,,,,,,,,,
,,609f0b539d4cd74841ffb116,2023-12-15_04h20.09.326,kallum_motion_pilot,2023.2.3,Win32,60.35367252,609f0b539d4cd74841ffb116,657bb317c8798c6608bceb3f,657bb4710ee1ce3f0fe37e1b,0.1643,0.1645,1,12,174,140,1,sevenfive,,,,,,,,,,,,,,,,,,,,,,,,,,,,,,,,,,,,,,,,,,,,,,,,,,,,,,,,,,,,,,,,,,,,,,,,,,,,,,,,,,,,,,,,,,,,,,,,,,,,,,,,,,,,,,,,,,,,,,,,,,,,,,,,,,,,,,,
,,609f0b539d4cd74841ffb116,2023-12-15_04h20.09.326,kallum_motion_pilot,2023.2.3,Win32,60.35367252,609f0b539d4cd74841ffb116,657bb317c8798c6608bceb3f,657bb4710ee1ce3f0fe37e1b,0.1651,0.1654,1,13,175,19,1,twofour,,,,,,,,,,,,,,,,,,,,,,,,,,,,,,,,,,,,,,,,,,,,,,,,,,,,,,,,,,,,,,,,,,,,,,,,,,,,,,,,,,,,,,,,,,,,,,,,,,,,,,,,,,,,,,,,,,,,,,,,,,,,,,,,,,,,,,,
,,609f0b539d4cd74841ffb116,2023-12-15_04h20.09.326,kallum_motion_pilot,2023.2.3,Win32,60.35367252,609f0b539d4cd74841ffb116,657bb317c8798c6608bceb3f,657bb4710ee1ce3f0fe37e1b,0.1657,0.1659,1,14,176,108,1,sevenfive,,,,,,,,,,,,,,,,,,,,,,,,,,,,,,,,,,,,,,,,,,,,,,,,,,,,,,,,,,,,,,,,,,,,,,,,,,,,,,,,,,,,,,,,,,,,,,,,,,,,,,,,,,,,,,,,,,,,,,,,,,,,,,,,,,,,,,,
,,609f0b539d4cd74841ffb116,2023-12-15_04h20.09.326,kallum_motion_pilot,2023.2.3,Win32,60.35367252,609f0b539d4cd74841ffb116,657bb317c8798c6608bceb3f,657bb4710ee1ce3f0fe37e1b,0.1662,0.1663,1,15,177,125,1,seveneight,,,,,,,,,,,,,,,,,,,,,,,,,,,,,,,,,,,,,,,,,,,,,,,,,,,,,,,,,,,,,,,,,,,,,,,,,,,,,,,,,,,,,,,,,,,,,,,,,,,,,,,,,,,,,,,,,,,,,,,,,,,,,,,,,,,,,,,
,,609f0b539d4cd74841ffb116,2023-12-15_04h20.09.326,kallum_motion_pilot,2023.2.3,Win32,60.35367252,609f0b539d4cd74841ffb116,657bb317c8798c6608bceb3f,657bb4710ee1ce3f0fe37e1b,0.1666,0.1669,1,16,178,56,1,onetwo,,,,,,,,,,,,,,,,,,,,,,,,,,,,,,,,,,,,,,,,,,,,,,,,,,,,,,,,,,,,,,,,,,,,,,,,,,,,,,,,,,,,,,,,,,,,,,,,,,,,,,,,,,,,,,,,,,,,,,,,,,,,,,,,,,,,,,,
,,609f0b539d4cd74841ffb116,2023-12-15_04h20.09.326,kallum_motion_pilot,2023.2.3,Win32,60.35367252,609f0b539d4cd74841ffb116,657bb317c8798c6608bceb3f,657bb4710ee1ce3f0fe37e1b,0.1671,0.1673,1,17,179,157,1,seveneight,,,,,,,,,,,,,,,,,,,,,,,,,,,,,,,,,,,,,,,,,,,,,,,,,,,,,,,,,,,,,,,,,,,,,,,,,,,,,,,,,,,,,,,,,,,,,,,,,,,,,,,,,,,,,,,,,,,,,,,,,,,,,,,,,,,,,,,
,,609f0b539d4cd74841ffb116,2023-12-15_04h20.09.326,kallum_motion_pilot,2023.2.3,Win32,60.35367252,609f0b539d4cd74841ffb116,657bb317c8798c6608bceb3f,657bb4710ee1ce3f0fe37e1b,0.1676,0.1679,1,18,180,132,1,sevenfive,,,,,,,,,,,,,,,,,,,,,,,,,,,,,,,,,,,,,,,,,,,,,,,,,,,,,,,,,,,,,,,,,,,,,,,,,,,,,,,,,,,,,,,,,,,,,,,,,,,,,,,,,,,,,,,,,,,,,,,,,,,,,,,,,,,,,,,
,,609f0b539d4cd74841ffb116,2023-12-15_04h20.09.326,kallum_motion_pilot,2023.2.3,Win32,60.35367252,609f0b539d4cd74841ffb116,657bb317c8798c6608bceb3f,657bb4710ee1ce3f0fe37e1b,0.1681,0.1684,1,19,181,139,1,sixeight,,,,,,,,,,,,,,,,,,,,,,,,,,,,,,,,,,,,,,,,,,,,,,,,,,,,,,,,,,,,,,,,,,,,,,,,,,,,,,,,,,,,,,,,,,,,,,,,,,,,,,,,,,,,,,,,,,,,,,,,,,,,,,,,,,,,,,,
,,609f0b539d4cd74841ffb116,2023-12-15_04h20.09.326,kallum_motion_pilot,2023.2.3,Win32,60.35367252,609f0b539d4cd74841ffb116,657bb317c8798c6608bceb3f,657bb4710ee1ce3f0fe37e1b,0.1686,0.1689,1,20,182,105,1,fiveseven,,,,,,,,,,,,,,,,,,,,,,,,,,,,,,,,,,,,,,,,,,,,,,,,,,,,,,,,,,,,,,,,,,,,,,,,,,,,,,,,,,,,,,,,,,,,,,,,,,,,,,,,,,,,,,,,,,,,,,,,,,,,,,,,,,,,,,,
,,609f0b539d4cd74841ffb116,2023-12-15_04h20.09.326,kallum_motion_pilot,2023.2.3,Win32,60.35367252,609f0b539d4cd74841ffb116,657bb317c8798c6608bceb3f,657bb4710ee1ce3f0fe37e1b,0.1692,0.1694,1,21,183,37,1,threefour,,,,,,,,,,,,,,,,,,,,,,,,,,,,,,,,,,,,,,,,,,,,,,,,,,,,,,,,,,,,,,,,,,,,,,,,,,,,,,,,,,,,,,,,,,,,,,,,,,,,,,,,,,,,,,,,,,,,,,,,,,,,,,,,,,,,,,,
,,609f0b539d4cd74841ffb116,2023-12-15_04h20.09.326,kallum_motion_pilot,2023.2.3,Win32,60.35367252,609f0b539d4cd74841ffb116,657bb317c8798c6608bceb3f,657bb4710ee1ce3f0fe37e1b,0.1697,0.1701,1,22,184,78,1,fourtwo,,,,,,,,,,,,,,,,,,,,,,,,,,,,,,,,,,,,,,,,,,,,,,,,,,,,,,,,,,,,,,,,,,,,,,,,,,,,,,,,,,,,,,,,,,,,,,,,,,,,,,,,,,,,,,,,,,,,,,,,,,,,,,,,,,,,,,,
,,609f0b539d4cd74841ffb116,2023-12-15_04h20.09.326,kallum_motion_pilot,2023.2.3,Win32,60.35367252,609f0b539d4cd74841ffb116,657bb317c8798c6608bceb3f,657bb4710ee1ce3f0fe37e1b,0.1704,0.1706,1,23,185,58,1,twoone,,,,,,,,,,,,,,,,,,,,,,,,,,,,,,,,,,,,,,,,,,,,,,,,,,,,,,,,,,,,,,,,,,,,,,,,,,,,,,,,,,,,,,,,,,,,,,,,,,,,,,,,,,,,,,,,,,,,,,,,,,,,,,,,,,,,,,,
,,609f0b539d4cd74841ffb116,2023-12-15_04h20.09.326,kallum_motion_pilot,2023.2.3,Win32,60.35367252,609f0b539d4cd74841ffb116,657bb317c8798c6608bceb3f,657bb4710ee1ce3f0fe37e1b,0.1709,0.171,1,24,186,87,1,eightseven,,,,,,,,,,,,,,,,,,,,,,,,,,,,,,,,,,,,,,,,,,,,,,,,,,,,,,,,,,,,,,,,,,,,,,,,,,,,,,,,,,,,,,,,,,,,,,,,,,,,,,,,,,,,,,,,,,,,,,,,,,,,,,,,,,,,,,,
,,609f0b539d4cd74841ffb116,2023-12-15_04h20.09.326,kallum_motion_pilot,2023.2.3,Win32,60.35367252,609f0b539d4cd74841ffb116,657bb317c8798c6608bceb3f,657bb4710ee1ce3f0fe37e1b,0.1712,0.1714,1,25,187,72,1,onetwo,,,,,,,,,,,,,,,,,,,,,,,,,,,,,,,,,,,,,,,,,,,,,,,,,,,,,,,,,,,,,,,,,,,,,,,,,,,,,,,,,,,,,,,,,,,,,,,,,,,,,,,,,,,,,,,,,,,,,,,,,,,,,,,,,,,,,,,
,,609f0b539d4cd74841ffb116,2023-12-15_04h20.09.326,kallum_motion_pilot,2023.2.3,Win32,60.35367252,609f0b539d4cd74841ffb116,657bb317c8798c6608bceb3f,657bb4710ee1ce3f0fe37e1b,0.1716,0.1717,1,26,188,57,1,onethree,,,,,,,,,,,,,,,,,,,,,,,,,,,,,,,,,,,,,,,,,,,,,,,,,,,,,,,,,,,,,,,,,,,,,,,,,,,,,,,,,,,,,,,,,,,,,,,,,,,,,,,,,,,,,,,,,,,,,,,,,,,,,,,,,,,,,,,
,,609f0b539d4cd74841ffb116,2023-12-15_04h20.09.326,kallum_motion_pilot,2023.2.3,Win32,60.35367252,609f0b539d4cd74841ffb116,657bb317c8798c6608bceb3f,657bb4710ee1ce3f0fe37e1b,0.1719,0.1721,1,27,189,112,1,fivesix,,,,,,,,,,,,,,,,,,,,,,,,,,,,,,,,,,,,,,,,,,,,,,,,,,,,,,,,,,,,,,,,,,,,,,,,,,,,,,,,,,,,,,,,,,,,,,,,,,,,,,,,,,,,,,,,,,,,,,,,,,,,,,,,,,,,,,,
,,609f0b539d4cd74841ffb116,2023-12-15_04h20.09.326,kallum_motion_pilot,2023.2.3,Win32,60.35367252,609f0b539d4cd74841ffb116,657bb317c8798c6608bceb3f,657bb4710ee1ce3f0fe37e1b,0.1722,0.1724,1,28,190,36,1,threeone,,,,,,,,,,,,,,,,,,,,,,,,,,,,,,,,,,,,,,,,,,,,,,,,,,,,,,,,,,,,,,,,,,,,,,,,,,,,,,,,,,,,,,,,,,,,,,,,,,,,,,,,,,,,,,,,,,,,,,,,,,,,,,,,,,,,,,,
,,609f0b539d4cd74841ffb116,2023-12-15_04h20.09.326,kallum_motion_pilot,2023.2.3,Win32,60.35367252,609f0b539d4cd74841ffb116,657bb317c8798c6608bceb3f,657bb4710ee1ce3f0fe37e1b,0.1726,0.1727,1,29,191,103,1,eightseven,,,,,,,,,,,,,,,,,,,,,,,,,,,,,,,,,,,,,,,,,,,,,,,,,,,,,,,,,,,,,,,,,,,,,,,,,,,,,,,,,,,,,,,,,,,,,,,,,,,,,,,,,,,,,,,,,,,,,,,,,,,,,,,,,,,,,,,
,,609f0b539d4cd74841ffb116,2023-12-15_04h20.09.326,kallum_motion_pilot,2023.2.3,Win32,60.35367252,609f0b539d4cd74841ffb116,657bb317c8798c6608bceb3f,657bb4710ee1ce3f0fe37e1b,0.1729,0.173,1,30,192,99,1,sixeight,,,,,,,,,,,,,,,,,,,,,,,,,,,,,,,,,,,,,,,,,,,,,,,,,,,,,,,,,,,,,,,,,,,,,,,,,,,,,,,,,,,,,,,,,,,,,,,,,,,,,,,,,,,,,,,,,,,,,,,,,,,,,,,,,,,,,,,
,,609f0b539d4cd74841ffb116,2023-12-15_04h20.09.326,kallum_motion_pilot,2023.2.3,Win32,60.35367252,609f0b539d4cd74841ffb116,657bb317c8798c6608bceb3f,657bb4710ee1ce3f0fe37e1b,0.1732,0.1734,1,31,193,156,1,sevenfive,,,,,,,,,,,,,,,,,,,,,,,,,,,,,,,,,,,,,,,,,,,,,,,,,,,,,,,,,,,,,,,,,,,,,,,,,,,,,,,,,,,,,,,,,,,,,,,,,,,,,,,,,,,,,,,,,,,,,,,,,,,,,,,,,,,,,,,
,,609f0b539d4cd74841ffb116,2023-12-15_04h20.09.326,kallum_motion_pilot,2023.2.3,Win32,60.35367252,609f0b539d4cd74841ffb116,657bb317c8798c6608bceb3f,657bb4710ee1ce3f0fe37e1b,0.1736,0.1737,1,32,194,119,1,eightseven,,,,,,,,,,,,,,,,,,,,,,,,,,,,,,,,,,,,,,,,,,,,,,,,,,,,,,,,,,,,,,,,,,,,,,,,,,,,,,,,,,,,,,,,,,,,,,,,,,,,,,,,,,,,,,,,,,,,,,,,,,,,,,,,,,,,,,,
,,609f0b539d4cd74841ffb116,2023-12-15_04h20.09.326,kallum_motion_pilot,2023.2.3,Win32,60.35367252,609f0b539d4cd74841ffb116,657bb317c8798c6608bceb3f,657bb4710ee1ce3f0fe37e1b,0.1739,0.174,1,33,195,135,1,eightseven,,,,,,,,,,,,,,,,,,,,,,,,,,,,,,,,,,,,,,,,,,,,,,,,,,,,,,,,,,,,,,,,,,,,,,,,,,,,,,,,,,,,,,,,,,,,,,,,,,,,,,,,,,,,,,,,,,,,,,,,,,,,,,,,,,,,,,,
,,609f0b539d4cd74841ffb116,2023-12-15_04h20.09.326,kallum_motion_pilot,2023.2.3,Win32,60.35367252,609f0b539d4cd74841ffb116,657bb317c8798c6608bceb3f,657bb4710ee1ce3f0fe37e1b,0.1742,0.1744,1,34,196,25,1,onethree,,,,,,,,,,,,,,,,,,,,,,,,,,,,,,,,,,,,,,,,,,,,,,,,,,,,,,,,,,,,,,,,,,,,,,,,,,,,,,,,,,,,,,,,,,,,,,,,,,,,,,,,,,,,,,,,,,,,,,,,,,,,,,,,,,,,,,,
,,609f0b539d4cd74841ffb116,2023-12-15_04h20.09.326,kallum_motion_pilot,2023.2.3,Win32,60.35367252,609f0b539d4cd74841ffb116,657bb317c8798c6608bceb3f,657bb4710ee1ce3f0fe37e1b,0.1745,0.1748,1,35,197,8,1,onetwo,,,,,,,,,,,,,,,,,,,,,,,,,,,,,,,,,,,,,,,,,,,,,,,,,,,,,,,,,,,,,,,,,,,,,,,,,,,,,,,,,,,,,,,,,,,,,,,,,,,,,,,,,,,,,,,,,,,,,,,,,,,,,,,,,,,,,,,
,,609f0b539d4cd74841ffb116,2023-12-15_04h20.09.326,kallum_motion_pilot,2023.2.3,Win32,60.35367252,609f0b539d4cd74841ffb116,657bb317c8798c6608bceb3f,657bb4710ee1ce3f0fe37e1b,0.1748,0.1751,1,36,198,90,1,sixfive,,,,,,,,,,,,,,,,,,,,,,,,,,,,,,,,,,,,,,,,,,,,,,,,,,,,,,,,,,,,,,,,,,,,,,,,,,,,,,,,,,,,,,,,,,,,,,,,,,,,,,,,,,,,,,,,,,,,,,,,,,,,,,,,,,,,,,,
,,609f0b539d4cd74841ffb116,2023-12-15_04h20.09.326,kallum_motion_pilot,2023.2.3,Win32,60.35367252,609f0b539d4cd74841ffb116,657bb317c8798c6608bceb3f,657bb4710ee1ce3f0fe37e1b,0.1752,0.1753,1,37,199,150,1,eightsix,,,,,,,,,,,,,,,,,,,,,,,,,,,,,,,,,,,,,,,,,,,,,,,,,,,,,,,,,,,,,,,,,,,,,,,,,,,,,,,,,,,,,,,,,,,,,,,,,,,,,,,,,,,,,,,,,,,,,,,,,,,,,,,,,,,,,,,
,,609f0b539d4cd74841ffb116,2023-12-15_04h20.09.326,kallum_motion_pilot,2023.2.3,Win32,60.35367252,609f0b539d4cd74841ffb116,657bb317c8798c6608bceb3f,657bb4710ee1ce3f0fe37e1b,0.1756,0.1757,1,38,200,2,1,twoone,,,,,,,,,,,,,,,,,,,,,,,,,,,,,,,,,,,,,,,,,,,,,,,,,,,,,,,,,,,,,,,,,,,,,,,,,,,,,,,,,,,,,,,,,,,,,,,,,,,,,,,,,,,,,,,,,,,,,,,,,,,,,,,,,,,,,,,
,,609f0b539d4cd74841ffb116,2023-12-15_04h20.09.326,kallum_motion_pilot,2023.2.3,Win32,60.35367252,609f0b539d4cd74841ffb116,657bb317c8798c6608bceb3f,657bb4710ee1ce3f0fe37e1b,0.1759,0.176,1,39,201,47,1,fourthree,,,,,,,,,,,,,,,,,,,,,,,,,,,,,,,,,,,,,,,,,,,,,,,,,,,,,,,,,,,,,,,,,,,,,,,,,,,,,,,,,,,,,,,,,,,,,,,,,,,,,,,,,,,,,,,,,,,,,,,,,,,,,,,,,,,,,,,
,,609f0b539d4cd74841ffb116,2023-12-15_04h20.09.326,kallum_motion_pilot,2023.2.3,Win32,60.35367252,609f0b539d4cd74841ffb116,657bb317c8798c6608bceb3f,657bb4710ee1ce3f0fe37e1b,0.1762,0.1764,1,40,202,48,1,onetwo,,,,,,,,,,,,,,,,,,,,,,,,,,,,,,,,,,,,,,,,,,,,,,,,,,,,,,,,,,,,,,,,,,,,,,,,,,,,,,,,,,,,,,,,,,,,,,,,,,,,,,,,,,,,,,,,,,,,,,,,,,,,,,,,,,,,,,,
,,609f0b539d4cd74841ffb116,2023-12-15_04h20.09.326,kallum_motion_pilot,2023.2.3,Win32,60.35367252,609f0b539d4cd74841ffb116,657bb317c8798c6608bceb3f,657bb4710ee1ce3f0fe37e1b,0.1766,0.177,1,41,203,40,1,onetwo,,,,,,,,,,,,,,,,,,,,,,,,,,,,,,,,,,,,,,,,,,,,,,,,,,,,,,,,,,,,,,,,,,,,,,,,,,,,,,,,,,,,,,,,,,,,,,,,,,,,,,,,,,,,,,,,,,,,,,,,,,,,,,,,,,,,,,,
,,609f0b539d4cd74841ffb116,2023-12-15_04h20.09.326,kallum_motion_pilot,2023.2.3,Win32,60.35367252,609f0b539d4cd74841ffb116,657bb317c8798c6608bceb3f,657bb4710ee1ce3f0fe37e1b,0.1774,0.1778,1,42,204,85,1,seveneight,,,,,,,,,,,,,,,,,,,,,,,,,,,,,,,,,,,,,,,,,,,,,,,,,,,,,,,,,,,,,,,,,,,,,,,,,,,,,,,,,,,,,,,,,,,,,,,,,,,,,,,,,,,,,,,,,,,,,,,,,,,,,,,,,,,,,,,
,,609f0b539d4cd74841ffb116,2023-12-15_04h20.09.326,kallum_motion_pilot,2023.2.3,Win32,60.35367252,609f0b539d4cd74841ffb116,657bb317c8798c6608bceb3f,657bb4710ee1ce3f0fe37e1b,0.1782,0.1784,1,43,205,35,1,twofour,,,,,,,,,,,,,,,,,,,,,,,,,,,,,,,,,,,,,,,,,,,,,,,,,,,,,,,,,,,,,,,,,,,,,,,,,,,,,,,,,,,,,,,,,,,,,,,,,,,,,,,,,,,,,,,,,,,,,,,,,,,,,,,,,,,,,,,
,,609f0b539d4cd74841ffb116,2023-12-15_04h20.09.326,kallum_motion_pilot,2023.2.3,Win32,60.35367252,609f0b539d4cd74841ffb116,657bb317c8798c6608bceb3f,657bb4710ee1ce3f0fe37e1b,0.1787,0.179,1,44,206,21,1,threefour,,,,,,,,,,,,,,,,,,,,,,,,,,,,,,,,,,,,,,,,,,,,,,,,,,,,,,,,,,,,,,,,,,,,,,,,,,,,,,,,,,,,,,,,,,,,,,,,,,,,,,,,,,,,,,,,,,,,,,,,,,,,,,,,,,,,,,,
,,609f0b539d4cd74841ffb116,2023-12-15_04h20.09.326,kallum_motion_pilot,2023.2.3,Win32,60.35367252,609f0b539d4cd74841ffb116,657bb317c8798c6608bceb3f,657bb4710ee1ce3f0fe37e1b,0.1793,0.1797,1,45,207,82,1,sixfive,,,,,,,,,,,,,,,,,,,,,,,,,,,,,,,,,,,,,,,,,,,,,,,,,,,,,,,,,,,,,,,,,,,,,,,,,,,,,,,,,,,,,,,,,,,,,,,,,,,,,,,,,,,,,,,,,,,,,,,,,,,,,,,,,,,,,,,
,,609f0b539d4cd74841ffb116,2023-12-15_04h20.09.326,kallum_motion_pilot,2023.2.3,Win32,60.35367252,609f0b539d4cd74841ffb116,657bb317c8798c6608bceb3f,657bb4710ee1ce3f0fe37e1b,0.18,0.1802,1,46,208,55,1,fourthree,,,,,,,,,,,,,,,,,,,,,,,,,,,,,,,,,,,,,,,,,,,,,,,,,,,,,,,,,,,,,,,,,,,,,,,,,,,,,,,,,,,,,,,,,,,,,,,,,,,,,,,,,,,,,,,,,,,,,,,,,,,,,,,,,,,,,,,
,,609f0b539d4cd74841ffb116,2023-12-15_04h20.09.326,kallum_motion_pilot,2023.2.3,Win32,60.35367252,609f0b539d4cd74841ffb116,657bb317c8798c6608bceb3f,657bb4710ee1ce3f0fe37e1b,0.1805,0.1809,1,47,209,69,1,threefour,,,,,,,,,,,,,,,,,,,,,,,,,,,,,,,,,,,,,,,,,,,,,,,,,,,,,,,,,,,,,,,,,,,,,,,,,,,,,,,,,,,,,,,,,,,,,,,,,,,,,,,,,,,,,,,,,,,,,,,,,,,,,,,,,,,,,,,
,,609f0b539d4cd74841ffb116,2023-12-15_04h20.09.326,kallum_motion_pilot,2023.2.3,Win32,60.35367252,609f0b539d4cd74841ffb116,657bb317c8798c6608bceb3f,657bb4710ee1ce3f0fe37e1b,0.1815,0.1818,1,48,210,80,1,fivesix,,,,,,,,,,,,,,,,,,,,,,,,,,,,,,,,,,,,,,,,,,,,,,,,,,,,,,,,,,,,,,,,,,,,,,,,,,,,,,,,,,,,,,,,,,,,,,,,,,,,,,,,,,,,,,,,,,,,,,,,,,,,,,,,,,,,,,,
,,609f0b539d4cd74841ffb116,2023-12-15_04h20.09.326,kallum_motion_pilot,2023.2.3,Win32,60.35367252,609f0b539d4cd74841ffb116,657bb317c8798c6608bceb3f,657bb4710ee1ce3f0fe37e1b,0.1824,0.1827,1,49,211,46,1,fourtwo,,,,,,,,,,,,,,,,,,,,,,,,,,,,,,,,,,,,,,,,,,,,,,,,,,,,,,,,,,,,,,,,,,,,,,,,,,,,,,,,,,,,,,,,,,,,,,,,,,,,,,,,,,,,,,,,,,,,,,,,,,,,,,,,,,,,,,,
,,609f0b539d4cd74841ffb116,2023-12-15_04h20.09.326,kallum_motion_pilot,2023.2.3,Win32,60.35367252,609f0b539d4cd74841ffb116,657bb317c8798c6608bceb3f,657bb4710ee1ce3f0fe37e1b,0.1831,0.1833,1,50,212,60,1,threeone,,,,,,,,,,,,,,,,,,,,,,,,,,,,,,,,,,,,,,,,,,,,,,,,,,,,,,,,,,,,,,,,,,,,,,,,,,,,,,,,,,,,,,,,,,,,,,,,,,,,,,,,,,,,,,,,,,,,,,,,,,,,,,,,,,,,,,,
,,609f0b539d4cd74841ffb116,2023-12-15_04h20.09.326,kallum_motion_pilot,2023.2.3,Win32,60.35367252,609f0b539d4cd74841ffb116,657bb317c8798c6608bceb3f,657bb4710ee1ce3f0fe37e1b,0.1836,0.1839,1,51,213,24,1,onetwo,,,,,,,,,,,,,,,,,,,,,,,,,,,,,,,,,,,,,,,,,,,,,,,,,,,,,,,,,,,,,,,,,,,,,,,,,,,,,,,,,,,,,,,,,,,,,,,,,,,,,,,,,,,,,,,,,,,,,,,,,,,,,,,,,,,,,,,
,,609f0b539d4cd74841ffb116,2023-12-15_04h20.09.326,kallum_motion_pilot,2023.2.3,Win32,60.35367252,609f0b539d4cd74841ffb116,657bb317c8798c6608bceb3f,657bb4710ee1ce3f0fe37e1b,0.1842,0.1844,1,52,214,81,1,fiveseven,,,,,,,,,,,,,,,,,,,,,,,,,,,,,,,,,,,,,,,,,,,,,,,,,,,,,,,,,,,,,,,,,,,,,,,,,,,,,,,,,,,,,,,,,,,,,,,,,,,,,,,,,,,,,,,,,,,,,,,,,,,,,,,,,,,,,,,
,,609f0b539d4cd74841ffb116,2023-12-15_04h20.09.326,kallum_motion_pilot,2023.2.3,Win32,60.35367252,609f0b539d4cd74841ffb116,657bb317c8798c6608bceb3f,657bb4710ee1ce3f0fe37e1b,0.1845,0.1847,1,53,215,10,1,twoone,,,,,,,,,,,,,,,,,,,,,,,,,,,,,,,,,,,,,,,,,,,,,,,,,,,,,,,,,,,,,,,,,,,,,,,,,,,,,,,,,,,,,,,,,,,,,,,,,,,,,,,,,,,,,,,,,,,,,,,,,,,,,,,,,,,,,,,
,,609f0b539d4cd74841ffb116,2023-12-15_04h20.09.326,kallum_motion_pilot,2023.2.3,Win32,60.35367252,609f0b539d4cd74841ffb116,657bb317c8798c6608bceb3f,657bb4710ee1ce3f0fe37e1b,0.1849,0.185,1,54,216,22,1,fourtwo,,,,,,,,,,,,,,,,,,,,,,,,,,,,,,,,,,,,,,,,,,,,,,,,,,,,,,,,,,,,,,,,,,,,,,,,,,,,,,,,,,,,,,,,,,,,,,,,,,,,,,,,,,,,,,,,,,,,,,,,,,,,,,,,,,,,,,,
,,609f0b539d4cd74841ffb116,2023-12-15_04h20.09.326,kallum_motion_pilot,2023.2.3,Win32,60.35367252,609f0b539d4cd74841ffb116,657bb317c8798c6608bceb3f,657bb4710ee1ce3f0fe37e1b,0.1853,0.1854,1,55,217,0,1,onetwo,,,,,,,,,,,,,,,,,,,,,,,,,,,,,,,,,,,,,,,,,,,,,,,,,,,,,,,,,,,,,,,,,,,,,,,,,,,,,,,,,,,,,,,,,,,,,,,,,,,,,,,,,,,,,,,,,,,,,,,,,,,,,,,,,,,,,,,
,,609f0b539d4cd74841ffb116,2023-12-15_04h20.09.326,kallum_motion_pilot,2023.2.3,Win32,60.35367252,609f0b539d4cd74841ffb116,657bb317c8798c6608bceb3f,657bb4710ee1ce3f0fe37e1b,0.1856,0.1858,1,56,218,15,1,fourthree,,,,,,,,,,,,,,,,,,,,,,,,,,,,,,,,,,,,,,,,,,,,,,,,,,,,,,,,,,,,,,,,,,,,,,,,,,,,,,,,,,,,,,,,,,,,,,,,,,,,,,,,,,,,,,,,,,,,,,,,,,,,,,,,,,,,,,,
,,609f0b539d4cd74841ffb116,2023-12-15_04h20.09.326,kallum_motion_pilot,2023.2.3,Win32,60.35367252,609f0b539d4cd74841ffb116,657bb317c8798c6608bceb3f,657bb4710ee1ce3f0fe37e1b,0.186,0.1861,1,57,219,92,1,sevenfive,,,,,,,,,,,,,,,,,,,,,,,,,,,,,,,,,,,,,,,,,,,,,,,,,,,,,,,,,,,,,,,,,,,,,,,,,,,,,,,,,,,,,,,,,,,,,,,,,,,,,,,,,,,,,,,,,,,,,,,,,,,,,,,,,,,,,,,
,,609f0b539d4cd74841ffb116,2023-12-15_04h20.09.326,kallum_motion_pilot,2023.2.3,Win32,60.35367252,609f0b539d4cd74841ffb116,657bb317c8798c6608bceb3f,657bb4710ee1ce3f0fe37e1b,0.1864,0.1865,1,58,220,149,1,seveneight,,,,,,,,,,,,,,,,,,,,,,,,,,,,,,,,,,,,,,,,,,,,,,,,,,,,,,,,,,,,,,,,,,,,,,,,,,,,,,,,,,,,,,,,,,,,,,,,,,,,,,,,,,,,,,,,,,,,,,,,,,,,,,,,,,,,,,,
,,609f0b539d4cd74841ffb116,2023-12-15_04h20.09.326,kallum_motion_pilot,2023.2.3,Win32,60.35367252,609f0b539d4cd74841ffb116,657bb317c8798c6608bceb3f,657bb4710ee1ce3f0fe37e1b,0.1867,0.1869,1,59,221,98,1,sixfive,,,,,,,,,,,,,,,,,,,,,,,,,,,,,,,,,,,,,,,,,,,,,,,,,,,,,,,,,,,,,,,,,,,,,,,,,,,,,,,,,,,,,,,,,,,,,,,,,,,,,,,,,,,,,,,,,,,,,,,,,,,,,,,,,,,,,,,
,,609f0b539d4cd74841ffb116,2023-12-15_04h20.09.326,kallum_motion_pilot,2023.2.3,Win32,60.35367252,609f0b539d4cd74841ffb116,657bb317c8798c6608bceb3f,657bb4710ee1ce3f0fe37e1b,0.187,0.1872,1,60,222,96,1,fivesix,,,,,,,,,,,,,,,,,,,,,,,,,,,,,,,,,,,,,,,,,,,,,,,,,,,,,,,,,,,,,,,,,,,,,,,,,,,,,,,,,,,,,,,,,,,,,,,,,,,,,,,,,,,,,,,,,,,,,,,,,,,,,,,,,,,,,,,
,,609f0b539d4cd74841ffb116,2023-12-15_04h20.09.326,kallum_motion_pilot,2023.2.3,Win32,60.35367252,609f0b539d4cd74841ffb116,657bb317c8798c6608bceb3f,657bb4710ee1ce3f0fe37e1b,0.262,0.2626,1,61,223,63,1,fourthree,,,,,,,,,,,,,,,,,,,,,,,,,,,,,,,,,,,,,,,,,,,,,,,,,,,,,,,,,,,,,,,,,,,,,,,,,,,,,,,,,,,,,,,,,,,,,,,,,,,,,,,,,,,,,,,,,,,,,,,,,,,,,,,,,,,,,,,
,,609f0b539d4cd74841ffb116,2023-12-15_04h20.09.326,kallum_motion_pilot,2023.2.3,Win32,60.35367252,609f0b539d4cd74841ffb116,657bb317c8798c6608bceb3f,657bb4710ee1ce3f0fe37e1b,0.2635,0.2649,1,62,224,118,1,eightsix,,,,,,,,,,,,,,,,,,,,,,,,,,,,,,,,,,,,,,,,,,,,,,,,,,,,,,,,,,,,,,,,,,,,,,,,,,,,,,,,,,,,,,,,,,,,,,,,,,,,,,,,,,,,,,,,,,,,,,,,,,,,,,,,,,,,,,,
,,609f0b539d4cd74841ffb116,2023-12-15_04h20.09.326,kallum_motion_pilot,2023.2.3,Win32,60.35367252,609f0b539d4cd74841ffb116,657bb317c8798c6608bceb3f,657bb4710ee1ce3f0fe37e1b,0.266,0.2667,1,63,225,79,1,eightseven,,,,,,,,,,,,,,,,,,,,,,,,,,,,,,,,,,,,,,,,,,,,,,,,,,,,,,,,,,,,,,,,,,,,,,,,,,,,,,,,,,,,,,,,,,,,,,,,,,,,,,,,,,,,,,,,,,,,,,,,,,,,,,,,,,,,,,,
,,609f0b539d4cd74841ffb116,2023-12-15_04h20.09.326,kallum_motion_pilot,2023.2.3,Win32,60.35367252,609f0b539d4cd74841ffb116,657bb317c8798c6608bceb3f,657bb4710ee1ce3f0fe37e1b,0.2674,0.268,1,64,226,59,1,twofour,,,,,,,,,,,,,,,,,,,,,,,,,,,,,,,,,,,,,,,,,,,,,,,,,,,,,,,,,,,,,,,,,,,,,,,,,,,,,,,,,,,,,,,,,,,,,,,,,,,,,,,,,,,,,,,,,,,,,,,,,,,,,,,,,,,,,,,
,,609f0b539d4cd74841ffb116,2023-12-15_04h20.09.326,kallum_motion_pilot,2023.2.3,Win32,60.35367252,609f0b539d4cd74841ffb116,657bb317c8798c6608bceb3f,657bb4710ee1ce3f0fe37e1b,0.2686,0.2697,1,65,227,42,1,twoone,,,,,,,,,,,,,,,,,,,,,,,,,,,,,,,,,,,,,,,,,,,,,,,,,,,,,,,,,,,,,,,,,,,,,,,,,,,,,,,,,,,,,,,,,,,,,,,,,,,,,,,,,,,,,,,,,,,,,,,,,,,,,,,,,,,,,,,
,,609f0b539d4cd74841ffb116,2023-12-15_04h20.09.326,kallum_motion_pilot,2023.2.3,Win32,60.35367252,609f0b539d4cd74841ffb116,657bb317c8798c6608bceb3f,657bb4710ee1ce3f0fe37e1b,0.2707,0.271,1,66,228,65,1,onethree,,,,,,,,,,,,,,,,,,,,,,,,,,,,,,,,,,,,,,,,,,,,,,,,,,,,,,,,,,,,,,,,,,,,,,,,,,,,,,,,,,,,,,,,,,,,,,,,,,,,,,,,,,,,,,,,,,,,,,,,,,,,,,,,,,,,,,,
,,609f0b539d4cd74841ffb116,2023-12-15_04h20.09.326,kallum_motion_pilot,2023.2.3,Win32,60.35367252,609f0b539d4cd74841ffb116,657bb317c8798c6608bceb3f,657bb4710ee1ce3f0fe37e1b,0.2715,0.2719,1,67,229,83,1,sixeight,,,,,,,,,,,,,,,,,,,,,,,,,,,,,,,,,,,,,,,,,,,,,,,,,,,,,,,,,,,,,,,,,,,,,,,,,,,,,,,,,,,,,,,,,,,,,,,,,,,,,,,,,,,,,,,,,,,,,,,,,,,,,,,,,,,,,,,
,,609f0b539d4cd74841ffb116,2023-12-15_04h20.09.326,kallum_motion_pilot,2023.2.3,Win32,60.35367252,609f0b539d4cd74841ffb116,657bb317c8798c6608bceb3f,657bb4710ee1ce3f0fe37e1b,0.2723,0.2728,1,68,230,67,1,twofour,,,,,,,,,,,,,,,,,,,,,,,,,,,,,,,,,,,,,,,,,,,,,,,,,,,,,,,,,,,,,,,,,,,,,,,,,,,,,,,,,,,,,,,,,,,,,,,,,,,,,,,,,,,,,,,,,,,,,,,,,,,,,,,,,,,,,,,
,,609f0b539d4cd74841ffb116,2023-12-15_04h20.09.326,kallum_motion_pilot,2023.2.3,Win32,60.35367252,609f0b539d4cd74841ffb116,657bb317c8798c6608bceb3f,657bb4710ee1ce3f0fe37e1b,0.2732,0.2736,1,69,231,31,1,fourthree,,,,,,,,,,,,,,,,,,,,,,,,,,,,,,,,,,,,,,,,,,,,,,,,,,,,,,,,,,,,,,,,,,,,,,,,,,,,,,,,,,,,,,,,,,,,,,,,,,,,,,,,,,,,,,,,,,,,,,,,,,,,,,,,,,,,,,,
,,609f0b539d4cd74841ffb116,2023-12-15_04h20.09.326,kallum_motion_pilot,2023.2.3,Win32,60.35367252,609f0b539d4cd74841ffb116,657bb317c8798c6608bceb3f,657bb4710ee1ce3f0fe37e1b,0.274,0.2744,1,70,232,124,1,sevenfive,,,,,,,,,,,,,,,,,,,,,,,,,,,,,,,,,,,,,,,,,,,,,,,,,,,,,,,,,,,,,,,,,,,,,,,,,,,,,,,,,,,,,,,,,,,,,,,,,,,,,,,,,,,,,,,,,,,,,,,,,,,,,,,,,,,,,,,
,,609f0b539d4cd74841ffb116,2023-12-15_04h20.09.326,kallum_motion_pilot,2023.2.3,Win32,60.35367252,609f0b539d4cd74841ffb116,657bb317c8798c6608bceb3f,657bb4710ee1ce3f0fe37e1b,0.2749,0.2755,1,71,233,109,1,seveneight,,,,,,,,,,,,,,,,,,,,,,,,,,,,,,,,,,,,,,,,,,,,,,,,,,,,,,,,,,,,,,,,,,,,,,,,,,,,,,,,,,,,,,,,,,,,,,,,,,,,,,,,,,,,,,,,,,,,,,,,,,,,,,,,,,,,,,,
,,609f0b539d4cd74841ffb116,2023-12-15_04h20.09.326,kallum_motion_pilot,2023.2.3,Win32,60.35367252,609f0b539d4cd74841ffb116,657bb317c8798c6608bceb3f,657bb4710ee1ce3f0fe37e1b,0.276,0.2764,1,72,234,141,1,seveneight,,,,,,,,,,,,,,,,,,,,,,,,,,,,,,,,,,,,,,,,,,,,,,,,,,,,,,,,,,,,,,,,,,,,,,,,,,,,,,,,,,,,,,,,,,,,,,,,,,,,,,,,,,,,,,,,,,,,,,,,,,,,,,,,,,,,,,,
,,609f0b539d4cd74841ffb116,2023-12-15_04h20.09.326,kallum_motion_pilot,2023.2.3,Win32,60.35367252,609f0b539d4cd74841ffb116,657bb317c8798c6608bceb3f,657bb4710ee1ce3f0fe37e1b,0.2769,0.2773,1,73,235,43,1,twofour,,,,,,,,,,,,,,,,,,,,,,,,,,,,,,,,,,,,,,,,,,,,,,,,,,,,,,,,,,,,,,,,,,,,,,,,,,,,,,,,,,,,,,,,,,,,,,,,,,,,,,,,,,,,,,,,,,,,,,,,,,,,,,,,,,,,,,,
,,609f0b539d4cd74841ffb116,2023-12-15_04h20.09.326,kallum_motion_pilot,2023.2.3,Win32,60.35367252,609f0b539d4cd74841ffb116,657bb317c8798c6608bceb3f,657bb4710ee1ce3f0fe37e1b,0.2777,0.2781,1,74,236,130,1,sixfive,,,,,,,,,,,,,,,,,,,,,,,,,,,,,,,,,,,,,,,,,,,,,,,,,,,,,,,,,,,,,,,,,,,,,,,,,,,,,,,,,,,,,,,,,,,,,,,,,,,,,,,,,,,,,,,,,,,,,,,,,,,,,,,,,,,,,,,
,,609f0b539d4cd74841ffb116,2023-12-15_04h20.09.326,kallum_motion_pilot,2023.2.3,Win32,60.35367252,609f0b539d4cd74841ffb116,657bb317c8798c6608bceb3f,657bb4710ee1ce3f0fe37e1b,0.2786,0.2795,1,75,237,160,1,fivesix,,,,,,,,,,,,,,,,,,,,,,,,,,,,,,,,,,,,,,,,,,,,,,,,,,,,,,,,,,,,,,,,,,,,,,,,,,,,,,,,,,,,,,,,,,,,,,,,,,,,,,,,,,,,,,,,,,,,,,,,,,,,,,,,,,,,,,,
,,609f0b539d4cd74841ffb116,2023-12-15_04h20.09.326,kallum_motion_pilot,2023.2.3,Win32,60.35367252,609f0b539d4cd74841ffb116,657bb317c8798c6608bceb3f,657bb4710ee1ce3f0fe37e1b,0.2804,0.281,1,76,238,93,1,seveneight,,,,,,,,,,,,,,,,,,,,,,,,,,,,,,,,,,,,,,,,,,,,,,,,,,,,,,,,,,,,,,,,,,,,,,,,,,,,,,,,,,,,,,,,,,,,,,,,,,,,,,,,,,,,,,,,,,,,,,,,,,,,,,,,,,,,,,,
,,609f0b539d4cd74841ffb116,2023-12-15_04h20.09.326,kallum_motion_pilot,2023.2.3,Win32,60.35367252,609f0b539d4cd74841ffb116,657bb317c8798c6608bceb3f,657bb4710ee1ce3f0fe37e1b,0.2828,0.2835,1,77,239,38,1,fourtwo,,,,,,,,,,,,,,,,,,,,,,,,,,,,,,,,,,,,,,,,,,,,,,,,,,,,,,,,,,,,,,,,,,,,,,,,,,,,,,,,,,,,,,,,,,,,,,,,,,,,,,,,,,,,,,,,,,,,,,,,,,,,,,,,,,,,,,,
,,609f0b539d4cd74841ffb116,2023-12-15_04h20.09.326,kallum_motion_pilot,2023.2.3,Win32,60.35367252,609f0b539d4cd74841ffb116,657bb317c8798c6608bceb3f,657bb4710ee1ce3f0fe37e1b,0.2844,0.2851,1,78,240,94,1,eightsix,,,,,,,,,,,,,,,,,,,,,,,,,,,,,,,,,,,,,,,,,,,,,,,,,,,,,,,,,,,,,,,,,,,,,,,,,,,,,,,,,,,,,,,,,,,,,,,,,,,,,,,,,,,,,,,,,,,,,,,,,,,,,,,,,,,,,,,
,,609f0b539d4cd74841ffb116,2023-12-15_04h20.09.326,kallum_motion_pilot,2023.2.3,Win32,60.35367252,609f0b539d4cd74841ffb116,657bb317c8798c6608bceb3f,657bb4710ee1ce3f0fe37e1b,0.2859,0.2866,1,79,241,33,1,onethree,,,,,,,,,,,,,,,,,,,,,,,,,,,,,,,,,,,,,,,,,,,,,,,,,,,,,,,,,,,,,,,,,,,,,,,,,,,,,,,,,,,,,,,,,,,,,,,,,,,,,,,,,,,,,,,,,,,,,,,,,,,,,,,,,,,,,,,
,,609f0b539d4cd74841ffb116,2023-12-15_04h20.09.326,kallum_motion_pilot,2023.2.3,Win32,60.35367252,609f0b539d4cd74841ffb116,657bb317c8798c6608bceb3f,657bb4710ee1ce3f0fe37e1b,0.2872,0.2877,1,80,242,51,1,twofour,,,,,,,,,,,,,,,,,,,,,,,,,,,,,,,,,,,,,,,,,,,,,,,,,,,,,,,,,,,,,,,,,,,,,,,,,,,,,,,,,,,,,,,,,,,,,,,,,,,,,,,,,,,,,,,,,,,,,,,,,,,,,,,,,,,,,,,
,,609f0b539d4cd74841ffb116,2023-12-15_04h20.09.326,kallum_motion_pilot,2023.2.3,Win32,60.35367252,609f0b539d4cd74841ffb116,657bb317c8798c6608bceb3f,657bb4710ee1ce3f0fe37e1b,0.2881,0.2885,1,81,243,74,1,twoone,,,,,,,,,,,,,,,,,,,,,,,,,,,,,,,,,,,,,,,,,,,,,,,,,,,,,,,,,,,,,,,,,,,,,,,,,,,,,,,,,,,,,,,,,,,,,,,,,,,,,,,,,,,,,,,,,,,,,,,,,,,,,,,,,,,,,,,
,,609f0b539d4cd74841ffb116,2023-12-15_04h20.09.326,kallum_motion_pilot,2023.2.3,Win32,60.35367252,609f0b539d4cd74841ffb116,657bb317c8798c6608bceb3f,657bb4710ee1ce3f0fe37e1b,0.2889,0.2894,1,82,244,136,1,fivesix,,,,,,,,,,,,,,,,,,,,,,,,,,,,,,,,,,,,,,,,,,,,,,,,,,,,,,,,,,,,,,,,,,,,,,,,,,,,,,,,,,,,,,,,,,,,,,,,,,,,,,,,,,,,,,,,,,,,,,,,,,,,,,,,,,,,,,,
,,609f0b539d4cd74841ffb116,2023-12-15_04h20.09.326,kallum_motion_pilot,2023.2.3,Win32,60.35367252,609f0b539d4cd74841ffb116,657bb317c8798c6608bceb3f,657bb4710ee1ce3f0fe37e1b,0.2899,0.2904,1,83,245,44,1,threeone,,,,,,,,,,,,,,,,,,,,,,,,,,,,,,,,,,,,,,,,,,,,,,,,,,,,,,,,,,,,,,,,,,,,,,,,,,,,,,,,,,,,,,,,,,,,,,,,,,,,,,,,,,,,,,,,,,,,,,,,,,,,,,,,,,,,,,,
,,609f0b539d4cd74841ffb116,2023-12-15_04h20.09.326,kallum_motion_pilot,2023.2.3,Win32,60.35367252,609f0b539d4cd74841ffb116,657bb317c8798c6608bceb3f,657bb4710ee1ce3f0fe37e1b,0.2907,0.2911,1,84,246,91,1,sixeight,,,,,,,,,,,,,,,,,,,,,,,,,,,,,,,,,,,,,,,,,,,,,,,,,,,,,,,,,,,,,,,,,,,,,,,,,,,,,,,,,,,,,,,,,,,,,,,,,,,,,,,,,,,,,,,,,,,,,,,,,,,,,,,,,,,,,,,
,,609f0b539d4cd74841ffb116,2023-12-15_04h20.09.326,kallum_motion_pilot,2023.2.3,Win32,60.35367252,609f0b539d4cd74841ffb116,657bb317c8798c6608bceb3f,657bb4710ee1ce3f0fe37e1b,0.2915,0.2918,1,85,247,18,1,twoone,,,,,,,,,,,,,,,,,,,,,,,,,,,,,,,,,,,,,,,,,,,,,,,,,,,,,,,,,,,,,,,,,,,,,,,,,,,,,,,,,,,,,,,,,,,,,,,,,,,,,,,,,,,,,,,,,,,,,,,,,,,,,,,,,,,,,,,
,,609f0b539d4cd74841ffb116,2023-12-15_04h20.09.326,kallum_motion_pilot,2023.2.3,Win32,60.35367252,609f0b539d4cd74841ffb116,657bb317c8798c6608bceb3f,657bb4710ee1ce3f0fe37e1b,0.2921,0.2926,1,86,248,50,1,twoone,,,,,,,,,,,,,,,,,,,,,,,,,,,,,,,,,,,,,,,,,,,,,,,,,,,,,,,,,,,,,,,,,,,,,,,,,,,,,,,,,,,,,,,,,,,,,,,,,,,,,,,,,,,,,,,,,,,,,,,,,,,,,,,,,,,,,,,
,,609f0b539d4cd74841ffb116,2023-12-15_04h20.09.326,kallum_motion_pilot,2023.2.3,Win32,60.35367252,609f0b539d4cd74841ffb116,657bb317c8798c6608bceb3f,657bb4710ee1ce3f0fe37e1b,0.2929,0.2933,1,87,249,123,1,sixeight,,,,,,,,,,,,,,,,,,,,,,,,,,,,,,,,,,,,,,,,,,,,,,,,,,,,,,,,,,,,,,,,,,,,,,,,,,,,,,,,,,,,,,,,,,,,,,,,,,,,,,,,,,,,,,,,,,,,,,,,,,,,,,,,,,,,,,,
,,609f0b539d4cd74841ffb116,2023-12-15_04h20.09.326,kallum_motion_pilot,2023.2.3,Win32,60.35367252,609f0b539d4cd74841ffb116,657bb317c8798c6608bceb3f,657bb4710ee1ce3f0fe37e1b,0.2936,0.294,1,88,250,17,1,onethree,,,,,,,,,,,,,,,,,,,,,,,,,,,,,,,,,,,,,,,,,,,,,,,,,,,,,,,,,,,,,,,,,,,,,,,,,,,,,,,,,,,,,,,,,,,,,,,,,,,,,,,,,,,,,,,,,,,,,,,,,,,,,,,,,,,,,,,
,,609f0b539d4cd74841ffb116,2023-12-15_04h20.09.326,kallum_motion_pilot,2023.2.3,Win32,60.35367252,609f0b539d4cd74841ffb116,657bb317c8798c6608bceb3f,657bb4710ee1ce3f0fe37e1b,0.2943,0.2947,1,89,251,137,1,fiveseven,,,,,,,,,,,,,,,,,,,,,,,,,,,,,,,,,,,,,,,,,,,,,,,,,,,,,,,,,,,,,,,,,,,,,,,,,,,,,,,,,,,,,,,,,,,,,,,,,,,,,,,,,,,,,,,,,,,,,,,,,,,,,,,,,,,,,,,
,,609f0b539d4cd74841ffb116,2023-12-15_04h20.09.326,kallum_motion_pilot,2023.2.3,Win32,60.35367252,609f0b539d4cd74841ffb116,657bb317c8798c6608bceb3f,657bb4710ee1ce3f0fe37e1b,0.2949,0.2953,1,90,252,49,1,onethree,,,,,,,,,,,,,,,,,,,,,,,,,,,,,,,,,,,,,,,,,,,,,,,,,,,,,,,,,,,,,,,,,,,,,,,,,,,,,,,,,,,,,,,,,,,,,,,,,,,,,,,,,,,,,,,,,,,,,,,,,,,,,,,,,,,,,,,
,,609f0b539d4cd74841ffb116,2023-12-15_04h20.09.326,kallum_motion_pilot,2023.2.3,Win32,60.35367252,609f0b539d4cd74841ffb116,657bb317c8798c6608bceb3f,657bb4710ee1ce3f0fe37e1b,0.2957,0.296,1,91,253,89,1,fiveseven,,,,,,,,,,,,,,,,,,,,,,,,,,,,,,,,,,,,,,,,,,,,,,,,,,,,,,,,,,,,,,,,,,,,,,,,,,,,,,,,,,,,,,,,,,,,,,,,,,,,,,,,,,,,,,,,,,,,,,,,,,,,,,,,,,,,,,,
,,609f0b539d4cd74841ffb116,2023-12-15_04h20.09.326,kallum_motion_pilot,2023.2.3,Win32,60.35367252,609f0b539d4cd74841ffb116,657bb317c8798c6608bceb3f,657bb4710ee1ce3f0fe37e1b,0.2963,0.2968,1,92,254,102,1,eightsix,,,,,,,,,,,,,,,,,,,,,,,,,,,,,,,,,,,,,,,,,,,,,,,,,,,,,,,,,,,,,,,,,,,,,,,,,,,,,,,,,,,,,,,,,,,,,,,,,,,,,,,,,,,,,,,,,,,,,,,,,,,,,,,,,,,,,,,
,,609f0b539d4cd74841ffb116,2023-12-15_04h20.09.326,kallum_motion_pilot,2023.2.3,Win32,60.35367252,609f0b539d4cd74841ffb116,657bb317c8798c6608bceb3f,657bb4710ee1ce3f0fe37e1b,0.2972,0.2976,1,93,255,12,1,threeone,,,,,,,,,,,,,,,,,,,,,,,,,,,,,,,,,,,,,,,,,,,,,,,,,,,,,,,,,,,,,,,,,,,,,,,,,,,,,,,,,,,,,,,,,,,,,,,,,,,,,,,,,,,,,,,,,,,,,,,,,,,,,,,,,,,,,,,
,,609f0b539d4cd74841ffb116,2023-12-15_04h20.09.326,kallum_motion_pilot,2023.2.3,Win32,60.35367252,609f0b539d4cd74841ffb116,657bb317c8798c6608bceb3f,657bb4710ee1ce3f0fe37e1b,0.2978,0.2983,1,94,256,64,1,onetwo,,,,,,,,,,,,,,,,,,,,,,,,,,,,,,,,,,,,,,,,,,,,,,,,,,,,,,,,,,,,,,,,,,,,,,,,,,,,,,,,,,,,,,,,,,,,,,,,,,,,,,,,,,,,,,,,,,,,,,,,,,,,,,,,,,,,,,,
,,609f0b539d4cd74841ffb116,2023-12-15_04h20.09.326,kallum_motion_pilot,2023.2.3,Win32,60.35367252,609f0b539d4cd74841ffb116,657bb317c8798c6608bceb3f,657bb4710ee1ce3f0fe37e1b,0.2986,0.299,1,95,257,152,1,fivesix,,,,,,,,,,,,,,,,,,,,,,,,,,,,,,,,,,,,,,,,,,,,,,,,,,,,,,,,,,,,,,,,,,,,,,,,,,,,,,,,,,,,,,,,,,,,,,,,,,,,,,,,,,,,,,,,,,,,,,,,,,,,,,,,,,,,,,,
,,609f0b539d4cd74841ffb116,2023-12-15_04h20.09.326,kallum_motion_pilot,2023.2.3,Win32,60.35367252,609f0b539d4cd74841ffb116,657bb317c8798c6608bceb3f,657bb4710ee1ce3f0fe37e1b,0.2995,0.2999,1,96,258,106,1,sixfive,,,,,,,,,,,,,,,,,,,,,,,,,,,,,,,,,,,,,,,,,,,,,,,,,,,,,,,,,,,,,,,,,,,,,,,,,,,,,,,,,,,,,,,,,,,,,,,,,,,,,,,,,,,,,,,,,,,,,,,,,,,,,,,,,,,,,,,
,,609f0b539d4cd74841ffb116,2023-12-15_04h20.09.326,kallum_motion_pilot,2023.2.3,Win32,60.35367252,609f0b539d4cd74841ffb116,657bb317c8798c6608bceb3f,657bb4710ee1ce3f0fe37e1b,0.3002,0.3005,1,97,259,39,1,fourthree,,,,,,,,,,,,,,,,,,,,,,,,,,,,,,,,,,,,,,,,,,,,,,,,,,,,,,,,,,,,,,,,,,,,,,,,,,,,,,,,,,,,,,,,,,,,,,,,,,,,,,,,,,,,,,,,,,,,,,,,,,,,,,,,,,,,,,,
,,609f0b539d4cd74841ffb116,2023-12-15_04h20.09.326,kallum_motion_pilot,2023.2.3,Win32,60.35367252,609f0b539d4cd74841ffb116,657bb317c8798c6608bceb3f,657bb4710ee1ce3f0fe37e1b,0.301,0.3014,1,98,260,84,1,sevenfive,,,,,,,,,,,,,,,,,,,,,,,,,,,,,,,,,,,,,,,,,,,,,,,,,,,,,,,,,,,,,,,,,,,,,,,,,,,,,,,,,,,,,,,,,,,,,,,,,,,,,,,,,,,,,,,,,,,,,,,,,,,,,,,,,,,,,,,
,,609f0b539d4cd74841ffb116,2023-12-15_04h20.09.326,kallum_motion_pilot,2023.2.3,Win32,60.35367252,609f0b539d4cd74841ffb116,657bb317c8798c6608bceb3f,657bb4710ee1ce3f0fe37e1b,0.3017,0.3021,1,99,261,153,1,fiveseven,,,,,,,,,,,,,,,,,,,,,,,,,,,,,,,,,,,,,,,,,,,,,,,,,,,,,,,,,,,,,,,,,,,,,,,,,,,,,,,,,,,,,,,,,,,,,,,,,,,,,,,,,,,,,,,,,,,,,,,,,,,,,,,,,,,,,,,
,,609f0b539d4cd74841ffb116,2023-12-15_04h20.09.326,kallum_motion_pilot,2023.2.3,Win32,60.35367252,609f0b539d4cd74841ffb116,657bb317c8798c6608bceb3f,657bb4710ee1ce3f0fe37e1b,0.3025,0.303,1,100,262,13,1,threefour,,,,,,,,,,,,,,,,,,,,,,,,,,,,,,,,,,,,,,,,,,,,,,,,,,,,,,,,,,,,,,,,,,,,,,,,,,,,,,,,,,,,,,,,,,,,,,,,,,,,,,,,,,,,,,,,,,,,,,,,,,,,,,,,,,,,,,,
,,609f0b539d4cd74841ffb116,2023-12-15_04h20.09.326,kallum_motion_pilot,2023.2.3,Win32,60.35367252,609f0b539d4cd74841ffb116,657bb317c8798c6608bceb3f,657bb4710ee1ce3f0fe37e1b,0.3033,0.3036,1,101,263,161,1,fiveseven,,,,,,,,,,,,,,,,,,,,,,,,,,,,,,,,,,,,,,,,,,,,,,,,,,,,,,,,,,,,,,,,,,,,,,,,,,,,,,,,,,,,,,,,,,,,,,,,,,,,,,,,,,,,,,,,,,,,,,,,,,,,,,,,,,,,,,,
,,609f0b539d4cd74841ffb116,2023-12-15_04h20.09.326,kallum_motion_pilot,2023.2.3,Win32,60.35367252,609f0b539d4cd74841ffb116,657bb317c8798c6608bceb3f,657bb4710ee1ce3f0fe37e1b,0.304,0.3044,1,102,264,111,1,eightseven,,,,,,,,,,,,,,,,,,,,,,,,,,,,,,,,,,,,,,,,,,,,,,,,,,,,,,,,,,,,,,,,,,,,,,,,,,,,,,,,,,,,,,,,,,,,,,,,,,,,,,,,,,,,,,,,,,,,,,,,,,,,,,,,,,,,,,,
,,609f0b539d4cd74841ffb116,2023-12-15_04h20.09.326,kallum_motion_pilot,2023.2.3,Win32,60.35367252,609f0b539d4cd74841ffb116,657bb317c8798c6608bceb3f,657bb4710ee1ce3f0fe37e1b,0.3048,0.3051,1,103,265,26,1,twoone,,,,,,,,,,,,,,,,,,,,,,,,,,,,,,,,,,,,,,,,,,,,,,,,,,,,,,,,,,,,,,,,,,,,,,,,,,,,,,,,,,,,,,,,,,,,,,,,,,,,,,,,,,,,,,,,,,,,,,,,,,,,,,,,,,,,,,,
,,609f0b539d4cd74841ffb116,2023-12-15_04h20.09.326,kallum_motion_pilot,2023.2.3,Win32,60.35367252,609f0b539d4cd74841ffb116,657bb317c8798c6608bceb3f,657bb4710ee1ce3f0fe37e1b,0.3054,0.3058,1,104,266,1,1,onethree,,,,,,,,,,,,,,,,,,,,,,,,,,,,,,,,,,,,,,,,,,,,,,,,,,,,,,,,,,,,,,,,,,,,,,,,,,,,,,,,,,,,,,,,,,,,,,,,,,,,,,,,,,,,,,,,,,,,,,,,,,,,,,,,,,,,,,,
,,609f0b539d4cd74841ffb116,2023-12-15_04h20.09.326,kallum_motion_pilot,2023.2.3,Win32,60.35367252,609f0b539d4cd74841ffb116,657bb317c8798c6608bceb3f,657bb4710ee1ce3f0fe37e1b,0.3063,0.3066,1,105,267,117,1,seveneight,,,,,,,,,,,,,,,,,,,,,,,,,,,,,,,,,,,,,,,,,,,,,,,,,,,,,,,,,,,,,,,,,,,,,,,,,,,,,,,,,,,,,,,,,,,,,,,,,,,,,,,,,,,,,,,,,,,,,,,,,,,,,,,,,,,,,,,
,,609f0b539d4cd74841ffb116,2023-12-15_04h20.09.326,kallum_motion_pilot,2023.2.3,Win32,60.35367252,609f0b539d4cd74841ffb116,657bb317c8798c6608bceb3f,657bb4710ee1ce3f0fe37e1b,0.307,0.3075,1,106,268,70,1,fourtwo,,,,,,,,,,,,,,,,,,,,,,,,,,,,,,,,,,,,,,,,,,,,,,,,,,,,,,,,,,,,,,,,,,,,,,,,,,,,,,,,,,,,,,,,,,,,,,,,,,,,,,,,,,,,,,,,,,,,,,,,,,,,,,,,,,,,,,,
,,609f0b539d4cd74841ffb116,2023-12-15_04h20.09.326,kallum_motion_pilot,2023.2.3,Win32,60.35367252,609f0b539d4cd74841ffb116,657bb317c8798c6608bceb3f,657bb4710ee1ce3f0fe37e1b,0.3079,0.3085,1,107,269,159,1,eightseven,,,,,,,,,,,,,,,,,,,,,,,,,,,,,,,,,,,,,,,,,,,,,,,,,,,,,,,,,,,,,,,,,,,,,,,,,,,,,,,,,,,,,,,,,,,,,,,,,,,,,,,,,,,,,,,,,,,,,,,,,,,,,,,,,,,,,,,
,,609f0b539d4cd74841ffb116,2023-12-15_04h20.09.326,kallum_motion_pilot,2023.2.3,Win32,60.35367252,609f0b539d4cd74841ffb116,657bb317c8798c6608bceb3f,657bb4710ee1ce3f0fe37e1b,0.3091,0.3098,1,108,270,151,1,eightseven,,,,,,,,,,,,,,,,,,,,,,,,,,,,,,,,,,,,,,,,,,,,,,,,,,,,,,,,,,,,,,,,,,,,,,,,,,,,,,,,,,,,,,,,,,,,,,,,,,,,,,,,,,,,,,,,,,,,,,,,,,,,,,,,,,,,,,,
,,609f0b539d4cd74841ffb116,2023-12-15_04h20.09.326,kallum_motion_pilot,2023.2.3,Win32,60.35367252,609f0b539d4cd74841ffb116,657bb317c8798c6608bceb3f,657bb4710ee1ce3f0fe37e1b,0.3105,0.3107,1,109,271,120,1,fivesix,,,,,,,,,,,,,,,,,,,,,,,,,,,,,,,,,,,,,,,,,,,,,,,,,,,,,,,,,,,,,,,,,,,,,,,,,,,,,,,,,,,,,,,,,,,,,,,,,,,,,,,,,,,,,,,,,,,,,,,,,,,,,,,,,,,,,,,
,,609f0b539d4cd74841ffb116,2023-12-15_04h20.09.326,kallum_motion_pilot,2023.2.3,Win32,60.35367252,609f0b539d4cd74841ffb116,657bb317c8798c6608bceb3f,657bb4710ee1ce3f0fe37e1b,0.311,0.3113,1,110,272,147,1,sixeight,,,,,,,,,,,,,,,,,,,,,,,,,,,,,,,,,,,,,,,,,,,,,,,,,,,,,,,,,,,,,,,,,,,,,,,,,,,,,,,,,,,,,,,,,,,,,,,,,,,,,,,,,,,,,,,,,,,,,,,,,,,,,,,,,,,,,,,
,,609f0b539d4cd74841ffb116,2023-12-15_04h20.09.326,kallum_motion_pilot,2023.2.3,Win32,60.35367252,609f0b539d4cd74841ffb116,657bb317c8798c6608bceb3f,657bb4710ee1ce3f0fe37e1b,0.3118,0.3121,1,111,273,20,1,threeone,,,,,,,,,,,,,,,,,,,,,,,,,,,,,,,,,,,,,,,,,,,,,,,,,,,,,,,,,,,,,,,,,,,,,,,,,,,,,,,,,,,,,,,,,,,,,,,,,,,,,,,,,,,,,,,,,,,,,,,,,,,,,,,,,,,,,,,
,,609f0b539d4cd74841ffb116,2023-12-15_04h20.09.326,kallum_motion_pilot,2023.2.3,Win32,60.35367252,609f0b539d4cd74841ffb116,657bb317c8798c6608bceb3f,657bb4710ee1ce3f0fe37e1b,0.3124,0.3125,1,112,274,122,1,sixfive,,,,,,,,,,,,,,,,,,,,,,,,,,,,,,,,,,,,,,,,,,,,,,,,,,,,,,,,,,,,,,,,,,,,,,,,,,,,,,,,,,,,,,,,,,,,,,,,,,,,,,,,,,,,,,,,,,,,,,,,,,,,,,,,,,,,,,,
,,609f0b539d4cd74841ffb116,2023-12-15_04h20.09.326,kallum_motion_pilot,2023.2.3,Win32,60.35367252,609f0b539d4cd74841ffb116,657bb317c8798c6608bceb3f,657bb4710ee1ce3f0fe37e1b,0.3128,0.3131,1,113,275,107,1,sixeight,,,,,,,,,,,,,,,,,,,,,,,,,,,,,,,,,,,,,,,,,,,,,,,,,,,,,,,,,,,,,,,,,,,,,,,,,,,,,,,,,,,,,,,,,,,,,,,,,,,,,,,,,,,,,,,,,,,,,,,,,,,,,,,,,,,,,,,
,,609f0b539d4cd74841ffb116,2023-12-15_04h20.09.326,kallum_motion_pilot,2023.2.3,Win32,60.35367252,609f0b539d4cd74841ffb116,657bb317c8798c6608bceb3f,657bb4710ee1ce3f0fe37e1b,0.3134,0.3137,1,114,276,104,1,fivesix,,,,,,,,,,,,,,,,,,,,,,,,,,,,,,,,,,,,,,,,,,,,,,,,,,,,,,,,,,,,,,,,,,,,,,,,,,,,,,,,,,,,,,,,,,,,,,,,,,,,,,,,,,,,,,,,,,,,,,,,,,,,,,,,,,,,,,,
,,609f0b539d4cd74841ffb116,2023-12-15_04h20.09.326,kallum_motion_pilot,2023.2.3,Win32,60.35367252,609f0b539d4cd74841ffb116,657bb317c8798c6608bceb3f,657bb4710ee1ce3f0fe37e1b,0.314,0.3142,1,115,277,101,1,seveneight,,,,,,,,,,,,,,,,,,,,,,,,,,,,,,,,,,,,,,,,,,,,,,,,,,,,,,,,,,,,,,,,,,,,,,,,,,,,,,,,,,,,,,,,,,,,,,,,,,,,,,,,,,,,,,,,,,,,,,,,,,,,,,,,,,,,,,,
,,609f0b539d4cd74841ffb116,2023-12-15_04h20.09.326,kallum_motion_pilot,2023.2.3,Win32,60.35367252,609f0b539d4cd74841ffb116,657bb317c8798c6608bceb3f,657bb4710ee1ce3f0fe37e1b,0.3146,0.3151,1,116,278,52,1,threeone,,,,,,,,,,,,,,,,,,,,,,,,,,,,,,,,,,,,,,,,,,,,,,,,,,,,,,,,,,,,,,,,,,,,,,,,,,,,,,,,,,,,,,,,,,,,,,,,,,,,,,,,,,,,,,,,,,,,,,,,,,,,,,,,,,,,,,,
,,609f0b539d4cd74841ffb116,2023-12-15_04h20.09.326,kallum_motion_pilot,2023.2.3,Win32,60.35367252,609f0b539d4cd74841ffb116,657bb317c8798c6608bceb3f,657bb4710ee1ce3f0fe37e1b,0.3153,0.3155,1,117,279,142,1,eightsix,,,,,,,,,,,,,,,,,,,,,,,,,,,,,,,,,,,,,,,,,,,,,,,,,,,,,,,,,,,,,,,,,,,,,,,,,,,,,,,,,,,,,,,,,,,,,,,,,,,,,,,,,,,,,,,,,,,,,,,,,,,,,,,,,,,,,,,
