startup.started,startup.stopped,Prolific ID*,date,expName,psychopyVersion,OS,frameRate,participant,study_id,session,stimpositions.started,stimpositions.stopped,hardcoded_stimulus_positions.thisRepN,hardcoded_stimulus_positions.thisTrialN,hardcoded_stimulus_positions.thisN,hardcoded_stimulus_positions.thisIndex,hardcoded_stimulus_positions.ran,StimulusPos,stimorientation.started,stimorientation.stopped,prac_stimorientation_import_loop.thisRepN,prac_stimorientation_import_loop.thisTrialN,prac_stimorientation_import_loop.thisN,prac_stimorientation_import_loop.thisIndex,prac_stimorientation_import_loop.ran,Stimorientation,welcome_instr.started,welcome_instr.stopped,key_resp.keys,key_resp.rt,key_resp.duration,response_steppedout_1.started,response_steppedout_1.stopped,key_resp_20.keys,key_resp_20.rt,key_resp_20.duration,response_steppedout_2.started,response_steppedout_2.stopped,key_resp_19.keys,key_resp_19.rt,key_resp_19.duration,stim_response_instr.started,stim_response_instr.stopped,key_resp_15.keys,key_resp_15.rt,key_resp_15.duration,direction_instr_2.started,direction_instr_2.stopped,key_resp_9.keys,key_resp_9.rt,key_resp_9.duration,instr_prac.started,instr_prac.stopped,key_resp_10.keys,key_resp_10.rt,key_resp_10.duration,Stim1_display_prac.started,Stim1_display_prac.stopped,Ecc,Circle1_ori,Circle2_ori,response_prac.started,similarity,response_time,response_prac.stopped,mouse_5.x,mouse_5.y,mouse_5.leftButton,mouse_5.midButton,mouse_5.rightButton,mouse_5.clicked_name,responseprac_feedback.started,responseprac_feedback.stopped,summary2_prac.started,summary2_prac.stopped,mouse_6.x,mouse_6.y,mouse_6.leftButton,mouse_6.midButton,mouse_6.rightButton,mouse_6.clicked_name,duringprac.thisRepN,duringprac.thisTrialN,duringprac.thisN,duringprac.thisIndex,duringprac.ran,begin.started,begin.stopped,key_resp_22.keys,key_resp_22.rt,key_resp_22.duration,Stim1_display.started,Stim1_display.stopped,circle1_ori,circle2_ori,blank.started,blank.stopped,response.started,response.stopped,mouse.x,mouse.y,mouse.leftButton,mouse.midButton,mouse.rightButton,mouse.clicked_name,response_2.started,response_2.stopped,mouse_2.x,mouse_2.y,mouse_2.leftButton,mouse_2.midButton,mouse_2.rightButton,mouse_2.clicked_name,special_trial.started,special_trial.stopped,catch_1.started,catch_1.stopped,mouse_3.x,mouse_3.y,mouse_3.leftButton,mouse_3.midButton,mouse_3.rightButton,catchresponse,catchnumber,response_time_catch,Catch,response_sum.started,response_sum.stopped,mouse_11.x,mouse_11.y,mouse_11.leftButton,mouse_11.midButton,mouse_11.rightButton,main_trial.thisRepN,main_trial.thisTrialN,main_trial.thisN,main_trial.thisIndex,main_trial.ran,Orientationtrialno,xcircle1_ori,xcircle2_ori,flip_presentation_sequence_for_double_pass.started,flip_presentation_sequence_for_double_pass.stopped,double_pass.thisRepN,double_pass.thisTrialN,double_pass.thisN,double_pass.thisIndex,double_pass.ran,goodbye.started,goodbye.stopped,key_resp_3.keys,key_resp_3.rt,key_resp_3.duration
0.0004,0.0006,61109ea3acfa60c696aa5bfe,2023-12-14_23h04.40.862,kallum_motion_pilot,2023.2.3,Win32,60.60606061,61109ea3acfa60c696aa5bfe,657bb317c8798c6608bceb3f,657bb40e2dc0e6db413f2178,,,,,,,,,,,,,,,,,,,,,,,,,,,,,,,,,,,,,,,,,,,,,,,,,,,,,,,,,,,,,,,,,,,,,,,,,,,,,,,,,,,,,,,,,,,,,,,,,,,,,,,,,,,,,,,,,,,,,,,,,,,,,,,,,,,,,,,,,,,,,,,
,,61109ea3acfa60c696aa5bfe,2023-12-14_23h04.40.862,kallum_motion_pilot,2023.2.3,Win32,60.60606061,61109ea3acfa60c696aa5bfe,657bb317c8798c6608bceb3f,657bb40e2dc0e6db413f2178,0.0336,0.0338,0,0,0,61,1,threefour,,,,,,,,,,,,,,,,,,,,,,,,,,,,,,,,,,,,,,,,,,,,,,,,,,,,,,,,,,,,,,,,,,,,,,,,,,,,,,,,,,,,,,,,,,,,,,,,,,,,,,,,,,,,,,,,,,,,,,,,,,,,,,,,,,,,,,,
,,61109ea3acfa60c696aa5bfe,2023-12-14_23h04.40.862,kallum_motion_pilot,2023.2.3,Win32,60.60606061,61109ea3acfa60c696aa5bfe,657bb317c8798c6608bceb3f,657bb40e2dc0e6db413f2178,0.0343,0.0343,0,1,1,59,1,twofour,,,,,,,,,,,,,,,,,,,,,,,,,,,,,,,,,,,,,,,,,,,,,,,,,,,,,,,,,,,,,,,,,,,,,,,,,,,,,,,,,,,,,,,,,,,,,,,,,,,,,,,,,,,,,,,,,,,,,,,,,,,,,,,,,,,,,,,
,,61109ea3acfa60c696aa5bfe,2023-12-14_23h04.40.862,kallum_motion_pilot,2023.2.3,Win32,60.60606061,61109ea3acfa60c696aa5bfe,657bb317c8798c6608bceb3f,657bb40e2dc0e6db413f2178,0.0345,0.0346,0,2,2,18,1,twoone,,,,,,,,,,,,,,,,,,,,,,,,,,,,,,,,,,,,,,,,,,,,,,,,,,,,,,,,,,,,,,,,,,,,,,,,,,,,,,,,,,,,,,,,,,,,,,,,,,,,,,,,,,,,,,,,,,,,,,,,,,,,,,,,,,,,,,,
,,61109ea3acfa60c696aa5bfe,2023-12-14_23h04.40.862,kallum_motion_pilot,2023.2.3,Win32,60.60606061,61109ea3acfa60c696aa5bfe,657bb317c8798c6608bceb3f,657bb40e2dc0e6db413f2178,0.0347,0.0348,0,3,3,103,1,eightseven,,,,,,,,,,,,,,,,,,,,,,,,,,,,,,,,,,,,,,,,,,,,,,,,,,,,,,,,,,,,,,,,,,,,,,,,,,,,,,,,,,,,,,,,,,,,,,,,,,,,,,,,,,,,,,,,,,,,,,,,,,,,,,,,,,,,,,,
,,61109ea3acfa60c696aa5bfe,2023-12-14_23h04.40.862,kallum_motion_pilot,2023.2.3,Win32,60.60606061,61109ea3acfa60c696aa5bfe,657bb317c8798c6608bceb3f,657bb40e2dc0e6db413f2178,0.0349,0.035,0,4,4,29,1,threefour,,,,,,,,,,,,,,,,,,,,,,,,,,,,,,,,,,,,,,,,,,,,,,,,,,,,,,,,,,,,,,,,,,,,,,,,,,,,,,,,,,,,,,,,,,,,,,,,,,,,,,,,,,,,,,,,,,,,,,,,,,,,,,,,,,,,,,,
,,61109ea3acfa60c696aa5bfe,2023-12-14_23h04.40.862,kallum_motion_pilot,2023.2.3,Win32,60.60606061,61109ea3acfa60c696aa5bfe,657bb317c8798c6608bceb3f,657bb40e2dc0e6db413f2178,0.0351,0.0352,0,5,5,54,1,fourtwo,,,,,,,,,,,,,,,,,,,,,,,,,,,,,,,,,,,,,,,,,,,,,,,,,,,,,,,,,,,,,,,,,,,,,,,,,,,,,,,,,,,,,,,,,,,,,,,,,,,,,,,,,,,,,,,,,,,,,,,,,,,,,,,,,,,,,,,
,,61109ea3acfa60c696aa5bfe,2023-12-14_23h04.40.862,kallum_motion_pilot,2023.2.3,Win32,60.60606061,61109ea3acfa60c696aa5bfe,657bb317c8798c6608bceb3f,657bb40e2dc0e6db413f2178,0.0353,0.0354,0,6,6,7,1,fourthree,,,,,,,,,,,,,,,,,,,,,,,,,,,,,,,,,,,,,,,,,,,,,,,,,,,,,,,,,,,,,,,,,,,,,,,,,,,,,,,,,,,,,,,,,,,,,,,,,,,,,,,,,,,,,,,,,,,,,,,,,,,,,,,,,,,,,,,
,,61109ea3acfa60c696aa5bfe,2023-12-14_23h04.40.862,kallum_motion_pilot,2023.2.3,Win32,60.60606061,61109ea3acfa60c696aa5bfe,657bb317c8798c6608bceb3f,657bb40e2dc0e6db413f2178,0.0356,0.0356,0,7,7,41,1,onethree,,,,,,,,,,,,,,,,,,,,,,,,,,,,,,,,,,,,,,,,,,,,,,,,,,,,,,,,,,,,,,,,,,,,,,,,,,,,,,,,,,,,,,,,,,,,,,,,,,,,,,,,,,,,,,,,,,,,,,,,,,,,,,,,,,,,,,,
,,61109ea3acfa60c696aa5bfe,2023-12-14_23h04.40.862,kallum_motion_pilot,2023.2.3,Win32,60.60606061,61109ea3acfa60c696aa5bfe,657bb317c8798c6608bceb3f,657bb40e2dc0e6db413f2178,0.0359,0.0359,0,8,8,105,1,fiveseven,,,,,,,,,,,,,,,,,,,,,,,,,,,,,,,,,,,,,,,,,,,,,,,,,,,,,,,,,,,,,,,,,,,,,,,,,,,,,,,,,,,,,,,,,,,,,,,,,,,,,,,,,,,,,,,,,,,,,,,,,,,,,,,,,,,,,,,
,,61109ea3acfa60c696aa5bfe,2023-12-14_23h04.40.862,kallum_motion_pilot,2023.2.3,Win32,60.60606061,61109ea3acfa60c696aa5bfe,657bb317c8798c6608bceb3f,657bb40e2dc0e6db413f2178,0.0361,0.0362,0,9,9,39,1,fourthree,,,,,,,,,,,,,,,,,,,,,,,,,,,,,,,,,,,,,,,,,,,,,,,,,,,,,,,,,,,,,,,,,,,,,,,,,,,,,,,,,,,,,,,,,,,,,,,,,,,,,,,,,,,,,,,,,,,,,,,,,,,,,,,,,,,,,,,
,,61109ea3acfa60c696aa5bfe,2023-12-14_23h04.40.862,kallum_motion_pilot,2023.2.3,Win32,60.60606061,61109ea3acfa60c696aa5bfe,657bb317c8798c6608bceb3f,657bb40e2dc0e6db413f2178,0.0364,0.0364,0,10,10,92,1,sevenfive,,,,,,,,,,,,,,,,,,,,,,,,,,,,,,,,,,,,,,,,,,,,,,,,,,,,,,,,,,,,,,,,,,,,,,,,,,,,,,,,,,,,,,,,,,,,,,,,,,,,,,,,,,,,,,,,,,,,,,,,,,,,,,,,,,,,,,,
,,61109ea3acfa60c696aa5bfe,2023-12-14_23h04.40.862,kallum_motion_pilot,2023.2.3,Win32,60.60606061,61109ea3acfa60c696aa5bfe,657bb317c8798c6608bceb3f,657bb40e2dc0e6db413f2178,0.0366,0.0367,0,11,11,123,1,sixeight,,,,,,,,,,,,,,,,,,,,,,,,,,,,,,,,,,,,,,,,,,,,,,,,,,,,,,,,,,,,,,,,,,,,,,,,,,,,,,,,,,,,,,,,,,,,,,,,,,,,,,,,,,,,,,,,,,,,,,,,,,,,,,,,,,,,,,,
,,61109ea3acfa60c696aa5bfe,2023-12-14_23h04.40.862,kallum_motion_pilot,2023.2.3,Win32,60.60606061,61109ea3acfa60c696aa5bfe,657bb317c8798c6608bceb3f,657bb40e2dc0e6db413f2178,0.0369,0.0369,0,12,12,73,1,onethree,,,,,,,,,,,,,,,,,,,,,,,,,,,,,,,,,,,,,,,,,,,,,,,,,,,,,,,,,,,,,,,,,,,,,,,,,,,,,,,,,,,,,,,,,,,,,,,,,,,,,,,,,,,,,,,,,,,,,,,,,,,,,,,,,,,,,,,
,,61109ea3acfa60c696aa5bfe,2023-12-14_23h04.40.862,kallum_motion_pilot,2023.2.3,Win32,60.60606061,61109ea3acfa60c696aa5bfe,657bb317c8798c6608bceb3f,657bb40e2dc0e6db413f2178,0.037,0.037,0,13,13,85,1,seveneight,,,,,,,,,,,,,,,,,,,,,,,,,,,,,,,,,,,,,,,,,,,,,,,,,,,,,,,,,,,,,,,,,,,,,,,,,,,,,,,,,,,,,,,,,,,,,,,,,,,,,,,,,,,,,,,,,,,,,,,,,,,,,,,,,,,,,,,
,,61109ea3acfa60c696aa5bfe,2023-12-14_23h04.40.862,kallum_motion_pilot,2023.2.3,Win32,60.60606061,61109ea3acfa60c696aa5bfe,657bb317c8798c6608bceb3f,657bb40e2dc0e6db413f2178,0.0373,0.0373,0,14,14,77,1,threefour,,,,,,,,,,,,,,,,,,,,,,,,,,,,,,,,,,,,,,,,,,,,,,,,,,,,,,,,,,,,,,,,,,,,,,,,,,,,,,,,,,,,,,,,,,,,,,,,,,,,,,,,,,,,,,,,,,,,,,,,,,,,,,,,,,,,,,,
,,61109ea3acfa60c696aa5bfe,2023-12-14_23h04.40.862,kallum_motion_pilot,2023.2.3,Win32,60.60606061,61109ea3acfa60c696aa5bfe,657bb317c8798c6608bceb3f,657bb40e2dc0e6db413f2178,0.0374,0.0374,0,15,15,52,1,threeone,,,,,,,,,,,,,,,,,,,,,,,,,,,,,,,,,,,,,,,,,,,,,,,,,,,,,,,,,,,,,,,,,,,,,,,,,,,,,,,,,,,,,,,,,,,,,,,,,,,,,,,,,,,,,,,,,,,,,,,,,,,,,,,,,,,,,,,
,,61109ea3acfa60c696aa5bfe,2023-12-14_23h04.40.862,kallum_motion_pilot,2023.2.3,Win32,60.60606061,61109ea3acfa60c696aa5bfe,657bb317c8798c6608bceb3f,657bb40e2dc0e6db413f2178,0.0375,0.0376,0,16,16,84,1,sevenfive,,,,,,,,,,,,,,,,,,,,,,,,,,,,,,,,,,,,,,,,,,,,,,,,,,,,,,,,,,,,,,,,,,,,,,,,,,,,,,,,,,,,,,,,,,,,,,,,,,,,,,,,,,,,,,,,,,,,,,,,,,,,,,,,,,,,,,,
,,61109ea3acfa60c696aa5bfe,2023-12-14_23h04.40.862,kallum_motion_pilot,2023.2.3,Win32,60.60606061,61109ea3acfa60c696aa5bfe,657bb317c8798c6608bceb3f,657bb40e2dc0e6db413f2178,0.0376,0.0377,0,17,17,43,1,twofour,,,,,,,,,,,,,,,,,,,,,,,,,,,,,,,,,,,,,,,,,,,,,,,,,,,,,,,,,,,,,,,,,,,,,,,,,,,,,,,,,,,,,,,,,,,,,,,,,,,,,,,,,,,,,,,,,,,,,,,,,,,,,,,,,,,,,,,
,,61109ea3acfa60c696aa5bfe,2023-12-14_23h04.40.862,kallum_motion_pilot,2023.2.3,Win32,60.60606061,61109ea3acfa60c696aa5bfe,657bb317c8798c6608bceb3f,657bb40e2dc0e6db413f2178,0.0378,0.0378,0,18,18,107,1,sixeight,,,,,,,,,,,,,,,,,,,,,,,,,,,,,,,,,,,,,,,,,,,,,,,,,,,,,,,,,,,,,,,,,,,,,,,,,,,,,,,,,,,,,,,,,,,,,,,,,,,,,,,,,,,,,,,,,,,,,,,,,,,,,,,,,,,,,,,
,,61109ea3acfa60c696aa5bfe,2023-12-14_23h04.40.862,kallum_motion_pilot,2023.2.3,Win32,60.60606061,61109ea3acfa60c696aa5bfe,657bb317c8798c6608bceb3f,657bb40e2dc0e6db413f2178,0.038,0.038,0,19,19,48,1,onetwo,,,,,,,,,,,,,,,,,,,,,,,,,,,,,,,,,,,,,,,,,,,,,,,,,,,,,,,,,,,,,,,,,,,,,,,,,,,,,,,,,,,,,,,,,,,,,,,,,,,,,,,,,,,,,,,,,,,,,,,,,,,,,,,,,,,,,,,
,,61109ea3acfa60c696aa5bfe,2023-12-14_23h04.40.862,kallum_motion_pilot,2023.2.3,Win32,60.60606061,61109ea3acfa60c696aa5bfe,657bb317c8798c6608bceb3f,657bb40e2dc0e6db413f2178,0.0381,0.0381,0,20,20,128,1,fivesix,,,,,,,,,,,,,,,,,,,,,,,,,,,,,,,,,,,,,,,,,,,,,,,,,,,,,,,,,,,,,,,,,,,,,,,,,,,,,,,,,,,,,,,,,,,,,,,,,,,,,,,,,,,,,,,,,,,,,,,,,,,,,,,,,,,,,,,
,,61109ea3acfa60c696aa5bfe,2023-12-14_23h04.40.862,kallum_motion_pilot,2023.2.3,Win32,60.60606061,61109ea3acfa60c696aa5bfe,657bb317c8798c6608bceb3f,657bb40e2dc0e6db413f2178,0.0382,0.0382,0,21,21,40,1,onetwo,,,,,,,,,,,,,,,,,,,,,,,,,,,,,,,,,,,,,,,,,,,,,,,,,,,,,,,,,,,,,,,,,,,,,,,,,,,,,,,,,,,,,,,,,,,,,,,,,,,,,,,,,,,,,,,,,,,,,,,,,,,,,,,,,,,,,,,
,,61109ea3acfa60c696aa5bfe,2023-12-14_23h04.40.862,kallum_motion_pilot,2023.2.3,Win32,60.60606061,61109ea3acfa60c696aa5bfe,657bb317c8798c6608bceb3f,657bb40e2dc0e6db413f2178,0.0384,0.0384,0,22,22,97,1,fiveseven,,,,,,,,,,,,,,,,,,,,,,,,,,,,,,,,,,,,,,,,,,,,,,,,,,,,,,,,,,,,,,,,,,,,,,,,,,,,,,,,,,,,,,,,,,,,,,,,,,,,,,,,,,,,,,,,,,,,,,,,,,,,,,,,,,,,,,,
,,61109ea3acfa60c696aa5bfe,2023-12-14_23h04.40.862,kallum_motion_pilot,2023.2.3,Win32,60.60606061,61109ea3acfa60c696aa5bfe,657bb317c8798c6608bceb3f,657bb40e2dc0e6db413f2178,0.0385,0.0385,0,23,23,151,1,eightseven,,,,,,,,,,,,,,,,,,,,,,,,,,,,,,,,,,,,,,,,,,,,,,,,,,,,,,,,,,,,,,,,,,,,,,,,,,,,,,,,,,,,,,,,,,,,,,,,,,,,,,,,,,,,,,,,,,,,,,,,,,,,,,,,,,,,,,,
,,61109ea3acfa60c696aa5bfe,2023-12-14_23h04.40.862,kallum_motion_pilot,2023.2.3,Win32,60.60606061,61109ea3acfa60c696aa5bfe,657bb317c8798c6608bceb3f,657bb40e2dc0e6db413f2178,0.0387,0.0388,0,24,24,76,1,threeone,,,,,,,,,,,,,,,,,,,,,,,,,,,,,,,,,,,,,,,,,,,,,,,,,,,,,,,,,,,,,,,,,,,,,,,,,,,,,,,,,,,,,,,,,,,,,,,,,,,,,,,,,,,,,,,,,,,,,,,,,,,,,,,,,,,,,,,
,,61109ea3acfa60c696aa5bfe,2023-12-14_23h04.40.862,kallum_motion_pilot,2023.2.3,Win32,60.60606061,61109ea3acfa60c696aa5bfe,657bb317c8798c6608bceb3f,657bb40e2dc0e6db413f2178,0.039,0.039,0,25,25,81,1,fiveseven,,,,,,,,,,,,,,,,,,,,,,,,,,,,,,,,,,,,,,,,,,,,,,,,,,,,,,,,,,,,,,,,,,,,,,,,,,,,,,,,,,,,,,,,,,,,,,,,,,,,,,,,,,,,,,,,,,,,,,,,,,,,,,,,,,,,,,,
,,61109ea3acfa60c696aa5bfe,2023-12-14_23h04.40.862,kallum_motion_pilot,2023.2.3,Win32,60.60606061,61109ea3acfa60c696aa5bfe,657bb317c8798c6608bceb3f,657bb40e2dc0e6db413f2178,0.039,0.0391,0,26,26,11,1,twofour,,,,,,,,,,,,,,,,,,,,,,,,,,,,,,,,,,,,,,,,,,,,,,,,,,,,,,,,,,,,,,,,,,,,,,,,,,,,,,,,,,,,,,,,,,,,,,,,,,,,,,,,,,,,,,,,,,,,,,,,,,,,,,,,,,,,,,,
,,61109ea3acfa60c696aa5bfe,2023-12-14_23h04.40.862,kallum_motion_pilot,2023.2.3,Win32,60.60606061,61109ea3acfa60c696aa5bfe,657bb317c8798c6608bceb3f,657bb40e2dc0e6db413f2178,0.0392,0.0393,0,27,27,111,1,eightseven,,,,,,,,,,,,,,,,,,,,,,,,,,,,,,,,,,,,,,,,,,,,,,,,,,,,,,,,,,,,,,,,,,,,,,,,,,,,,,,,,,,,,,,,,,,,,,,,,,,,,,,,,,,,,,,,,,,,,,,,,,,,,,,,,,,,,,,
,,61109ea3acfa60c696aa5bfe,2023-12-14_23h04.40.862,kallum_motion_pilot,2023.2.3,Win32,60.60606061,61109ea3acfa60c696aa5bfe,657bb317c8798c6608bceb3f,657bb40e2dc0e6db413f2178,0.0394,0.0394,0,28,28,114,1,sixfive,,,,,,,,,,,,,,,,,,,,,,,,,,,,,,,,,,,,,,,,,,,,,,,,,,,,,,,,,,,,,,,,,,,,,,,,,,,,,,,,,,,,,,,,,,,,,,,,,,,,,,,,,,,,,,,,,,,,,,,,,,,,,,,,,,,,,,,
,,61109ea3acfa60c696aa5bfe,2023-12-14_23h04.40.862,kallum_motion_pilot,2023.2.3,Win32,60.60606061,61109ea3acfa60c696aa5bfe,657bb317c8798c6608bceb3f,657bb40e2dc0e6db413f2178,0.0396,0.0396,0,29,29,144,1,fivesix,,,,,,,,,,,,,,,,,,,,,,,,,,,,,,,,,,,,,,,,,,,,,,,,,,,,,,,,,,,,,,,,,,,,,,,,,,,,,,,,,,,,,,,,,,,,,,,,,,,,,,,,,,,,,,,,,,,,,,,,,,,,,,,,,,,,,,,
,,61109ea3acfa60c696aa5bfe,2023-12-14_23h04.40.862,kallum_motion_pilot,2023.2.3,Win32,60.60606061,61109ea3acfa60c696aa5bfe,657bb317c8798c6608bceb3f,657bb40e2dc0e6db413f2178,0.0398,0.0399,0,30,30,120,1,fivesix,,,,,,,,,,,,,,,,,,,,,,,,,,,,,,,,,,,,,,,,,,,,,,,,,,,,,,,,,,,,,,,,,,,,,,,,,,,,,,,,,,,,,,,,,,,,,,,,,,,,,,,,,,,,,,,,,,,,,,,,,,,,,,,,,,,,,,,
,,61109ea3acfa60c696aa5bfe,2023-12-14_23h04.40.862,kallum_motion_pilot,2023.2.3,Win32,60.60606061,61109ea3acfa60c696aa5bfe,657bb317c8798c6608bceb3f,657bb40e2dc0e6db413f2178,0.04,0.04,0,31,31,13,1,threefour,,,,,,,,,,,,,,,,,,,,,,,,,,,,,,,,,,,,,,,,,,,,,,,,,,,,,,,,,,,,,,,,,,,,,,,,,,,,,,,,,,,,,,,,,,,,,,,,,,,,,,,,,,,,,,,,,,,,,,,,,,,,,,,,,,,,,,,
,,61109ea3acfa60c696aa5bfe,2023-12-14_23h04.40.862,kallum_motion_pilot,2023.2.3,Win32,60.60606061,61109ea3acfa60c696aa5bfe,657bb317c8798c6608bceb3f,657bb40e2dc0e6db413f2178,0.0401,0.0402,0,32,32,87,1,eightseven,,,,,,,,,,,,,,,,,,,,,,,,,,,,,,,,,,,,,,,,,,,,,,,,,,,,,,,,,,,,,,,,,,,,,,,,,,,,,,,,,,,,,,,,,,,,,,,,,,,,,,,,,,,,,,,,,,,,,,,,,,,,,,,,,,,,,,,
,,61109ea3acfa60c696aa5bfe,2023-12-14_23h04.40.862,kallum_motion_pilot,2023.2.3,Win32,60.60606061,61109ea3acfa60c696aa5bfe,657bb317c8798c6608bceb3f,657bb40e2dc0e6db413f2178,0.0403,0.0403,0,33,33,74,1,twoone,,,,,,,,,,,,,,,,,,,,,,,,,,,,,,,,,,,,,,,,,,,,,,,,,,,,,,,,,,,,,,,,,,,,,,,,,,,,,,,,,,,,,,,,,,,,,,,,,,,,,,,,,,,,,,,,,,,,,,,,,,,,,,,,,,,,,,,
,,61109ea3acfa60c696aa5bfe,2023-12-14_23h04.40.862,kallum_motion_pilot,2023.2.3,Win32,60.60606061,61109ea3acfa60c696aa5bfe,657bb317c8798c6608bceb3f,657bb40e2dc0e6db413f2178,0.0404,0.0404,0,34,34,28,1,threeone,,,,,,,,,,,,,,,,,,,,,,,,,,,,,,,,,,,,,,,,,,,,,,,,,,,,,,,,,,,,,,,,,,,,,,,,,,,,,,,,,,,,,,,,,,,,,,,,,,,,,,,,,,,,,,,,,,,,,,,,,,,,,,,,,,,,,,,
,,61109ea3acfa60c696aa5bfe,2023-12-14_23h04.40.862,kallum_motion_pilot,2023.2.3,Win32,60.60606061,61109ea3acfa60c696aa5bfe,657bb317c8798c6608bceb3f,657bb40e2dc0e6db413f2178,0.0407,0.0407,0,35,35,146,1,sixfive,,,,,,,,,,,,,,,,,,,,,,,,,,,,,,,,,,,,,,,,,,,,,,,,,,,,,,,,,,,,,,,,,,,,,,,,,,,,,,,,,,,,,,,,,,,,,,,,,,,,,,,,,,,,,,,,,,,,,,,,,,,,,,,,,,,,,,,
,,61109ea3acfa60c696aa5bfe,2023-12-14_23h04.40.862,kallum_motion_pilot,2023.2.3,Win32,60.60606061,61109ea3acfa60c696aa5bfe,657bb317c8798c6608bceb3f,657bb40e2dc0e6db413f2178,0.0407,0.0409,0,36,36,152,1,fivesix,,,,,,,,,,,,,,,,,,,,,,,,,,,,,,,,,,,,,,,,,,,,,,,,,,,,,,,,,,,,,,,,,,,,,,,,,,,,,,,,,,,,,,,,,,,,,,,,,,,,,,,,,,,,,,,,,,,,,,,,,,,,,,,,,,,,,,,
,,61109ea3acfa60c696aa5bfe,2023-12-14_23h04.40.862,kallum_motion_pilot,2023.2.3,Win32,60.60606061,61109ea3acfa60c696aa5bfe,657bb317c8798c6608bceb3f,657bb40e2dc0e6db413f2178,0.041,0.041,0,37,37,99,1,sixeight,,,,,,,,,,,,,,,,,,,,,,,,,,,,,,,,,,,,,,,,,,,,,,,,,,,,,,,,,,,,,,,,,,,,,,,,,,,,,,,,,,,,,,,,,,,,,,,,,,,,,,,,,,,,,,,,,,,,,,,,,,,,,,,,,,,,,,,
,,61109ea3acfa60c696aa5bfe,2023-12-14_23h04.40.862,kallum_motion_pilot,2023.2.3,Win32,60.60606061,61109ea3acfa60c696aa5bfe,657bb317c8798c6608bceb3f,657bb40e2dc0e6db413f2178,0.0411,0.0412,0,38,38,37,1,threefour,,,,,,,,,,,,,,,,,,,,,,,,,,,,,,,,,,,,,,,,,,,,,,,,,,,,,,,,,,,,,,,,,,,,,,,,,,,,,,,,,,,,,,,,,,,,,,,,,,,,,,,,,,,,,,,,,,,,,,,,,,,,,,,,,,,,,,,
,,61109ea3acfa60c696aa5bfe,2023-12-14_23h04.40.862,kallum_motion_pilot,2023.2.3,Win32,60.60606061,61109ea3acfa60c696aa5bfe,657bb317c8798c6608bceb3f,657bb40e2dc0e6db413f2178,0.0412,0.0413,0,39,39,50,1,twoone,,,,,,,,,,,,,,,,,,,,,,,,,,,,,,,,,,,,,,,,,,,,,,,,,,,,,,,,,,,,,,,,,,,,,,,,,,,,,,,,,,,,,,,,,,,,,,,,,,,,,,,,,,,,,,,,,,,,,,,,,,,,,,,,,,,,,,,
,,61109ea3acfa60c696aa5bfe,2023-12-14_23h04.40.862,kallum_motion_pilot,2023.2.3,Win32,60.60606061,61109ea3acfa60c696aa5bfe,657bb317c8798c6608bceb3f,657bb40e2dc0e6db413f2178,0.0414,0.0414,0,40,40,115,1,sixeight,,,,,,,,,,,,,,,,,,,,,,,,,,,,,,,,,,,,,,,,,,,,,,,,,,,,,,,,,,,,,,,,,,,,,,,,,,,,,,,,,,,,,,,,,,,,,,,,,,,,,,,,,,,,,,,,,,,,,,,,,,,,,,,,,,,,,,,
,,61109ea3acfa60c696aa5bfe,2023-12-14_23h04.40.862,kallum_motion_pilot,2023.2.3,Win32,60.60606061,61109ea3acfa60c696aa5bfe,657bb317c8798c6608bceb3f,657bb40e2dc0e6db413f2178,0.0415,0.0415,0,41,41,161,1,fiveseven,,,,,,,,,,,,,,,,,,,,,,,,,,,,,,,,,,,,,,,,,,,,,,,,,,,,,,,,,,,,,,,,,,,,,,,,,,,,,,,,,,,,,,,,,,,,,,,,,,,,,,,,,,,,,,,,,,,,,,,,,,,,,,,,,,,,,,,
,,61109ea3acfa60c696aa5bfe,2023-12-14_23h04.40.862,kallum_motion_pilot,2023.2.3,Win32,60.60606061,61109ea3acfa60c696aa5bfe,657bb317c8798c6608bceb3f,657bb40e2dc0e6db413f2178,0.0417,0.0418,0,42,42,16,1,onetwo,,,,,,,,,,,,,,,,,,,,,,,,,,,,,,,,,,,,,,,,,,,,,,,,,,,,,,,,,,,,,,,,,,,,,,,,,,,,,,,,,,,,,,,,,,,,,,,,,,,,,,,,,,,,,,,,,,,,,,,,,,,,,,,,,,,,,,,
,,61109ea3acfa60c696aa5bfe,2023-12-14_23h04.40.862,kallum_motion_pilot,2023.2.3,Win32,60.60606061,61109ea3acfa60c696aa5bfe,657bb317c8798c6608bceb3f,657bb40e2dc0e6db413f2178,0.0418,0.0419,0,43,43,20,1,threeone,,,,,,,,,,,,,,,,,,,,,,,,,,,,,,,,,,,,,,,,,,,,,,,,,,,,,,,,,,,,,,,,,,,,,,,,,,,,,,,,,,,,,,,,,,,,,,,,,,,,,,,,,,,,,,,,,,,,,,,,,,,,,,,,,,,,,,,
,,61109ea3acfa60c696aa5bfe,2023-12-14_23h04.40.862,kallum_motion_pilot,2023.2.3,Win32,60.60606061,61109ea3acfa60c696aa5bfe,657bb317c8798c6608bceb3f,657bb40e2dc0e6db413f2178,0.042,0.0421,0,44,44,150,1,eightsix,,,,,,,,,,,,,,,,,,,,,,,,,,,,,,,,,,,,,,,,,,,,,,,,,,,,,,,,,,,,,,,,,,,,,,,,,,,,,,,,,,,,,,,,,,,,,,,,,,,,,,,,,,,,,,,,,,,,,,,,,,,,,,,,,,,,,,,
,,61109ea3acfa60c696aa5bfe,2023-12-14_23h04.40.862,kallum_motion_pilot,2023.2.3,Win32,60.60606061,61109ea3acfa60c696aa5bfe,657bb317c8798c6608bceb3f,657bb40e2dc0e6db413f2178,0.0422,0.0422,0,45,45,71,1,fourthree,,,,,,,,,,,,,,,,,,,,,,,,,,,,,,,,,,,,,,,,,,,,,,,,,,,,,,,,,,,,,,,,,,,,,,,,,,,,,,,,,,,,,,,,,,,,,,,,,,,,,,,,,,,,,,,,,,,,,,,,,,,,,,,,,,,,,,,
,,61109ea3acfa60c696aa5bfe,2023-12-14_23h04.40.862,kallum_motion_pilot,2023.2.3,Win32,60.60606061,61109ea3acfa60c696aa5bfe,657bb317c8798c6608bceb3f,657bb40e2dc0e6db413f2178,0.0424,0.0424,0,46,46,49,1,onethree,,,,,,,,,,,,,,,,,,,,,,,,,,,,,,,,,,,,,,,,,,,,,,,,,,,,,,,,,,,,,,,,,,,,,,,,,,,,,,,,,,,,,,,,,,,,,,,,,,,,,,,,,,,,,,,,,,,,,,,,,,,,,,,,,,,,,,,
,,61109ea3acfa60c696aa5bfe,2023-12-14_23h04.40.862,kallum_motion_pilot,2023.2.3,Win32,60.60606061,61109ea3acfa60c696aa5bfe,657bb317c8798c6608bceb3f,657bb40e2dc0e6db413f2178,0.0425,0.0426,0,47,47,88,1,fivesix,,,,,,,,,,,,,,,,,,,,,,,,,,,,,,,,,,,,,,,,,,,,,,,,,,,,,,,,,,,,,,,,,,,,,,,,,,,,,,,,,,,,,,,,,,,,,,,,,,,,,,,,,,,,,,,,,,,,,,,,,,,,,,,,,,,,,,,
,,61109ea3acfa60c696aa5bfe,2023-12-14_23h04.40.862,kallum_motion_pilot,2023.2.3,Win32,60.60606061,61109ea3acfa60c696aa5bfe,657bb317c8798c6608bceb3f,657bb40e2dc0e6db413f2178,0.0426,0.0426,0,48,48,94,1,eightsix,,,,,,,,,,,,,,,,,,,,,,,,,,,,,,,,,,,,,,,,,,,,,,,,,,,,,,,,,,,,,,,,,,,,,,,,,,,,,,,,,,,,,,,,,,,,,,,,,,,,,,,,,,,,,,,,,,,,,,,,,,,,,,,,,,,,,,,
,,61109ea3acfa60c696aa5bfe,2023-12-14_23h04.40.862,kallum_motion_pilot,2023.2.3,Win32,60.60606061,61109ea3acfa60c696aa5bfe,657bb317c8798c6608bceb3f,657bb40e2dc0e6db413f2178,0.0428,0.0428,0,49,49,86,1,eightsix,,,,,,,,,,,,,,,,,,,,,,,,,,,,,,,,,,,,,,,,,,,,,,,,,,,,,,,,,,,,,,,,,,,,,,,,,,,,,,,,,,,,,,,,,,,,,,,,,,,,,,,,,,,,,,,,,,,,,,,,,,,,,,,,,,,,,,,
,,61109ea3acfa60c696aa5bfe,2023-12-14_23h04.40.862,kallum_motion_pilot,2023.2.3,Win32,60.60606061,61109ea3acfa60c696aa5bfe,657bb317c8798c6608bceb3f,657bb40e2dc0e6db413f2178,0.0429,0.0429,0,50,50,64,1,onetwo,,,,,,,,,,,,,,,,,,,,,,,,,,,,,,,,,,,,,,,,,,,,,,,,,,,,,,,,,,,,,,,,,,,,,,,,,,,,,,,,,,,,,,,,,,,,,,,,,,,,,,,,,,,,,,,,,,,,,,,,,,,,,,,,,,,,,,,
,,61109ea3acfa60c696aa5bfe,2023-12-14_23h04.40.862,kallum_motion_pilot,2023.2.3,Win32,60.60606061,61109ea3acfa60c696aa5bfe,657bb317c8798c6608bceb3f,657bb40e2dc0e6db413f2178,0.0431,0.0432,0,51,51,0,1,onetwo,,,,,,,,,,,,,,,,,,,,,,,,,,,,,,,,,,,,,,,,,,,,,,,,,,,,,,,,,,,,,,,,,,,,,,,,,,,,,,,,,,,,,,,,,,,,,,,,,,,,,,,,,,,,,,,,,,,,,,,,,,,,,,,,,,,,,,,
,,61109ea3acfa60c696aa5bfe,2023-12-14_23h04.40.862,kallum_motion_pilot,2023.2.3,Win32,60.60606061,61109ea3acfa60c696aa5bfe,657bb317c8798c6608bceb3f,657bb40e2dc0e6db413f2178,0.0432,0.0432,0,52,52,9,1,onethree,,,,,,,,,,,,,,,,,,,,,,,,,,,,,,,,,,,,,,,,,,,,,,,,,,,,,,,,,,,,,,,,,,,,,,,,,,,,,,,,,,,,,,,,,,,,,,,,,,,,,,,,,,,,,,,,,,,,,,,,,,,,,,,,,,,,,,,
,,61109ea3acfa60c696aa5bfe,2023-12-14_23h04.40.862,kallum_motion_pilot,2023.2.3,Win32,60.60606061,61109ea3acfa60c696aa5bfe,657bb317c8798c6608bceb3f,657bb40e2dc0e6db413f2178,0.0433,0.0434,0,53,53,47,1,fourthree,,,,,,,,,,,,,,,,,,,,,,,,,,,,,,,,,,,,,,,,,,,,,,,,,,,,,,,,,,,,,,,,,,,,,,,,,,,,,,,,,,,,,,,,,,,,,,,,,,,,,,,,,,,,,,,,,,,,,,,,,,,,,,,,,,,,,,,
,,61109ea3acfa60c696aa5bfe,2023-12-14_23h04.40.862,kallum_motion_pilot,2023.2.3,Win32,60.60606061,61109ea3acfa60c696aa5bfe,657bb317c8798c6608bceb3f,657bb40e2dc0e6db413f2178,0.0438,0.0438,0,54,54,147,1,sixeight,,,,,,,,,,,,,,,,,,,,,,,,,,,,,,,,,,,,,,,,,,,,,,,,,,,,,,,,,,,,,,,,,,,,,,,,,,,,,,,,,,,,,,,,,,,,,,,,,,,,,,,,,,,,,,,,,,,,,,,,,,,,,,,,,,,,,,,
,,61109ea3acfa60c696aa5bfe,2023-12-14_23h04.40.862,kallum_motion_pilot,2023.2.3,Win32,60.60606061,61109ea3acfa60c696aa5bfe,657bb317c8798c6608bceb3f,657bb40e2dc0e6db413f2178,0.0441,0.0441,0,55,55,34,1,twoone,,,,,,,,,,,,,,,,,,,,,,,,,,,,,,,,,,,,,,,,,,,,,,,,,,,,,,,,,,,,,,,,,,,,,,,,,,,,,,,,,,,,,,,,,,,,,,,,,,,,,,,,,,,,,,,,,,,,,,,,,,,,,,,,,,,,,,,
,,61109ea3acfa60c696aa5bfe,2023-12-14_23h04.40.862,kallum_motion_pilot,2023.2.3,Win32,60.60606061,61109ea3acfa60c696aa5bfe,657bb317c8798c6608bceb3f,657bb40e2dc0e6db413f2178,0.0443,0.0444,0,56,56,134,1,eightsix,,,,,,,,,,,,,,,,,,,,,,,,,,,,,,,,,,,,,,,,,,,,,,,,,,,,,,,,,,,,,,,,,,,,,,,,,,,,,,,,,,,,,,,,,,,,,,,,,,,,,,,,,,,,,,,,,,,,,,,,,,,,,,,,,,,,,,,
,,61109ea3acfa60c696aa5bfe,2023-12-14_23h04.40.862,kallum_motion_pilot,2023.2.3,Win32,60.60606061,61109ea3acfa60c696aa5bfe,657bb317c8798c6608bceb3f,657bb40e2dc0e6db413f2178,0.0445,0.0447,0,57,57,83,1,sixeight,,,,,,,,,,,,,,,,,,,,,,,,,,,,,,,,,,,,,,,,,,,,,,,,,,,,,,,,,,,,,,,,,,,,,,,,,,,,,,,,,,,,,,,,,,,,,,,,,,,,,,,,,,,,,,,,,,,,,,,,,,,,,,,,,,,,,,,
,,61109ea3acfa60c696aa5bfe,2023-12-14_23h04.40.862,kallum_motion_pilot,2023.2.3,Win32,60.60606061,61109ea3acfa60c696aa5bfe,657bb317c8798c6608bceb3f,657bb40e2dc0e6db413f2178,0.0448,0.0448,0,58,58,62,1,fourtwo,,,,,,,,,,,,,,,,,,,,,,,,,,,,,,,,,,,,,,,,,,,,,,,,,,,,,,,,,,,,,,,,,,,,,,,,,,,,,,,,,,,,,,,,,,,,,,,,,,,,,,,,,,,,,,,,,,,,,,,,,,,,,,,,,,,,,,,
,,61109ea3acfa60c696aa5bfe,2023-12-14_23h04.40.862,kallum_motion_pilot,2023.2.3,Win32,60.60606061,61109ea3acfa60c696aa5bfe,657bb317c8798c6608bceb3f,657bb40e2dc0e6db413f2178,0.0451,0.0451,0,59,59,65,1,onethree,,,,,,,,,,,,,,,,,,,,,,,,,,,,,,,,,,,,,,,,,,,,,,,,,,,,,,,,,,,,,,,,,,,,,,,,,,,,,,,,,,,,,,,,,,,,,,,,,,,,,,,,,,,,,,,,,,,,,,,,,,,,,,,,,,,,,,,
,,61109ea3acfa60c696aa5bfe,2023-12-14_23h04.40.862,kallum_motion_pilot,2023.2.3,Win32,60.60606061,61109ea3acfa60c696aa5bfe,657bb317c8798c6608bceb3f,657bb40e2dc0e6db413f2178,0.0454,0.0454,0,60,60,15,1,fourthree,,,,,,,,,,,,,,,,,,,,,,,,,,,,,,,,,,,,,,,,,,,,,,,,,,,,,,,,,,,,,,,,,,,,,,,,,,,,,,,,,,,,,,,,,,,,,,,,,,,,,,,,,,,,,,,,,,,,,,,,,,,,,,,,,,,,,,,
,,61109ea3acfa60c696aa5bfe,2023-12-14_23h04.40.862,kallum_motion_pilot,2023.2.3,Win32,60.60606061,61109ea3acfa60c696aa5bfe,657bb317c8798c6608bceb3f,657bb40e2dc0e6db413f2178,0.0456,0.0457,0,61,61,36,1,threeone,,,,,,,,,,,,,,,,,,,,,,,,,,,,,,,,,,,,,,,,,,,,,,,,,,,,,,,,,,,,,,,,,,,,,,,,,,,,,,,,,,,,,,,,,,,,,,,,,,,,,,,,,,,,,,,,,,,,,,,,,,,,,,,,,,,,,,,
,,61109ea3acfa60c696aa5bfe,2023-12-14_23h04.40.862,kallum_motion_pilot,2023.2.3,Win32,60.60606061,61109ea3acfa60c696aa5bfe,657bb317c8798c6608bceb3f,657bb40e2dc0e6db413f2178,0.0459,0.0459,0,62,62,25,1,onethree,,,,,,,,,,,,,,,,,,,,,,,,,,,,,,,,,,,,,,,,,,,,,,,,,,,,,,,,,,,,,,,,,,,,,,,,,,,,,,,,,,,,,,,,,,,,,,,,,,,,,,,,,,,,,,,,,,,,,,,,,,,,,,,,,,,,,,,
,,61109ea3acfa60c696aa5bfe,2023-12-14_23h04.40.862,kallum_motion_pilot,2023.2.3,Win32,60.60606061,61109ea3acfa60c696aa5bfe,657bb317c8798c6608bceb3f,657bb40e2dc0e6db413f2178,0.0461,0.0462,0,63,63,19,1,twofour,,,,,,,,,,,,,,,,,,,,,,,,,,,,,,,,,,,,,,,,,,,,,,,,,,,,,,,,,,,,,,,,,,,,,,,,,,,,,,,,,,,,,,,,,,,,,,,,,,,,,,,,,,,,,,,,,,,,,,,,,,,,,,,,,,,,,,,
,,61109ea3acfa60c696aa5bfe,2023-12-14_23h04.40.862,kallum_motion_pilot,2023.2.3,Win32,60.60606061,61109ea3acfa60c696aa5bfe,657bb317c8798c6608bceb3f,657bb40e2dc0e6db413f2178,0.0464,0.0465,0,64,64,158,1,eightsix,,,,,,,,,,,,,,,,,,,,,,,,,,,,,,,,,,,,,,,,,,,,,,,,,,,,,,,,,,,,,,,,,,,,,,,,,,,,,,,,,,,,,,,,,,,,,,,,,,,,,,,,,,,,,,,,,,,,,,,,,,,,,,,,,,,,,,,
,,61109ea3acfa60c696aa5bfe,2023-12-14_23h04.40.862,kallum_motion_pilot,2023.2.3,Win32,60.60606061,61109ea3acfa60c696aa5bfe,657bb317c8798c6608bceb3f,657bb40e2dc0e6db413f2178,0.0467,0.0467,0,65,65,35,1,twofour,,,,,,,,,,,,,,,,,,,,,,,,,,,,,,,,,,,,,,,,,,,,,,,,,,,,,,,,,,,,,,,,,,,,,,,,,,,,,,,,,,,,,,,,,,,,,,,,,,,,,,,,,,,,,,,,,,,,,,,,,,,,,,,,,,,,,,,
,,61109ea3acfa60c696aa5bfe,2023-12-14_23h04.40.862,kallum_motion_pilot,2023.2.3,Win32,60.60606061,61109ea3acfa60c696aa5bfe,657bb317c8798c6608bceb3f,657bb40e2dc0e6db413f2178,0.0469,0.047,0,66,66,69,1,threefour,,,,,,,,,,,,,,,,,,,,,,,,,,,,,,,,,,,,,,,,,,,,,,,,,,,,,,,,,,,,,,,,,,,,,,,,,,,,,,,,,,,,,,,,,,,,,,,,,,,,,,,,,,,,,,,,,,,,,,,,,,,,,,,,,,,,,,,
,,61109ea3acfa60c696aa5bfe,2023-12-14_23h04.40.862,kallum_motion_pilot,2023.2.3,Win32,60.60606061,61109ea3acfa60c696aa5bfe,657bb317c8798c6608bceb3f,657bb40e2dc0e6db413f2178,0.0472,0.0473,0,67,67,58,1,twoone,,,,,,,,,,,,,,,,,,,,,,,,,,,,,,,,,,,,,,,,,,,,,,,,,,,,,,,,,,,,,,,,,,,,,,,,,,,,,,,,,,,,,,,,,,,,,,,,,,,,,,,,,,,,,,,,,,,,,,,,,,,,,,,,,,,,,,,
,,61109ea3acfa60c696aa5bfe,2023-12-14_23h04.40.862,kallum_motion_pilot,2023.2.3,Win32,60.60606061,61109ea3acfa60c696aa5bfe,657bb317c8798c6608bceb3f,657bb40e2dc0e6db413f2178,0.0476,0.0476,0,68,68,130,1,sixfive,,,,,,,,,,,,,,,,,,,,,,,,,,,,,,,,,,,,,,,,,,,,,,,,,,,,,,,,,,,,,,,,,,,,,,,,,,,,,,,,,,,,,,,,,,,,,,,,,,,,,,,,,,,,,,,,,,,,,,,,,,,,,,,,,,,,,,,
,,61109ea3acfa60c696aa5bfe,2023-12-14_23h04.40.862,kallum_motion_pilot,2023.2.3,Win32,60.60606061,61109ea3acfa60c696aa5bfe,657bb317c8798c6608bceb3f,657bb40e2dc0e6db413f2178,0.0477,0.0478,0,69,69,142,1,eightsix,,,,,,,,,,,,,,,,,,,,,,,,,,,,,,,,,,,,,,,,,,,,,,,,,,,,,,,,,,,,,,,,,,,,,,,,,,,,,,,,,,,,,,,,,,,,,,,,,,,,,,,,,,,,,,,,,,,,,,,,,,,,,,,,,,,,,,,
,,61109ea3acfa60c696aa5bfe,2023-12-14_23h04.40.862,kallum_motion_pilot,2023.2.3,Win32,60.60606061,61109ea3acfa60c696aa5bfe,657bb317c8798c6608bceb3f,657bb40e2dc0e6db413f2178,0.0479,0.048,0,70,70,10,1,twoone,,,,,,,,,,,,,,,,,,,,,,,,,,,,,,,,,,,,,,,,,,,,,,,,,,,,,,,,,,,,,,,,,,,,,,,,,,,,,,,,,,,,,,,,,,,,,,,,,,,,,,,,,,,,,,,,,,,,,,,,,,,,,,,,,,,,,,,
,,61109ea3acfa60c696aa5bfe,2023-12-14_23h04.40.862,kallum_motion_pilot,2023.2.3,Win32,60.60606061,61109ea3acfa60c696aa5bfe,657bb317c8798c6608bceb3f,657bb40e2dc0e6db413f2178,0.048,0.048,0,71,71,38,1,fourtwo,,,,,,,,,,,,,,,,,,,,,,,,,,,,,,,,,,,,,,,,,,,,,,,,,,,,,,,,,,,,,,,,,,,,,,,,,,,,,,,,,,,,,,,,,,,,,,,,,,,,,,,,,,,,,,,,,,,,,,,,,,,,,,,,,,,,,,,
,,61109ea3acfa60c696aa5bfe,2023-12-14_23h04.40.862,kallum_motion_pilot,2023.2.3,Win32,60.60606061,61109ea3acfa60c696aa5bfe,657bb317c8798c6608bceb3f,657bb40e2dc0e6db413f2178,0.0482,0.0483,0,72,72,149,1,seveneight,,,,,,,,,,,,,,,,,,,,,,,,,,,,,,,,,,,,,,,,,,,,,,,,,,,,,,,,,,,,,,,,,,,,,,,,,,,,,,,,,,,,,,,,,,,,,,,,,,,,,,,,,,,,,,,,,,,,,,,,,,,,,,,,,,,,,,,
,,61109ea3acfa60c696aa5bfe,2023-12-14_23h04.40.862,kallum_motion_pilot,2023.2.3,Win32,60.60606061,61109ea3acfa60c696aa5bfe,657bb317c8798c6608bceb3f,657bb40e2dc0e6db413f2178,0.0484,0.0485,0,73,73,157,1,seveneight,,,,,,,,,,,,,,,,,,,,,,,,,,,,,,,,,,,,,,,,,,,,,,,,,,,,,,,,,,,,,,,,,,,,,,,,,,,,,,,,,,,,,,,,,,,,,,,,,,,,,,,,,,,,,,,,,,,,,,,,,,,,,,,,,,,,,,,
,,61109ea3acfa60c696aa5bfe,2023-12-14_23h04.40.862,kallum_motion_pilot,2023.2.3,Win32,60.60606061,61109ea3acfa60c696aa5bfe,657bb317c8798c6608bceb3f,657bb40e2dc0e6db413f2178,0.0485,0.0485,0,74,74,30,1,fourtwo,,,,,,,,,,,,,,,,,,,,,,,,,,,,,,,,,,,,,,,,,,,,,,,,,,,,,,,,,,,,,,,,,,,,,,,,,,,,,,,,,,,,,,,,,,,,,,,,,,,,,,,,,,,,,,,,,,,,,,,,,,,,,,,,,,,,,,,
,,61109ea3acfa60c696aa5bfe,2023-12-14_23h04.40.862,kallum_motion_pilot,2023.2.3,Win32,60.60606061,61109ea3acfa60c696aa5bfe,657bb317c8798c6608bceb3f,657bb40e2dc0e6db413f2178,0.0487,0.0487,0,75,75,60,1,threeone,,,,,,,,,,,,,,,,,,,,,,,,,,,,,,,,,,,,,,,,,,,,,,,,,,,,,,,,,,,,,,,,,,,,,,,,,,,,,,,,,,,,,,,,,,,,,,,,,,,,,,,,,,,,,,,,,,,,,,,,,,,,,,,,,,,,,,,
,,61109ea3acfa60c696aa5bfe,2023-12-14_23h04.40.862,kallum_motion_pilot,2023.2.3,Win32,60.60606061,61109ea3acfa60c696aa5bfe,657bb317c8798c6608bceb3f,657bb40e2dc0e6db413f2178,0.0489,0.0489,0,76,76,116,1,sevenfive,,,,,,,,,,,,,,,,,,,,,,,,,,,,,,,,,,,,,,,,,,,,,,,,,,,,,,,,,,,,,,,,,,,,,,,,,,,,,,,,,,,,,,,,,,,,,,,,,,,,,,,,,,,,,,,,,,,,,,,,,,,,,,,,,,,,,,,
,,61109ea3acfa60c696aa5bfe,2023-12-14_23h04.40.862,kallum_motion_pilot,2023.2.3,Win32,60.60606061,61109ea3acfa60c696aa5bfe,657bb317c8798c6608bceb3f,657bb40e2dc0e6db413f2178,0.049,0.049,0,77,77,68,1,threeone,,,,,,,,,,,,,,,,,,,,,,,,,,,,,,,,,,,,,,,,,,,,,,,,,,,,,,,,,,,,,,,,,,,,,,,,,,,,,,,,,,,,,,,,,,,,,,,,,,,,,,,,,,,,,,,,,,,,,,,,,,,,,,,,,,,,,,,
,,61109ea3acfa60c696aa5bfe,2023-12-14_23h04.40.862,kallum_motion_pilot,2023.2.3,Win32,60.60606061,61109ea3acfa60c696aa5bfe,657bb317c8798c6608bceb3f,657bb40e2dc0e6db413f2178,0.0492,0.0493,0,78,78,159,1,eightseven,,,,,,,,,,,,,,,,,,,,,,,,,,,,,,,,,,,,,,,,,,,,,,,,,,,,,,,,,,,,,,,,,,,,,,,,,,,,,,,,,,,,,,,,,,,,,,,,,,,,,,,,,,,,,,,,,,,,,,,,,,,,,,,,,,,,,,,
,,61109ea3acfa60c696aa5bfe,2023-12-14_23h04.40.862,kallum_motion_pilot,2023.2.3,Win32,60.60606061,61109ea3acfa60c696aa5bfe,657bb317c8798c6608bceb3f,657bb40e2dc0e6db413f2178,0.0494,0.0495,0,79,79,101,1,seveneight,,,,,,,,,,,,,,,,,,,,,,,,,,,,,,,,,,,,,,,,,,,,,,,,,,,,,,,,,,,,,,,,,,,,,,,,,,,,,,,,,,,,,,,,,,,,,,,,,,,,,,,,,,,,,,,,,,,,,,,,,,,,,,,,,,,,,,,
,,61109ea3acfa60c696aa5bfe,2023-12-14_23h04.40.862,kallum_motion_pilot,2023.2.3,Win32,60.60606061,61109ea3acfa60c696aa5bfe,657bb317c8798c6608bceb3f,657bb40e2dc0e6db413f2178,0.0496,0.0496,0,80,80,33,1,onethree,,,,,,,,,,,,,,,,,,,,,,,,,,,,,,,,,,,,,,,,,,,,,,,,,,,,,,,,,,,,,,,,,,,,,,,,,,,,,,,,,,,,,,,,,,,,,,,,,,,,,,,,,,,,,,,,,,,,,,,,,,,,,,,,,,,,,,,
,,61109ea3acfa60c696aa5bfe,2023-12-14_23h04.40.862,kallum_motion_pilot,2023.2.3,Win32,60.60606061,61109ea3acfa60c696aa5bfe,657bb317c8798c6608bceb3f,657bb40e2dc0e6db413f2178,0.0497,0.0498,0,81,81,102,1,eightsix,,,,,,,,,,,,,,,,,,,,,,,,,,,,,,,,,,,,,,,,,,,,,,,,,,,,,,,,,,,,,,,,,,,,,,,,,,,,,,,,,,,,,,,,,,,,,,,,,,,,,,,,,,,,,,,,,,,,,,,,,,,,,,,,,,,,,,,
,,61109ea3acfa60c696aa5bfe,2023-12-14_23h04.40.862,kallum_motion_pilot,2023.2.3,Win32,60.60606061,61109ea3acfa60c696aa5bfe,657bb317c8798c6608bceb3f,657bb40e2dc0e6db413f2178,0.0499,0.0499,0,82,82,154,1,sixfive,,,,,,,,,,,,,,,,,,,,,,,,,,,,,,,,,,,,,,,,,,,,,,,,,,,,,,,,,,,,,,,,,,,,,,,,,,,,,,,,,,,,,,,,,,,,,,,,,,,,,,,,,,,,,,,,,,,,,,,,,,,,,,,,,,,,,,,
,,61109ea3acfa60c696aa5bfe,2023-12-14_23h04.40.862,kallum_motion_pilot,2023.2.3,Win32,60.60606061,61109ea3acfa60c696aa5bfe,657bb317c8798c6608bceb3f,657bb40e2dc0e6db413f2178,0.05,0.0501,0,83,83,45,1,threefour,,,,,,,,,,,,,,,,,,,,,,,,,,,,,,,,,,,,,,,,,,,,,,,,,,,,,,,,,,,,,,,,,,,,,,,,,,,,,,,,,,,,,,,,,,,,,,,,,,,,,,,,,,,,,,,,,,,,,,,,,,,,,,,,,,,,,,,
,,61109ea3acfa60c696aa5bfe,2023-12-14_23h04.40.862,kallum_motion_pilot,2023.2.3,Win32,60.60606061,61109ea3acfa60c696aa5bfe,657bb317c8798c6608bceb3f,657bb40e2dc0e6db413f2178,0.0503,0.0503,0,84,84,3,1,twofour,,,,,,,,,,,,,,,,,,,,,,,,,,,,,,,,,,,,,,,,,,,,,,,,,,,,,,,,,,,,,,,,,,,,,,,,,,,,,,,,,,,,,,,,,,,,,,,,,,,,,,,,,,,,,,,,,,,,,,,,,,,,,,,,,,,,,,,
,,61109ea3acfa60c696aa5bfe,2023-12-14_23h04.40.862,kallum_motion_pilot,2023.2.3,Win32,60.60606061,61109ea3acfa60c696aa5bfe,657bb317c8798c6608bceb3f,657bb40e2dc0e6db413f2178,0.0504,0.0504,0,85,85,91,1,sixeight,,,,,,,,,,,,,,,,,,,,,,,,,,,,,,,,,,,,,,,,,,,,,,,,,,,,,,,,,,,,,,,,,,,,,,,,,,,,,,,,,,,,,,,,,,,,,,,,,,,,,,,,,,,,,,,,,,,,,,,,,,,,,,,,,,,,,,,
,,61109ea3acfa60c696aa5bfe,2023-12-14_23h04.40.862,kallum_motion_pilot,2023.2.3,Win32,60.60606061,61109ea3acfa60c696aa5bfe,657bb317c8798c6608bceb3f,657bb40e2dc0e6db413f2178,0.0506,0.0506,0,86,86,125,1,seveneight,,,,,,,,,,,,,,,,,,,,,,,,,,,,,,,,,,,,,,,,,,,,,,,,,,,,,,,,,,,,,,,,,,,,,,,,,,,,,,,,,,,,,,,,,,,,,,,,,,,,,,,,,,,,,,,,,,,,,,,,,,,,,,,,,,,,,,,
,,61109ea3acfa60c696aa5bfe,2023-12-14_23h04.40.862,kallum_motion_pilot,2023.2.3,Win32,60.60606061,61109ea3acfa60c696aa5bfe,657bb317c8798c6608bceb3f,657bb40e2dc0e6db413f2178,0.0508,0.0508,0,87,87,137,1,fiveseven,,,,,,,,,,,,,,,,,,,,,,,,,,,,,,,,,,,,,,,,,,,,,,,,,,,,,,,,,,,,,,,,,,,,,,,,,,,,,,,,,,,,,,,,,,,,,,,,,,,,,,,,,,,,,,,,,,,,,,,,,,,,,,,,,,,,,,,
,,61109ea3acfa60c696aa5bfe,2023-12-14_23h04.40.862,kallum_motion_pilot,2023.2.3,Win32,60.60606061,61109ea3acfa60c696aa5bfe,657bb317c8798c6608bceb3f,657bb40e2dc0e6db413f2178,0.0511,0.0511,0,88,88,112,1,fivesix,,,,,,,,,,,,,,,,,,,,,,,,,,,,,,,,,,,,,,,,,,,,,,,,,,,,,,,,,,,,,,,,,,,,,,,,,,,,,,,,,,,,,,,,,,,,,,,,,,,,,,,,,,,,,,,,,,,,,,,,,,,,,,,,,,,,,,,
,,61109ea3acfa60c696aa5bfe,2023-12-14_23h04.40.862,kallum_motion_pilot,2023.2.3,Win32,60.60606061,61109ea3acfa60c696aa5bfe,657bb317c8798c6608bceb3f,657bb40e2dc0e6db413f2178,0.0512,0.0513,0,89,89,141,1,seveneight,,,,,,,,,,,,,,,,,,,,,,,,,,,,,,,,,,,,,,,,,,,,,,,,,,,,,,,,,,,,,,,,,,,,,,,,,,,,,,,,,,,,,,,,,,,,,,,,,,,,,,,,,,,,,,,,,,,,,,,,,,,,,,,,,,,,,,,
,,61109ea3acfa60c696aa5bfe,2023-12-14_23h04.40.862,kallum_motion_pilot,2023.2.3,Win32,60.60606061,61109ea3acfa60c696aa5bfe,657bb317c8798c6608bceb3f,657bb40e2dc0e6db413f2178,0.0514,0.0514,0,90,90,129,1,fiveseven,,,,,,,,,,,,,,,,,,,,,,,,,,,,,,,,,,,,,,,,,,,,,,,,,,,,,,,,,,,,,,,,,,,,,,,,,,,,,,,,,,,,,,,,,,,,,,,,,,,,,,,,,,,,,,,,,,,,,,,,,,,,,,,,,,,,,,,
,,61109ea3acfa60c696aa5bfe,2023-12-14_23h04.40.862,kallum_motion_pilot,2023.2.3,Win32,60.60606061,61109ea3acfa60c696aa5bfe,657bb317c8798c6608bceb3f,657bb40e2dc0e6db413f2178,0.0516,0.0517,0,91,91,95,1,eightseven,,,,,,,,,,,,,,,,,,,,,,,,,,,,,,,,,,,,,,,,,,,,,,,,,,,,,,,,,,,,,,,,,,,,,,,,,,,,,,,,,,,,,,,,,,,,,,,,,,,,,,,,,,,,,,,,,,,,,,,,,,,,,,,,,,,,,,,
,,61109ea3acfa60c696aa5bfe,2023-12-14_23h04.40.862,kallum_motion_pilot,2023.2.3,Win32,60.60606061,61109ea3acfa60c696aa5bfe,657bb317c8798c6608bceb3f,657bb40e2dc0e6db413f2178,0.0518,0.0519,0,92,92,110,1,eightsix,,,,,,,,,,,,,,,,,,,,,,,,,,,,,,,,,,,,,,,,,,,,,,,,,,,,,,,,,,,,,,,,,,,,,,,,,,,,,,,,,,,,,,,,,,,,,,,,,,,,,,,,,,,,,,,,,,,,,,,,,,,,,,,,,,,,,,,
,,61109ea3acfa60c696aa5bfe,2023-12-14_23h04.40.862,kallum_motion_pilot,2023.2.3,Win32,60.60606061,61109ea3acfa60c696aa5bfe,657bb317c8798c6608bceb3f,657bb40e2dc0e6db413f2178,0.052,0.052,0,93,93,56,1,onetwo,,,,,,,,,,,,,,,,,,,,,,,,,,,,,,,,,,,,,,,,,,,,,,,,,,,,,,,,,,,,,,,,,,,,,,,,,,,,,,,,,,,,,,,,,,,,,,,,,,,,,,,,,,,,,,,,,,,,,,,,,,,,,,,,,,,,,,,
,,61109ea3acfa60c696aa5bfe,2023-12-14_23h04.40.862,kallum_motion_pilot,2023.2.3,Win32,60.60606061,61109ea3acfa60c696aa5bfe,657bb317c8798c6608bceb3f,657bb40e2dc0e6db413f2178,0.0522,0.0526,0,94,94,55,1,fourthree,,,,,,,,,,,,,,,,,,,,,,,,,,,,,,,,,,,,,,,,,,,,,,,,,,,,,,,,,,,,,,,,,,,,,,,,,,,,,,,,,,,,,,,,,,,,,,,,,,,,,,,,,,,,,,,,,,,,,,,,,,,,,,,,,,,,,,,
,,61109ea3acfa60c696aa5bfe,2023-12-14_23h04.40.862,kallum_motion_pilot,2023.2.3,Win32,60.60606061,61109ea3acfa60c696aa5bfe,657bb317c8798c6608bceb3f,657bb40e2dc0e6db413f2178,0.0528,0.0529,0,95,95,1,1,onethree,,,,,,,,,,,,,,,,,,,,,,,,,,,,,,,,,,,,,,,,,,,,,,,,,,,,,,,,,,,,,,,,,,,,,,,,,,,,,,,,,,,,,,,,,,,,,,,,,,,,,,,,,,,,,,,,,,,,,,,,,,,,,,,,,,,,,,,
,,61109ea3acfa60c696aa5bfe,2023-12-14_23h04.40.862,kallum_motion_pilot,2023.2.3,Win32,60.60606061,61109ea3acfa60c696aa5bfe,657bb317c8798c6608bceb3f,657bb40e2dc0e6db413f2178,0.0532,0.0532,0,96,96,17,1,onethree,,,,,,,,,,,,,,,,,,,,,,,,,,,,,,,,,,,,,,,,,,,,,,,,,,,,,,,,,,,,,,,,,,,,,,,,,,,,,,,,,,,,,,,,,,,,,,,,,,,,,,,,,,,,,,,,,,,,,,,,,,,,,,,,,,,,,,,
,,61109ea3acfa60c696aa5bfe,2023-12-14_23h04.40.862,kallum_motion_pilot,2023.2.3,Win32,60.60606061,61109ea3acfa60c696aa5bfe,657bb317c8798c6608bceb3f,657bb40e2dc0e6db413f2178,0.0535,0.0535,0,97,97,72,1,onetwo,,,,,,,,,,,,,,,,,,,,,,,,,,,,,,,,,,,,,,,,,,,,,,,,,,,,,,,,,,,,,,,,,,,,,,,,,,,,,,,,,,,,,,,,,,,,,,,,,,,,,,,,,,,,,,,,,,,,,,,,,,,,,,,,,,,,,,,
,,61109ea3acfa60c696aa5bfe,2023-12-14_23h04.40.862,kallum_motion_pilot,2023.2.3,Win32,60.60606061,61109ea3acfa60c696aa5bfe,657bb317c8798c6608bceb3f,657bb40e2dc0e6db413f2178,0.0537,0.0538,0,98,98,118,1,eightsix,,,,,,,,,,,,,,,,,,,,,,,,,,,,,,,,,,,,,,,,,,,,,,,,,,,,,,,,,,,,,,,,,,,,,,,,,,,,,,,,,,,,,,,,,,,,,,,,,,,,,,,,,,,,,,,,,,,,,,,,,,,,,,,,,,,,,,,
,,61109ea3acfa60c696aa5bfe,2023-12-14_23h04.40.862,kallum_motion_pilot,2023.2.3,Win32,60.60606061,61109ea3acfa60c696aa5bfe,657bb317c8798c6608bceb3f,657bb40e2dc0e6db413f2178,0.054,0.054,0,99,99,42,1,twoone,,,,,,,,,,,,,,,,,,,,,,,,,,,,,,,,,,,,,,,,,,,,,,,,,,,,,,,,,,,,,,,,,,,,,,,,,,,,,,,,,,,,,,,,,,,,,,,,,,,,,,,,,,,,,,,,,,,,,,,,,,,,,,,,,,,,,,,
,,61109ea3acfa60c696aa5bfe,2023-12-14_23h04.40.862,kallum_motion_pilot,2023.2.3,Win32,60.60606061,61109ea3acfa60c696aa5bfe,657bb317c8798c6608bceb3f,657bb40e2dc0e6db413f2178,0.0542,0.0542,0,100,100,132,1,sevenfive,,,,,,,,,,,,,,,,,,,,,,,,,,,,,,,,,,,,,,,,,,,,,,,,,,,,,,,,,,,,,,,,,,,,,,,,,,,,,,,,,,,,,,,,,,,,,,,,,,,,,,,,,,,,,,,,,,,,,,,,,,,,,,,,,,,,,,,
,,61109ea3acfa60c696aa5bfe,2023-12-14_23h04.40.862,kallum_motion_pilot,2023.2.3,Win32,60.60606061,61109ea3acfa60c696aa5bfe,657bb317c8798c6608bceb3f,657bb40e2dc0e6db413f2178,0.0543,0.0544,0,101,101,96,1,fivesix,,,,,,,,,,,,,,,,,,,,,,,,,,,,,,,,,,,,,,,,,,,,,,,,,,,,,,,,,,,,,,,,,,,,,,,,,,,,,,,,,,,,,,,,,,,,,,,,,,,,,,,,,,,,,,,,,,,,,,,,,,,,,,,,,,,,,,,
,,61109ea3acfa60c696aa5bfe,2023-12-14_23h04.40.862,kallum_motion_pilot,2023.2.3,Win32,60.60606061,61109ea3acfa60c696aa5bfe,657bb317c8798c6608bceb3f,657bb40e2dc0e6db413f2178,0.0545,0.0546,0,102,102,93,1,seveneight,,,,,,,,,,,,,,,,,,,,,,,,,,,,,,,,,,,,,,,,,,,,,,,,,,,,,,,,,,,,,,,,,,,,,,,,,,,,,,,,,,,,,,,,,,,,,,,,,,,,,,,,,,,,,,,,,,,,,,,,,,,,,,,,,,,,,,,
,,61109ea3acfa60c696aa5bfe,2023-12-14_23h04.40.862,kallum_motion_pilot,2023.2.3,Win32,60.60606061,61109ea3acfa60c696aa5bfe,657bb317c8798c6608bceb3f,657bb40e2dc0e6db413f2178,0.0547,0.0547,0,103,103,53,1,threefour,,,,,,,,,,,,,,,,,,,,,,,,,,,,,,,,,,,,,,,,,,,,,,,,,,,,,,,,,,,,,,,,,,,,,,,,,,,,,,,,,,,,,,,,,,,,,,,,,,,,,,,,,,,,,,,,,,,,,,,,,,,,,,,,,,,,,,,
,,61109ea3acfa60c696aa5bfe,2023-12-14_23h04.40.862,kallum_motion_pilot,2023.2.3,Win32,60.60606061,61109ea3acfa60c696aa5bfe,657bb317c8798c6608bceb3f,657bb40e2dc0e6db413f2178,0.0549,0.0549,0,104,104,160,1,fivesix,,,,,,,,,,,,,,,,,,,,,,,,,,,,,,,,,,,,,,,,,,,,,,,,,,,,,,,,,,,,,,,,,,,,,,,,,,,,,,,,,,,,,,,,,,,,,,,,,,,,,,,,,,,,,,,,,,,,,,,,,,,,,,,,,,,,,,,
,,61109ea3acfa60c696aa5bfe,2023-12-14_23h04.40.862,kallum_motion_pilot,2023.2.3,Win32,60.60606061,61109ea3acfa60c696aa5bfe,657bb317c8798c6608bceb3f,657bb40e2dc0e6db413f2178,0.055,0.0551,0,105,105,79,1,eightseven,,,,,,,,,,,,,,,,,,,,,,,,,,,,,,,,,,,,,,,,,,,,,,,,,,,,,,,,,,,,,,,,,,,,,,,,,,,,,,,,,,,,,,,,,,,,,,,,,,,,,,,,,,,,,,,,,,,,,,,,,,,,,,,,,,,,,,,
,,61109ea3acfa60c696aa5bfe,2023-12-14_23h04.40.862,kallum_motion_pilot,2023.2.3,Win32,60.60606061,61109ea3acfa60c696aa5bfe,657bb317c8798c6608bceb3f,657bb40e2dc0e6db413f2178,0.0553,0.0553,0,106,106,155,1,sixeight,,,,,,,,,,,,,,,,,,,,,,,,,,,,,,,,,,,,,,,,,,,,,,,,,,,,,,,,,,,,,,,,,,,,,,,,,,,,,,,,,,,,,,,,,,,,,,,,,,,,,,,,,,,,,,,,,,,,,,,,,,,,,,,,,,,,,,,
,,61109ea3acfa60c696aa5bfe,2023-12-14_23h04.40.862,kallum_motion_pilot,2023.2.3,Win32,60.60606061,61109ea3acfa60c696aa5bfe,657bb317c8798c6608bceb3f,657bb40e2dc0e6db413f2178,0.0554,0.0555,0,107,107,140,1,sevenfive,,,,,,,,,,,,,,,,,,,,,,,,,,,,,,,,,,,,,,,,,,,,,,,,,,,,,,,,,,,,,,,,,,,,,,,,,,,,,,,,,,,,,,,,,,,,,,,,,,,,,,,,,,,,,,,,,,,,,,,,,,,,,,,,,,,,,,,
,,61109ea3acfa60c696aa5bfe,2023-12-14_23h04.40.862,kallum_motion_pilot,2023.2.3,Win32,60.60606061,61109ea3acfa60c696aa5bfe,657bb317c8798c6608bceb3f,657bb40e2dc0e6db413f2178,0.0556,0.0557,0,108,108,82,1,sixfive,,,,,,,,,,,,,,,,,,,,,,,,,,,,,,,,,,,,,,,,,,,,,,,,,,,,,,,,,,,,,,,,,,,,,,,,,,,,,,,,,,,,,,,,,,,,,,,,,,,,,,,,,,,,,,,,,,,,,,,,,,,,,,,,,,,,,,,
,,61109ea3acfa60c696aa5bfe,2023-12-14_23h04.40.862,kallum_motion_pilot,2023.2.3,Win32,60.60606061,61109ea3acfa60c696aa5bfe,657bb317c8798c6608bceb3f,657bb40e2dc0e6db413f2178,0.0559,0.056,0,109,109,26,1,twoone,,,,,,,,,,,,,,,,,,,,,,,,,,,,,,,,,,,,,,,,,,,,,,,,,,,,,,,,,,,,,,,,,,,,,,,,,,,,,,,,,,,,,,,,,,,,,,,,,,,,,,,,,,,,,,,,,,,,,,,,,,,,,,,,,,,,,,,
,,61109ea3acfa60c696aa5bfe,2023-12-14_23h04.40.862,kallum_motion_pilot,2023.2.3,Win32,60.60606061,61109ea3acfa60c696aa5bfe,657bb317c8798c6608bceb3f,657bb40e2dc0e6db413f2178,0.0561,0.0563,0,110,110,75,1,twofour,,,,,,,,,,,,,,,,,,,,,,,,,,,,,,,,,,,,,,,,,,,,,,,,,,,,,,,,,,,,,,,,,,,,,,,,,,,,,,,,,,,,,,,,,,,,,,,,,,,,,,,,,,,,,,,,,,,,,,,,,,,,,,,,,,,,,,,
,,61109ea3acfa60c696aa5bfe,2023-12-14_23h04.40.862,kallum_motion_pilot,2023.2.3,Win32,60.60606061,61109ea3acfa60c696aa5bfe,657bb317c8798c6608bceb3f,657bb40e2dc0e6db413f2178,0.0563,0.0564,0,111,111,124,1,sevenfive,,,,,,,,,,,,,,,,,,,,,,,,,,,,,,,,,,,,,,,,,,,,,,,,,,,,,,,,,,,,,,,,,,,,,,,,,,,,,,,,,,,,,,,,,,,,,,,,,,,,,,,,,,,,,,,,,,,,,,,,,,,,,,,,,,,,,,,
,,61109ea3acfa60c696aa5bfe,2023-12-14_23h04.40.862,kallum_motion_pilot,2023.2.3,Win32,60.60606061,61109ea3acfa60c696aa5bfe,657bb317c8798c6608bceb3f,657bb40e2dc0e6db413f2178,0.0578,0.0579,0,112,112,108,1,sevenfive,,,,,,,,,,,,,,,,,,,,,,,,,,,,,,,,,,,,,,,,,,,,,,,,,,,,,,,,,,,,,,,,,,,,,,,,,,,,,,,,,,,,,,,,,,,,,,,,,,,,,,,,,,,,,,,,,,,,,,,,,,,,,,,,,,,,,,,
,,61109ea3acfa60c696aa5bfe,2023-12-14_23h04.40.862,kallum_motion_pilot,2023.2.3,Win32,60.60606061,61109ea3acfa60c696aa5bfe,657bb317c8798c6608bceb3f,657bb40e2dc0e6db413f2178,0.058,0.0581,0,113,113,148,1,sevenfive,,,,,,,,,,,,,,,,,,,,,,,,,,,,,,,,,,,,,,,,,,,,,,,,,,,,,,,,,,,,,,,,,,,,,,,,,,,,,,,,,,,,,,,,,,,,,,,,,,,,,,,,,,,,,,,,,,,,,,,,,,,,,,,,,,,,,,,
,,61109ea3acfa60c696aa5bfe,2023-12-14_23h04.40.862,kallum_motion_pilot,2023.2.3,Win32,60.60606061,61109ea3acfa60c696aa5bfe,657bb317c8798c6608bceb3f,657bb40e2dc0e6db413f2178,0.0582,0.0583,0,114,114,139,1,sixeight,,,,,,,,,,,,,,,,,,,,,,,,,,,,,,,,,,,,,,,,,,,,,,,,,,,,,,,,,,,,,,,,,,,,,,,,,,,,,,,,,,,,,,,,,,,,,,,,,,,,,,,,,,,,,,,,,,,,,,,,,,,,,,,,,,,,,,,
,,61109ea3acfa60c696aa5bfe,2023-12-14_23h04.40.862,kallum_motion_pilot,2023.2.3,Win32,60.60606061,61109ea3acfa60c696aa5bfe,657bb317c8798c6608bceb3f,657bb40e2dc0e6db413f2178,0.0584,0.0585,0,115,115,4,1,threeone,,,,,,,,,,,,,,,,,,,,,,,,,,,,,,,,,,,,,,,,,,,,,,,,,,,,,,,,,,,,,,,,,,,,,,,,,,,,,,,,,,,,,,,,,,,,,,,,,,,,,,,,,,,,,,,,,,,,,,,,,,,,,,,,,,,,,,,
,,61109ea3acfa60c696aa5bfe,2023-12-14_23h04.40.862,kallum_motion_pilot,2023.2.3,Win32,60.60606061,61109ea3acfa60c696aa5bfe,657bb317c8798c6608bceb3f,657bb40e2dc0e6db413f2178,0.0586,0.0587,0,116,116,143,1,eightseven,,,,,,,,,,,,,,,,,,,,,,,,,,,,,,,,,,,,,,,,,,,,,,,,,,,,,,,,,,,,,,,,,,,,,,,,,,,,,,,,,,,,,,,,,,,,,,,,,,,,,,,,,,,,,,,,,,,,,,,,,,,,,,,,,,,,,,,
,,61109ea3acfa60c696aa5bfe,2023-12-14_23h04.40.862,kallum_motion_pilot,2023.2.3,Win32,60.60606061,61109ea3acfa60c696aa5bfe,657bb317c8798c6608bceb3f,657bb40e2dc0e6db413f2178,0.0587,0.0588,0,117,117,127,1,eightseven,,,,,,,,,,,,,,,,,,,,,,,,,,,,,,,,,,,,,,,,,,,,,,,,,,,,,,,,,,,,,,,,,,,,,,,,,,,,,,,,,,,,,,,,,,,,,,,,,,,,,,,,,,,,,,,,,,,,,,,,,,,,,,,,,,,,,,,
,,61109ea3acfa60c696aa5bfe,2023-12-14_23h04.40.862,kallum_motion_pilot,2023.2.3,Win32,60.60606061,61109ea3acfa60c696aa5bfe,657bb317c8798c6608bceb3f,657bb40e2dc0e6db413f2178,0.059,0.059,0,118,118,12,1,threeone,,,,,,,,,,,,,,,,,,,,,,,,,,,,,,,,,,,,,,,,,,,,,,,,,,,,,,,,,,,,,,,,,,,,,,,,,,,,,,,,,,,,,,,,,,,,,,,,,,,,,,,,,,,,,,,,,,,,,,,,,,,,,,,,,,,,,,,
,,61109ea3acfa60c696aa5bfe,2023-12-14_23h04.40.862,kallum_motion_pilot,2023.2.3,Win32,60.60606061,61109ea3acfa60c696aa5bfe,657bb317c8798c6608bceb3f,657bb40e2dc0e6db413f2178,0.0591,0.0592,0,119,119,89,1,fiveseven,,,,,,,,,,,,,,,,,,,,,,,,,,,,,,,,,,,,,,,,,,,,,,,,,,,,,,,,,,,,,,,,,,,,,,,,,,,,,,,,,,,,,,,,,,,,,,,,,,,,,,,,,,,,,,,,,,,,,,,,,,,,,,,,,,,,,,,
,,61109ea3acfa60c696aa5bfe,2023-12-14_23h04.40.862,kallum_motion_pilot,2023.2.3,Win32,60.60606061,61109ea3acfa60c696aa5bfe,657bb317c8798c6608bceb3f,657bb40e2dc0e6db413f2178,0.0593,0.0593,0,120,120,31,1,fourthree,,,,,,,,,,,,,,,,,,,,,,,,,,,,,,,,,,,,,,,,,,,,,,,,,,,,,,,,,,,,,,,,,,,,,,,,,,,,,,,,,,,,,,,,,,,,,,,,,,,,,,,,,,,,,,,,,,,,,,,,,,,,,,,,,,,,,,,
,,61109ea3acfa60c696aa5bfe,2023-12-14_23h04.40.862,kallum_motion_pilot,2023.2.3,Win32,60.60606061,61109ea3acfa60c696aa5bfe,657bb317c8798c6608bceb3f,657bb40e2dc0e6db413f2178,0.0595,0.0596,0,121,121,51,1,twofour,,,,,,,,,,,,,,,,,,,,,,,,,,,,,,,,,,,,,,,,,,,,,,,,,,,,,,,,,,,,,,,,,,,,,,,,,,,,,,,,,,,,,,,,,,,,,,,,,,,,,,,,,,,,,,,,,,,,,,,,,,,,,,,,,,,,,,,
,,61109ea3acfa60c696aa5bfe,2023-12-14_23h04.40.862,kallum_motion_pilot,2023.2.3,Win32,60.60606061,61109ea3acfa60c696aa5bfe,657bb317c8798c6608bceb3f,657bb40e2dc0e6db413f2178,0.0596,0.0597,0,122,122,106,1,sixfive,,,,,,,,,,,,,,,,,,,,,,,,,,,,,,,,,,,,,,,,,,,,,,,,,,,,,,,,,,,,,,,,,,,,,,,,,,,,,,,,,,,,,,,,,,,,,,,,,,,,,,,,,,,,,,,,,,,,,,,,,,,,,,,,,,,,,,,
,,61109ea3acfa60c696aa5bfe,2023-12-14_23h04.40.862,kallum_motion_pilot,2023.2.3,Win32,60.60606061,61109ea3acfa60c696aa5bfe,657bb317c8798c6608bceb3f,657bb40e2dc0e6db413f2178,0.0598,0.0599,0,123,123,109,1,seveneight,,,,,,,,,,,,,,,,,,,,,,,,,,,,,,,,,,,,,,,,,,,,,,,,,,,,,,,,,,,,,,,,,,,,,,,,,,,,,,,,,,,,,,,,,,,,,,,,,,,,,,,,,,,,,,,,,,,,,,,,,,,,,,,,,,,,,,,
,,61109ea3acfa60c696aa5bfe,2023-12-14_23h04.40.862,kallum_motion_pilot,2023.2.3,Win32,60.60606061,61109ea3acfa60c696aa5bfe,657bb317c8798c6608bceb3f,657bb40e2dc0e6db413f2178,0.0601,0.0601,0,124,124,70,1,fourtwo,,,,,,,,,,,,,,,,,,,,,,,,,,,,,,,,,,,,,,,,,,,,,,,,,,,,,,,,,,,,,,,,,,,,,,,,,,,,,,,,,,,,,,,,,,,,,,,,,,,,,,,,,,,,,,,,,,,,,,,,,,,,,,,,,,,,,,,
,,61109ea3acfa60c696aa5bfe,2023-12-14_23h04.40.862,kallum_motion_pilot,2023.2.3,Win32,60.60606061,61109ea3acfa60c696aa5bfe,657bb317c8798c6608bceb3f,657bb40e2dc0e6db413f2178,0.0602,0.0603,0,125,125,5,1,threefour,,,,,,,,,,,,,,,,,,,,,,,,,,,,,,,,,,,,,,,,,,,,,,,,,,,,,,,,,,,,,,,,,,,,,,,,,,,,,,,,,,,,,,,,,,,,,,,,,,,,,,,,,,,,,,,,,,,,,,,,,,,,,,,,,,,,,,,
,,61109ea3acfa60c696aa5bfe,2023-12-14_23h04.40.862,kallum_motion_pilot,2023.2.3,Win32,60.60606061,61109ea3acfa60c696aa5bfe,657bb317c8798c6608bceb3f,657bb40e2dc0e6db413f2178,0.0605,0.0606,0,126,126,156,1,sevenfive,,,,,,,,,,,,,,,,,,,,,,,,,,,,,,,,,,,,,,,,,,,,,,,,,,,,,,,,,,,,,,,,,,,,,,,,,,,,,,,,,,,,,,,,,,,,,,,,,,,,,,,,,,,,,,,,,,,,,,,,,,,,,,,,,,,,,,,
,,61109ea3acfa60c696aa5bfe,2023-12-14_23h04.40.862,kallum_motion_pilot,2023.2.3,Win32,60.60606061,61109ea3acfa60c696aa5bfe,657bb317c8798c6608bceb3f,657bb40e2dc0e6db413f2178,0.0607,0.0607,0,127,127,24,1,onetwo,,,,,,,,,,,,,,,,,,,,,,,,,,,,,,,,,,,,,,,,,,,,,,,,,,,,,,,,,,,,,,,,,,,,,,,,,,,,,,,,,,,,,,,,,,,,,,,,,,,,,,,,,,,,,,,,,,,,,,,,,,,,,,,,,,,,,,,
,,61109ea3acfa60c696aa5bfe,2023-12-14_23h04.40.862,kallum_motion_pilot,2023.2.3,Win32,60.60606061,61109ea3acfa60c696aa5bfe,657bb317c8798c6608bceb3f,657bb40e2dc0e6db413f2178,0.061,0.0611,0,128,128,119,1,eightseven,,,,,,,,,,,,,,,,,,,,,,,,,,,,,,,,,,,,,,,,,,,,,,,,,,,,,,,,,,,,,,,,,,,,,,,,,,,,,,,,,,,,,,,,,,,,,,,,,,,,,,,,,,,,,,,,,,,,,,,,,,,,,,,,,,,,,,,
,,61109ea3acfa60c696aa5bfe,2023-12-14_23h04.40.862,kallum_motion_pilot,2023.2.3,Win32,60.60606061,61109ea3acfa60c696aa5bfe,657bb317c8798c6608bceb3f,657bb40e2dc0e6db413f2178,0.0613,0.0614,0,129,129,126,1,eightsix,,,,,,,,,,,,,,,,,,,,,,,,,,,,,,,,,,,,,,,,,,,,,,,,,,,,,,,,,,,,,,,,,,,,,,,,,,,,,,,,,,,,,,,,,,,,,,,,,,,,,,,,,,,,,,,,,,,,,,,,,,,,,,,,,,,,,,,
,,61109ea3acfa60c696aa5bfe,2023-12-14_23h04.40.862,kallum_motion_pilot,2023.2.3,Win32,60.60606061,61109ea3acfa60c696aa5bfe,657bb317c8798c6608bceb3f,657bb40e2dc0e6db413f2178,0.0615,0.0616,0,130,130,67,1,twofour,,,,,,,,,,,,,,,,,,,,,,,,,,,,,,,,,,,,,,,,,,,,,,,,,,,,,,,,,,,,,,,,,,,,,,,,,,,,,,,,,,,,,,,,,,,,,,,,,,,,,,,,,,,,,,,,,,,,,,,,,,,,,,,,,,,,,,,
,,61109ea3acfa60c696aa5bfe,2023-12-14_23h04.40.862,kallum_motion_pilot,2023.2.3,Win32,60.60606061,61109ea3acfa60c696aa5bfe,657bb317c8798c6608bceb3f,657bb40e2dc0e6db413f2178,0.0617,0.0618,0,131,131,121,1,fiveseven,,,,,,,,,,,,,,,,,,,,,,,,,,,,,,,,,,,,,,,,,,,,,,,,,,,,,,,,,,,,,,,,,,,,,,,,,,,,,,,,,,,,,,,,,,,,,,,,,,,,,,,,,,,,,,,,,,,,,,,,,,,,,,,,,,,,,,,
,,61109ea3acfa60c696aa5bfe,2023-12-14_23h04.40.862,kallum_motion_pilot,2023.2.3,Win32,60.60606061,61109ea3acfa60c696aa5bfe,657bb317c8798c6608bceb3f,657bb40e2dc0e6db413f2178,0.0619,0.0621,0,132,132,27,1,twofour,,,,,,,,,,,,,,,,,,,,,,,,,,,,,,,,,,,,,,,,,,,,,,,,,,,,,,,,,,,,,,,,,,,,,,,,,,,,,,,,,,,,,,,,,,,,,,,,,,,,,,,,,,,,,,,,,,,,,,,,,,,,,,,,,,,,,,,
,,61109ea3acfa60c696aa5bfe,2023-12-14_23h04.40.862,kallum_motion_pilot,2023.2.3,Win32,60.60606061,61109ea3acfa60c696aa5bfe,657bb317c8798c6608bceb3f,657bb40e2dc0e6db413f2178,0.0621,0.0622,0,133,133,14,1,fourtwo,,,,,,,,,,,,,,,,,,,,,,,,,,,,,,,,,,,,,,,,,,,,,,,,,,,,,,,,,,,,,,,,,,,,,,,,,,,,,,,,,,,,,,,,,,,,,,,,,,,,,,,,,,,,,,,,,,,,,,,,,,,,,,,,,,,,,,,
,,61109ea3acfa60c696aa5bfe,2023-12-14_23h04.40.862,kallum_motion_pilot,2023.2.3,Win32,60.60606061,61109ea3acfa60c696aa5bfe,657bb317c8798c6608bceb3f,657bb40e2dc0e6db413f2178,0.0623,0.0625,0,134,134,57,1,onethree,,,,,,,,,,,,,,,,,,,,,,,,,,,,,,,,,,,,,,,,,,,,,,,,,,,,,,,,,,,,,,,,,,,,,,,,,,,,,,,,,,,,,,,,,,,,,,,,,,,,,,,,,,,,,,,,,,,,,,,,,,,,,,,,,,,,,,,
,,61109ea3acfa60c696aa5bfe,2023-12-14_23h04.40.862,kallum_motion_pilot,2023.2.3,Win32,60.60606061,61109ea3acfa60c696aa5bfe,657bb317c8798c6608bceb3f,657bb40e2dc0e6db413f2178,0.0625,0.0626,0,135,135,122,1,sixfive,,,,,,,,,,,,,,,,,,,,,,,,,,,,,,,,,,,,,,,,,,,,,,,,,,,,,,,,,,,,,,,,,,,,,,,,,,,,,,,,,,,,,,,,,,,,,,,,,,,,,,,,,,,,,,,,,,,,,,,,,,,,,,,,,,,,,,,
,,61109ea3acfa60c696aa5bfe,2023-12-14_23h04.40.862,kallum_motion_pilot,2023.2.3,Win32,60.60606061,61109ea3acfa60c696aa5bfe,657bb317c8798c6608bceb3f,657bb40e2dc0e6db413f2178,0.0628,0.0628,0,136,136,80,1,fivesix,,,,,,,,,,,,,,,,,,,,,,,,,,,,,,,,,,,,,,,,,,,,,,,,,,,,,,,,,,,,,,,,,,,,,,,,,,,,,,,,,,,,,,,,,,,,,,,,,,,,,,,,,,,,,,,,,,,,,,,,,,,,,,,,,,,,,,,
,,61109ea3acfa60c696aa5bfe,2023-12-14_23h04.40.862,kallum_motion_pilot,2023.2.3,Win32,60.60606061,61109ea3acfa60c696aa5bfe,657bb317c8798c6608bceb3f,657bb40e2dc0e6db413f2178,0.063,0.0631,0,137,137,23,1,fourthree,,,,,,,,,,,,,,,,,,,,,,,,,,,,,,,,,,,,,,,,,,,,,,,,,,,,,,,,,,,,,,,,,,,,,,,,,,,,,,,,,,,,,,,,,,,,,,,,,,,,,,,,,,,,,,,,,,,,,,,,,,,,,,,,,,,,,,,
,,61109ea3acfa60c696aa5bfe,2023-12-14_23h04.40.862,kallum_motion_pilot,2023.2.3,Win32,60.60606061,61109ea3acfa60c696aa5bfe,657bb317c8798c6608bceb3f,657bb40e2dc0e6db413f2178,0.0632,0.0633,0,138,138,32,1,onetwo,,,,,,,,,,,,,,,,,,,,,,,,,,,,,,,,,,,,,,,,,,,,,,,,,,,,,,,,,,,,,,,,,,,,,,,,,,,,,,,,,,,,,,,,,,,,,,,,,,,,,,,,,,,,,,,,,,,,,,,,,,,,,,,,,,,,,,,
,,61109ea3acfa60c696aa5bfe,2023-12-14_23h04.40.862,kallum_motion_pilot,2023.2.3,Win32,60.60606061,61109ea3acfa60c696aa5bfe,657bb317c8798c6608bceb3f,657bb40e2dc0e6db413f2178,0.0635,0.0635,0,139,139,136,1,fivesix,,,,,,,,,,,,,,,,,,,,,,,,,,,,,,,,,,,,,,,,,,,,,,,,,,,,,,,,,,,,,,,,,,,,,,,,,,,,,,,,,,,,,,,,,,,,,,,,,,,,,,,,,,,,,,,,,,,,,,,,,,,,,,,,,,,,,,,
,,61109ea3acfa60c696aa5bfe,2023-12-14_23h04.40.862,kallum_motion_pilot,2023.2.3,Win32,60.60606061,61109ea3acfa60c696aa5bfe,657bb317c8798c6608bceb3f,657bb40e2dc0e6db413f2178,0.0637,0.0639,0,140,140,63,1,fourthree,,,,,,,,,,,,,,,,,,,,,,,,,,,,,,,,,,,,,,,,,,,,,,,,,,,,,,,,,,,,,,,,,,,,,,,,,,,,,,,,,,,,,,,,,,,,,,,,,,,,,,,,,,,,,,,,,,,,,,,,,,,,,,,,,,,,,,,
,,61109ea3acfa60c696aa5bfe,2023-12-14_23h04.40.862,kallum_motion_pilot,2023.2.3,Win32,60.60606061,61109ea3acfa60c696aa5bfe,657bb317c8798c6608bceb3f,657bb40e2dc0e6db413f2178,0.064,0.0641,0,141,141,100,1,sevenfive,,,,,,,,,,,,,,,,,,,,,,,,,,,,,,,,,,,,,,,,,,,,,,,,,,,,,,,,,,,,,,,,,,,,,,,,,,,,,,,,,,,,,,,,,,,,,,,,,,,,,,,,,,,,,,,,,,,,,,,,,,,,,,,,,,,,,,,
,,61109ea3acfa60c696aa5bfe,2023-12-14_23h04.40.862,kallum_motion_pilot,2023.2.3,Win32,60.60606061,61109ea3acfa60c696aa5bfe,657bb317c8798c6608bceb3f,657bb40e2dc0e6db413f2178,0.0643,0.0644,0,142,142,66,1,twoone,,,,,,,,,,,,,,,,,,,,,,,,,,,,,,,,,,,,,,,,,,,,,,,,,,,,,,,,,,,,,,,,,,,,,,,,,,,,,,,,,,,,,,,,,,,,,,,,,,,,,,,,,,,,,,,,,,,,,,,,,,,,,,,,,,,,,,,
,,61109ea3acfa60c696aa5bfe,2023-12-14_23h04.40.862,kallum_motion_pilot,2023.2.3,Win32,60.60606061,61109ea3acfa60c696aa5bfe,657bb317c8798c6608bceb3f,657bb40e2dc0e6db413f2178,0.0646,0.0647,0,143,143,145,1,fiveseven,,,,,,,,,,,,,,,,,,,,,,,,,,,,,,,,,,,,,,,,,,,,,,,,,,,,,,,,,,,,,,,,,,,,,,,,,,,,,,,,,,,,,,,,,,,,,,,,,,,,,,,,,,,,,,,,,,,,,,,,,,,,,,,,,,,,,,,
,,61109ea3acfa60c696aa5bfe,2023-12-14_23h04.40.862,kallum_motion_pilot,2023.2.3,Win32,60.60606061,61109ea3acfa60c696aa5bfe,657bb317c8798c6608bceb3f,657bb40e2dc0e6db413f2178,0.0648,0.0648,0,144,144,78,1,fourtwo,,,,,,,,,,,,,,,,,,,,,,,,,,,,,,,,,,,,,,,,,,,,,,,,,,,,,,,,,,,,,,,,,,,,,,,,,,,,,,,,,,,,,,,,,,,,,,,,,,,,,,,,,,,,,,,,,,,,,,,,,,,,,,,,,,,,,,,
,,61109ea3acfa60c696aa5bfe,2023-12-14_23h04.40.862,kallum_motion_pilot,2023.2.3,Win32,60.60606061,61109ea3acfa60c696aa5bfe,657bb317c8798c6608bceb3f,657bb40e2dc0e6db413f2178,0.065,0.0651,0,145,145,22,1,fourtwo,,,,,,,,,,,,,,,,,,,,,,,,,,,,,,,,,,,,,,,,,,,,,,,,,,,,,,,,,,,,,,,,,,,,,,,,,,,,,,,,,,,,,,,,,,,,,,,,,,,,,,,,,,,,,,,,,,,,,,,,,,,,,,,,,,,,,,,
,,61109ea3acfa60c696aa5bfe,2023-12-14_23h04.40.862,kallum_motion_pilot,2023.2.3,Win32,60.60606061,61109ea3acfa60c696aa5bfe,657bb317c8798c6608bceb3f,657bb40e2dc0e6db413f2178,0.0653,0.0654,0,146,146,21,1,threefour,,,,,,,,,,,,,,,,,,,,,,,,,,,,,,,,,,,,,,,,,,,,,,,,,,,,,,,,,,,,,,,,,,,,,,,,,,,,,,,,,,,,,,,,,,,,,,,,,,,,,,,,,,,,,,,,,,,,,,,,,,,,,,,,,,,,,,,
,,61109ea3acfa60c696aa5bfe,2023-12-14_23h04.40.862,kallum_motion_pilot,2023.2.3,Win32,60.60606061,61109ea3acfa60c696aa5bfe,657bb317c8798c6608bceb3f,657bb40e2dc0e6db413f2178,0.0655,0.0656,0,147,147,117,1,seveneight,,,,,,,,,,,,,,,,,,,,,,,,,,,,,,,,,,,,,,,,,,,,,,,,,,,,,,,,,,,,,,,,,,,,,,,,,,,,,,,,,,,,,,,,,,,,,,,,,,,,,,,,,,,,,,,,,,,,,,,,,,,,,,,,,,,,,,,
,,61109ea3acfa60c696aa5bfe,2023-12-14_23h04.40.862,kallum_motion_pilot,2023.2.3,Win32,60.60606061,61109ea3acfa60c696aa5bfe,657bb317c8798c6608bceb3f,657bb40e2dc0e6db413f2178,0.0657,0.0658,0,148,148,98,1,sixfive,,,,,,,,,,,,,,,,,,,,,,,,,,,,,,,,,,,,,,,,,,,,,,,,,,,,,,,,,,,,,,,,,,,,,,,,,,,,,,,,,,,,,,,,,,,,,,,,,,,,,,,,,,,,,,,,,,,,,,,,,,,,,,,,,,,,,,,
,,61109ea3acfa60c696aa5bfe,2023-12-14_23h04.40.862,kallum_motion_pilot,2023.2.3,Win32,60.60606061,61109ea3acfa60c696aa5bfe,657bb317c8798c6608bceb3f,657bb40e2dc0e6db413f2178,0.066,0.0661,0,149,149,131,1,sixeight,,,,,,,,,,,,,,,,,,,,,,,,,,,,,,,,,,,,,,,,,,,,,,,,,,,,,,,,,,,,,,,,,,,,,,,,,,,,,,,,,,,,,,,,,,,,,,,,,,,,,,,,,,,,,,,,,,,,,,,,,,,,,,,,,,,,,,,
,,61109ea3acfa60c696aa5bfe,2023-12-14_23h04.40.862,kallum_motion_pilot,2023.2.3,Win32,60.60606061,61109ea3acfa60c696aa5bfe,657bb317c8798c6608bceb3f,657bb40e2dc0e6db413f2178,0.0662,0.0664,0,150,150,153,1,fiveseven,,,,,,,,,,,,,,,,,,,,,,,,,,,,,,,,,,,,,,,,,,,,,,,,,,,,,,,,,,,,,,,,,,,,,,,,,,,,,,,,,,,,,,,,,,,,,,,,,,,,,,,,,,,,,,,,,,,,,,,,,,,,,,,,,,,,,,,
,,61109ea3acfa60c696aa5bfe,2023-12-14_23h04.40.862,kallum_motion_pilot,2023.2.3,Win32,60.60606061,61109ea3acfa60c696aa5bfe,657bb317c8798c6608bceb3f,657bb40e2dc0e6db413f2178,0.0666,0.0667,0,151,151,6,1,fourtwo,,,,,,,,,,,,,,,,,,,,,,,,,,,,,,,,,,,,,,,,,,,,,,,,,,,,,,,,,,,,,,,,,,,,,,,,,,,,,,,,,,,,,,,,,,,,,,,,,,,,,,,,,,,,,,,,,,,,,,,,,,,,,,,,,,,,,,,
,,61109ea3acfa60c696aa5bfe,2023-12-14_23h04.40.862,kallum_motion_pilot,2023.2.3,Win32,60.60606061,61109ea3acfa60c696aa5bfe,657bb317c8798c6608bceb3f,657bb40e2dc0e6db413f2178,0.0668,0.0669,0,152,152,44,1,threeone,,,,,,,,,,,,,,,,,,,,,,,,,,,,,,,,,,,,,,,,,,,,,,,,,,,,,,,,,,,,,,,,,,,,,,,,,,,,,,,,,,,,,,,,,,,,,,,,,,,,,,,,,,,,,,,,,,,,,,,,,,,,,,,,,,,,,,,
,,61109ea3acfa60c696aa5bfe,2023-12-14_23h04.40.862,kallum_motion_pilot,2023.2.3,Win32,60.60606061,61109ea3acfa60c696aa5bfe,657bb317c8798c6608bceb3f,657bb40e2dc0e6db413f2178,0.0671,0.0671,0,153,153,133,1,seveneight,,,,,,,,,,,,,,,,,,,,,,,,,,,,,,,,,,,,,,,,,,,,,,,,,,,,,,,,,,,,,,,,,,,,,,,,,,,,,,,,,,,,,,,,,,,,,,,,,,,,,,,,,,,,,,,,,,,,,,,,,,,,,,,,,,,,,,,
,,61109ea3acfa60c696aa5bfe,2023-12-14_23h04.40.862,kallum_motion_pilot,2023.2.3,Win32,60.60606061,61109ea3acfa60c696aa5bfe,657bb317c8798c6608bceb3f,657bb40e2dc0e6db413f2178,0.0672,0.0673,0,154,154,90,1,sixfive,,,,,,,,,,,,,,,,,,,,,,,,,,,,,,,,,,,,,,,,,,,,,,,,,,,,,,,,,,,,,,,,,,,,,,,,,,,,,,,,,,,,,,,,,,,,,,,,,,,,,,,,,,,,,,,,,,,,,,,,,,,,,,,,,,,,,,,
,,61109ea3acfa60c696aa5bfe,2023-12-14_23h04.40.862,kallum_motion_pilot,2023.2.3,Win32,60.60606061,61109ea3acfa60c696aa5bfe,657bb317c8798c6608bceb3f,657bb40e2dc0e6db413f2178,0.0674,0.0675,0,155,155,135,1,eightseven,,,,,,,,,,,,,,,,,,,,,,,,,,,,,,,,,,,,,,,,,,,,,,,,,,,,,,,,,,,,,,,,,,,,,,,,,,,,,,,,,,,,,,,,,,,,,,,,,,,,,,,,,,,,,,,,,,,,,,,,,,,,,,,,,,,,,,,
,,61109ea3acfa60c696aa5bfe,2023-12-14_23h04.40.862,kallum_motion_pilot,2023.2.3,Win32,60.60606061,61109ea3acfa60c696aa5bfe,657bb317c8798c6608bceb3f,657bb40e2dc0e6db413f2178,0.0676,0.0676,0,156,156,2,1,twoone,,,,,,,,,,,,,,,,,,,,,,,,,,,,,,,,,,,,,,,,,,,,,,,,,,,,,,,,,,,,,,,,,,,,,,,,,,,,,,,,,,,,,,,,,,,,,,,,,,,,,,,,,,,,,,,,,,,,,,,,,,,,,,,,,,,,,,,
,,61109ea3acfa60c696aa5bfe,2023-12-14_23h04.40.862,kallum_motion_pilot,2023.2.3,Win32,60.60606061,61109ea3acfa60c696aa5bfe,657bb317c8798c6608bceb3f,657bb40e2dc0e6db413f2178,0.0678,0.0678,0,157,157,8,1,onetwo,,,,,,,,,,,,,,,,,,,,,,,,,,,,,,,,,,,,,,,,,,,,,,,,,,,,,,,,,,,,,,,,,,,,,,,,,,,,,,,,,,,,,,,,,,,,,,,,,,,,,,,,,,,,,,,,,,,,,,,,,,,,,,,,,,,,,,,
,,61109ea3acfa60c696aa5bfe,2023-12-14_23h04.40.862,kallum_motion_pilot,2023.2.3,Win32,60.60606061,61109ea3acfa60c696aa5bfe,657bb317c8798c6608bceb3f,657bb40e2dc0e6db413f2178,0.0679,0.068,0,158,158,46,1,fourtwo,,,,,,,,,,,,,,,,,,,,,,,,,,,,,,,,,,,,,,,,,,,,,,,,,,,,,,,,,,,,,,,,,,,,,,,,,,,,,,,,,,,,,,,,,,,,,,,,,,,,,,,,,,,,,,,,,,,,,,,,,,,,,,,,,,,,,,,
,,61109ea3acfa60c696aa5bfe,2023-12-14_23h04.40.862,kallum_motion_pilot,2023.2.3,Win32,60.60606061,61109ea3acfa60c696aa5bfe,657bb317c8798c6608bceb3f,657bb40e2dc0e6db413f2178,0.0682,0.0685,0,159,159,113,1,fiveseven,,,,,,,,,,,,,,,,,,,,,,,,,,,,,,,,,,,,,,,,,,,,,,,,,,,,,,,,,,,,,,,,,,,,,,,,,,,,,,,,,,,,,,,,,,,,,,,,,,,,,,,,,,,,,,,,,,,,,,,,,,,,,,,,,,,,,,,
,,61109ea3acfa60c696aa5bfe,2023-12-14_23h04.40.862,kallum_motion_pilot,2023.2.3,Win32,60.60606061,61109ea3acfa60c696aa5bfe,657bb317c8798c6608bceb3f,657bb40e2dc0e6db413f2178,0.0687,0.0687,0,160,160,138,1,sixfive,,,,,,,,,,,,,,,,,,,,,,,,,,,,,,,,,,,,,,,,,,,,,,,,,,,,,,,,,,,,,,,,,,,,,,,,,,,,,,,,,,,,,,,,,,,,,,,,,,,,,,,,,,,,,,,,,,,,,,,,,,,,,,,,,,,,,,,
,,61109ea3acfa60c696aa5bfe,2023-12-14_23h04.40.862,kallum_motion_pilot,2023.2.3,Win32,60.60606061,61109ea3acfa60c696aa5bfe,657bb317c8798c6608bceb3f,657bb40e2dc0e6db413f2178,0.0689,0.069,0,161,161,104,1,fivesix,,,,,,,,,,,,,,,,,,,,,,,,,,,,,,,,,,,,,,,,,,,,,,,,,,,,,,,,,,,,,,,,,,,,,,,,,,,,,,,,,,,,,,,,,,,,,,,,,,,,,,,,,,,,,,,,,,,,,,,,,,,,,,,,,,,,,,,
,,61109ea3acfa60c696aa5bfe,2023-12-14_23h04.40.862,kallum_motion_pilot,2023.2.3,Win32,60.60606061,61109ea3acfa60c696aa5bfe,657bb317c8798c6608bceb3f,657bb40e2dc0e6db413f2178,0.0691,0.0692,1,0,162,58,1,twoone,,,,,,,,,,,,,,,,,,,,,,,,,,,,,,,,,,,,,,,,,,,,,,,,,,,,,,,,,,,,,,,,,,,,,,,,,,,,,,,,,,,,,,,,,,,,,,,,,,,,,,,,,,,,,,,,,,,,,,,,,,,,,,,,,,,,,,,
,,61109ea3acfa60c696aa5bfe,2023-12-14_23h04.40.862,kallum_motion_pilot,2023.2.3,Win32,60.60606061,61109ea3acfa60c696aa5bfe,657bb317c8798c6608bceb3f,657bb40e2dc0e6db413f2178,0.0693,0.0694,1,1,163,86,1,eightsix,,,,,,,,,,,,,,,,,,,,,,,,,,,,,,,,,,,,,,,,,,,,,,,,,,,,,,,,,,,,,,,,,,,,,,,,,,,,,,,,,,,,,,,,,,,,,,,,,,,,,,,,,,,,,,,,,,,,,,,,,,,,,,,,,,,,,,,
,,61109ea3acfa60c696aa5bfe,2023-12-14_23h04.40.862,kallum_motion_pilot,2023.2.3,Win32,60.60606061,61109ea3acfa60c696aa5bfe,657bb317c8798c6608bceb3f,657bb40e2dc0e6db413f2178,0.0695,0.0696,1,2,164,6,1,fourtwo,,,,,,,,,,,,,,,,,,,,,,,,,,,,,,,,,,,,,,,,,,,,,,,,,,,,,,,,,,,,,,,,,,,,,,,,,,,,,,,,,,,,,,,,,,,,,,,,,,,,,,,,,,,,,,,,,,,,,,,,,,,,,,,,,,,,,,,
,,61109ea3acfa60c696aa5bfe,2023-12-14_23h04.40.862,kallum_motion_pilot,2023.2.3,Win32,60.60606061,61109ea3acfa60c696aa5bfe,657bb317c8798c6608bceb3f,657bb40e2dc0e6db413f2178,0.0697,0.0698,1,3,165,31,1,fourthree,,,,,,,,,,,,,,,,,,,,,,,,,,,,,,,,,,,,,,,,,,,,,,,,,,,,,,,,,,,,,,,,,,,,,,,,,,,,,,,,,,,,,,,,,,,,,,,,,,,,,,,,,,,,,,,,,,,,,,,,,,,,,,,,,,,,,,,
,,61109ea3acfa60c696aa5bfe,2023-12-14_23h04.40.862,kallum_motion_pilot,2023.2.3,Win32,60.60606061,61109ea3acfa60c696aa5bfe,657bb317c8798c6608bceb3f,657bb40e2dc0e6db413f2178,0.0699,0.07,1,4,166,53,1,threefour,,,,,,,,,,,,,,,,,,,,,,,,,,,,,,,,,,,,,,,,,,,,,,,,,,,,,,,,,,,,,,,,,,,,,,,,,,,,,,,,,,,,,,,,,,,,,,,,,,,,,,,,,,,,,,,,,,,,,,,,,,,,,,,,,,,,,,,
,,61109ea3acfa60c696aa5bfe,2023-12-14_23h04.40.862,kallum_motion_pilot,2023.2.3,Win32,60.60606061,61109ea3acfa60c696aa5bfe,657bb317c8798c6608bceb3f,657bb40e2dc0e6db413f2178,0.07,0.0701,1,5,167,137,1,fiveseven,,,,,,,,,,,,,,,,,,,,,,,,,,,,,,,,,,,,,,,,,,,,,,,,,,,,,,,,,,,,,,,,,,,,,,,,,,,,,,,,,,,,,,,,,,,,,,,,,,,,,,,,,,,,,,,,,,,,,,,,,,,,,,,,,,,,,,,
,,61109ea3acfa60c696aa5bfe,2023-12-14_23h04.40.862,kallum_motion_pilot,2023.2.3,Win32,60.60606061,61109ea3acfa60c696aa5bfe,657bb317c8798c6608bceb3f,657bb40e2dc0e6db413f2178,0.0702,0.0703,1,6,168,90,1,sixfive,,,,,,,,,,,,,,,,,,,,,,,,,,,,,,,,,,,,,,,,,,,,,,,,,,,,,,,,,,,,,,,,,,,,,,,,,,,,,,,,,,,,,,,,,,,,,,,,,,,,,,,,,,,,,,,,,,,,,,,,,,,,,,,,,,,,,,,
,,61109ea3acfa60c696aa5bfe,2023-12-14_23h04.40.862,kallum_motion_pilot,2023.2.3,Win32,60.60606061,61109ea3acfa60c696aa5bfe,657bb317c8798c6608bceb3f,657bb40e2dc0e6db413f2178,0.0704,0.0705,1,7,169,0,1,onetwo,,,,,,,,,,,,,,,,,,,,,,,,,,,,,,,,,,,,,,,,,,,,,,,,,,,,,,,,,,,,,,,,,,,,,,,,,,,,,,,,,,,,,,,,,,,,,,,,,,,,,,,,,,,,,,,,,,,,,,,,,,,,,,,,,,,,,,,
,,61109ea3acfa60c696aa5bfe,2023-12-14_23h04.40.862,kallum_motion_pilot,2023.2.3,Win32,60.60606061,61109ea3acfa60c696aa5bfe,657bb317c8798c6608bceb3f,657bb40e2dc0e6db413f2178,0.0706,0.0707,1,8,170,10,1,twoone,,,,,,,,,,,,,,,,,,,,,,,,,,,,,,,,,,,,,,,,,,,,,,,,,,,,,,,,,,,,,,,,,,,,,,,,,,,,,,,,,,,,,,,,,,,,,,,,,,,,,,,,,,,,,,,,,,,,,,,,,,,,,,,,,,,,,,,
,,61109ea3acfa60c696aa5bfe,2023-12-14_23h04.40.862,kallum_motion_pilot,2023.2.3,Win32,60.60606061,61109ea3acfa60c696aa5bfe,657bb317c8798c6608bceb3f,657bb40e2dc0e6db413f2178,0.0707,0.0709,1,9,171,37,1,threefour,,,,,,,,,,,,,,,,,,,,,,,,,,,,,,,,,,,,,,,,,,,,,,,,,,,,,,,,,,,,,,,,,,,,,,,,,,,,,,,,,,,,,,,,,,,,,,,,,,,,,,,,,,,,,,,,,,,,,,,,,,,,,,,,,,,,,,,
,,61109ea3acfa60c696aa5bfe,2023-12-14_23h04.40.862,kallum_motion_pilot,2023.2.3,Win32,60.60606061,61109ea3acfa60c696aa5bfe,657bb317c8798c6608bceb3f,657bb40e2dc0e6db413f2178,0.071,0.0711,1,10,172,130,1,sixfive,,,,,,,,,,,,,,,,,,,,,,,,,,,,,,,,,,,,,,,,,,,,,,,,,,,,,,,,,,,,,,,,,,,,,,,,,,,,,,,,,,,,,,,,,,,,,,,,,,,,,,,,,,,,,,,,,,,,,,,,,,,,,,,,,,,,,,,
,,61109ea3acfa60c696aa5bfe,2023-12-14_23h04.40.862,kallum_motion_pilot,2023.2.3,Win32,60.60606061,61109ea3acfa60c696aa5bfe,657bb317c8798c6608bceb3f,657bb40e2dc0e6db413f2178,0.0712,0.0713,1,11,173,141,1,seveneight,,,,,,,,,,,,,,,,,,,,,,,,,,,,,,,,,,,,,,,,,,,,,,,,,,,,,,,,,,,,,,,,,,,,,,,,,,,,,,,,,,,,,,,,,,,,,,,,,,,,,,,,,,,,,,,,,,,,,,,,,,,,,,,,,,,,,,,
,,61109ea3acfa60c696aa5bfe,2023-12-14_23h04.40.862,kallum_motion_pilot,2023.2.3,Win32,60.60606061,61109ea3acfa60c696aa5bfe,657bb317c8798c6608bceb3f,657bb40e2dc0e6db413f2178,0.0714,0.0715,1,12,174,26,1,twoone,,,,,,,,,,,,,,,,,,,,,,,,,,,,,,,,,,,,,,,,,,,,,,,,,,,,,,,,,,,,,,,,,,,,,,,,,,,,,,,,,,,,,,,,,,,,,,,,,,,,,,,,,,,,,,,,,,,,,,,,,,,,,,,,,,,,,,,
,,61109ea3acfa60c696aa5bfe,2023-12-14_23h04.40.862,kallum_motion_pilot,2023.2.3,Win32,60.60606061,61109ea3acfa60c696aa5bfe,657bb317c8798c6608bceb3f,657bb40e2dc0e6db413f2178,0.0715,0.0716,1,13,175,152,1,fivesix,,,,,,,,,,,,,,,,,,,,,,,,,,,,,,,,,,,,,,,,,,,,,,,,,,,,,,,,,,,,,,,,,,,,,,,,,,,,,,,,,,,,,,,,,,,,,,,,,,,,,,,,,,,,,,,,,,,,,,,,,,,,,,,,,,,,,,,
,,61109ea3acfa60c696aa5bfe,2023-12-14_23h04.40.862,kallum_motion_pilot,2023.2.3,Win32,60.60606061,61109ea3acfa60c696aa5bfe,657bb317c8798c6608bceb3f,657bb40e2dc0e6db413f2178,0.0717,0.0719,1,14,176,98,1,sixfive,,,,,,,,,,,,,,,,,,,,,,,,,,,,,,,,,,,,,,,,,,,,,,,,,,,,,,,,,,,,,,,,,,,,,,,,,,,,,,,,,,,,,,,,,,,,,,,,,,,,,,,,,,,,,,,,,,,,,,,,,,,,,,,,,,,,,,,
,,61109ea3acfa60c696aa5bfe,2023-12-14_23h04.40.862,kallum_motion_pilot,2023.2.3,Win32,60.60606061,61109ea3acfa60c696aa5bfe,657bb317c8798c6608bceb3f,657bb40e2dc0e6db413f2178,0.0719,0.0721,1,15,177,66,1,twoone,,,,,,,,,,,,,,,,,,,,,,,,,,,,,,,,,,,,,,,,,,,,,,,,,,,,,,,,,,,,,,,,,,,,,,,,,,,,,,,,,,,,,,,,,,,,,,,,,,,,,,,,,,,,,,,,,,,,,,,,,,,,,,,,,,,,,,,
,,61109ea3acfa60c696aa5bfe,2023-12-14_23h04.40.862,kallum_motion_pilot,2023.2.3,Win32,60.60606061,61109ea3acfa60c696aa5bfe,657bb317c8798c6608bceb3f,657bb40e2dc0e6db413f2178,0.0721,0.0722,1,16,178,59,1,twofour,,,,,,,,,,,,,,,,,,,,,,,,,,,,,,,,,,,,,,,,,,,,,,,,,,,,,,,,,,,,,,,,,,,,,,,,,,,,,,,,,,,,,,,,,,,,,,,,,,,,,,,,,,,,,,,,,,,,,,,,,,,,,,,,,,,,,,,
,,61109ea3acfa60c696aa5bfe,2023-12-14_23h04.40.862,kallum_motion_pilot,2023.2.3,Win32,60.60606061,61109ea3acfa60c696aa5bfe,657bb317c8798c6608bceb3f,657bb40e2dc0e6db413f2178,0.0723,0.0724,1,17,179,5,1,threefour,,,,,,,,,,,,,,,,,,,,,,,,,,,,,,,,,,,,,,,,,,,,,,,,,,,,,,,,,,,,,,,,,,,,,,,,,,,,,,,,,,,,,,,,,,,,,,,,,,,,,,,,,,,,,,,,,,,,,,,,,,,,,,,,,,,,,,,
,,61109ea3acfa60c696aa5bfe,2023-12-14_23h04.40.862,kallum_motion_pilot,2023.2.3,Win32,60.60606061,61109ea3acfa60c696aa5bfe,657bb317c8798c6608bceb3f,657bb40e2dc0e6db413f2178,0.0725,0.0727,1,18,180,46,1,fourtwo,,,,,,,,,,,,,,,,,,,,,,,,,,,,,,,,,,,,,,,,,,,,,,,,,,,,,,,,,,,,,,,,,,,,,,,,,,,,,,,,,,,,,,,,,,,,,,,,,,,,,,,,,,,,,,,,,,,,,,,,,,,,,,,,,,,,,,,
,,61109ea3acfa60c696aa5bfe,2023-12-14_23h04.40.862,kallum_motion_pilot,2023.2.3,Win32,60.60606061,61109ea3acfa60c696aa5bfe,657bb317c8798c6608bceb3f,657bb40e2dc0e6db413f2178,0.0727,0.0728,1,19,181,154,1,sixfive,,,,,,,,,,,,,,,,,,,,,,,,,,,,,,,,,,,,,,,,,,,,,,,,,,,,,,,,,,,,,,,,,,,,,,,,,,,,,,,,,,,,,,,,,,,,,,,,,,,,,,,,,,,,,,,,,,,,,,,,,,,,,,,,,,,,,,,
,,61109ea3acfa60c696aa5bfe,2023-12-14_23h04.40.862,kallum_motion_pilot,2023.2.3,Win32,60.60606061,61109ea3acfa60c696aa5bfe,657bb317c8798c6608bceb3f,657bb40e2dc0e6db413f2178,0.0729,0.0731,1,20,182,118,1,eightsix,,,,,,,,,,,,,,,,,,,,,,,,,,,,,,,,,,,,,,,,,,,,,,,,,,,,,,,,,,,,,,,,,,,,,,,,,,,,,,,,,,,,,,,,,,,,,,,,,,,,,,,,,,,,,,,,,,,,,,,,,,,,,,,,,,,,,,,
,,61109ea3acfa60c696aa5bfe,2023-12-14_23h04.40.862,kallum_motion_pilot,2023.2.3,Win32,60.60606061,61109ea3acfa60c696aa5bfe,657bb317c8798c6608bceb3f,657bb40e2dc0e6db413f2178,0.0731,0.0732,1,21,183,93,1,seveneight,,,,,,,,,,,,,,,,,,,,,,,,,,,,,,,,,,,,,,,,,,,,,,,,,,,,,,,,,,,,,,,,,,,,,,,,,,,,,,,,,,,,,,,,,,,,,,,,,,,,,,,,,,,,,,,,,,,,,,,,,,,,,,,,,,,,,,,
,,61109ea3acfa60c696aa5bfe,2023-12-14_23h04.40.862,kallum_motion_pilot,2023.2.3,Win32,60.60606061,61109ea3acfa60c696aa5bfe,657bb317c8798c6608bceb3f,657bb40e2dc0e6db413f2178,0.0734,0.0734,1,22,184,81,1,fiveseven,,,,,,,,,,,,,,,,,,,,,,,,,,,,,,,,,,,,,,,,,,,,,,,,,,,,,,,,,,,,,,,,,,,,,,,,,,,,,,,,,,,,,,,,,,,,,,,,,,,,,,,,,,,,,,,,,,,,,,,,,,,,,,,,,,,,,,,
,,61109ea3acfa60c696aa5bfe,2023-12-14_23h04.40.862,kallum_motion_pilot,2023.2.3,Win32,60.60606061,61109ea3acfa60c696aa5bfe,657bb317c8798c6608bceb3f,657bb40e2dc0e6db413f2178,0.0735,0.0736,1,23,185,68,1,threeone,,,,,,,,,,,,,,,,,,,,,,,,,,,,,,,,,,,,,,,,,,,,,,,,,,,,,,,,,,,,,,,,,,,,,,,,,,,,,,,,,,,,,,,,,,,,,,,,,,,,,,,,,,,,,,,,,,,,,,,,,,,,,,,,,,,,,,,
,,61109ea3acfa60c696aa5bfe,2023-12-14_23h04.40.862,kallum_motion_pilot,2023.2.3,Win32,60.60606061,61109ea3acfa60c696aa5bfe,657bb317c8798c6608bceb3f,657bb40e2dc0e6db413f2178,0.0737,0.0738,1,24,186,147,1,sixeight,,,,,,,,,,,,,,,,,,,,,,,,,,,,,,,,,,,,,,,,,,,,,,,,,,,,,,,,,,,,,,,,,,,,,,,,,,,,,,,,,,,,,,,,,,,,,,,,,,,,,,,,,,,,,,,,,,,,,,,,,,,,,,,,,,,,,,,
,,61109ea3acfa60c696aa5bfe,2023-12-14_23h04.40.862,kallum_motion_pilot,2023.2.3,Win32,60.60606061,61109ea3acfa60c696aa5bfe,657bb317c8798c6608bceb3f,657bb40e2dc0e6db413f2178,0.0739,0.074,1,25,187,55,1,fourthree,,,,,,,,,,,,,,,,,,,,,,,,,,,,,,,,,,,,,,,,,,,,,,,,,,,,,,,,,,,,,,,,,,,,,,,,,,,,,,,,,,,,,,,,,,,,,,,,,,,,,,,,,,,,,,,,,,,,,,,,,,,,,,,,,,,,,,,
,,61109ea3acfa60c696aa5bfe,2023-12-14_23h04.40.862,kallum_motion_pilot,2023.2.3,Win32,60.60606061,61109ea3acfa60c696aa5bfe,657bb317c8798c6608bceb3f,657bb40e2dc0e6db413f2178,0.0741,0.0742,1,26,188,29,1,threefour,,,,,,,,,,,,,,,,,,,,,,,,,,,,,,,,,,,,,,,,,,,,,,,,,,,,,,,,,,,,,,,,,,,,,,,,,,,,,,,,,,,,,,,,,,,,,,,,,,,,,,,,,,,,,,,,,,,,,,,,,,,,,,,,,,,,,,,
,,61109ea3acfa60c696aa5bfe,2023-12-14_23h04.40.862,kallum_motion_pilot,2023.2.3,Win32,60.60606061,61109ea3acfa60c696aa5bfe,657bb317c8798c6608bceb3f,657bb40e2dc0e6db413f2178,0.0744,0.0744,1,27,189,150,1,eightsix,,,,,,,,,,,,,,,,,,,,,,,,,,,,,,,,,,,,,,,,,,,,,,,,,,,,,,,,,,,,,,,,,,,,,,,,,,,,,,,,,,,,,,,,,,,,,,,,,,,,,,,,,,,,,,,,,,,,,,,,,,,,,,,,,,,,,,,
,,61109ea3acfa60c696aa5bfe,2023-12-14_23h04.40.862,kallum_motion_pilot,2023.2.3,Win32,60.60606061,61109ea3acfa60c696aa5bfe,657bb317c8798c6608bceb3f,657bb40e2dc0e6db413f2178,0.0746,0.0747,1,28,190,103,1,eightseven,,,,,,,,,,,,,,,,,,,,,,,,,,,,,,,,,,,,,,,,,,,,,,,,,,,,,,,,,,,,,,,,,,,,,,,,,,,,,,,,,,,,,,,,,,,,,,,,,,,,,,,,,,,,,,,,,,,,,,,,,,,,,,,,,,,,,,,
,,61109ea3acfa60c696aa5bfe,2023-12-14_23h04.40.862,kallum_motion_pilot,2023.2.3,Win32,60.60606061,61109ea3acfa60c696aa5bfe,657bb317c8798c6608bceb3f,657bb40e2dc0e6db413f2178,0.0748,0.0749,1,29,191,101,1,seveneight,,,,,,,,,,,,,,,,,,,,,,,,,,,,,,,,,,,,,,,,,,,,,,,,,,,,,,,,,,,,,,,,,,,,,,,,,,,,,,,,,,,,,,,,,,,,,,,,,,,,,,,,,,,,,,,,,,,,,,,,,,,,,,,,,,,,,,,
,,61109ea3acfa60c696aa5bfe,2023-12-14_23h04.40.862,kallum_motion_pilot,2023.2.3,Win32,60.60606061,61109ea3acfa60c696aa5bfe,657bb317c8798c6608bceb3f,657bb40e2dc0e6db413f2178,0.075,0.0751,1,30,192,14,1,fourtwo,,,,,,,,,,,,,,,,,,,,,,,,,,,,,,,,,,,,,,,,,,,,,,,,,,,,,,,,,,,,,,,,,,,,,,,,,,,,,,,,,,,,,,,,,,,,,,,,,,,,,,,,,,,,,,,,,,,,,,,,,,,,,,,,,,,,,,,
,,61109ea3acfa60c696aa5bfe,2023-12-14_23h04.40.862,kallum_motion_pilot,2023.2.3,Win32,60.60606061,61109ea3acfa60c696aa5bfe,657bb317c8798c6608bceb3f,657bb40e2dc0e6db413f2178,0.0751,0.0753,1,31,193,70,1,fourtwo,,,,,,,,,,,,,,,,,,,,,,,,,,,,,,,,,,,,,,,,,,,,,,,,,,,,,,,,,,,,,,,,,,,,,,,,,,,,,,,,,,,,,,,,,,,,,,,,,,,,,,,,,,,,,,,,,,,,,,,,,,,,,,,,,,,,,,,
,,61109ea3acfa60c696aa5bfe,2023-12-14_23h04.40.862,kallum_motion_pilot,2023.2.3,Win32,60.60606061,61109ea3acfa60c696aa5bfe,657bb317c8798c6608bceb3f,657bb40e2dc0e6db413f2178,0.0754,0.0754,1,32,194,114,1,sixfive,,,,,,,,,,,,,,,,,,,,,,,,,,,,,,,,,,,,,,,,,,,,,,,,,,,,,,,,,,,,,,,,,,,,,,,,,,,,,,,,,,,,,,,,,,,,,,,,,,,,,,,,,,,,,,,,,,,,,,,,,,,,,,,,,,,,,,,
,,61109ea3acfa60c696aa5bfe,2023-12-14_23h04.40.862,kallum_motion_pilot,2023.2.3,Win32,60.60606061,61109ea3acfa60c696aa5bfe,657bb317c8798c6608bceb3f,657bb40e2dc0e6db413f2178,0.0754,0.0756,1,33,195,52,1,threeone,,,,,,,,,,,,,,,,,,,,,,,,,,,,,,,,,,,,,,,,,,,,,,,,,,,,,,,,,,,,,,,,,,,,,,,,,,,,,,,,,,,,,,,,,,,,,,,,,,,,,,,,,,,,,,,,,,,,,,,,,,,,,,,,,,,,,,,
,,61109ea3acfa60c696aa5bfe,2023-12-14_23h04.40.862,kallum_motion_pilot,2023.2.3,Win32,60.60606061,61109ea3acfa60c696aa5bfe,657bb317c8798c6608bceb3f,657bb40e2dc0e6db413f2178,0.0756,0.0757,1,34,196,11,1,twofour,,,,,,,,,,,,,,,,,,,,,,,,,,,,,,,,,,,,,,,,,,,,,,,,,,,,,,,,,,,,,,,,,,,,,,,,,,,,,,,,,,,,,,,,,,,,,,,,,,,,,,,,,,,,,,,,,,,,,,,,,,,,,,,,,,,,,,,
,,61109ea3acfa60c696aa5bfe,2023-12-14_23h04.40.862,kallum_motion_pilot,2023.2.3,Win32,60.60606061,61109ea3acfa60c696aa5bfe,657bb317c8798c6608bceb3f,657bb40e2dc0e6db413f2178,0.0759,0.0759,1,35,197,84,1,sevenfive,,,,,,,,,,,,,,,,,,,,,,,,,,,,,,,,,,,,,,,,,,,,,,,,,,,,,,,,,,,,,,,,,,,,,,,,,,,,,,,,,,,,,,,,,,,,,,,,,,,,,,,,,,,,,,,,,,,,,,,,,,,,,,,,,,,,,,,
,,61109ea3acfa60c696aa5bfe,2023-12-14_23h04.40.862,kallum_motion_pilot,2023.2.3,Win32,60.60606061,61109ea3acfa60c696aa5bfe,657bb317c8798c6608bceb3f,657bb40e2dc0e6db413f2178,0.076,0.0761,1,36,198,24,1,onetwo,,,,,,,,,,,,,,,,,,,,,,,,,,,,,,,,,,,,,,,,,,,,,,,,,,,,,,,,,,,,,,,,,,,,,,,,,,,,,,,,,,,,,,,,,,,,,,,,,,,,,,,,,,,,,,,,,,,,,,,,,,,,,,,,,,,,,,,
,,61109ea3acfa60c696aa5bfe,2023-12-14_23h04.40.862,kallum_motion_pilot,2023.2.3,Win32,60.60606061,61109ea3acfa60c696aa5bfe,657bb317c8798c6608bceb3f,657bb40e2dc0e6db413f2178,0.0762,0.0763,1,37,199,91,1,sixeight,,,,,,,,,,,,,,,,,,,,,,,,,,,,,,,,,,,,,,,,,,,,,,,,,,,,,,,,,,,,,,,,,,,,,,,,,,,,,,,,,,,,,,,,,,,,,,,,,,,,,,,,,,,,,,,,,,,,,,,,,,,,,,,,,,,,,,,
,,61109ea3acfa60c696aa5bfe,2023-12-14_23h04.40.862,kallum_motion_pilot,2023.2.3,Win32,60.60606061,61109ea3acfa60c696aa5bfe,657bb317c8798c6608bceb3f,657bb40e2dc0e6db413f2178,0.0764,0.0765,1,38,200,54,1,fourtwo,,,,,,,,,,,,,,,,,,,,,,,,,,,,,,,,,,,,,,,,,,,,,,,,,,,,,,,,,,,,,,,,,,,,,,,,,,,,,,,,,,,,,,,,,,,,,,,,,,,,,,,,,,,,,,,,,,,,,,,,,,,,,,,,,,,,,,,
,,61109ea3acfa60c696aa5bfe,2023-12-14_23h04.40.862,kallum_motion_pilot,2023.2.3,Win32,60.60606061,61109ea3acfa60c696aa5bfe,657bb317c8798c6608bceb3f,657bb40e2dc0e6db413f2178,0.0765,0.0767,1,39,201,133,1,seveneight,,,,,,,,,,,,,,,,,,,,,,,,,,,,,,,,,,,,,,,,,,,,,,,,,,,,,,,,,,,,,,,,,,,,,,,,,,,,,,,,,,,,,,,,,,,,,,,,,,,,,,,,,,,,,,,,,,,,,,,,,,,,,,,,,,,,,,,
,,61109ea3acfa60c696aa5bfe,2023-12-14_23h04.40.862,kallum_motion_pilot,2023.2.3,Win32,60.60606061,61109ea3acfa60c696aa5bfe,657bb317c8798c6608bceb3f,657bb40e2dc0e6db413f2178,0.0769,0.0771,1,40,202,143,1,eightseven,,,,,,,,,,,,,,,,,,,,,,,,,,,,,,,,,,,,,,,,,,,,,,,,,,,,,,,,,,,,,,,,,,,,,,,,,,,,,,,,,,,,,,,,,,,,,,,,,,,,,,,,,,,,,,,,,,,,,,,,,,,,,,,,,,,,,,,
,,61109ea3acfa60c696aa5bfe,2023-12-14_23h04.40.862,kallum_motion_pilot,2023.2.3,Win32,60.60606061,61109ea3acfa60c696aa5bfe,657bb317c8798c6608bceb3f,657bb40e2dc0e6db413f2178,0.0772,0.0773,1,41,203,140,1,sevenfive,,,,,,,,,,,,,,,,,,,,,,,,,,,,,,,,,,,,,,,,,,,,,,,,,,,,,,,,,,,,,,,,,,,,,,,,,,,,,,,,,,,,,,,,,,,,,,,,,,,,,,,,,,,,,,,,,,,,,,,,,,,,,,,,,,,,,,,
,,61109ea3acfa60c696aa5bfe,2023-12-14_23h04.40.862,kallum_motion_pilot,2023.2.3,Win32,60.60606061,61109ea3acfa60c696aa5bfe,657bb317c8798c6608bceb3f,657bb40e2dc0e6db413f2178,0.0776,0.0776,1,42,204,57,1,onethree,,,,,,,,,,,,,,,,,,,,,,,,,,,,,,,,,,,,,,,,,,,,,,,,,,,,,,,,,,,,,,,,,,,,,,,,,,,,,,,,,,,,,,,,,,,,,,,,,,,,,,,,,,,,,,,,,,,,,,,,,,,,,,,,,,,,,,,
,,61109ea3acfa60c696aa5bfe,2023-12-14_23h04.40.862,kallum_motion_pilot,2023.2.3,Win32,60.60606061,61109ea3acfa60c696aa5bfe,657bb317c8798c6608bceb3f,657bb40e2dc0e6db413f2178,0.0778,0.0779,1,43,205,107,1,sixeight,,,,,,,,,,,,,,,,,,,,,,,,,,,,,,,,,,,,,,,,,,,,,,,,,,,,,,,,,,,,,,,,,,,,,,,,,,,,,,,,,,,,,,,,,,,,,,,,,,,,,,,,,,,,,,,,,,,,,,,,,,,,,,,,,,,,,,,
,,61109ea3acfa60c696aa5bfe,2023-12-14_23h04.40.862,kallum_motion_pilot,2023.2.3,Win32,60.60606061,61109ea3acfa60c696aa5bfe,657bb317c8798c6608bceb3f,657bb40e2dc0e6db413f2178,0.078,0.0782,1,44,206,106,1,sixfive,,,,,,,,,,,,,,,,,,,,,,,,,,,,,,,,,,,,,,,,,,,,,,,,,,,,,,,,,,,,,,,,,,,,,,,,,,,,,,,,,,,,,,,,,,,,,,,,,,,,,,,,,,,,,,,,,,,,,,,,,,,,,,,,,,,,,,,
,,61109ea3acfa60c696aa5bfe,2023-12-14_23h04.40.862,kallum_motion_pilot,2023.2.3,Win32,60.60606061,61109ea3acfa60c696aa5bfe,657bb317c8798c6608bceb3f,657bb40e2dc0e6db413f2178,0.0784,0.0785,1,45,207,149,1,seveneight,,,,,,,,,,,,,,,,,,,,,,,,,,,,,,,,,,,,,,,,,,,,,,,,,,,,,,,,,,,,,,,,,,,,,,,,,,,,,,,,,,,,,,,,,,,,,,,,,,,,,,,,,,,,,,,,,,,,,,,,,,,,,,,,,,,,,,,
,,61109ea3acfa60c696aa5bfe,2023-12-14_23h04.40.862,kallum_motion_pilot,2023.2.3,Win32,60.60606061,61109ea3acfa60c696aa5bfe,657bb317c8798c6608bceb3f,657bb40e2dc0e6db413f2178,0.0786,0.0787,1,46,208,97,1,fiveseven,,,,,,,,,,,,,,,,,,,,,,,,,,,,,,,,,,,,,,,,,,,,,,,,,,,,,,,,,,,,,,,,,,,,,,,,,,,,,,,,,,,,,,,,,,,,,,,,,,,,,,,,,,,,,,,,,,,,,,,,,,,,,,,,,,,,,,,
,,61109ea3acfa60c696aa5bfe,2023-12-14_23h04.40.862,kallum_motion_pilot,2023.2.3,Win32,60.60606061,61109ea3acfa60c696aa5bfe,657bb317c8798c6608bceb3f,657bb40e2dc0e6db413f2178,0.0788,0.0789,1,47,209,94,1,eightsix,,,,,,,,,,,,,,,,,,,,,,,,,,,,,,,,,,,,,,,,,,,,,,,,,,,,,,,,,,,,,,,,,,,,,,,,,,,,,,,,,,,,,,,,,,,,,,,,,,,,,,,,,,,,,,,,,,,,,,,,,,,,,,,,,,,,,,,
,,61109ea3acfa60c696aa5bfe,2023-12-14_23h04.40.862,kallum_motion_pilot,2023.2.3,Win32,60.60606061,61109ea3acfa60c696aa5bfe,657bb317c8798c6608bceb3f,657bb40e2dc0e6db413f2178,0.079,0.0792,1,48,210,96,1,fivesix,,,,,,,,,,,,,,,,,,,,,,,,,,,,,,,,,,,,,,,,,,,,,,,,,,,,,,,,,,,,,,,,,,,,,,,,,,,,,,,,,,,,,,,,,,,,,,,,,,,,,,,,,,,,,,,,,,,,,,,,,,,,,,,,,,,,,,,
,,61109ea3acfa60c696aa5bfe,2023-12-14_23h04.40.862,kallum_motion_pilot,2023.2.3,Win32,60.60606061,61109ea3acfa60c696aa5bfe,657bb317c8798c6608bceb3f,657bb40e2dc0e6db413f2178,0.0793,0.0794,1,49,211,78,1,fourtwo,,,,,,,,,,,,,,,,,,,,,,,,,,,,,,,,,,,,,,,,,,,,,,,,,,,,,,,,,,,,,,,,,,,,,,,,,,,,,,,,,,,,,,,,,,,,,,,,,,,,,,,,,,,,,,,,,,,,,,,,,,,,,,,,,,,,,,,
,,61109ea3acfa60c696aa5bfe,2023-12-14_23h04.40.862,kallum_motion_pilot,2023.2.3,Win32,60.60606061,61109ea3acfa60c696aa5bfe,657bb317c8798c6608bceb3f,657bb40e2dc0e6db413f2178,0.0795,0.0796,1,50,212,100,1,sevenfive,,,,,,,,,,,,,,,,,,,,,,,,,,,,,,,,,,,,,,,,,,,,,,,,,,,,,,,,,,,,,,,,,,,,,,,,,,,,,,,,,,,,,,,,,,,,,,,,,,,,,,,,,,,,,,,,,,,,,,,,,,,,,,,,,,,,,,,
,,61109ea3acfa60c696aa5bfe,2023-12-14_23h04.40.862,kallum_motion_pilot,2023.2.3,Win32,60.60606061,61109ea3acfa60c696aa5bfe,657bb317c8798c6608bceb3f,657bb40e2dc0e6db413f2178,0.0797,0.0797,1,51,213,48,1,onetwo,,,,,,,,,,,,,,,,,,,,,,,,,,,,,,,,,,,,,,,,,,,,,,,,,,,,,,,,,,,,,,,,,,,,,,,,,,,,,,,,,,,,,,,,,,,,,,,,,,,,,,,,,,,,,,,,,,,,,,,,,,,,,,,,,,,,,,,
,,61109ea3acfa60c696aa5bfe,2023-12-14_23h04.40.862,kallum_motion_pilot,2023.2.3,Win32,60.60606061,61109ea3acfa60c696aa5bfe,657bb317c8798c6608bceb3f,657bb40e2dc0e6db413f2178,0.0799,0.08,1,52,214,1,1,onethree,,,,,,,,,,,,,,,,,,,,,,,,,,,,,,,,,,,,,,,,,,,,,,,,,,,,,,,,,,,,,,,,,,,,,,,,,,,,,,,,,,,,,,,,,,,,,,,,,,,,,,,,,,,,,,,,,,,,,,,,,,,,,,,,,,,,,,,
,,61109ea3acfa60c696aa5bfe,2023-12-14_23h04.40.862,kallum_motion_pilot,2023.2.3,Win32,60.60606061,61109ea3acfa60c696aa5bfe,657bb317c8798c6608bceb3f,657bb40e2dc0e6db413f2178,0.08,0.0802,1,53,215,56,1,onetwo,,,,,,,,,,,,,,,,,,,,,,,,,,,,,,,,,,,,,,,,,,,,,,,,,,,,,,,,,,,,,,,,,,,,,,,,,,,,,,,,,,,,,,,,,,,,,,,,,,,,,,,,,,,,,,,,,,,,,,,,,,,,,,,,,,,,,,,
,,61109ea3acfa60c696aa5bfe,2023-12-14_23h04.40.862,kallum_motion_pilot,2023.2.3,Win32,60.60606061,61109ea3acfa60c696aa5bfe,657bb317c8798c6608bceb3f,657bb40e2dc0e6db413f2178,0.0803,0.0804,1,54,216,49,1,onethree,,,,,,,,,,,,,,,,,,,,,,,,,,,,,,,,,,,,,,,,,,,,,,,,,,,,,,,,,,,,,,,,,,,,,,,,,,,,,,,,,,,,,,,,,,,,,,,,,,,,,,,,,,,,,,,,,,,,,,,,,,,,,,,,,,,,,,,
,,61109ea3acfa60c696aa5bfe,2023-12-14_23h04.40.862,kallum_motion_pilot,2023.2.3,Win32,60.60606061,61109ea3acfa60c696aa5bfe,657bb317c8798c6608bceb3f,657bb40e2dc0e6db413f2178,0.0806,0.0807,1,55,217,146,1,sixfive,,,,,,,,,,,,,,,,,,,,,,,,,,,,,,,,,,,,,,,,,,,,,,,,,,,,,,,,,,,,,,,,,,,,,,,,,,,,,,,,,,,,,,,,,,,,,,,,,,,,,,,,,,,,,,,,,,,,,,,,,,,,,,,,,,,,,,,
,,61109ea3acfa60c696aa5bfe,2023-12-14_23h04.40.862,kallum_motion_pilot,2023.2.3,Win32,60.60606061,61109ea3acfa60c696aa5bfe,657bb317c8798c6608bceb3f,657bb40e2dc0e6db413f2178,0.0808,0.0808,1,56,218,131,1,sixeight,,,,,,,,,,,,,,,,,,,,,,,,,,,,,,,,,,,,,,,,,,,,,,,,,,,,,,,,,,,,,,,,,,,,,,,,,,,,,,,,,,,,,,,,,,,,,,,,,,,,,,,,,,,,,,,,,,,,,,,,,,,,,,,,,,,,,,,
,,61109ea3acfa60c696aa5bfe,2023-12-14_23h04.40.862,kallum_motion_pilot,2023.2.3,Win32,60.60606061,61109ea3acfa60c696aa5bfe,657bb317c8798c6608bceb3f,657bb40e2dc0e6db413f2178,0.0811,0.0812,1,57,219,159,1,eightseven,,,,,,,,,,,,,,,,,,,,,,,,,,,,,,,,,,,,,,,,,,,,,,,,,,,,,,,,,,,,,,,,,,,,,,,,,,,,,,,,,,,,,,,,,,,,,,,,,,,,,,,,,,,,,,,,,,,,,,,,,,,,,,,,,,,,,,,
,,61109ea3acfa60c696aa5bfe,2023-12-14_23h04.40.862,kallum_motion_pilot,2023.2.3,Win32,60.60606061,61109ea3acfa60c696aa5bfe,657bb317c8798c6608bceb3f,657bb40e2dc0e6db413f2178,0.0814,0.0816,1,58,220,41,1,onethree,,,,,,,,,,,,,,,,,,,,,,,,,,,,,,,,,,,,,,,,,,,,,,,,,,,,,,,,,,,,,,,,,,,,,,,,,,,,,,,,,,,,,,,,,,,,,,,,,,,,,,,,,,,,,,,,,,,,,,,,,,,,,,,,,,,,,,,
,,61109ea3acfa60c696aa5bfe,2023-12-14_23h04.40.862,kallum_motion_pilot,2023.2.3,Win32,60.60606061,61109ea3acfa60c696aa5bfe,657bb317c8798c6608bceb3f,657bb40e2dc0e6db413f2178,0.0818,0.082,1,59,221,88,1,fivesix,,,,,,,,,,,,,,,,,,,,,,,,,,,,,,,,,,,,,,,,,,,,,,,,,,,,,,,,,,,,,,,,,,,,,,,,,,,,,,,,,,,,,,,,,,,,,,,,,,,,,,,,,,,,,,,,,,,,,,,,,,,,,,,,,,,,,,,
,,61109ea3acfa60c696aa5bfe,2023-12-14_23h04.40.862,kallum_motion_pilot,2023.2.3,Win32,60.60606061,61109ea3acfa60c696aa5bfe,657bb317c8798c6608bceb3f,657bb40e2dc0e6db413f2178,0.0821,0.0823,1,60,222,42,1,twoone,,,,,,,,,,,,,,,,,,,,,,,,,,,,,,,,,,,,,,,,,,,,,,,,,,,,,,,,,,,,,,,,,,,,,,,,,,,,,,,,,,,,,,,,,,,,,,,,,,,,,,,,,,,,,,,,,,,,,,,,,,,,,,,,,,,,,,,
,,61109ea3acfa60c696aa5bfe,2023-12-14_23h04.40.862,kallum_motion_pilot,2023.2.3,Win32,60.60606061,61109ea3acfa60c696aa5bfe,657bb317c8798c6608bceb3f,657bb40e2dc0e6db413f2178,0.0825,0.0825,1,61,223,44,1,threeone,,,,,,,,,,,,,,,,,,,,,,,,,,,,,,,,,,,,,,,,,,,,,,,,,,,,,,,,,,,,,,,,,,,,,,,,,,,,,,,,,,,,,,,,,,,,,,,,,,,,,,,,,,,,,,,,,,,,,,,,,,,,,,,,,,,,,,,
,,61109ea3acfa60c696aa5bfe,2023-12-14_23h04.40.862,kallum_motion_pilot,2023.2.3,Win32,60.60606061,61109ea3acfa60c696aa5bfe,657bb317c8798c6608bceb3f,657bb40e2dc0e6db413f2178,0.0828,0.0829,1,62,224,22,1,fourtwo,,,,,,,,,,,,,,,,,,,,,,,,,,,,,,,,,,,,,,,,,,,,,,,,,,,,,,,,,,,,,,,,,,,,,,,,,,,,,,,,,,,,,,,,,,,,,,,,,,,,,,,,,,,,,,,,,,,,,,,,,,,,,,,,,,,,,,,
,,61109ea3acfa60c696aa5bfe,2023-12-14_23h04.40.862,kallum_motion_pilot,2023.2.3,Win32,60.60606061,61109ea3acfa60c696aa5bfe,657bb317c8798c6608bceb3f,657bb40e2dc0e6db413f2178,0.0829,0.083,1,63,225,112,1,fivesix,,,,,,,,,,,,,,,,,,,,,,,,,,,,,,,,,,,,,,,,,,,,,,,,,,,,,,,,,,,,,,,,,,,,,,,,,,,,,,,,,,,,,,,,,,,,,,,,,,,,,,,,,,,,,,,,,,,,,,,,,,,,,,,,,,,,,,,
,,61109ea3acfa60c696aa5bfe,2023-12-14_23h04.40.862,kallum_motion_pilot,2023.2.3,Win32,60.60606061,61109ea3acfa60c696aa5bfe,657bb317c8798c6608bceb3f,657bb40e2dc0e6db413f2178,0.0831,0.0832,1,64,226,108,1,sevenfive,,,,,,,,,,,,,,,,,,,,,,,,,,,,,,,,,,,,,,,,,,,,,,,,,,,,,,,,,,,,,,,,,,,,,,,,,,,,,,,,,,,,,,,,,,,,,,,,,,,,,,,,,,,,,,,,,,,,,,,,,,,,,,,,,,,,,,,
,,61109ea3acfa60c696aa5bfe,2023-12-14_23h04.40.862,kallum_motion_pilot,2023.2.3,Win32,60.60606061,61109ea3acfa60c696aa5bfe,657bb317c8798c6608bceb3f,657bb40e2dc0e6db413f2178,0.0834,0.0835,1,65,227,36,1,threeone,,,,,,,,,,,,,,,,,,,,,,,,,,,,,,,,,,,,,,,,,,,,,,,,,,,,,,,,,,,,,,,,,,,,,,,,,,,,,,,,,,,,,,,,,,,,,,,,,,,,,,,,,,,,,,,,,,,,,,,,,,,,,,,,,,,,,,,
,,61109ea3acfa60c696aa5bfe,2023-12-14_23h04.40.862,kallum_motion_pilot,2023.2.3,Win32,60.60606061,61109ea3acfa60c696aa5bfe,657bb317c8798c6608bceb3f,657bb40e2dc0e6db413f2178,0.0836,0.0837,1,66,228,158,1,eightsix,,,,,,,,,,,,,,,,,,,,,,,,,,,,,,,,,,,,,,,,,,,,,,,,,,,,,,,,,,,,,,,,,,,,,,,,,,,,,,,,,,,,,,,,,,,,,,,,,,,,,,,,,,,,,,,,,,,,,,,,,,,,,,,,,,,,,,,
,,61109ea3acfa60c696aa5bfe,2023-12-14_23h04.40.862,kallum_motion_pilot,2023.2.3,Win32,60.60606061,61109ea3acfa60c696aa5bfe,657bb317c8798c6608bceb3f,657bb40e2dc0e6db413f2178,0.0838,0.0839,1,67,229,13,1,threefour,,,,,,,,,,,,,,,,,,,,,,,,,,,,,,,,,,,,,,,,,,,,,,,,,,,,,,,,,,,,,,,,,,,,,,,,,,,,,,,,,,,,,,,,,,,,,,,,,,,,,,,,,,,,,,,,,,,,,,,,,,,,,,,,,,,,,,,
,,61109ea3acfa60c696aa5bfe,2023-12-14_23h04.40.862,kallum_motion_pilot,2023.2.3,Win32,60.60606061,61109ea3acfa60c696aa5bfe,657bb317c8798c6608bceb3f,657bb40e2dc0e6db413f2178,0.084,0.0842,1,68,230,27,1,twofour,,,,,,,,,,,,,,,,,,,,,,,,,,,,,,,,,,,,,,,,,,,,,,,,,,,,,,,,,,,,,,,,,,,,,,,,,,,,,,,,,,,,,,,,,,,,,,,,,,,,,,,,,,,,,,,,,,,,,,,,,,,,,,,,,,,,,,,
,,61109ea3acfa60c696aa5bfe,2023-12-14_23h04.40.862,kallum_motion_pilot,2023.2.3,Win32,60.60606061,61109ea3acfa60c696aa5bfe,657bb317c8798c6608bceb3f,657bb40e2dc0e6db413f2178,0.0843,0.0844,1,69,231,69,1,threefour,,,,,,,,,,,,,,,,,,,,,,,,,,,,,,,,,,,,,,,,,,,,,,,,,,,,,,,,,,,,,,,,,,,,,,,,,,,,,,,,,,,,,,,,,,,,,,,,,,,,,,,,,,,,,,,,,,,,,,,,,,,,,,,,,,,,,,,
,,61109ea3acfa60c696aa5bfe,2023-12-14_23h04.40.862,kallum_motion_pilot,2023.2.3,Win32,60.60606061,61109ea3acfa60c696aa5bfe,657bb317c8798c6608bceb3f,657bb40e2dc0e6db413f2178,0.0845,0.0848,1,70,232,95,1,eightseven,,,,,,,,,,,,,,,,,,,,,,,,,,,,,,,,,,,,,,,,,,,,,,,,,,,,,,,,,,,,,,,,,,,,,,,,,,,,,,,,,,,,,,,,,,,,,,,,,,,,,,,,,,,,,,,,,,,,,,,,,,,,,,,,,,,,,,,
,,61109ea3acfa60c696aa5bfe,2023-12-14_23h04.40.862,kallum_motion_pilot,2023.2.3,Win32,60.60606061,61109ea3acfa60c696aa5bfe,657bb317c8798c6608bceb3f,657bb40e2dc0e6db413f2178,0.0848,0.0849,1,71,233,30,1,fourtwo,,,,,,,,,,,,,,,,,,,,,,,,,,,,,,,,,,,,,,,,,,,,,,,,,,,,,,,,,,,,,,,,,,,,,,,,,,,,,,,,,,,,,,,,,,,,,,,,,,,,,,,,,,,,,,,,,,,,,,,,,,,,,,,,,,,,,,,
,,61109ea3acfa60c696aa5bfe,2023-12-14_23h04.40.862,kallum_motion_pilot,2023.2.3,Win32,60.60606061,61109ea3acfa60c696aa5bfe,657bb317c8798c6608bceb3f,657bb40e2dc0e6db413f2178,0.0851,0.0852,1,72,234,161,1,fiveseven,,,,,,,,,,,,,,,,,,,,,,,,,,,,,,,,,,,,,,,,,,,,,,,,,,,,,,,,,,,,,,,,,,,,,,,,,,,,,,,,,,,,,,,,,,,,,,,,,,,,,,,,,,,,,,,,,,,,,,,,,,,,,,,,,,,,,,,
,,61109ea3acfa60c696aa5bfe,2023-12-14_23h04.40.862,kallum_motion_pilot,2023.2.3,Win32,60.60606061,61109ea3acfa60c696aa5bfe,657bb317c8798c6608bceb3f,657bb40e2dc0e6db413f2178,0.0853,0.0854,1,73,235,135,1,eightseven,,,,,,,,,,,,,,,,,,,,,,,,,,,,,,,,,,,,,,,,,,,,,,,,,,,,,,,,,,,,,,,,,,,,,,,,,,,,,,,,,,,,,,,,,,,,,,,,,,,,,,,,,,,,,,,,,,,,,,,,,,,,,,,,,,,,,,,
,,61109ea3acfa60c696aa5bfe,2023-12-14_23h04.40.862,kallum_motion_pilot,2023.2.3,Win32,60.60606061,61109ea3acfa60c696aa5bfe,657bb317c8798c6608bceb3f,657bb40e2dc0e6db413f2178,0.0856,0.0856,1,74,236,33,1,onethree,,,,,,,,,,,,,,,,,,,,,,,,,,,,,,,,,,,,,,,,,,,,,,,,,,,,,,,,,,,,,,,,,,,,,,,,,,,,,,,,,,,,,,,,,,,,,,,,,,,,,,,,,,,,,,,,,,,,,,,,,,,,,,,,,,,,,,,
,,61109ea3acfa60c696aa5bfe,2023-12-14_23h04.40.862,kallum_motion_pilot,2023.2.3,Win32,60.60606061,61109ea3acfa60c696aa5bfe,657bb317c8798c6608bceb3f,657bb40e2dc0e6db413f2178,0.0857,0.0858,1,75,237,63,1,fourthree,,,,,,,,,,,,,,,,,,,,,,,,,,,,,,,,,,,,,,,,,,,,,,,,,,,,,,,,,,,,,,,,,,,,,,,,,,,,,,,,,,,,,,,,,,,,,,,,,,,,,,,,,,,,,,,,,,,,,,,,,,,,,,,,,,,,,,,
,,61109ea3acfa60c696aa5bfe,2023-12-14_23h04.40.862,kallum_motion_pilot,2023.2.3,Win32,60.60606061,61109ea3acfa60c696aa5bfe,657bb317c8798c6608bceb3f,657bb40e2dc0e6db413f2178,0.086,0.086,1,76,238,9,1,onethree,,,,,,,,,,,,,,,,,,,,,,,,,,,,,,,,,,,,,,,,,,,,,,,,,,,,,,,,,,,,,,,,,,,,,,,,,,,,,,,,,,,,,,,,,,,,,,,,,,,,,,,,,,,,,,,,,,,,,,,,,,,,,,,,,,,,,,,
,,61109ea3acfa60c696aa5bfe,2023-12-14_23h04.40.862,kallum_motion_pilot,2023.2.3,Win32,60.60606061,61109ea3acfa60c696aa5bfe,657bb317c8798c6608bceb3f,657bb40e2dc0e6db413f2178,0.0862,0.0863,1,77,239,113,1,fiveseven,,,,,,,,,,,,,,,,,,,,,,,,,,,,,,,,,,,,,,,,,,,,,,,,,,,,,,,,,,,,,,,,,,,,,,,,,,,,,,,,,,,,,,,,,,,,,,,,,,,,,,,,,,,,,,,,,,,,,,,,,,,,,,,,,,,,,,,
,,61109ea3acfa60c696aa5bfe,2023-12-14_23h04.40.862,kallum_motion_pilot,2023.2.3,Win32,60.60606061,61109ea3acfa60c696aa5bfe,657bb317c8798c6608bceb3f,657bb40e2dc0e6db413f2178,0.0864,0.0865,1,78,240,104,1,fivesix,,,,,,,,,,,,,,,,,,,,,,,,,,,,,,,,,,,,,,,,,,,,,,,,,,,,,,,,,,,,,,,,,,,,,,,,,,,,,,,,,,,,,,,,,,,,,,,,,,,,,,,,,,,,,,,,,,,,,,,,,,,,,,,,,,,,,,,
,,61109ea3acfa60c696aa5bfe,2023-12-14_23h04.40.862,kallum_motion_pilot,2023.2.3,Win32,60.60606061,61109ea3acfa60c696aa5bfe,657bb317c8798c6608bceb3f,657bb40e2dc0e6db413f2178,0.0866,0.0868,1,79,241,73,1,onethree,,,,,,,,,,,,,,,,,,,,,,,,,,,,,,,,,,,,,,,,,,,,,,,,,,,,,,,,,,,,,,,,,,,,,,,,,,,,,,,,,,,,,,,,,,,,,,,,,,,,,,,,,,,,,,,,,,,,,,,,,,,,,,,,,,,,,,,
,,61109ea3acfa60c696aa5bfe,2023-12-14_23h04.40.862,kallum_motion_pilot,2023.2.3,Win32,60.60606061,61109ea3acfa60c696aa5bfe,657bb317c8798c6608bceb3f,657bb40e2dc0e6db413f2178,0.0869,0.087,1,80,242,124,1,sevenfive,,,,,,,,,,,,,,,,,,,,,,,,,,,,,,,,,,,,,,,,,,,,,,,,,,,,,,,,,,,,,,,,,,,,,,,,,,,,,,,,,,,,,,,,,,,,,,,,,,,,,,,,,,,,,,,,,,,,,,,,,,,,,,,,,,,,,,,
,,61109ea3acfa60c696aa5bfe,2023-12-14_23h04.40.862,kallum_motion_pilot,2023.2.3,Win32,60.60606061,61109ea3acfa60c696aa5bfe,657bb317c8798c6608bceb3f,657bb40e2dc0e6db413f2178,0.0871,0.0872,1,81,243,50,1,twoone,,,,,,,,,,,,,,,,,,,,,,,,,,,,,,,,,,,,,,,,,,,,,,,,,,,,,,,,,,,,,,,,,,,,,,,,,,,,,,,,,,,,,,,,,,,,,,,,,,,,,,,,,,,,,,,,,,,,,,,,,,,,,,,,,,,,,,,
,,61109ea3acfa60c696aa5bfe,2023-12-14_23h04.40.862,kallum_motion_pilot,2023.2.3,Win32,60.60606061,61109ea3acfa60c696aa5bfe,657bb317c8798c6608bceb3f,657bb40e2dc0e6db413f2178,0.0873,0.0874,1,82,244,65,1,onethree,,,,,,,,,,,,,,,,,,,,,,,,,,,,,,,,,,,,,,,,,,,,,,,,,,,,,,,,,,,,,,,,,,,,,,,,,,,,,,,,,,,,,,,,,,,,,,,,,,,,,,,,,,,,,,,,,,,,,,,,,,,,,,,,,,,,,,,
,,61109ea3acfa60c696aa5bfe,2023-12-14_23h04.40.862,kallum_motion_pilot,2023.2.3,Win32,60.60606061,61109ea3acfa60c696aa5bfe,657bb317c8798c6608bceb3f,657bb40e2dc0e6db413f2178,0.0876,0.0876,1,83,245,136,1,fivesix,,,,,,,,,,,,,,,,,,,,,,,,,,,,,,,,,,,,,,,,,,,,,,,,,,,,,,,,,,,,,,,,,,,,,,,,,,,,,,,,,,,,,,,,,,,,,,,,,,,,,,,,,,,,,,,,,,,,,,,,,,,,,,,,,,,,,,,
,,61109ea3acfa60c696aa5bfe,2023-12-14_23h04.40.862,kallum_motion_pilot,2023.2.3,Win32,60.60606061,61109ea3acfa60c696aa5bfe,657bb317c8798c6608bceb3f,657bb40e2dc0e6db413f2178,0.0878,0.0878,1,84,246,92,1,sevenfive,,,,,,,,,,,,,,,,,,,,,,,,,,,,,,,,,,,,,,,,,,,,,,,,,,,,,,,,,,,,,,,,,,,,,,,,,,,,,,,,,,,,,,,,,,,,,,,,,,,,,,,,,,,,,,,,,,,,,,,,,,,,,,,,,,,,,,,
,,61109ea3acfa60c696aa5bfe,2023-12-14_23h04.40.862,kallum_motion_pilot,2023.2.3,Win32,60.60606061,61109ea3acfa60c696aa5bfe,657bb317c8798c6608bceb3f,657bb40e2dc0e6db413f2178,0.0879,0.0881,1,85,247,79,1,eightseven,,,,,,,,,,,,,,,,,,,,,,,,,,,,,,,,,,,,,,,,,,,,,,,,,,,,,,,,,,,,,,,,,,,,,,,,,,,,,,,,,,,,,,,,,,,,,,,,,,,,,,,,,,,,,,,,,,,,,,,,,,,,,,,,,,,,,,,
,,61109ea3acfa60c696aa5bfe,2023-12-14_23h04.40.862,kallum_motion_pilot,2023.2.3,Win32,60.60606061,61109ea3acfa60c696aa5bfe,657bb317c8798c6608bceb3f,657bb40e2dc0e6db413f2178,0.0881,0.0882,1,86,248,35,1,twofour,,,,,,,,,,,,,,,,,,,,,,,,,,,,,,,,,,,,,,,,,,,,,,,,,,,,,,,,,,,,,,,,,,,,,,,,,,,,,,,,,,,,,,,,,,,,,,,,,,,,,,,,,,,,,,,,,,,,,,,,,,,,,,,,,,,,,,,
,,61109ea3acfa60c696aa5bfe,2023-12-14_23h04.40.862,kallum_motion_pilot,2023.2.3,Win32,60.60606061,61109ea3acfa60c696aa5bfe,657bb317c8798c6608bceb3f,657bb40e2dc0e6db413f2178,0.0883,0.0884,1,87,249,15,1,fourthree,,,,,,,,,,,,,,,,,,,,,,,,,,,,,,,,,,,,,,,,,,,,,,,,,,,,,,,,,,,,,,,,,,,,,,,,,,,,,,,,,,,,,,,,,,,,,,,,,,,,,,,,,,,,,,,,,,,,,,,,,,,,,,,,,,,,,,,
,,61109ea3acfa60c696aa5bfe,2023-12-14_23h04.40.862,kallum_motion_pilot,2023.2.3,Win32,60.60606061,61109ea3acfa60c696aa5bfe,657bb317c8798c6608bceb3f,657bb40e2dc0e6db413f2178,0.0885,0.0887,1,88,250,148,1,sevenfive,,,,,,,,,,,,,,,,,,,,,,,,,,,,,,,,,,,,,,,,,,,,,,,,,,,,,,,,,,,,,,,,,,,,,,,,,,,,,,,,,,,,,,,,,,,,,,,,,,,,,,,,,,,,,,,,,,,,,,,,,,,,,,,,,,,,,,,
,,61109ea3acfa60c696aa5bfe,2023-12-14_23h04.40.862,kallum_motion_pilot,2023.2.3,Win32,60.60606061,61109ea3acfa60c696aa5bfe,657bb317c8798c6608bceb3f,657bb40e2dc0e6db413f2178,0.0888,0.0888,1,89,251,16,1,onetwo,,,,,,,,,,,,,,,,,,,,,,,,,,,,,,,,,,,,,,,,,,,,,,,,,,,,,,,,,,,,,,,,,,,,,,,,,,,,,,,,,,,,,,,,,,,,,,,,,,,,,,,,,,,,,,,,,,,,,,,,,,,,,,,,,,,,,,,
,,61109ea3acfa60c696aa5bfe,2023-12-14_23h04.40.862,kallum_motion_pilot,2023.2.3,Win32,60.60606061,61109ea3acfa60c696aa5bfe,657bb317c8798c6608bceb3f,657bb40e2dc0e6db413f2178,0.089,0.0891,1,90,252,3,1,twofour,,,,,,,,,,,,,,,,,,,,,,,,,,,,,,,,,,,,,,,,,,,,,,,,,,,,,,,,,,,,,,,,,,,,,,,,,,,,,,,,,,,,,,,,,,,,,,,,,,,,,,,,,,,,,,,,,,,,,,,,,,,,,,,,,,,,,,,
,,61109ea3acfa60c696aa5bfe,2023-12-14_23h04.40.862,kallum_motion_pilot,2023.2.3,Win32,60.60606061,61109ea3acfa60c696aa5bfe,657bb317c8798c6608bceb3f,657bb40e2dc0e6db413f2178,0.0892,0.0893,1,91,253,119,1,eightseven,,,,,,,,,,,,,,,,,,,,,,,,,,,,,,,,,,,,,,,,,,,,,,,,,,,,,,,,,,,,,,,,,,,,,,,,,,,,,,,,,,,,,,,,,,,,,,,,,,,,,,,,,,,,,,,,,,,,,,,,,,,,,,,,,,,,,,,
,,61109ea3acfa60c696aa5bfe,2023-12-14_23h04.40.862,kallum_motion_pilot,2023.2.3,Win32,60.60606061,61109ea3acfa60c696aa5bfe,657bb317c8798c6608bceb3f,657bb40e2dc0e6db413f2178,0.0894,0.0895,1,92,254,115,1,sixeight,,,,,,,,,,,,,,,,,,,,,,,,,,,,,,,,,,,,,,,,,,,,,,,,,,,,,,,,,,,,,,,,,,,,,,,,,,,,,,,,,,,,,,,,,,,,,,,,,,,,,,,,,,,,,,,,,,,,,,,,,,,,,,,,,,,,,,,
,,61109ea3acfa60c696aa5bfe,2023-12-14_23h04.40.862,kallum_motion_pilot,2023.2.3,Win32,60.60606061,61109ea3acfa60c696aa5bfe,657bb317c8798c6608bceb3f,657bb40e2dc0e6db413f2178,0.0897,0.0897,1,93,255,77,1,threefour,,,,,,,,,,,,,,,,,,,,,,,,,,,,,,,,,,,,,,,,,,,,,,,,,,,,,,,,,,,,,,,,,,,,,,,,,,,,,,,,,,,,,,,,,,,,,,,,,,,,,,,,,,,,,,,,,,,,,,,,,,,,,,,,,,,,,,,
,,61109ea3acfa60c696aa5bfe,2023-12-14_23h04.40.862,kallum_motion_pilot,2023.2.3,Win32,60.60606061,61109ea3acfa60c696aa5bfe,657bb317c8798c6608bceb3f,657bb40e2dc0e6db413f2178,0.0899,0.0901,1,94,256,83,1,sixeight,,,,,,,,,,,,,,,,,,,,,,,,,,,,,,,,,,,,,,,,,,,,,,,,,,,,,,,,,,,,,,,,,,,,,,,,,,,,,,,,,,,,,,,,,,,,,,,,,,,,,,,,,,,,,,,,,,,,,,,,,,,,,,,,,,,,,,,
,,61109ea3acfa60c696aa5bfe,2023-12-14_23h04.40.862,kallum_motion_pilot,2023.2.3,Win32,60.60606061,61109ea3acfa60c696aa5bfe,657bb317c8798c6608bceb3f,657bb40e2dc0e6db413f2178,0.0901,0.0902,1,95,257,138,1,sixfive,,,,,,,,,,,,,,,,,,,,,,,,,,,,,,,,,,,,,,,,,,,,,,,,,,,,,,,,,,,,,,,,,,,,,,,,,,,,,,,,,,,,,,,,,,,,,,,,,,,,,,,,,,,,,,,,,,,,,,,,,,,,,,,,,,,,,,,
,,61109ea3acfa60c696aa5bfe,2023-12-14_23h04.40.862,kallum_motion_pilot,2023.2.3,Win32,60.60606061,61109ea3acfa60c696aa5bfe,657bb317c8798c6608bceb3f,657bb40e2dc0e6db413f2178,0.0904,0.0905,1,96,258,18,1,twoone,,,,,,,,,,,,,,,,,,,,,,,,,,,,,,,,,,,,,,,,,,,,,,,,,,,,,,,,,,,,,,,,,,,,,,,,,,,,,,,,,,,,,,,,,,,,,,,,,,,,,,,,,,,,,,,,,,,,,,,,,,,,,,,,,,,,,,,
,,61109ea3acfa60c696aa5bfe,2023-12-14_23h04.40.862,kallum_motion_pilot,2023.2.3,Win32,60.60606061,61109ea3acfa60c696aa5bfe,657bb317c8798c6608bceb3f,657bb40e2dc0e6db413f2178,0.0906,0.0906,1,97,259,117,1,seveneight,,,,,,,,,,,,,,,,,,,,,,,,,,,,,,,,,,,,,,,,,,,,,,,,,,,,,,,,,,,,,,,,,,,,,,,,,,,,,,,,,,,,,,,,,,,,,,,,,,,,,,,,,,,,,,,,,,,,,,,,,,,,,,,,,,,,,,,
,,61109ea3acfa60c696aa5bfe,2023-12-14_23h04.40.862,kallum_motion_pilot,2023.2.3,Win32,60.60606061,61109ea3acfa60c696aa5bfe,657bb317c8798c6608bceb3f,657bb40e2dc0e6db413f2178,0.0907,0.0909,1,98,260,156,1,sevenfive,,,,,,,,,,,,,,,,,,,,,,,,,,,,,,,,,,,,,,,,,,,,,,,,,,,,,,,,,,,,,,,,,,,,,,,,,,,,,,,,,,,,,,,,,,,,,,,,,,,,,,,,,,,,,,,,,,,,,,,,,,,,,,,,,,,,,,,
,,61109ea3acfa60c696aa5bfe,2023-12-14_23h04.40.862,kallum_motion_pilot,2023.2.3,Win32,60.60606061,61109ea3acfa60c696aa5bfe,657bb317c8798c6608bceb3f,657bb40e2dc0e6db413f2178,0.0909,0.0911,1,99,261,21,1,threefour,,,,,,,,,,,,,,,,,,,,,,,,,,,,,,,,,,,,,,,,,,,,,,,,,,,,,,,,,,,,,,,,,,,,,,,,,,,,,,,,,,,,,,,,,,,,,,,,,,,,,,,,,,,,,,,,,,,,,,,,,,,,,,,,,,,,,,,
,,61109ea3acfa60c696aa5bfe,2023-12-14_23h04.40.862,kallum_motion_pilot,2023.2.3,Win32,60.60606061,61109ea3acfa60c696aa5bfe,657bb317c8798c6608bceb3f,657bb40e2dc0e6db413f2178,0.0911,0.0912,1,100,262,82,1,sixfive,,,,,,,,,,,,,,,,,,,,,,,,,,,,,,,,,,,,,,,,,,,,,,,,,,,,,,,,,,,,,,,,,,,,,,,,,,,,,,,,,,,,,,,,,,,,,,,,,,,,,,,,,,,,,,,,,,,,,,,,,,,,,,,,,,,,,,,
,,61109ea3acfa60c696aa5bfe,2023-12-14_23h04.40.862,kallum_motion_pilot,2023.2.3,Win32,60.60606061,61109ea3acfa60c696aa5bfe,657bb317c8798c6608bceb3f,657bb40e2dc0e6db413f2178,0.0913,0.0915,1,101,263,20,1,threeone,,,,,,,,,,,,,,,,,,,,,,,,,,,,,,,,,,,,,,,,,,,,,,,,,,,,,,,,,,,,,,,,,,,,,,,,,,,,,,,,,,,,,,,,,,,,,,,,,,,,,,,,,,,,,,,,,,,,,,,,,,,,,,,,,,,,,,,
,,61109ea3acfa60c696aa5bfe,2023-12-14_23h04.40.862,kallum_motion_pilot,2023.2.3,Win32,60.60606061,61109ea3acfa60c696aa5bfe,657bb317c8798c6608bceb3f,657bb40e2dc0e6db413f2178,0.0916,0.0917,1,102,264,75,1,twofour,,,,,,,,,,,,,,,,,,,,,,,,,,,,,,,,,,,,,,,,,,,,,,,,,,,,,,,,,,,,,,,,,,,,,,,,,,,,,,,,,,,,,,,,,,,,,,,,,,,,,,,,,,,,,,,,,,,,,,,,,,,,,,,,,,,,,,,
,,61109ea3acfa60c696aa5bfe,2023-12-14_23h04.40.862,kallum_motion_pilot,2023.2.3,Win32,60.60606061,61109ea3acfa60c696aa5bfe,657bb317c8798c6608bceb3f,657bb40e2dc0e6db413f2178,0.0918,0.092,1,103,265,121,1,fiveseven,,,,,,,,,,,,,,,,,,,,,,,,,,,,,,,,,,,,,,,,,,,,,,,,,,,,,,,,,,,,,,,,,,,,,,,,,,,,,,,,,,,,,,,,,,,,,,,,,,,,,,,,,,,,,,,,,,,,,,,,,,,,,,,,,,,,,,,
,,61109ea3acfa60c696aa5bfe,2023-12-14_23h04.40.862,kallum_motion_pilot,2023.2.3,Win32,60.60606061,61109ea3acfa60c696aa5bfe,657bb317c8798c6608bceb3f,657bb40e2dc0e6db413f2178,0.092,0.0922,1,104,266,45,1,threefour,,,,,,,,,,,,,,,,,,,,,,,,,,,,,,,,,,,,,,,,,,,,,,,,,,,,,,,,,,,,,,,,,,,,,,,,,,,,,,,,,,,,,,,,,,,,,,,,,,,,,,,,,,,,,,,,,,,,,,,,,,,,,,,,,,,,,,,
,,61109ea3acfa60c696aa5bfe,2023-12-14_23h04.40.862,kallum_motion_pilot,2023.2.3,Win32,60.60606061,61109ea3acfa60c696aa5bfe,657bb317c8798c6608bceb3f,657bb40e2dc0e6db413f2178,0.0923,0.0924,1,105,267,153,1,fiveseven,,,,,,,,,,,,,,,,,,,,,,,,,,,,,,,,,,,,,,,,,,,,,,,,,,,,,,,,,,,,,,,,,,,,,,,,,,,,,,,,,,,,,,,,,,,,,,,,,,,,,,,,,,,,,,,,,,,,,,,,,,,,,,,,,,,,,,,
,,61109ea3acfa60c696aa5bfe,2023-12-14_23h04.40.862,kallum_motion_pilot,2023.2.3,Win32,60.60606061,61109ea3acfa60c696aa5bfe,657bb317c8798c6608bceb3f,657bb40e2dc0e6db413f2178,0.0924,0.0926,1,106,268,34,1,twoone,,,,,,,,,,,,,,,,,,,,,,,,,,,,,,,,,,,,,,,,,,,,,,,,,,,,,,,,,,,,,,,,,,,,,,,,,,,,,,,,,,,,,,,,,,,,,,,,,,,,,,,,,,,,,,,,,,,,,,,,,,,,,,,,,,,,,,,
,,61109ea3acfa60c696aa5bfe,2023-12-14_23h04.40.862,kallum_motion_pilot,2023.2.3,Win32,60.60606061,61109ea3acfa60c696aa5bfe,657bb317c8798c6608bceb3f,657bb40e2dc0e6db413f2178,0.0927,0.0928,1,107,269,8,1,onetwo,,,,,,,,,,,,,,,,,,,,,,,,,,,,,,,,,,,,,,,,,,,,,,,,,,,,,,,,,,,,,,,,,,,,,,,,,,,,,,,,,,,,,,,,,,,,,,,,,,,,,,,,,,,,,,,,,,,,,,,,,,,,,,,,,,,,,,,
,,61109ea3acfa60c696aa5bfe,2023-12-14_23h04.40.862,kallum_motion_pilot,2023.2.3,Win32,60.60606061,61109ea3acfa60c696aa5bfe,657bb317c8798c6608bceb3f,657bb40e2dc0e6db413f2178,0.0928,0.093,1,108,270,116,1,sevenfive,,,,,,,,,,,,,,,,,,,,,,,,,,,,,,,,,,,,,,,,,,,,,,,,,,,,,,,,,,,,,,,,,,,,,,,,,,,,,,,,,,,,,,,,,,,,,,,,,,,,,,,,,,,,,,,,,,,,,,,,,,,,,,,,,,,,,,,
,,61109ea3acfa60c696aa5bfe,2023-12-14_23h04.40.862,kallum_motion_pilot,2023.2.3,Win32,60.60606061,61109ea3acfa60c696aa5bfe,657bb317c8798c6608bceb3f,657bb40e2dc0e6db413f2178,0.0931,0.0933,1,109,271,134,1,eightsix,,,,,,,,,,,,,,,,,,,,,,,,,,,,,,,,,,,,,,,,,,,,,,,,,,,,,,,,,,,,,,,,,,,,,,,,,,,,,,,,,,,,,,,,,,,,,,,,,,,,,,,,,,,,,,,,,,,,,,,,,,,,,,,,,,,,,,,
,,61109ea3acfa60c696aa5bfe,2023-12-14_23h04.40.862,kallum_motion_pilot,2023.2.3,Win32,60.60606061,61109ea3acfa60c696aa5bfe,657bb317c8798c6608bceb3f,657bb40e2dc0e6db413f2178,0.0933,0.0935,1,110,272,132,1,sevenfive,,,,,,,,,,,,,,,,,,,,,,,,,,,,,,,,,,,,,,,,,,,,,,,,,,,,,,,,,,,,,,,,,,,,,,,,,,,,,,,,,,,,,,,,,,,,,,,,,,,,,,,,,,,,,,,,,,,,,,,,,,,,,,,,,,,,,,,
,,61109ea3acfa60c696aa5bfe,2023-12-14_23h04.40.862,kallum_motion_pilot,2023.2.3,Win32,60.60606061,61109ea3acfa60c696aa5bfe,657bb317c8798c6608bceb3f,657bb40e2dc0e6db413f2178,0.0938,0.094,1,111,273,89,1,fiveseven,,,,,,,,,,,,,,,,,,,,,,,,,,,,,,,,,,,,,,,,,,,,,,,,,,,,,,,,,,,,,,,,,,,,,,,,,,,,,,,,,,,,,,,,,,,,,,,,,,,,,,,,,,,,,,,,,,,,,,,,,,,,,,,,,,,,,,,
,,61109ea3acfa60c696aa5bfe,2023-12-14_23h04.40.862,kallum_motion_pilot,2023.2.3,Win32,60.60606061,61109ea3acfa60c696aa5bfe,657bb317c8798c6608bceb3f,657bb40e2dc0e6db413f2178,0.0942,0.0944,1,112,274,151,1,eightseven,,,,,,,,,,,,,,,,,,,,,,,,,,,,,,,,,,,,,,,,,,,,,,,,,,,,,,,,,,,,,,,,,,,,,,,,,,,,,,,,,,,,,,,,,,,,,,,,,,,,,,,,,,,,,,,,,,,,,,,,,,,,,,,,,,,,,,,
,,61109ea3acfa60c696aa5bfe,2023-12-14_23h04.40.862,kallum_motion_pilot,2023.2.3,Win32,60.60606061,61109ea3acfa60c696aa5bfe,657bb317c8798c6608bceb3f,657bb40e2dc0e6db413f2178,0.0946,0.0948,1,113,275,72,1,onetwo,,,,,,,,,,,,,,,,,,,,,,,,,,,,,,,,,,,,,,,,,,,,,,,,,,,,,,,,,,,,,,,,,,,,,,,,,,,,,,,,,,,,,,,,,,,,,,,,,,,,,,,,,,,,,,,,,,,,,,,,,,,,,,,,,,,,,,,
,,61109ea3acfa60c696aa5bfe,2023-12-14_23h04.40.862,kallum_motion_pilot,2023.2.3,Win32,60.60606061,61109ea3acfa60c696aa5bfe,657bb317c8798c6608bceb3f,657bb40e2dc0e6db413f2178,0.095,0.0951,1,114,276,43,1,twofour,,,,,,,,,,,,,,,,,,,,,,,,,,,,,,,,,,,,,,,,,,,,,,,,,,,,,,,,,,,,,,,,,,,,,,,,,,,,,,,,,,,,,,,,,,,,,,,,,,,,,,,,,,,,,,,,,,,,,,,,,,,,,,,,,,,,,,,
,,61109ea3acfa60c696aa5bfe,2023-12-14_23h04.40.862,kallum_motion_pilot,2023.2.3,Win32,60.60606061,61109ea3acfa60c696aa5bfe,657bb317c8798c6608bceb3f,657bb40e2dc0e6db413f2178,0.0953,0.0955,1,115,277,145,1,fiveseven,,,,,,,,,,,,,,,,,,,,,,,,,,,,,,,,,,,,,,,,,,,,,,,,,,,,,,,,,,,,,,,,,,,,,,,,,,,,,,,,,,,,,,,,,,,,,,,,,,,,,,,,,,,,,,,,,,,,,,,,,,,,,,,,,,,,,,,
,,61109ea3acfa60c696aa5bfe,2023-12-14_23h04.40.862,kallum_motion_pilot,2023.2.3,Win32,60.60606061,61109ea3acfa60c696aa5bfe,657bb317c8798c6608bceb3f,657bb40e2dc0e6db413f2178,0.0957,0.0959,1,116,278,126,1,eightsix,,,,,,,,,,,,,,,,,,,,,,,,,,,,,,,,,,,,,,,,,,,,,,,,,,,,,,,,,,,,,,,,,,,,,,,,,,,,,,,,,,,,,,,,,,,,,,,,,,,,,,,,,,,,,,,,,,,,,,,,,,,,,,,,,,,,,,,
,,61109ea3acfa60c696aa5bfe,2023-12-14_23h04.40.862,kallum_motion_pilot,2023.2.3,Win32,60.60606061,61109ea3acfa60c696aa5bfe,657bb317c8798c6608bceb3f,657bb40e2dc0e6db413f2178,0.0961,0.0963,1,117,279,39,1,fourthree,,,,,,,,,,,,,,,,,,,,,,,,,,,,,,,,,,,,,,,,,,,,,,,,,,,,,,,,,,,,,,,,,,,,,,,,,,,,,,,,,,,,,,,,,,,,,,,,,,,,,,,,,,,,,,,,,,,,,,,,,,,,,,,,,,,,,,,
