startup.started,startup.stopped,Prolific ID*,date,expName,psychopyVersion,OS,frameRate,participant,study_id,session,stimpositions.started,stimpositions.stopped,hardcoded_stimulus_positions.thisRepN,hardcoded_stimulus_positions.thisTrialN,hardcoded_stimulus_positions.thisN,hardcoded_stimulus_positions.thisIndex,hardcoded_stimulus_positions.ran,StimulusPos,stimorientation.started,stimorientation.stopped,prac_stimorientation_import_loop.thisRepN,prac_stimorientation_import_loop.thisTrialN,prac_stimorientation_import_loop.thisN,prac_stimorientation_import_loop.thisIndex,prac_stimorientation_import_loop.ran,Stimorientation,welcome_instr.started,welcome_instr.stopped,key_resp.keys,key_resp.rt,key_resp.duration,response_steppedout_1.started,response_steppedout_1.stopped,key_resp_20.keys,key_resp_20.rt,key_resp_20.duration,response_steppedout_2.started,response_steppedout_2.stopped,key_resp_19.keys,key_resp_19.rt,key_resp_19.duration,stim_response_instr.started,stim_response_instr.stopped,key_resp_15.keys,key_resp_15.rt,key_resp_15.duration,direction_instr_2.started,direction_instr_2.stopped,key_resp_9.keys,key_resp_9.rt,key_resp_9.duration,instr_prac.started,instr_prac.stopped,key_resp_10.keys,key_resp_10.rt,key_resp_10.duration,Stim1_display_prac.started,Stim1_display_prac.stopped,Ecc,Circle1_ori,Circle2_ori,response_prac.started,similarity,response_time,response_prac.stopped,mouse_5.x,mouse_5.y,mouse_5.leftButton,mouse_5.midButton,mouse_5.rightButton,mouse_5.clicked_name,responseprac_feedback.started,responseprac_feedback.stopped,summary2_prac.started,summary2_prac.stopped,mouse_6.x,mouse_6.y,mouse_6.leftButton,mouse_6.midButton,mouse_6.rightButton,mouse_6.clicked_name,duringprac.thisRepN,duringprac.thisTrialN,duringprac.thisN,duringprac.thisIndex,duringprac.ran,begin.started,begin.stopped,key_resp_22.keys,key_resp_22.rt,key_resp_22.duration,Stim1_display.started,Stim1_display.stopped,circle1_ori,circle2_ori,blank.started,blank.stopped,response.started,response.stopped,mouse.x,mouse.y,mouse.leftButton,mouse.midButton,mouse.rightButton,mouse.clicked_name,response_2.started,response_2.stopped,mouse_2.x,mouse_2.y,mouse_2.leftButton,mouse_2.midButton,mouse_2.rightButton,mouse_2.clicked_name,special_trial.started,special_trial.stopped,catch_1.started,catch_1.stopped,mouse_3.x,mouse_3.y,mouse_3.leftButton,mouse_3.midButton,mouse_3.rightButton,catchresponse,catchnumber,response_time_catch,Catch,response_sum.started,response_sum.stopped,mouse_11.x,mouse_11.y,mouse_11.leftButton,mouse_11.midButton,mouse_11.rightButton,main_trial.thisRepN,main_trial.thisTrialN,main_trial.thisN,main_trial.thisIndex,main_trial.ran,Orientationtrialno,xcircle1_ori,xcircle2_ori,flip_presentation_sequence_for_double_pass.started,flip_presentation_sequence_for_double_pass.stopped,double_pass.thisRepN,double_pass.thisTrialN,double_pass.thisN,double_pass.thisIndex,double_pass.ran,goodbye.started,goodbye.stopped,key_resp_3.keys,key_resp_3.rt,key_resp_3.duration
0.0002,0.0004,613ad089983f33fc8194d601,2023-12-14_20h05.22.923,kallum_motion_pilot,2023.2.3,Win32,60.24096386,613ad089983f33fc8194d601,657bb317c8798c6608bceb3f,657bb43bf6e17e695207f353,,,,,,,,,,,,,,,,,,,,,,,,,,,,,,,,,,,,,,,,,,,,,,,,,,,,,,,,,,,,,,,,,,,,,,,,,,,,,,,,,,,,,,,,,,,,,,,,,,,,,,,,,,,,,,,,,,,,,,,,,,,,,,,,,,,,,,,,,,,,,,,
,,613ad089983f33fc8194d601,2023-12-14_20h05.22.923,kallum_motion_pilot,2023.2.3,Win32,60.24096386,613ad089983f33fc8194d601,657bb317c8798c6608bceb3f,657bb43bf6e17e695207f353,0.0213,0.0214,0,0,0,84,1,sevenfive,,,,,,,,,,,,,,,,,,,,,,,,,,,,,,,,,,,,,,,,,,,,,,,,,,,,,,,,,,,,,,,,,,,,,,,,,,,,,,,,,,,,,,,,,,,,,,,,,,,,,,,,,,,,,,,,,,,,,,,,,,,,,,,,,,,,,,,
,,613ad089983f33fc8194d601,2023-12-14_20h05.22.923,kallum_motion_pilot,2023.2.3,Win32,60.24096386,613ad089983f33fc8194d601,657bb317c8798c6608bceb3f,657bb43bf6e17e695207f353,0.0217,0.0217,0,1,1,56,1,onetwo,,,,,,,,,,,,,,,,,,,,,,,,,,,,,,,,,,,,,,,,,,,,,,,,,,,,,,,,,,,,,,,,,,,,,,,,,,,,,,,,,,,,,,,,,,,,,,,,,,,,,,,,,,,,,,,,,,,,,,,,,,,,,,,,,,,,,,,
,,613ad089983f33fc8194d601,2023-12-14_20h05.22.923,kallum_motion_pilot,2023.2.3,Win32,60.24096386,613ad089983f33fc8194d601,657bb317c8798c6608bceb3f,657bb43bf6e17e695207f353,0.0218,0.0218,0,2,2,10,1,twoone,,,,,,,,,,,,,,,,,,,,,,,,,,,,,,,,,,,,,,,,,,,,,,,,,,,,,,,,,,,,,,,,,,,,,,,,,,,,,,,,,,,,,,,,,,,,,,,,,,,,,,,,,,,,,,,,,,,,,,,,,,,,,,,,,,,,,,,
,,613ad089983f33fc8194d601,2023-12-14_20h05.22.923,kallum_motion_pilot,2023.2.3,Win32,60.24096386,613ad089983f33fc8194d601,657bb317c8798c6608bceb3f,657bb43bf6e17e695207f353,0.022,0.022,0,3,3,155,1,sixeight,,,,,,,,,,,,,,,,,,,,,,,,,,,,,,,,,,,,,,,,,,,,,,,,,,,,,,,,,,,,,,,,,,,,,,,,,,,,,,,,,,,,,,,,,,,,,,,,,,,,,,,,,,,,,,,,,,,,,,,,,,,,,,,,,,,,,,,
,,613ad089983f33fc8194d601,2023-12-14_20h05.22.923,kallum_motion_pilot,2023.2.3,Win32,60.24096386,613ad089983f33fc8194d601,657bb317c8798c6608bceb3f,657bb43bf6e17e695207f353,0.0221,0.0221,0,4,4,41,1,onethree,,,,,,,,,,,,,,,,,,,,,,,,,,,,,,,,,,,,,,,,,,,,,,,,,,,,,,,,,,,,,,,,,,,,,,,,,,,,,,,,,,,,,,,,,,,,,,,,,,,,,,,,,,,,,,,,,,,,,,,,,,,,,,,,,,,,,,,
,,613ad089983f33fc8194d601,2023-12-14_20h05.22.923,kallum_motion_pilot,2023.2.3,Win32,60.24096386,613ad089983f33fc8194d601,657bb317c8798c6608bceb3f,657bb43bf6e17e695207f353,0.0222,0.0222,0,5,5,109,1,seveneight,,,,,,,,,,,,,,,,,,,,,,,,,,,,,,,,,,,,,,,,,,,,,,,,,,,,,,,,,,,,,,,,,,,,,,,,,,,,,,,,,,,,,,,,,,,,,,,,,,,,,,,,,,,,,,,,,,,,,,,,,,,,,,,,,,,,,,,
,,613ad089983f33fc8194d601,2023-12-14_20h05.22.923,kallum_motion_pilot,2023.2.3,Win32,60.24096386,613ad089983f33fc8194d601,657bb317c8798c6608bceb3f,657bb43bf6e17e695207f353,0.0223,0.0223,0,6,6,71,1,fourthree,,,,,,,,,,,,,,,,,,,,,,,,,,,,,,,,,,,,,,,,,,,,,,,,,,,,,,,,,,,,,,,,,,,,,,,,,,,,,,,,,,,,,,,,,,,,,,,,,,,,,,,,,,,,,,,,,,,,,,,,,,,,,,,,,,,,,,,
,,613ad089983f33fc8194d601,2023-12-14_20h05.22.923,kallum_motion_pilot,2023.2.3,Win32,60.24096386,613ad089983f33fc8194d601,657bb317c8798c6608bceb3f,657bb43bf6e17e695207f353,0.0224,0.0224,0,7,7,104,1,fivesix,,,,,,,,,,,,,,,,,,,,,,,,,,,,,,,,,,,,,,,,,,,,,,,,,,,,,,,,,,,,,,,,,,,,,,,,,,,,,,,,,,,,,,,,,,,,,,,,,,,,,,,,,,,,,,,,,,,,,,,,,,,,,,,,,,,,,,,
,,613ad089983f33fc8194d601,2023-12-14_20h05.22.923,kallum_motion_pilot,2023.2.3,Win32,60.24096386,613ad089983f33fc8194d601,657bb317c8798c6608bceb3f,657bb43bf6e17e695207f353,0.0225,0.0225,0,8,8,150,1,eightsix,,,,,,,,,,,,,,,,,,,,,,,,,,,,,,,,,,,,,,,,,,,,,,,,,,,,,,,,,,,,,,,,,,,,,,,,,,,,,,,,,,,,,,,,,,,,,,,,,,,,,,,,,,,,,,,,,,,,,,,,,,,,,,,,,,,,,,,
,,613ad089983f33fc8194d601,2023-12-14_20h05.22.923,kallum_motion_pilot,2023.2.3,Win32,60.24096386,613ad089983f33fc8194d601,657bb317c8798c6608bceb3f,657bb43bf6e17e695207f353,0.0226,0.0227,0,9,9,119,1,eightseven,,,,,,,,,,,,,,,,,,,,,,,,,,,,,,,,,,,,,,,,,,,,,,,,,,,,,,,,,,,,,,,,,,,,,,,,,,,,,,,,,,,,,,,,,,,,,,,,,,,,,,,,,,,,,,,,,,,,,,,,,,,,,,,,,,,,,,,
,,613ad089983f33fc8194d601,2023-12-14_20h05.22.923,kallum_motion_pilot,2023.2.3,Win32,60.24096386,613ad089983f33fc8194d601,657bb317c8798c6608bceb3f,657bb43bf6e17e695207f353,0.0227,0.0227,0,10,10,12,1,threeone,,,,,,,,,,,,,,,,,,,,,,,,,,,,,,,,,,,,,,,,,,,,,,,,,,,,,,,,,,,,,,,,,,,,,,,,,,,,,,,,,,,,,,,,,,,,,,,,,,,,,,,,,,,,,,,,,,,,,,,,,,,,,,,,,,,,,,,
,,613ad089983f33fc8194d601,2023-12-14_20h05.22.923,kallum_motion_pilot,2023.2.3,Win32,60.24096386,613ad089983f33fc8194d601,657bb317c8798c6608bceb3f,657bb43bf6e17e695207f353,0.0228,0.0228,0,11,11,58,1,twoone,,,,,,,,,,,,,,,,,,,,,,,,,,,,,,,,,,,,,,,,,,,,,,,,,,,,,,,,,,,,,,,,,,,,,,,,,,,,,,,,,,,,,,,,,,,,,,,,,,,,,,,,,,,,,,,,,,,,,,,,,,,,,,,,,,,,,,,
,,613ad089983f33fc8194d601,2023-12-14_20h05.22.923,kallum_motion_pilot,2023.2.3,Win32,60.24096386,613ad089983f33fc8194d601,657bb317c8798c6608bceb3f,657bb43bf6e17e695207f353,0.0229,0.023,0,12,12,112,1,fivesix,,,,,,,,,,,,,,,,,,,,,,,,,,,,,,,,,,,,,,,,,,,,,,,,,,,,,,,,,,,,,,,,,,,,,,,,,,,,,,,,,,,,,,,,,,,,,,,,,,,,,,,,,,,,,,,,,,,,,,,,,,,,,,,,,,,,,,,
,,613ad089983f33fc8194d601,2023-12-14_20h05.22.923,kallum_motion_pilot,2023.2.3,Win32,60.24096386,613ad089983f33fc8194d601,657bb317c8798c6608bceb3f,657bb43bf6e17e695207f353,0.023,0.023,0,13,13,111,1,eightseven,,,,,,,,,,,,,,,,,,,,,,,,,,,,,,,,,,,,,,,,,,,,,,,,,,,,,,,,,,,,,,,,,,,,,,,,,,,,,,,,,,,,,,,,,,,,,,,,,,,,,,,,,,,,,,,,,,,,,,,,,,,,,,,,,,,,,,,
,,613ad089983f33fc8194d601,2023-12-14_20h05.22.923,kallum_motion_pilot,2023.2.3,Win32,60.24096386,613ad089983f33fc8194d601,657bb317c8798c6608bceb3f,657bb43bf6e17e695207f353,0.0231,0.0231,0,14,14,61,1,threefour,,,,,,,,,,,,,,,,,,,,,,,,,,,,,,,,,,,,,,,,,,,,,,,,,,,,,,,,,,,,,,,,,,,,,,,,,,,,,,,,,,,,,,,,,,,,,,,,,,,,,,,,,,,,,,,,,,,,,,,,,,,,,,,,,,,,,,,
,,613ad089983f33fc8194d601,2023-12-14_20h05.22.923,kallum_motion_pilot,2023.2.3,Win32,60.24096386,613ad089983f33fc8194d601,657bb317c8798c6608bceb3f,657bb43bf6e17e695207f353,0.0231,0.0231,0,15,15,91,1,sixeight,,,,,,,,,,,,,,,,,,,,,,,,,,,,,,,,,,,,,,,,,,,,,,,,,,,,,,,,,,,,,,,,,,,,,,,,,,,,,,,,,,,,,,,,,,,,,,,,,,,,,,,,,,,,,,,,,,,,,,,,,,,,,,,,,,,,,,,
,,613ad089983f33fc8194d601,2023-12-14_20h05.22.923,kallum_motion_pilot,2023.2.3,Win32,60.24096386,613ad089983f33fc8194d601,657bb317c8798c6608bceb3f,657bb43bf6e17e695207f353,0.0232,0.0232,0,16,16,81,1,fiveseven,,,,,,,,,,,,,,,,,,,,,,,,,,,,,,,,,,,,,,,,,,,,,,,,,,,,,,,,,,,,,,,,,,,,,,,,,,,,,,,,,,,,,,,,,,,,,,,,,,,,,,,,,,,,,,,,,,,,,,,,,,,,,,,,,,,,,,,
,,613ad089983f33fc8194d601,2023-12-14_20h05.22.923,kallum_motion_pilot,2023.2.3,Win32,60.24096386,613ad089983f33fc8194d601,657bb317c8798c6608bceb3f,657bb43bf6e17e695207f353,0.0234,0.0234,0,17,17,152,1,fivesix,,,,,,,,,,,,,,,,,,,,,,,,,,,,,,,,,,,,,,,,,,,,,,,,,,,,,,,,,,,,,,,,,,,,,,,,,,,,,,,,,,,,,,,,,,,,,,,,,,,,,,,,,,,,,,,,,,,,,,,,,,,,,,,,,,,,,,,
,,613ad089983f33fc8194d601,2023-12-14_20h05.22.923,kallum_motion_pilot,2023.2.3,Win32,60.24096386,613ad089983f33fc8194d601,657bb317c8798c6608bceb3f,657bb43bf6e17e695207f353,0.0234,0.0234,0,18,18,87,1,eightseven,,,,,,,,,,,,,,,,,,,,,,,,,,,,,,,,,,,,,,,,,,,,,,,,,,,,,,,,,,,,,,,,,,,,,,,,,,,,,,,,,,,,,,,,,,,,,,,,,,,,,,,,,,,,,,,,,,,,,,,,,,,,,,,,,,,,,,,
,,613ad089983f33fc8194d601,2023-12-14_20h05.22.923,kallum_motion_pilot,2023.2.3,Win32,60.24096386,613ad089983f33fc8194d601,657bb317c8798c6608bceb3f,657bb43bf6e17e695207f353,0.0235,0.0235,0,19,19,131,1,sixeight,,,,,,,,,,,,,,,,,,,,,,,,,,,,,,,,,,,,,,,,,,,,,,,,,,,,,,,,,,,,,,,,,,,,,,,,,,,,,,,,,,,,,,,,,,,,,,,,,,,,,,,,,,,,,,,,,,,,,,,,,,,,,,,,,,,,,,,
,,613ad089983f33fc8194d601,2023-12-14_20h05.22.923,kallum_motion_pilot,2023.2.3,Win32,60.24096386,613ad089983f33fc8194d601,657bb317c8798c6608bceb3f,657bb43bf6e17e695207f353,0.0236,0.0236,0,20,20,138,1,sixfive,,,,,,,,,,,,,,,,,,,,,,,,,,,,,,,,,,,,,,,,,,,,,,,,,,,,,,,,,,,,,,,,,,,,,,,,,,,,,,,,,,,,,,,,,,,,,,,,,,,,,,,,,,,,,,,,,,,,,,,,,,,,,,,,,,,,,,,
,,613ad089983f33fc8194d601,2023-12-14_20h05.22.923,kallum_motion_pilot,2023.2.3,Win32,60.24096386,613ad089983f33fc8194d601,657bb317c8798c6608bceb3f,657bb43bf6e17e695207f353,0.0237,0.0237,0,21,21,86,1,eightsix,,,,,,,,,,,,,,,,,,,,,,,,,,,,,,,,,,,,,,,,,,,,,,,,,,,,,,,,,,,,,,,,,,,,,,,,,,,,,,,,,,,,,,,,,,,,,,,,,,,,,,,,,,,,,,,,,,,,,,,,,,,,,,,,,,,,,,,
,,613ad089983f33fc8194d601,2023-12-14_20h05.22.923,kallum_motion_pilot,2023.2.3,Win32,60.24096386,613ad089983f33fc8194d601,657bb317c8798c6608bceb3f,657bb43bf6e17e695207f353,0.0238,0.0238,0,22,22,132,1,sevenfive,,,,,,,,,,,,,,,,,,,,,,,,,,,,,,,,,,,,,,,,,,,,,,,,,,,,,,,,,,,,,,,,,,,,,,,,,,,,,,,,,,,,,,,,,,,,,,,,,,,,,,,,,,,,,,,,,,,,,,,,,,,,,,,,,,,,,,,
,,613ad089983f33fc8194d601,2023-12-14_20h05.22.923,kallum_motion_pilot,2023.2.3,Win32,60.24096386,613ad089983f33fc8194d601,657bb317c8798c6608bceb3f,657bb43bf6e17e695207f353,0.0239,0.0239,0,23,23,94,1,eightsix,,,,,,,,,,,,,,,,,,,,,,,,,,,,,,,,,,,,,,,,,,,,,,,,,,,,,,,,,,,,,,,,,,,,,,,,,,,,,,,,,,,,,,,,,,,,,,,,,,,,,,,,,,,,,,,,,,,,,,,,,,,,,,,,,,,,,,,
,,613ad089983f33fc8194d601,2023-12-14_20h05.22.923,kallum_motion_pilot,2023.2.3,Win32,60.24096386,613ad089983f33fc8194d601,657bb317c8798c6608bceb3f,657bb43bf6e17e695207f353,0.0239,0.024,0,24,24,92,1,sevenfive,,,,,,,,,,,,,,,,,,,,,,,,,,,,,,,,,,,,,,,,,,,,,,,,,,,,,,,,,,,,,,,,,,,,,,,,,,,,,,,,,,,,,,,,,,,,,,,,,,,,,,,,,,,,,,,,,,,,,,,,,,,,,,,,,,,,,,,
,,613ad089983f33fc8194d601,2023-12-14_20h05.22.923,kallum_motion_pilot,2023.2.3,Win32,60.24096386,613ad089983f33fc8194d601,657bb317c8798c6608bceb3f,657bb43bf6e17e695207f353,0.024,0.024,0,25,25,17,1,onethree,,,,,,,,,,,,,,,,,,,,,,,,,,,,,,,,,,,,,,,,,,,,,,,,,,,,,,,,,,,,,,,,,,,,,,,,,,,,,,,,,,,,,,,,,,,,,,,,,,,,,,,,,,,,,,,,,,,,,,,,,,,,,,,,,,,,,,,
,,613ad089983f33fc8194d601,2023-12-14_20h05.22.923,kallum_motion_pilot,2023.2.3,Win32,60.24096386,613ad089983f33fc8194d601,657bb317c8798c6608bceb3f,657bb43bf6e17e695207f353,0.0242,0.0242,0,26,26,123,1,sixeight,,,,,,,,,,,,,,,,,,,,,,,,,,,,,,,,,,,,,,,,,,,,,,,,,,,,,,,,,,,,,,,,,,,,,,,,,,,,,,,,,,,,,,,,,,,,,,,,,,,,,,,,,,,,,,,,,,,,,,,,,,,,,,,,,,,,,,,
,,613ad089983f33fc8194d601,2023-12-14_20h05.22.923,kallum_motion_pilot,2023.2.3,Win32,60.24096386,613ad089983f33fc8194d601,657bb317c8798c6608bceb3f,657bb43bf6e17e695207f353,0.0243,0.0243,0,27,27,68,1,threeone,,,,,,,,,,,,,,,,,,,,,,,,,,,,,,,,,,,,,,,,,,,,,,,,,,,,,,,,,,,,,,,,,,,,,,,,,,,,,,,,,,,,,,,,,,,,,,,,,,,,,,,,,,,,,,,,,,,,,,,,,,,,,,,,,,,,,,,
,,613ad089983f33fc8194d601,2023-12-14_20h05.22.923,kallum_motion_pilot,2023.2.3,Win32,60.24096386,613ad089983f33fc8194d601,657bb317c8798c6608bceb3f,657bb43bf6e17e695207f353,0.0244,0.0244,0,28,28,16,1,onetwo,,,,,,,,,,,,,,,,,,,,,,,,,,,,,,,,,,,,,,,,,,,,,,,,,,,,,,,,,,,,,,,,,,,,,,,,,,,,,,,,,,,,,,,,,,,,,,,,,,,,,,,,,,,,,,,,,,,,,,,,,,,,,,,,,,,,,,,
,,613ad089983f33fc8194d601,2023-12-14_20h05.22.923,kallum_motion_pilot,2023.2.3,Win32,60.24096386,613ad089983f33fc8194d601,657bb317c8798c6608bceb3f,657bb43bf6e17e695207f353,0.0244,0.0244,0,29,29,115,1,sixeight,,,,,,,,,,,,,,,,,,,,,,,,,,,,,,,,,,,,,,,,,,,,,,,,,,,,,,,,,,,,,,,,,,,,,,,,,,,,,,,,,,,,,,,,,,,,,,,,,,,,,,,,,,,,,,,,,,,,,,,,,,,,,,,,,,,,,,,
,,613ad089983f33fc8194d601,2023-12-14_20h05.22.923,kallum_motion_pilot,2023.2.3,Win32,60.24096386,613ad089983f33fc8194d601,657bb317c8798c6608bceb3f,657bb43bf6e17e695207f353,0.0245,0.0245,0,30,30,66,1,twoone,,,,,,,,,,,,,,,,,,,,,,,,,,,,,,,,,,,,,,,,,,,,,,,,,,,,,,,,,,,,,,,,,,,,,,,,,,,,,,,,,,,,,,,,,,,,,,,,,,,,,,,,,,,,,,,,,,,,,,,,,,,,,,,,,,,,,,,
,,613ad089983f33fc8194d601,2023-12-14_20h05.22.923,kallum_motion_pilot,2023.2.3,Win32,60.24096386,613ad089983f33fc8194d601,657bb317c8798c6608bceb3f,657bb43bf6e17e695207f353,0.0246,0.0246,0,31,31,120,1,fivesix,,,,,,,,,,,,,,,,,,,,,,,,,,,,,,,,,,,,,,,,,,,,,,,,,,,,,,,,,,,,,,,,,,,,,,,,,,,,,,,,,,,,,,,,,,,,,,,,,,,,,,,,,,,,,,,,,,,,,,,,,,,,,,,,,,,,,,,
,,613ad089983f33fc8194d601,2023-12-14_20h05.22.923,kallum_motion_pilot,2023.2.3,Win32,60.24096386,613ad089983f33fc8194d601,657bb317c8798c6608bceb3f,657bb43bf6e17e695207f353,0.0247,0.0247,0,32,32,76,1,threeone,,,,,,,,,,,,,,,,,,,,,,,,,,,,,,,,,,,,,,,,,,,,,,,,,,,,,,,,,,,,,,,,,,,,,,,,,,,,,,,,,,,,,,,,,,,,,,,,,,,,,,,,,,,,,,,,,,,,,,,,,,,,,,,,,,,,,,,
,,613ad089983f33fc8194d601,2023-12-14_20h05.22.923,kallum_motion_pilot,2023.2.3,Win32,60.24096386,613ad089983f33fc8194d601,657bb317c8798c6608bceb3f,657bb43bf6e17e695207f353,0.0247,0.0247,0,33,33,116,1,sevenfive,,,,,,,,,,,,,,,,,,,,,,,,,,,,,,,,,,,,,,,,,,,,,,,,,,,,,,,,,,,,,,,,,,,,,,,,,,,,,,,,,,,,,,,,,,,,,,,,,,,,,,,,,,,,,,,,,,,,,,,,,,,,,,,,,,,,,,,
,,613ad089983f33fc8194d601,2023-12-14_20h05.22.923,kallum_motion_pilot,2023.2.3,Win32,60.24096386,613ad089983f33fc8194d601,657bb317c8798c6608bceb3f,657bb43bf6e17e695207f353,0.0248,0.0249,0,34,34,72,1,onetwo,,,,,,,,,,,,,,,,,,,,,,,,,,,,,,,,,,,,,,,,,,,,,,,,,,,,,,,,,,,,,,,,,,,,,,,,,,,,,,,,,,,,,,,,,,,,,,,,,,,,,,,,,,,,,,,,,,,,,,,,,,,,,,,,,,,,,,,
,,613ad089983f33fc8194d601,2023-12-14_20h05.22.923,kallum_motion_pilot,2023.2.3,Win32,60.24096386,613ad089983f33fc8194d601,657bb317c8798c6608bceb3f,657bb43bf6e17e695207f353,0.0249,0.0249,0,35,35,5,1,threefour,,,,,,,,,,,,,,,,,,,,,,,,,,,,,,,,,,,,,,,,,,,,,,,,,,,,,,,,,,,,,,,,,,,,,,,,,,,,,,,,,,,,,,,,,,,,,,,,,,,,,,,,,,,,,,,,,,,,,,,,,,,,,,,,,,,,,,,
,,613ad089983f33fc8194d601,2023-12-14_20h05.22.923,kallum_motion_pilot,2023.2.3,Win32,60.24096386,613ad089983f33fc8194d601,657bb317c8798c6608bceb3f,657bb43bf6e17e695207f353,0.025,0.025,0,36,36,25,1,onethree,,,,,,,,,,,,,,,,,,,,,,,,,,,,,,,,,,,,,,,,,,,,,,,,,,,,,,,,,,,,,,,,,,,,,,,,,,,,,,,,,,,,,,,,,,,,,,,,,,,,,,,,,,,,,,,,,,,,,,,,,,,,,,,,,,,,,,,
,,613ad089983f33fc8194d601,2023-12-14_20h05.22.923,kallum_motion_pilot,2023.2.3,Win32,60.24096386,613ad089983f33fc8194d601,657bb317c8798c6608bceb3f,657bb43bf6e17e695207f353,0.0252,0.0252,0,37,37,149,1,seveneight,,,,,,,,,,,,,,,,,,,,,,,,,,,,,,,,,,,,,,,,,,,,,,,,,,,,,,,,,,,,,,,,,,,,,,,,,,,,,,,,,,,,,,,,,,,,,,,,,,,,,,,,,,,,,,,,,,,,,,,,,,,,,,,,,,,,,,,
,,613ad089983f33fc8194d601,2023-12-14_20h05.22.923,kallum_motion_pilot,2023.2.3,Win32,60.24096386,613ad089983f33fc8194d601,657bb317c8798c6608bceb3f,657bb43bf6e17e695207f353,0.0252,0.0252,0,38,38,137,1,fiveseven,,,,,,,,,,,,,,,,,,,,,,,,,,,,,,,,,,,,,,,,,,,,,,,,,,,,,,,,,,,,,,,,,,,,,,,,,,,,,,,,,,,,,,,,,,,,,,,,,,,,,,,,,,,,,,,,,,,,,,,,,,,,,,,,,,,,,,,
,,613ad089983f33fc8194d601,2023-12-14_20h05.22.923,kallum_motion_pilot,2023.2.3,Win32,60.24096386,613ad089983f33fc8194d601,657bb317c8798c6608bceb3f,657bb43bf6e17e695207f353,0.0253,0.0253,0,39,39,15,1,fourthree,,,,,,,,,,,,,,,,,,,,,,,,,,,,,,,,,,,,,,,,,,,,,,,,,,,,,,,,,,,,,,,,,,,,,,,,,,,,,,,,,,,,,,,,,,,,,,,,,,,,,,,,,,,,,,,,,,,,,,,,,,,,,,,,,,,,,,,
,,613ad089983f33fc8194d601,2023-12-14_20h05.22.923,kallum_motion_pilot,2023.2.3,Win32,60.24096386,613ad089983f33fc8194d601,657bb317c8798c6608bceb3f,657bb43bf6e17e695207f353,0.0254,0.0255,0,40,40,107,1,sixeight,,,,,,,,,,,,,,,,,,,,,,,,,,,,,,,,,,,,,,,,,,,,,,,,,,,,,,,,,,,,,,,,,,,,,,,,,,,,,,,,,,,,,,,,,,,,,,,,,,,,,,,,,,,,,,,,,,,,,,,,,,,,,,,,,,,,,,,
,,613ad089983f33fc8194d601,2023-12-14_20h05.22.923,kallum_motion_pilot,2023.2.3,Win32,60.24096386,613ad089983f33fc8194d601,657bb317c8798c6608bceb3f,657bb43bf6e17e695207f353,0.0255,0.0255,0,41,41,53,1,threefour,,,,,,,,,,,,,,,,,,,,,,,,,,,,,,,,,,,,,,,,,,,,,,,,,,,,,,,,,,,,,,,,,,,,,,,,,,,,,,,,,,,,,,,,,,,,,,,,,,,,,,,,,,,,,,,,,,,,,,,,,,,,,,,,,,,,,,,
,,613ad089983f33fc8194d601,2023-12-14_20h05.22.923,kallum_motion_pilot,2023.2.3,Win32,60.24096386,613ad089983f33fc8194d601,657bb317c8798c6608bceb3f,657bb43bf6e17e695207f353,0.0256,0.0256,0,42,42,160,1,fivesix,,,,,,,,,,,,,,,,,,,,,,,,,,,,,,,,,,,,,,,,,,,,,,,,,,,,,,,,,,,,,,,,,,,,,,,,,,,,,,,,,,,,,,,,,,,,,,,,,,,,,,,,,,,,,,,,,,,,,,,,,,,,,,,,,,,,,,,
,,613ad089983f33fc8194d601,2023-12-14_20h05.22.923,kallum_motion_pilot,2023.2.3,Win32,60.24096386,613ad089983f33fc8194d601,657bb317c8798c6608bceb3f,657bb43bf6e17e695207f353,0.0257,0.0257,0,43,43,70,1,fourtwo,,,,,,,,,,,,,,,,,,,,,,,,,,,,,,,,,,,,,,,,,,,,,,,,,,,,,,,,,,,,,,,,,,,,,,,,,,,,,,,,,,,,,,,,,,,,,,,,,,,,,,,,,,,,,,,,,,,,,,,,,,,,,,,,,,,,,,,
,,613ad089983f33fc8194d601,2023-12-14_20h05.22.923,kallum_motion_pilot,2023.2.3,Win32,60.24096386,613ad089983f33fc8194d601,657bb317c8798c6608bceb3f,657bb43bf6e17e695207f353,0.0258,0.0258,0,44,44,32,1,onetwo,,,,,,,,,,,,,,,,,,,,,,,,,,,,,,,,,,,,,,,,,,,,,,,,,,,,,,,,,,,,,,,,,,,,,,,,,,,,,,,,,,,,,,,,,,,,,,,,,,,,,,,,,,,,,,,,,,,,,,,,,,,,,,,,,,,,,,,
,,613ad089983f33fc8194d601,2023-12-14_20h05.22.923,kallum_motion_pilot,2023.2.3,Win32,60.24096386,613ad089983f33fc8194d601,657bb317c8798c6608bceb3f,657bb43bf6e17e695207f353,0.0258,0.0258,0,45,45,85,1,seveneight,,,,,,,,,,,,,,,,,,,,,,,,,,,,,,,,,,,,,,,,,,,,,,,,,,,,,,,,,,,,,,,,,,,,,,,,,,,,,,,,,,,,,,,,,,,,,,,,,,,,,,,,,,,,,,,,,,,,,,,,,,,,,,,,,,,,,,,
,,613ad089983f33fc8194d601,2023-12-14_20h05.22.923,kallum_motion_pilot,2023.2.3,Win32,60.24096386,613ad089983f33fc8194d601,657bb317c8798c6608bceb3f,657bb43bf6e17e695207f353,0.026,0.026,0,46,46,134,1,eightsix,,,,,,,,,,,,,,,,,,,,,,,,,,,,,,,,,,,,,,,,,,,,,,,,,,,,,,,,,,,,,,,,,,,,,,,,,,,,,,,,,,,,,,,,,,,,,,,,,,,,,,,,,,,,,,,,,,,,,,,,,,,,,,,,,,,,,,,
,,613ad089983f33fc8194d601,2023-12-14_20h05.22.923,kallum_motion_pilot,2023.2.3,Win32,60.24096386,613ad089983f33fc8194d601,657bb317c8798c6608bceb3f,657bb43bf6e17e695207f353,0.026,0.026,0,47,47,49,1,onethree,,,,,,,,,,,,,,,,,,,,,,,,,,,,,,,,,,,,,,,,,,,,,,,,,,,,,,,,,,,,,,,,,,,,,,,,,,,,,,,,,,,,,,,,,,,,,,,,,,,,,,,,,,,,,,,,,,,,,,,,,,,,,,,,,,,,,,,
,,613ad089983f33fc8194d601,2023-12-14_20h05.22.923,kallum_motion_pilot,2023.2.3,Win32,60.24096386,613ad089983f33fc8194d601,657bb317c8798c6608bceb3f,657bb43bf6e17e695207f353,0.0261,0.0262,0,48,48,13,1,threefour,,,,,,,,,,,,,,,,,,,,,,,,,,,,,,,,,,,,,,,,,,,,,,,,,,,,,,,,,,,,,,,,,,,,,,,,,,,,,,,,,,,,,,,,,,,,,,,,,,,,,,,,,,,,,,,,,,,,,,,,,,,,,,,,,,,,,,,
,,613ad089983f33fc8194d601,2023-12-14_20h05.22.923,kallum_motion_pilot,2023.2.3,Win32,60.24096386,613ad089983f33fc8194d601,657bb317c8798c6608bceb3f,657bb43bf6e17e695207f353,0.0262,0.0263,0,49,49,90,1,sixfive,,,,,,,,,,,,,,,,,,,,,,,,,,,,,,,,,,,,,,,,,,,,,,,,,,,,,,,,,,,,,,,,,,,,,,,,,,,,,,,,,,,,,,,,,,,,,,,,,,,,,,,,,,,,,,,,,,,,,,,,,,,,,,,,,,,,,,,
,,613ad089983f33fc8194d601,2023-12-14_20h05.22.923,kallum_motion_pilot,2023.2.3,Win32,60.24096386,613ad089983f33fc8194d601,657bb317c8798c6608bceb3f,657bb43bf6e17e695207f353,0.0263,0.0264,0,50,50,40,1,onetwo,,,,,,,,,,,,,,,,,,,,,,,,,,,,,,,,,,,,,,,,,,,,,,,,,,,,,,,,,,,,,,,,,,,,,,,,,,,,,,,,,,,,,,,,,,,,,,,,,,,,,,,,,,,,,,,,,,,,,,,,,,,,,,,,,,,,,,,
,,613ad089983f33fc8194d601,2023-12-14_20h05.22.923,kallum_motion_pilot,2023.2.3,Win32,60.24096386,613ad089983f33fc8194d601,657bb317c8798c6608bceb3f,657bb43bf6e17e695207f353,0.0264,0.0264,0,51,51,95,1,eightseven,,,,,,,,,,,,,,,,,,,,,,,,,,,,,,,,,,,,,,,,,,,,,,,,,,,,,,,,,,,,,,,,,,,,,,,,,,,,,,,,,,,,,,,,,,,,,,,,,,,,,,,,,,,,,,,,,,,,,,,,,,,,,,,,,,,,,,,
,,613ad089983f33fc8194d601,2023-12-14_20h05.22.923,kallum_motion_pilot,2023.2.3,Win32,60.24096386,613ad089983f33fc8194d601,657bb317c8798c6608bceb3f,657bb43bf6e17e695207f353,0.0265,0.0265,0,52,52,75,1,twofour,,,,,,,,,,,,,,,,,,,,,,,,,,,,,,,,,,,,,,,,,,,,,,,,,,,,,,,,,,,,,,,,,,,,,,,,,,,,,,,,,,,,,,,,,,,,,,,,,,,,,,,,,,,,,,,,,,,,,,,,,,,,,,,,,,,,,,,
,,613ad089983f33fc8194d601,2023-12-14_20h05.22.923,kallum_motion_pilot,2023.2.3,Win32,60.24096386,613ad089983f33fc8194d601,657bb317c8798c6608bceb3f,657bb43bf6e17e695207f353,0.0266,0.0266,0,53,53,136,1,fivesix,,,,,,,,,,,,,,,,,,,,,,,,,,,,,,,,,,,,,,,,,,,,,,,,,,,,,,,,,,,,,,,,,,,,,,,,,,,,,,,,,,,,,,,,,,,,,,,,,,,,,,,,,,,,,,,,,,,,,,,,,,,,,,,,,,,,,,,
,,613ad089983f33fc8194d601,2023-12-14_20h05.22.923,kallum_motion_pilot,2023.2.3,Win32,60.24096386,613ad089983f33fc8194d601,657bb317c8798c6608bceb3f,657bb43bf6e17e695207f353,0.0267,0.0267,0,54,54,88,1,fivesix,,,,,,,,,,,,,,,,,,,,,,,,,,,,,,,,,,,,,,,,,,,,,,,,,,,,,,,,,,,,,,,,,,,,,,,,,,,,,,,,,,,,,,,,,,,,,,,,,,,,,,,,,,,,,,,,,,,,,,,,,,,,,,,,,,,,,,,
,,613ad089983f33fc8194d601,2023-12-14_20h05.22.923,kallum_motion_pilot,2023.2.3,Win32,60.24096386,613ad089983f33fc8194d601,657bb317c8798c6608bceb3f,657bb43bf6e17e695207f353,0.0268,0.0268,0,55,55,31,1,fourthree,,,,,,,,,,,,,,,,,,,,,,,,,,,,,,,,,,,,,,,,,,,,,,,,,,,,,,,,,,,,,,,,,,,,,,,,,,,,,,,,,,,,,,,,,,,,,,,,,,,,,,,,,,,,,,,,,,,,,,,,,,,,,,,,,,,,,,,
,,613ad089983f33fc8194d601,2023-12-14_20h05.22.923,kallum_motion_pilot,2023.2.3,Win32,60.24096386,613ad089983f33fc8194d601,657bb317c8798c6608bceb3f,657bb43bf6e17e695207f353,0.0268,0.0273,0,56,56,78,1,fourtwo,,,,,,,,,,,,,,,,,,,,,,,,,,,,,,,,,,,,,,,,,,,,,,,,,,,,,,,,,,,,,,,,,,,,,,,,,,,,,,,,,,,,,,,,,,,,,,,,,,,,,,,,,,,,,,,,,,,,,,,,,,,,,,,,,,,,,,,
,,613ad089983f33fc8194d601,2023-12-14_20h05.22.923,kallum_motion_pilot,2023.2.3,Win32,60.24096386,613ad089983f33fc8194d601,657bb317c8798c6608bceb3f,657bb43bf6e17e695207f353,0.0275,0.0278,0,57,57,69,1,threefour,,,,,,,,,,,,,,,,,,,,,,,,,,,,,,,,,,,,,,,,,,,,,,,,,,,,,,,,,,,,,,,,,,,,,,,,,,,,,,,,,,,,,,,,,,,,,,,,,,,,,,,,,,,,,,,,,,,,,,,,,,,,,,,,,,,,,,,
,,613ad089983f33fc8194d601,2023-12-14_20h05.22.923,kallum_motion_pilot,2023.2.3,Win32,60.24096386,613ad089983f33fc8194d601,657bb317c8798c6608bceb3f,657bb43bf6e17e695207f353,0.0281,0.0282,0,58,58,151,1,eightseven,,,,,,,,,,,,,,,,,,,,,,,,,,,,,,,,,,,,,,,,,,,,,,,,,,,,,,,,,,,,,,,,,,,,,,,,,,,,,,,,,,,,,,,,,,,,,,,,,,,,,,,,,,,,,,,,,,,,,,,,,,,,,,,,,,,,,,,
,,613ad089983f33fc8194d601,2023-12-14_20h05.22.923,kallum_motion_pilot,2023.2.3,Win32,60.24096386,613ad089983f33fc8194d601,657bb317c8798c6608bceb3f,657bb43bf6e17e695207f353,0.0283,0.0283,0,59,59,65,1,onethree,,,,,,,,,,,,,,,,,,,,,,,,,,,,,,,,,,,,,,,,,,,,,,,,,,,,,,,,,,,,,,,,,,,,,,,,,,,,,,,,,,,,,,,,,,,,,,,,,,,,,,,,,,,,,,,,,,,,,,,,,,,,,,,,,,,,,,,
,,613ad089983f33fc8194d601,2023-12-14_20h05.22.923,kallum_motion_pilot,2023.2.3,Win32,60.24096386,613ad089983f33fc8194d601,657bb317c8798c6608bceb3f,657bb43bf6e17e695207f353,0.0284,0.0284,0,60,60,39,1,fourthree,,,,,,,,,,,,,,,,,,,,,,,,,,,,,,,,,,,,,,,,,,,,,,,,,,,,,,,,,,,,,,,,,,,,,,,,,,,,,,,,,,,,,,,,,,,,,,,,,,,,,,,,,,,,,,,,,,,,,,,,,,,,,,,,,,,,,,,
,,613ad089983f33fc8194d601,2023-12-14_20h05.22.923,kallum_motion_pilot,2023.2.3,Win32,60.24096386,613ad089983f33fc8194d601,657bb317c8798c6608bceb3f,657bb43bf6e17e695207f353,0.0285,0.0285,0,61,61,99,1,sixeight,,,,,,,,,,,,,,,,,,,,,,,,,,,,,,,,,,,,,,,,,,,,,,,,,,,,,,,,,,,,,,,,,,,,,,,,,,,,,,,,,,,,,,,,,,,,,,,,,,,,,,,,,,,,,,,,,,,,,,,,,,,,,,,,,,,,,,,
,,613ad089983f33fc8194d601,2023-12-14_20h05.22.923,kallum_motion_pilot,2023.2.3,Win32,60.24096386,613ad089983f33fc8194d601,657bb317c8798c6608bceb3f,657bb43bf6e17e695207f353,0.0286,0.0286,0,62,62,3,1,twofour,,,,,,,,,,,,,,,,,,,,,,,,,,,,,,,,,,,,,,,,,,,,,,,,,,,,,,,,,,,,,,,,,,,,,,,,,,,,,,,,,,,,,,,,,,,,,,,,,,,,,,,,,,,,,,,,,,,,,,,,,,,,,,,,,,,,,,,
,,613ad089983f33fc8194d601,2023-12-14_20h05.22.923,kallum_motion_pilot,2023.2.3,Win32,60.24096386,613ad089983f33fc8194d601,657bb317c8798c6608bceb3f,657bb43bf6e17e695207f353,0.0287,0.0288,0,63,63,8,1,onetwo,,,,,,,,,,,,,,,,,,,,,,,,,,,,,,,,,,,,,,,,,,,,,,,,,,,,,,,,,,,,,,,,,,,,,,,,,,,,,,,,,,,,,,,,,,,,,,,,,,,,,,,,,,,,,,,,,,,,,,,,,,,,,,,,,,,,,,,
,,613ad089983f33fc8194d601,2023-12-14_20h05.22.923,kallum_motion_pilot,2023.2.3,Win32,60.24096386,613ad089983f33fc8194d601,657bb317c8798c6608bceb3f,657bb43bf6e17e695207f353,0.0289,0.029,0,64,64,142,1,eightsix,,,,,,,,,,,,,,,,,,,,,,,,,,,,,,,,,,,,,,,,,,,,,,,,,,,,,,,,,,,,,,,,,,,,,,,,,,,,,,,,,,,,,,,,,,,,,,,,,,,,,,,,,,,,,,,,,,,,,,,,,,,,,,,,,,,,,,,
,,613ad089983f33fc8194d601,2023-12-14_20h05.22.923,kallum_motion_pilot,2023.2.3,Win32,60.24096386,613ad089983f33fc8194d601,657bb317c8798c6608bceb3f,657bb43bf6e17e695207f353,0.029,0.029,0,65,65,27,1,twofour,,,,,,,,,,,,,,,,,,,,,,,,,,,,,,,,,,,,,,,,,,,,,,,,,,,,,,,,,,,,,,,,,,,,,,,,,,,,,,,,,,,,,,,,,,,,,,,,,,,,,,,,,,,,,,,,,,,,,,,,,,,,,,,,,,,,,,,
,,613ad089983f33fc8194d601,2023-12-14_20h05.22.923,kallum_motion_pilot,2023.2.3,Win32,60.24096386,613ad089983f33fc8194d601,657bb317c8798c6608bceb3f,657bb43bf6e17e695207f353,0.0292,0.0292,0,66,66,9,1,onethree,,,,,,,,,,,,,,,,,,,,,,,,,,,,,,,,,,,,,,,,,,,,,,,,,,,,,,,,,,,,,,,,,,,,,,,,,,,,,,,,,,,,,,,,,,,,,,,,,,,,,,,,,,,,,,,,,,,,,,,,,,,,,,,,,,,,,,,
,,613ad089983f33fc8194d601,2023-12-14_20h05.22.923,kallum_motion_pilot,2023.2.3,Win32,60.24096386,613ad089983f33fc8194d601,657bb317c8798c6608bceb3f,657bb43bf6e17e695207f353,0.0293,0.0293,0,67,67,51,1,twofour,,,,,,,,,,,,,,,,,,,,,,,,,,,,,,,,,,,,,,,,,,,,,,,,,,,,,,,,,,,,,,,,,,,,,,,,,,,,,,,,,,,,,,,,,,,,,,,,,,,,,,,,,,,,,,,,,,,,,,,,,,,,,,,,,,,,,,,
,,613ad089983f33fc8194d601,2023-12-14_20h05.22.923,kallum_motion_pilot,2023.2.3,Win32,60.24096386,613ad089983f33fc8194d601,657bb317c8798c6608bceb3f,657bb43bf6e17e695207f353,0.0294,0.0294,0,68,68,24,1,onetwo,,,,,,,,,,,,,,,,,,,,,,,,,,,,,,,,,,,,,,,,,,,,,,,,,,,,,,,,,,,,,,,,,,,,,,,,,,,,,,,,,,,,,,,,,,,,,,,,,,,,,,,,,,,,,,,,,,,,,,,,,,,,,,,,,,,,,,,
,,613ad089983f33fc8194d601,2023-12-14_20h05.22.923,kallum_motion_pilot,2023.2.3,Win32,60.24096386,613ad089983f33fc8194d601,657bb317c8798c6608bceb3f,657bb43bf6e17e695207f353,0.0295,0.0296,0,69,69,28,1,threeone,,,,,,,,,,,,,,,,,,,,,,,,,,,,,,,,,,,,,,,,,,,,,,,,,,,,,,,,,,,,,,,,,,,,,,,,,,,,,,,,,,,,,,,,,,,,,,,,,,,,,,,,,,,,,,,,,,,,,,,,,,,,,,,,,,,,,,,
,,613ad089983f33fc8194d601,2023-12-14_20h05.22.923,kallum_motion_pilot,2023.2.3,Win32,60.24096386,613ad089983f33fc8194d601,657bb317c8798c6608bceb3f,657bb43bf6e17e695207f353,0.0296,0.0296,0,70,70,103,1,eightseven,,,,,,,,,,,,,,,,,,,,,,,,,,,,,,,,,,,,,,,,,,,,,,,,,,,,,,,,,,,,,,,,,,,,,,,,,,,,,,,,,,,,,,,,,,,,,,,,,,,,,,,,,,,,,,,,,,,,,,,,,,,,,,,,,,,,,,,
,,613ad089983f33fc8194d601,2023-12-14_20h05.22.923,kallum_motion_pilot,2023.2.3,Win32,60.24096386,613ad089983f33fc8194d601,657bb317c8798c6608bceb3f,657bb43bf6e17e695207f353,0.0298,0.0298,0,71,71,129,1,fiveseven,,,,,,,,,,,,,,,,,,,,,,,,,,,,,,,,,,,,,,,,,,,,,,,,,,,,,,,,,,,,,,,,,,,,,,,,,,,,,,,,,,,,,,,,,,,,,,,,,,,,,,,,,,,,,,,,,,,,,,,,,,,,,,,,,,,,,,,
,,613ad089983f33fc8194d601,2023-12-14_20h05.22.923,kallum_motion_pilot,2023.2.3,Win32,60.24096386,613ad089983f33fc8194d601,657bb317c8798c6608bceb3f,657bb43bf6e17e695207f353,0.0299,0.0299,0,72,72,159,1,eightseven,,,,,,,,,,,,,,,,,,,,,,,,,,,,,,,,,,,,,,,,,,,,,,,,,,,,,,,,,,,,,,,,,,,,,,,,,,,,,,,,,,,,,,,,,,,,,,,,,,,,,,,,,,,,,,,,,,,,,,,,,,,,,,,,,,,,,,,
,,613ad089983f33fc8194d601,2023-12-14_20h05.22.923,kallum_motion_pilot,2023.2.3,Win32,60.24096386,613ad089983f33fc8194d601,657bb317c8798c6608bceb3f,657bb43bf6e17e695207f353,0.0299,0.03,0,73,73,42,1,twoone,,,,,,,,,,,,,,,,,,,,,,,,,,,,,,,,,,,,,,,,,,,,,,,,,,,,,,,,,,,,,,,,,,,,,,,,,,,,,,,,,,,,,,,,,,,,,,,,,,,,,,,,,,,,,,,,,,,,,,,,,,,,,,,,,,,,,,,
,,613ad089983f33fc8194d601,2023-12-14_20h05.22.923,kallum_motion_pilot,2023.2.3,Win32,60.24096386,613ad089983f33fc8194d601,657bb317c8798c6608bceb3f,657bb43bf6e17e695207f353,0.0301,0.0301,0,74,74,82,1,sixfive,,,,,,,,,,,,,,,,,,,,,,,,,,,,,,,,,,,,,,,,,,,,,,,,,,,,,,,,,,,,,,,,,,,,,,,,,,,,,,,,,,,,,,,,,,,,,,,,,,,,,,,,,,,,,,,,,,,,,,,,,,,,,,,,,,,,,,,
,,613ad089983f33fc8194d601,2023-12-14_20h05.22.923,kallum_motion_pilot,2023.2.3,Win32,60.24096386,613ad089983f33fc8194d601,657bb317c8798c6608bceb3f,657bb43bf6e17e695207f353,0.0302,0.0302,0,75,75,79,1,eightseven,,,,,,,,,,,,,,,,,,,,,,,,,,,,,,,,,,,,,,,,,,,,,,,,,,,,,,,,,,,,,,,,,,,,,,,,,,,,,,,,,,,,,,,,,,,,,,,,,,,,,,,,,,,,,,,,,,,,,,,,,,,,,,,,,,,,,,,
,,613ad089983f33fc8194d601,2023-12-14_20h05.22.923,kallum_motion_pilot,2023.2.3,Win32,60.24096386,613ad089983f33fc8194d601,657bb317c8798c6608bceb3f,657bb43bf6e17e695207f353,0.0302,0.0302,0,76,76,52,1,threeone,,,,,,,,,,,,,,,,,,,,,,,,,,,,,,,,,,,,,,,,,,,,,,,,,,,,,,,,,,,,,,,,,,,,,,,,,,,,,,,,,,,,,,,,,,,,,,,,,,,,,,,,,,,,,,,,,,,,,,,,,,,,,,,,,,,,,,,
,,613ad089983f33fc8194d601,2023-12-14_20h05.22.923,kallum_motion_pilot,2023.2.3,Win32,60.24096386,613ad089983f33fc8194d601,657bb317c8798c6608bceb3f,657bb43bf6e17e695207f353,0.0303,0.0304,0,77,77,127,1,eightseven,,,,,,,,,,,,,,,,,,,,,,,,,,,,,,,,,,,,,,,,,,,,,,,,,,,,,,,,,,,,,,,,,,,,,,,,,,,,,,,,,,,,,,,,,,,,,,,,,,,,,,,,,,,,,,,,,,,,,,,,,,,,,,,,,,,,,,,
,,613ad089983f33fc8194d601,2023-12-14_20h05.22.923,kallum_motion_pilot,2023.2.3,Win32,60.24096386,613ad089983f33fc8194d601,657bb317c8798c6608bceb3f,657bb43bf6e17e695207f353,0.0305,0.0305,0,78,78,23,1,fourthree,,,,,,,,,,,,,,,,,,,,,,,,,,,,,,,,,,,,,,,,,,,,,,,,,,,,,,,,,,,,,,,,,,,,,,,,,,,,,,,,,,,,,,,,,,,,,,,,,,,,,,,,,,,,,,,,,,,,,,,,,,,,,,,,,,,,,,,
,,613ad089983f33fc8194d601,2023-12-14_20h05.22.923,kallum_motion_pilot,2023.2.3,Win32,60.24096386,613ad089983f33fc8194d601,657bb317c8798c6608bceb3f,657bb43bf6e17e695207f353,0.0306,0.0306,0,79,79,19,1,twofour,,,,,,,,,,,,,,,,,,,,,,,,,,,,,,,,,,,,,,,,,,,,,,,,,,,,,,,,,,,,,,,,,,,,,,,,,,,,,,,,,,,,,,,,,,,,,,,,,,,,,,,,,,,,,,,,,,,,,,,,,,,,,,,,,,,,,,,
,,613ad089983f33fc8194d601,2023-12-14_20h05.22.923,kallum_motion_pilot,2023.2.3,Win32,60.24096386,613ad089983f33fc8194d601,657bb317c8798c6608bceb3f,657bb43bf6e17e695207f353,0.0306,0.0307,0,80,80,143,1,eightseven,,,,,,,,,,,,,,,,,,,,,,,,,,,,,,,,,,,,,,,,,,,,,,,,,,,,,,,,,,,,,,,,,,,,,,,,,,,,,,,,,,,,,,,,,,,,,,,,,,,,,,,,,,,,,,,,,,,,,,,,,,,,,,,,,,,,,,,
,,613ad089983f33fc8194d601,2023-12-14_20h05.22.923,kallum_motion_pilot,2023.2.3,Win32,60.24096386,613ad089983f33fc8194d601,657bb317c8798c6608bceb3f,657bb43bf6e17e695207f353,0.0308,0.0308,0,81,81,37,1,threefour,,,,,,,,,,,,,,,,,,,,,,,,,,,,,,,,,,,,,,,,,,,,,,,,,,,,,,,,,,,,,,,,,,,,,,,,,,,,,,,,,,,,,,,,,,,,,,,,,,,,,,,,,,,,,,,,,,,,,,,,,,,,,,,,,,,,,,,
,,613ad089983f33fc8194d601,2023-12-14_20h05.22.923,kallum_motion_pilot,2023.2.3,Win32,60.24096386,613ad089983f33fc8194d601,657bb317c8798c6608bceb3f,657bb43bf6e17e695207f353,0.031,0.031,0,82,82,21,1,threefour,,,,,,,,,,,,,,,,,,,,,,,,,,,,,,,,,,,,,,,,,,,,,,,,,,,,,,,,,,,,,,,,,,,,,,,,,,,,,,,,,,,,,,,,,,,,,,,,,,,,,,,,,,,,,,,,,,,,,,,,,,,,,,,,,,,,,,,
,,613ad089983f33fc8194d601,2023-12-14_20h05.22.923,kallum_motion_pilot,2023.2.3,Win32,60.24096386,613ad089983f33fc8194d601,657bb317c8798c6608bceb3f,657bb43bf6e17e695207f353,0.0312,0.0312,0,83,83,14,1,fourtwo,,,,,,,,,,,,,,,,,,,,,,,,,,,,,,,,,,,,,,,,,,,,,,,,,,,,,,,,,,,,,,,,,,,,,,,,,,,,,,,,,,,,,,,,,,,,,,,,,,,,,,,,,,,,,,,,,,,,,,,,,,,,,,,,,,,,,,,
,,613ad089983f33fc8194d601,2023-12-14_20h05.22.923,kallum_motion_pilot,2023.2.3,Win32,60.24096386,613ad089983f33fc8194d601,657bb317c8798c6608bceb3f,657bb43bf6e17e695207f353,0.0313,0.0314,0,84,84,140,1,sevenfive,,,,,,,,,,,,,,,,,,,,,,,,,,,,,,,,,,,,,,,,,,,,,,,,,,,,,,,,,,,,,,,,,,,,,,,,,,,,,,,,,,,,,,,,,,,,,,,,,,,,,,,,,,,,,,,,,,,,,,,,,,,,,,,,,,,,,,,
,,613ad089983f33fc8194d601,2023-12-14_20h05.22.923,kallum_motion_pilot,2023.2.3,Win32,60.24096386,613ad089983f33fc8194d601,657bb317c8798c6608bceb3f,657bb43bf6e17e695207f353,0.0314,0.0314,0,85,85,130,1,sixfive,,,,,,,,,,,,,,,,,,,,,,,,,,,,,,,,,,,,,,,,,,,,,,,,,,,,,,,,,,,,,,,,,,,,,,,,,,,,,,,,,,,,,,,,,,,,,,,,,,,,,,,,,,,,,,,,,,,,,,,,,,,,,,,,,,,,,,,
,,613ad089983f33fc8194d601,2023-12-14_20h05.22.923,kallum_motion_pilot,2023.2.3,Win32,60.24096386,613ad089983f33fc8194d601,657bb317c8798c6608bceb3f,657bb43bf6e17e695207f353,0.0316,0.0316,0,86,86,22,1,fourtwo,,,,,,,,,,,,,,,,,,,,,,,,,,,,,,,,,,,,,,,,,,,,,,,,,,,,,,,,,,,,,,,,,,,,,,,,,,,,,,,,,,,,,,,,,,,,,,,,,,,,,,,,,,,,,,,,,,,,,,,,,,,,,,,,,,,,,,,
,,613ad089983f33fc8194d601,2023-12-14_20h05.22.923,kallum_motion_pilot,2023.2.3,Win32,60.24096386,613ad089983f33fc8194d601,657bb317c8798c6608bceb3f,657bb43bf6e17e695207f353,0.0317,0.0318,0,87,87,108,1,sevenfive,,,,,,,,,,,,,,,,,,,,,,,,,,,,,,,,,,,,,,,,,,,,,,,,,,,,,,,,,,,,,,,,,,,,,,,,,,,,,,,,,,,,,,,,,,,,,,,,,,,,,,,,,,,,,,,,,,,,,,,,,,,,,,,,,,,,,,,
,,613ad089983f33fc8194d601,2023-12-14_20h05.22.923,kallum_motion_pilot,2023.2.3,Win32,60.24096386,613ad089983f33fc8194d601,657bb317c8798c6608bceb3f,657bb43bf6e17e695207f353,0.0318,0.0319,0,88,88,93,1,seveneight,,,,,,,,,,,,,,,,,,,,,,,,,,,,,,,,,,,,,,,,,,,,,,,,,,,,,,,,,,,,,,,,,,,,,,,,,,,,,,,,,,,,,,,,,,,,,,,,,,,,,,,,,,,,,,,,,,,,,,,,,,,,,,,,,,,,,,,
,,613ad089983f33fc8194d601,2023-12-14_20h05.22.923,kallum_motion_pilot,2023.2.3,Win32,60.24096386,613ad089983f33fc8194d601,657bb317c8798c6608bceb3f,657bb43bf6e17e695207f353,0.0319,0.0319,0,89,89,33,1,onethree,,,,,,,,,,,,,,,,,,,,,,,,,,,,,,,,,,,,,,,,,,,,,,,,,,,,,,,,,,,,,,,,,,,,,,,,,,,,,,,,,,,,,,,,,,,,,,,,,,,,,,,,,,,,,,,,,,,,,,,,,,,,,,,,,,,,,,,
,,613ad089983f33fc8194d601,2023-12-14_20h05.22.923,kallum_motion_pilot,2023.2.3,Win32,60.24096386,613ad089983f33fc8194d601,657bb317c8798c6608bceb3f,657bb43bf6e17e695207f353,0.032,0.0321,0,90,90,80,1,fivesix,,,,,,,,,,,,,,,,,,,,,,,,,,,,,,,,,,,,,,,,,,,,,,,,,,,,,,,,,,,,,,,,,,,,,,,,,,,,,,,,,,,,,,,,,,,,,,,,,,,,,,,,,,,,,,,,,,,,,,,,,,,,,,,,,,,,,,,
,,613ad089983f33fc8194d601,2023-12-14_20h05.22.923,kallum_motion_pilot,2023.2.3,Win32,60.24096386,613ad089983f33fc8194d601,657bb317c8798c6608bceb3f,657bb43bf6e17e695207f353,0.0321,0.0323,0,91,91,125,1,seveneight,,,,,,,,,,,,,,,,,,,,,,,,,,,,,,,,,,,,,,,,,,,,,,,,,,,,,,,,,,,,,,,,,,,,,,,,,,,,,,,,,,,,,,,,,,,,,,,,,,,,,,,,,,,,,,,,,,,,,,,,,,,,,,,,,,,,,,,
,,613ad089983f33fc8194d601,2023-12-14_20h05.22.923,kallum_motion_pilot,2023.2.3,Win32,60.24096386,613ad089983f33fc8194d601,657bb317c8798c6608bceb3f,657bb43bf6e17e695207f353,0.0324,0.0325,0,92,92,101,1,seveneight,,,,,,,,,,,,,,,,,,,,,,,,,,,,,,,,,,,,,,,,,,,,,,,,,,,,,,,,,,,,,,,,,,,,,,,,,,,,,,,,,,,,,,,,,,,,,,,,,,,,,,,,,,,,,,,,,,,,,,,,,,,,,,,,,,,,,,,
,,613ad089983f33fc8194d601,2023-12-14_20h05.22.923,kallum_motion_pilot,2023.2.3,Win32,60.24096386,613ad089983f33fc8194d601,657bb317c8798c6608bceb3f,657bb43bf6e17e695207f353,0.0326,0.0327,0,93,93,117,1,seveneight,,,,,,,,,,,,,,,,,,,,,,,,,,,,,,,,,,,,,,,,,,,,,,,,,,,,,,,,,,,,,,,,,,,,,,,,,,,,,,,,,,,,,,,,,,,,,,,,,,,,,,,,,,,,,,,,,,,,,,,,,,,,,,,,,,,,,,,
,,613ad089983f33fc8194d601,2023-12-14_20h05.22.923,kallum_motion_pilot,2023.2.3,Win32,60.24096386,613ad089983f33fc8194d601,657bb317c8798c6608bceb3f,657bb43bf6e17e695207f353,0.0328,0.0328,0,94,94,7,1,fourthree,,,,,,,,,,,,,,,,,,,,,,,,,,,,,,,,,,,,,,,,,,,,,,,,,,,,,,,,,,,,,,,,,,,,,,,,,,,,,,,,,,,,,,,,,,,,,,,,,,,,,,,,,,,,,,,,,,,,,,,,,,,,,,,,,,,,,,,
,,613ad089983f33fc8194d601,2023-12-14_20h05.22.923,kallum_motion_pilot,2023.2.3,Win32,60.24096386,613ad089983f33fc8194d601,657bb317c8798c6608bceb3f,657bb43bf6e17e695207f353,0.033,0.033,0,95,95,50,1,twoone,,,,,,,,,,,,,,,,,,,,,,,,,,,,,,,,,,,,,,,,,,,,,,,,,,,,,,,,,,,,,,,,,,,,,,,,,,,,,,,,,,,,,,,,,,,,,,,,,,,,,,,,,,,,,,,,,,,,,,,,,,,,,,,,,,,,,,,
,,613ad089983f33fc8194d601,2023-12-14_20h05.22.923,kallum_motion_pilot,2023.2.3,Win32,60.24096386,613ad089983f33fc8194d601,657bb317c8798c6608bceb3f,657bb43bf6e17e695207f353,0.0331,0.0331,0,96,96,147,1,sixeight,,,,,,,,,,,,,,,,,,,,,,,,,,,,,,,,,,,,,,,,,,,,,,,,,,,,,,,,,,,,,,,,,,,,,,,,,,,,,,,,,,,,,,,,,,,,,,,,,,,,,,,,,,,,,,,,,,,,,,,,,,,,,,,,,,,,,,,
,,613ad089983f33fc8194d601,2023-12-14_20h05.22.923,kallum_motion_pilot,2023.2.3,Win32,60.24096386,613ad089983f33fc8194d601,657bb317c8798c6608bceb3f,657bb43bf6e17e695207f353,0.0332,0.0333,0,97,97,74,1,twoone,,,,,,,,,,,,,,,,,,,,,,,,,,,,,,,,,,,,,,,,,,,,,,,,,,,,,,,,,,,,,,,,,,,,,,,,,,,,,,,,,,,,,,,,,,,,,,,,,,,,,,,,,,,,,,,,,,,,,,,,,,,,,,,,,,,,,,,
,,613ad089983f33fc8194d601,2023-12-14_20h05.22.923,kallum_motion_pilot,2023.2.3,Win32,60.24096386,613ad089983f33fc8194d601,657bb317c8798c6608bceb3f,657bb43bf6e17e695207f353,0.0333,0.0334,0,98,98,26,1,twoone,,,,,,,,,,,,,,,,,,,,,,,,,,,,,,,,,,,,,,,,,,,,,,,,,,,,,,,,,,,,,,,,,,,,,,,,,,,,,,,,,,,,,,,,,,,,,,,,,,,,,,,,,,,,,,,,,,,,,,,,,,,,,,,,,,,,,,,
,,613ad089983f33fc8194d601,2023-12-14_20h05.22.923,kallum_motion_pilot,2023.2.3,Win32,60.24096386,613ad089983f33fc8194d601,657bb317c8798c6608bceb3f,657bb43bf6e17e695207f353,0.0336,0.0336,0,99,99,122,1,sixfive,,,,,,,,,,,,,,,,,,,,,,,,,,,,,,,,,,,,,,,,,,,,,,,,,,,,,,,,,,,,,,,,,,,,,,,,,,,,,,,,,,,,,,,,,,,,,,,,,,,,,,,,,,,,,,,,,,,,,,,,,,,,,,,,,,,,,,,
,,613ad089983f33fc8194d601,2023-12-14_20h05.22.923,kallum_motion_pilot,2023.2.3,Win32,60.24096386,613ad089983f33fc8194d601,657bb317c8798c6608bceb3f,657bb43bf6e17e695207f353,0.0336,0.0337,0,100,100,48,1,onetwo,,,,,,,,,,,,,,,,,,,,,,,,,,,,,,,,,,,,,,,,,,,,,,,,,,,,,,,,,,,,,,,,,,,,,,,,,,,,,,,,,,,,,,,,,,,,,,,,,,,,,,,,,,,,,,,,,,,,,,,,,,,,,,,,,,,,,,,
,,613ad089983f33fc8194d601,2023-12-14_20h05.22.923,kallum_motion_pilot,2023.2.3,Win32,60.24096386,613ad089983f33fc8194d601,657bb317c8798c6608bceb3f,657bb43bf6e17e695207f353,0.0338,0.0338,0,101,101,133,1,seveneight,,,,,,,,,,,,,,,,,,,,,,,,,,,,,,,,,,,,,,,,,,,,,,,,,,,,,,,,,,,,,,,,,,,,,,,,,,,,,,,,,,,,,,,,,,,,,,,,,,,,,,,,,,,,,,,,,,,,,,,,,,,,,,,,,,,,,,,
,,613ad089983f33fc8194d601,2023-12-14_20h05.22.923,kallum_motion_pilot,2023.2.3,Win32,60.24096386,613ad089983f33fc8194d601,657bb317c8798c6608bceb3f,657bb43bf6e17e695207f353,0.034,0.034,0,102,102,29,1,threefour,,,,,,,,,,,,,,,,,,,,,,,,,,,,,,,,,,,,,,,,,,,,,,,,,,,,,,,,,,,,,,,,,,,,,,,,,,,,,,,,,,,,,,,,,,,,,,,,,,,,,,,,,,,,,,,,,,,,,,,,,,,,,,,,,,,,,,,
,,613ad089983f33fc8194d601,2023-12-14_20h05.22.923,kallum_motion_pilot,2023.2.3,Win32,60.24096386,613ad089983f33fc8194d601,657bb317c8798c6608bceb3f,657bb43bf6e17e695207f353,0.0341,0.0341,0,103,103,106,1,sixfive,,,,,,,,,,,,,,,,,,,,,,,,,,,,,,,,,,,,,,,,,,,,,,,,,,,,,,,,,,,,,,,,,,,,,,,,,,,,,,,,,,,,,,,,,,,,,,,,,,,,,,,,,,,,,,,,,,,,,,,,,,,,,,,,,,,,,,,
,,613ad089983f33fc8194d601,2023-12-14_20h05.22.923,kallum_motion_pilot,2023.2.3,Win32,60.24096386,613ad089983f33fc8194d601,657bb317c8798c6608bceb3f,657bb43bf6e17e695207f353,0.0342,0.0342,0,104,104,44,1,threeone,,,,,,,,,,,,,,,,,,,,,,,,,,,,,,,,,,,,,,,,,,,,,,,,,,,,,,,,,,,,,,,,,,,,,,,,,,,,,,,,,,,,,,,,,,,,,,,,,,,,,,,,,,,,,,,,,,,,,,,,,,,,,,,,,,,,,,,
,,613ad089983f33fc8194d601,2023-12-14_20h05.22.923,kallum_motion_pilot,2023.2.3,Win32,60.24096386,613ad089983f33fc8194d601,657bb317c8798c6608bceb3f,657bb43bf6e17e695207f353,0.0343,0.0343,0,105,105,59,1,twofour,,,,,,,,,,,,,,,,,,,,,,,,,,,,,,,,,,,,,,,,,,,,,,,,,,,,,,,,,,,,,,,,,,,,,,,,,,,,,,,,,,,,,,,,,,,,,,,,,,,,,,,,,,,,,,,,,,,,,,,,,,,,,,,,,,,,,,,
,,613ad089983f33fc8194d601,2023-12-14_20h05.22.923,kallum_motion_pilot,2023.2.3,Win32,60.24096386,613ad089983f33fc8194d601,657bb317c8798c6608bceb3f,657bb43bf6e17e695207f353,0.0345,0.0345,0,106,106,89,1,fiveseven,,,,,,,,,,,,,,,,,,,,,,,,,,,,,,,,,,,,,,,,,,,,,,,,,,,,,,,,,,,,,,,,,,,,,,,,,,,,,,,,,,,,,,,,,,,,,,,,,,,,,,,,,,,,,,,,,,,,,,,,,,,,,,,,,,,,,,,
,,613ad089983f33fc8194d601,2023-12-14_20h05.22.923,kallum_motion_pilot,2023.2.3,Win32,60.24096386,613ad089983f33fc8194d601,657bb317c8798c6608bceb3f,657bb43bf6e17e695207f353,0.0345,0.0346,0,107,107,113,1,fiveseven,,,,,,,,,,,,,,,,,,,,,,,,,,,,,,,,,,,,,,,,,,,,,,,,,,,,,,,,,,,,,,,,,,,,,,,,,,,,,,,,,,,,,,,,,,,,,,,,,,,,,,,,,,,,,,,,,,,,,,,,,,,,,,,,,,,,,,,
,,613ad089983f33fc8194d601,2023-12-14_20h05.22.923,kallum_motion_pilot,2023.2.3,Win32,60.24096386,613ad089983f33fc8194d601,657bb317c8798c6608bceb3f,657bb43bf6e17e695207f353,0.0347,0.0347,0,108,108,64,1,onetwo,,,,,,,,,,,,,,,,,,,,,,,,,,,,,,,,,,,,,,,,,,,,,,,,,,,,,,,,,,,,,,,,,,,,,,,,,,,,,,,,,,,,,,,,,,,,,,,,,,,,,,,,,,,,,,,,,,,,,,,,,,,,,,,,,,,,,,,
,,613ad089983f33fc8194d601,2023-12-14_20h05.22.923,kallum_motion_pilot,2023.2.3,Win32,60.24096386,613ad089983f33fc8194d601,657bb317c8798c6608bceb3f,657bb43bf6e17e695207f353,0.0348,0.0348,0,109,109,73,1,onethree,,,,,,,,,,,,,,,,,,,,,,,,,,,,,,,,,,,,,,,,,,,,,,,,,,,,,,,,,,,,,,,,,,,,,,,,,,,,,,,,,,,,,,,,,,,,,,,,,,,,,,,,,,,,,,,,,,,,,,,,,,,,,,,,,,,,,,,
,,613ad089983f33fc8194d601,2023-12-14_20h05.22.923,kallum_motion_pilot,2023.2.3,Win32,60.24096386,613ad089983f33fc8194d601,657bb317c8798c6608bceb3f,657bb43bf6e17e695207f353,0.0349,0.0349,0,110,110,118,1,eightsix,,,,,,,,,,,,,,,,,,,,,,,,,,,,,,,,,,,,,,,,,,,,,,,,,,,,,,,,,,,,,,,,,,,,,,,,,,,,,,,,,,,,,,,,,,,,,,,,,,,,,,,,,,,,,,,,,,,,,,,,,,,,,,,,,,,,,,,
,,613ad089983f33fc8194d601,2023-12-14_20h05.22.923,kallum_motion_pilot,2023.2.3,Win32,60.24096386,613ad089983f33fc8194d601,657bb317c8798c6608bceb3f,657bb43bf6e17e695207f353,0.035,0.0351,0,111,111,144,1,fivesix,,,,,,,,,,,,,,,,,,,,,,,,,,,,,,,,,,,,,,,,,,,,,,,,,,,,,,,,,,,,,,,,,,,,,,,,,,,,,,,,,,,,,,,,,,,,,,,,,,,,,,,,,,,,,,,,,,,,,,,,,,,,,,,,,,,,,,,
,,613ad089983f33fc8194d601,2023-12-14_20h05.22.923,kallum_motion_pilot,2023.2.3,Win32,60.24096386,613ad089983f33fc8194d601,657bb317c8798c6608bceb3f,657bb43bf6e17e695207f353,0.0351,0.0351,0,112,112,62,1,fourtwo,,,,,,,,,,,,,,,,,,,,,,,,,,,,,,,,,,,,,,,,,,,,,,,,,,,,,,,,,,,,,,,,,,,,,,,,,,,,,,,,,,,,,,,,,,,,,,,,,,,,,,,,,,,,,,,,,,,,,,,,,,,,,,,,,,,,,,,
,,613ad089983f33fc8194d601,2023-12-14_20h05.22.923,kallum_motion_pilot,2023.2.3,Win32,60.24096386,613ad089983f33fc8194d601,657bb317c8798c6608bceb3f,657bb43bf6e17e695207f353,0.0352,0.0353,0,113,113,139,1,sixeight,,,,,,,,,,,,,,,,,,,,,,,,,,,,,,,,,,,,,,,,,,,,,,,,,,,,,,,,,,,,,,,,,,,,,,,,,,,,,,,,,,,,,,,,,,,,,,,,,,,,,,,,,,,,,,,,,,,,,,,,,,,,,,,,,,,,,,,
,,613ad089983f33fc8194d601,2023-12-14_20h05.22.923,kallum_motion_pilot,2023.2.3,Win32,60.24096386,613ad089983f33fc8194d601,657bb317c8798c6608bceb3f,657bb43bf6e17e695207f353,0.0354,0.0354,0,114,114,0,1,onetwo,,,,,,,,,,,,,,,,,,,,,,,,,,,,,,,,,,,,,,,,,,,,,,,,,,,,,,,,,,,,,,,,,,,,,,,,,,,,,,,,,,,,,,,,,,,,,,,,,,,,,,,,,,,,,,,,,,,,,,,,,,,,,,,,,,,,,,,
,,613ad089983f33fc8194d601,2023-12-14_20h05.22.923,kallum_motion_pilot,2023.2.3,Win32,60.24096386,613ad089983f33fc8194d601,657bb317c8798c6608bceb3f,657bb43bf6e17e695207f353,0.0354,0.0355,0,115,115,83,1,sixeight,,,,,,,,,,,,,,,,,,,,,,,,,,,,,,,,,,,,,,,,,,,,,,,,,,,,,,,,,,,,,,,,,,,,,,,,,,,,,,,,,,,,,,,,,,,,,,,,,,,,,,,,,,,,,,,,,,,,,,,,,,,,,,,,,,,,,,,
,,613ad089983f33fc8194d601,2023-12-14_20h05.22.923,kallum_motion_pilot,2023.2.3,Win32,60.24096386,613ad089983f33fc8194d601,657bb317c8798c6608bceb3f,657bb43bf6e17e695207f353,0.0355,0.0355,0,116,116,121,1,fiveseven,,,,,,,,,,,,,,,,,,,,,,,,,,,,,,,,,,,,,,,,,,,,,,,,,,,,,,,,,,,,,,,,,,,,,,,,,,,,,,,,,,,,,,,,,,,,,,,,,,,,,,,,,,,,,,,,,,,,,,,,,,,,,,,,,,,,,,,
,,613ad089983f33fc8194d601,2023-12-14_20h05.22.923,kallum_motion_pilot,2023.2.3,Win32,60.24096386,613ad089983f33fc8194d601,657bb317c8798c6608bceb3f,657bb43bf6e17e695207f353,0.0357,0.0357,0,117,117,6,1,fourtwo,,,,,,,,,,,,,,,,,,,,,,,,,,,,,,,,,,,,,,,,,,,,,,,,,,,,,,,,,,,,,,,,,,,,,,,,,,,,,,,,,,,,,,,,,,,,,,,,,,,,,,,,,,,,,,,,,,,,,,,,,,,,,,,,,,,,,,,
,,613ad089983f33fc8194d601,2023-12-14_20h05.22.923,kallum_motion_pilot,2023.2.3,Win32,60.24096386,613ad089983f33fc8194d601,657bb317c8798c6608bceb3f,657bb43bf6e17e695207f353,0.0358,0.0358,0,118,118,141,1,seveneight,,,,,,,,,,,,,,,,,,,,,,,,,,,,,,,,,,,,,,,,,,,,,,,,,,,,,,,,,,,,,,,,,,,,,,,,,,,,,,,,,,,,,,,,,,,,,,,,,,,,,,,,,,,,,,,,,,,,,,,,,,,,,,,,,,,,,,,
,,613ad089983f33fc8194d601,2023-12-14_20h05.22.923,kallum_motion_pilot,2023.2.3,Win32,60.24096386,613ad089983f33fc8194d601,657bb317c8798c6608bceb3f,657bb43bf6e17e695207f353,0.0359,0.0359,0,119,119,38,1,fourtwo,,,,,,,,,,,,,,,,,,,,,,,,,,,,,,,,,,,,,,,,,,,,,,,,,,,,,,,,,,,,,,,,,,,,,,,,,,,,,,,,,,,,,,,,,,,,,,,,,,,,,,,,,,,,,,,,,,,,,,,,,,,,,,,,,,,,,,,
,,613ad089983f33fc8194d601,2023-12-14_20h05.22.923,kallum_motion_pilot,2023.2.3,Win32,60.24096386,613ad089983f33fc8194d601,657bb317c8798c6608bceb3f,657bb43bf6e17e695207f353,0.0359,0.036,0,120,120,35,1,twofour,,,,,,,,,,,,,,,,,,,,,,,,,,,,,,,,,,,,,,,,,,,,,,,,,,,,,,,,,,,,,,,,,,,,,,,,,,,,,,,,,,,,,,,,,,,,,,,,,,,,,,,,,,,,,,,,,,,,,,,,,,,,,,,,,,,,,,,
,,613ad089983f33fc8194d601,2023-12-14_20h05.22.923,kallum_motion_pilot,2023.2.3,Win32,60.24096386,613ad089983f33fc8194d601,657bb317c8798c6608bceb3f,657bb43bf6e17e695207f353,0.0361,0.0361,0,121,121,2,1,twoone,,,,,,,,,,,,,,,,,,,,,,,,,,,,,,,,,,,,,,,,,,,,,,,,,,,,,,,,,,,,,,,,,,,,,,,,,,,,,,,,,,,,,,,,,,,,,,,,,,,,,,,,,,,,,,,,,,,,,,,,,,,,,,,,,,,,,,,
,,613ad089983f33fc8194d601,2023-12-14_20h05.22.923,kallum_motion_pilot,2023.2.3,Win32,60.24096386,613ad089983f33fc8194d601,657bb317c8798c6608bceb3f,657bb43bf6e17e695207f353,0.0362,0.0362,0,122,122,135,1,eightseven,,,,,,,,,,,,,,,,,,,,,,,,,,,,,,,,,,,,,,,,,,,,,,,,,,,,,,,,,,,,,,,,,,,,,,,,,,,,,,,,,,,,,,,,,,,,,,,,,,,,,,,,,,,,,,,,,,,,,,,,,,,,,,,,,,,,,,,
,,613ad089983f33fc8194d601,2023-12-14_20h05.22.923,kallum_motion_pilot,2023.2.3,Win32,60.24096386,613ad089983f33fc8194d601,657bb317c8798c6608bceb3f,657bb43bf6e17e695207f353,0.0363,0.0363,0,123,123,148,1,sevenfive,,,,,,,,,,,,,,,,,,,,,,,,,,,,,,,,,,,,,,,,,,,,,,,,,,,,,,,,,,,,,,,,,,,,,,,,,,,,,,,,,,,,,,,,,,,,,,,,,,,,,,,,,,,,,,,,,,,,,,,,,,,,,,,,,,,,,,,
,,613ad089983f33fc8194d601,2023-12-14_20h05.22.923,kallum_motion_pilot,2023.2.3,Win32,60.24096386,613ad089983f33fc8194d601,657bb317c8798c6608bceb3f,657bb43bf6e17e695207f353,0.0364,0.0365,0,124,124,36,1,threeone,,,,,,,,,,,,,,,,,,,,,,,,,,,,,,,,,,,,,,,,,,,,,,,,,,,,,,,,,,,,,,,,,,,,,,,,,,,,,,,,,,,,,,,,,,,,,,,,,,,,,,,,,,,,,,,,,,,,,,,,,,,,,,,,,,,,,,,
,,613ad089983f33fc8194d601,2023-12-14_20h05.22.923,kallum_motion_pilot,2023.2.3,Win32,60.24096386,613ad089983f33fc8194d601,657bb317c8798c6608bceb3f,657bb43bf6e17e695207f353,0.0365,0.0366,0,125,125,156,1,sevenfive,,,,,,,,,,,,,,,,,,,,,,,,,,,,,,,,,,,,,,,,,,,,,,,,,,,,,,,,,,,,,,,,,,,,,,,,,,,,,,,,,,,,,,,,,,,,,,,,,,,,,,,,,,,,,,,,,,,,,,,,,,,,,,,,,,,,,,,
,,613ad089983f33fc8194d601,2023-12-14_20h05.22.923,kallum_motion_pilot,2023.2.3,Win32,60.24096386,613ad089983f33fc8194d601,657bb317c8798c6608bceb3f,657bb43bf6e17e695207f353,0.0367,0.0367,0,126,126,18,1,twoone,,,,,,,,,,,,,,,,,,,,,,,,,,,,,,,,,,,,,,,,,,,,,,,,,,,,,,,,,,,,,,,,,,,,,,,,,,,,,,,,,,,,,,,,,,,,,,,,,,,,,,,,,,,,,,,,,,,,,,,,,,,,,,,,,,,,,,,
,,613ad089983f33fc8194d601,2023-12-14_20h05.22.923,kallum_motion_pilot,2023.2.3,Win32,60.24096386,613ad089983f33fc8194d601,657bb317c8798c6608bceb3f,657bb43bf6e17e695207f353,0.0368,0.0368,0,127,127,45,1,threefour,,,,,,,,,,,,,,,,,,,,,,,,,,,,,,,,,,,,,,,,,,,,,,,,,,,,,,,,,,,,,,,,,,,,,,,,,,,,,,,,,,,,,,,,,,,,,,,,,,,,,,,,,,,,,,,,,,,,,,,,,,,,,,,,,,,,,,,
,,613ad089983f33fc8194d601,2023-12-14_20h05.22.923,kallum_motion_pilot,2023.2.3,Win32,60.24096386,613ad089983f33fc8194d601,657bb317c8798c6608bceb3f,657bb43bf6e17e695207f353,0.0368,0.0369,0,128,128,20,1,threeone,,,,,,,,,,,,,,,,,,,,,,,,,,,,,,,,,,,,,,,,,,,,,,,,,,,,,,,,,,,,,,,,,,,,,,,,,,,,,,,,,,,,,,,,,,,,,,,,,,,,,,,,,,,,,,,,,,,,,,,,,,,,,,,,,,,,,,,
,,613ad089983f33fc8194d601,2023-12-14_20h05.22.923,kallum_motion_pilot,2023.2.3,Win32,60.24096386,613ad089983f33fc8194d601,657bb317c8798c6608bceb3f,657bb43bf6e17e695207f353,0.037,0.0371,0,129,129,34,1,twoone,,,,,,,,,,,,,,,,,,,,,,,,,,,,,,,,,,,,,,,,,,,,,,,,,,,,,,,,,,,,,,,,,,,,,,,,,,,,,,,,,,,,,,,,,,,,,,,,,,,,,,,,,,,,,,,,,,,,,,,,,,,,,,,,,,,,,,,
,,613ad089983f33fc8194d601,2023-12-14_20h05.22.923,kallum_motion_pilot,2023.2.3,Win32,60.24096386,613ad089983f33fc8194d601,657bb317c8798c6608bceb3f,657bb43bf6e17e695207f353,0.0372,0.0372,0,130,130,4,1,threeone,,,,,,,,,,,,,,,,,,,,,,,,,,,,,,,,,,,,,,,,,,,,,,,,,,,,,,,,,,,,,,,,,,,,,,,,,,,,,,,,,,,,,,,,,,,,,,,,,,,,,,,,,,,,,,,,,,,,,,,,,,,,,,,,,,,,,,,
,,613ad089983f33fc8194d601,2023-12-14_20h05.22.923,kallum_motion_pilot,2023.2.3,Win32,60.24096386,613ad089983f33fc8194d601,657bb317c8798c6608bceb3f,657bb43bf6e17e695207f353,0.0373,0.0374,0,131,131,124,1,sevenfive,,,,,,,,,,,,,,,,,,,,,,,,,,,,,,,,,,,,,,,,,,,,,,,,,,,,,,,,,,,,,,,,,,,,,,,,,,,,,,,,,,,,,,,,,,,,,,,,,,,,,,,,,,,,,,,,,,,,,,,,,,,,,,,,,,,,,,,
,,613ad089983f33fc8194d601,2023-12-14_20h05.22.923,kallum_motion_pilot,2023.2.3,Win32,60.24096386,613ad089983f33fc8194d601,657bb317c8798c6608bceb3f,657bb43bf6e17e695207f353,0.0374,0.0374,0,132,132,146,1,sixfive,,,,,,,,,,,,,,,,,,,,,,,,,,,,,,,,,,,,,,,,,,,,,,,,,,,,,,,,,,,,,,,,,,,,,,,,,,,,,,,,,,,,,,,,,,,,,,,,,,,,,,,,,,,,,,,,,,,,,,,,,,,,,,,,,,,,,,,
,,613ad089983f33fc8194d601,2023-12-14_20h05.22.923,kallum_motion_pilot,2023.2.3,Win32,60.24096386,613ad089983f33fc8194d601,657bb317c8798c6608bceb3f,657bb43bf6e17e695207f353,0.0375,0.0375,0,133,133,154,1,sixfive,,,,,,,,,,,,,,,,,,,,,,,,,,,,,,,,,,,,,,,,,,,,,,,,,,,,,,,,,,,,,,,,,,,,,,,,,,,,,,,,,,,,,,,,,,,,,,,,,,,,,,,,,,,,,,,,,,,,,,,,,,,,,,,,,,,,,,,
,,613ad089983f33fc8194d601,2023-12-14_20h05.22.923,kallum_motion_pilot,2023.2.3,Win32,60.24096386,613ad089983f33fc8194d601,657bb317c8798c6608bceb3f,657bb43bf6e17e695207f353,0.0376,0.0376,0,134,134,161,1,fiveseven,,,,,,,,,,,,,,,,,,,,,,,,,,,,,,,,,,,,,,,,,,,,,,,,,,,,,,,,,,,,,,,,,,,,,,,,,,,,,,,,,,,,,,,,,,,,,,,,,,,,,,,,,,,,,,,,,,,,,,,,,,,,,,,,,,,,,,,
,,613ad089983f33fc8194d601,2023-12-14_20h05.22.923,kallum_motion_pilot,2023.2.3,Win32,60.24096386,613ad089983f33fc8194d601,657bb317c8798c6608bceb3f,657bb43bf6e17e695207f353,0.0378,0.0378,0,135,135,126,1,eightsix,,,,,,,,,,,,,,,,,,,,,,,,,,,,,,,,,,,,,,,,,,,,,,,,,,,,,,,,,,,,,,,,,,,,,,,,,,,,,,,,,,,,,,,,,,,,,,,,,,,,,,,,,,,,,,,,,,,,,,,,,,,,,,,,,,,,,,,
,,613ad089983f33fc8194d601,2023-12-14_20h05.22.923,kallum_motion_pilot,2023.2.3,Win32,60.24096386,613ad089983f33fc8194d601,657bb317c8798c6608bceb3f,657bb43bf6e17e695207f353,0.0378,0.0379,0,136,136,11,1,twofour,,,,,,,,,,,,,,,,,,,,,,,,,,,,,,,,,,,,,,,,,,,,,,,,,,,,,,,,,,,,,,,,,,,,,,,,,,,,,,,,,,,,,,,,,,,,,,,,,,,,,,,,,,,,,,,,,,,,,,,,,,,,,,,,,,,,,,,
,,613ad089983f33fc8194d601,2023-12-14_20h05.22.923,kallum_motion_pilot,2023.2.3,Win32,60.24096386,613ad089983f33fc8194d601,657bb317c8798c6608bceb3f,657bb43bf6e17e695207f353,0.038,0.038,0,137,137,158,1,eightsix,,,,,,,,,,,,,,,,,,,,,,,,,,,,,,,,,,,,,,,,,,,,,,,,,,,,,,,,,,,,,,,,,,,,,,,,,,,,,,,,,,,,,,,,,,,,,,,,,,,,,,,,,,,,,,,,,,,,,,,,,,,,,,,,,,,,,,,
,,613ad089983f33fc8194d601,2023-12-14_20h05.22.923,kallum_motion_pilot,2023.2.3,Win32,60.24096386,613ad089983f33fc8194d601,657bb317c8798c6608bceb3f,657bb43bf6e17e695207f353,0.0381,0.0382,0,138,138,110,1,eightsix,,,,,,,,,,,,,,,,,,,,,,,,,,,,,,,,,,,,,,,,,,,,,,,,,,,,,,,,,,,,,,,,,,,,,,,,,,,,,,,,,,,,,,,,,,,,,,,,,,,,,,,,,,,,,,,,,,,,,,,,,,,,,,,,,,,,,,,
,,613ad089983f33fc8194d601,2023-12-14_20h05.22.923,kallum_motion_pilot,2023.2.3,Win32,60.24096386,613ad089983f33fc8194d601,657bb317c8798c6608bceb3f,657bb43bf6e17e695207f353,0.0383,0.0383,0,139,139,98,1,sixfive,,,,,,,,,,,,,,,,,,,,,,,,,,,,,,,,,,,,,,,,,,,,,,,,,,,,,,,,,,,,,,,,,,,,,,,,,,,,,,,,,,,,,,,,,,,,,,,,,,,,,,,,,,,,,,,,,,,,,,,,,,,,,,,,,,,,,,,
,,613ad089983f33fc8194d601,2023-12-14_20h05.22.923,kallum_motion_pilot,2023.2.3,Win32,60.24096386,613ad089983f33fc8194d601,657bb317c8798c6608bceb3f,657bb43bf6e17e695207f353,0.0385,0.0385,0,140,140,145,1,fiveseven,,,,,,,,,,,,,,,,,,,,,,,,,,,,,,,,,,,,,,,,,,,,,,,,,,,,,,,,,,,,,,,,,,,,,,,,,,,,,,,,,,,,,,,,,,,,,,,,,,,,,,,,,,,,,,,,,,,,,,,,,,,,,,,,,,,,,,,
,,613ad089983f33fc8194d601,2023-12-14_20h05.22.923,kallum_motion_pilot,2023.2.3,Win32,60.24096386,613ad089983f33fc8194d601,657bb317c8798c6608bceb3f,657bb43bf6e17e695207f353,0.0386,0.0386,0,141,141,96,1,fivesix,,,,,,,,,,,,,,,,,,,,,,,,,,,,,,,,,,,,,,,,,,,,,,,,,,,,,,,,,,,,,,,,,,,,,,,,,,,,,,,,,,,,,,,,,,,,,,,,,,,,,,,,,,,,,,,,,,,,,,,,,,,,,,,,,,,,,,,
,,613ad089983f33fc8194d601,2023-12-14_20h05.22.923,kallum_motion_pilot,2023.2.3,Win32,60.24096386,613ad089983f33fc8194d601,657bb317c8798c6608bceb3f,657bb43bf6e17e695207f353,0.0387,0.0388,0,142,142,46,1,fourtwo,,,,,,,,,,,,,,,,,,,,,,,,,,,,,,,,,,,,,,,,,,,,,,,,,,,,,,,,,,,,,,,,,,,,,,,,,,,,,,,,,,,,,,,,,,,,,,,,,,,,,,,,,,,,,,,,,,,,,,,,,,,,,,,,,,,,,,,
,,613ad089983f33fc8194d601,2023-12-14_20h05.22.923,kallum_motion_pilot,2023.2.3,Win32,60.24096386,613ad089983f33fc8194d601,657bb317c8798c6608bceb3f,657bb43bf6e17e695207f353,0.0389,0.0389,0,143,143,55,1,fourthree,,,,,,,,,,,,,,,,,,,,,,,,,,,,,,,,,,,,,,,,,,,,,,,,,,,,,,,,,,,,,,,,,,,,,,,,,,,,,,,,,,,,,,,,,,,,,,,,,,,,,,,,,,,,,,,,,,,,,,,,,,,,,,,,,,,,,,,
,,613ad089983f33fc8194d601,2023-12-14_20h05.22.923,kallum_motion_pilot,2023.2.3,Win32,60.24096386,613ad089983f33fc8194d601,657bb317c8798c6608bceb3f,657bb43bf6e17e695207f353,0.039,0.0391,0,144,144,47,1,fourthree,,,,,,,,,,,,,,,,,,,,,,,,,,,,,,,,,,,,,,,,,,,,,,,,,,,,,,,,,,,,,,,,,,,,,,,,,,,,,,,,,,,,,,,,,,,,,,,,,,,,,,,,,,,,,,,,,,,,,,,,,,,,,,,,,,,,,,,
,,613ad089983f33fc8194d601,2023-12-14_20h05.22.923,kallum_motion_pilot,2023.2.3,Win32,60.24096386,613ad089983f33fc8194d601,657bb317c8798c6608bceb3f,657bb43bf6e17e695207f353,0.0392,0.0393,0,145,145,54,1,fourtwo,,,,,,,,,,,,,,,,,,,,,,,,,,,,,,,,,,,,,,,,,,,,,,,,,,,,,,,,,,,,,,,,,,,,,,,,,,,,,,,,,,,,,,,,,,,,,,,,,,,,,,,,,,,,,,,,,,,,,,,,,,,,,,,,,,,,,,,
,,613ad089983f33fc8194d601,2023-12-14_20h05.22.923,kallum_motion_pilot,2023.2.3,Win32,60.24096386,613ad089983f33fc8194d601,657bb317c8798c6608bceb3f,657bb43bf6e17e695207f353,0.0393,0.0394,0,146,146,157,1,seveneight,,,,,,,,,,,,,,,,,,,,,,,,,,,,,,,,,,,,,,,,,,,,,,,,,,,,,,,,,,,,,,,,,,,,,,,,,,,,,,,,,,,,,,,,,,,,,,,,,,,,,,,,,,,,,,,,,,,,,,,,,,,,,,,,,,,,,,,
,,613ad089983f33fc8194d601,2023-12-14_20h05.22.923,kallum_motion_pilot,2023.2.3,Win32,60.24096386,613ad089983f33fc8194d601,657bb317c8798c6608bceb3f,657bb43bf6e17e695207f353,0.0394,0.0394,0,147,147,102,1,eightsix,,,,,,,,,,,,,,,,,,,,,,,,,,,,,,,,,,,,,,,,,,,,,,,,,,,,,,,,,,,,,,,,,,,,,,,,,,,,,,,,,,,,,,,,,,,,,,,,,,,,,,,,,,,,,,,,,,,,,,,,,,,,,,,,,,,,,,,
,,613ad089983f33fc8194d601,2023-12-14_20h05.22.923,kallum_motion_pilot,2023.2.3,Win32,60.24096386,613ad089983f33fc8194d601,657bb317c8798c6608bceb3f,657bb43bf6e17e695207f353,0.0395,0.0395,0,148,148,77,1,threefour,,,,,,,,,,,,,,,,,,,,,,,,,,,,,,,,,,,,,,,,,,,,,,,,,,,,,,,,,,,,,,,,,,,,,,,,,,,,,,,,,,,,,,,,,,,,,,,,,,,,,,,,,,,,,,,,,,,,,,,,,,,,,,,,,,,,,,,
,,613ad089983f33fc8194d601,2023-12-14_20h05.22.923,kallum_motion_pilot,2023.2.3,Win32,60.24096386,613ad089983f33fc8194d601,657bb317c8798c6608bceb3f,657bb43bf6e17e695207f353,0.0397,0.0397,0,149,149,57,1,onethree,,,,,,,,,,,,,,,,,,,,,,,,,,,,,,,,,,,,,,,,,,,,,,,,,,,,,,,,,,,,,,,,,,,,,,,,,,,,,,,,,,,,,,,,,,,,,,,,,,,,,,,,,,,,,,,,,,,,,,,,,,,,,,,,,,,,,,,
,,613ad089983f33fc8194d601,2023-12-14_20h05.22.923,kallum_motion_pilot,2023.2.3,Win32,60.24096386,613ad089983f33fc8194d601,657bb317c8798c6608bceb3f,657bb43bf6e17e695207f353,0.0397,0.0397,0,150,150,114,1,sixfive,,,,,,,,,,,,,,,,,,,,,,,,,,,,,,,,,,,,,,,,,,,,,,,,,,,,,,,,,,,,,,,,,,,,,,,,,,,,,,,,,,,,,,,,,,,,,,,,,,,,,,,,,,,,,,,,,,,,,,,,,,,,,,,,,,,,,,,
,,613ad089983f33fc8194d601,2023-12-14_20h05.22.923,kallum_motion_pilot,2023.2.3,Win32,60.24096386,613ad089983f33fc8194d601,657bb317c8798c6608bceb3f,657bb43bf6e17e695207f353,0.0404,0.0404,0,151,151,97,1,fiveseven,,,,,,,,,,,,,,,,,,,,,,,,,,,,,,,,,,,,,,,,,,,,,,,,,,,,,,,,,,,,,,,,,,,,,,,,,,,,,,,,,,,,,,,,,,,,,,,,,,,,,,,,,,,,,,,,,,,,,,,,,,,,,,,,,,,,,,,
,,613ad089983f33fc8194d601,2023-12-14_20h05.22.923,kallum_motion_pilot,2023.2.3,Win32,60.24096386,613ad089983f33fc8194d601,657bb317c8798c6608bceb3f,657bb43bf6e17e695207f353,0.0406,0.0406,0,152,152,153,1,fiveseven,,,,,,,,,,,,,,,,,,,,,,,,,,,,,,,,,,,,,,,,,,,,,,,,,,,,,,,,,,,,,,,,,,,,,,,,,,,,,,,,,,,,,,,,,,,,,,,,,,,,,,,,,,,,,,,,,,,,,,,,,,,,,,,,,,,,,,,
,,613ad089983f33fc8194d601,2023-12-14_20h05.22.923,kallum_motion_pilot,2023.2.3,Win32,60.24096386,613ad089983f33fc8194d601,657bb317c8798c6608bceb3f,657bb43bf6e17e695207f353,0.0407,0.0407,0,153,153,63,1,fourthree,,,,,,,,,,,,,,,,,,,,,,,,,,,,,,,,,,,,,,,,,,,,,,,,,,,,,,,,,,,,,,,,,,,,,,,,,,,,,,,,,,,,,,,,,,,,,,,,,,,,,,,,,,,,,,,,,,,,,,,,,,,,,,,,,,,,,,,
,,613ad089983f33fc8194d601,2023-12-14_20h05.22.923,kallum_motion_pilot,2023.2.3,Win32,60.24096386,613ad089983f33fc8194d601,657bb317c8798c6608bceb3f,657bb43bf6e17e695207f353,0.0408,0.0408,0,154,154,60,1,threeone,,,,,,,,,,,,,,,,,,,,,,,,,,,,,,,,,,,,,,,,,,,,,,,,,,,,,,,,,,,,,,,,,,,,,,,,,,,,,,,,,,,,,,,,,,,,,,,,,,,,,,,,,,,,,,,,,,,,,,,,,,,,,,,,,,,,,,,
,,613ad089983f33fc8194d601,2023-12-14_20h05.22.923,kallum_motion_pilot,2023.2.3,Win32,60.24096386,613ad089983f33fc8194d601,657bb317c8798c6608bceb3f,657bb43bf6e17e695207f353,0.041,0.041,0,155,155,67,1,twofour,,,,,,,,,,,,,,,,,,,,,,,,,,,,,,,,,,,,,,,,,,,,,,,,,,,,,,,,,,,,,,,,,,,,,,,,,,,,,,,,,,,,,,,,,,,,,,,,,,,,,,,,,,,,,,,,,,,,,,,,,,,,,,,,,,,,,,,
,,613ad089983f33fc8194d601,2023-12-14_20h05.22.923,kallum_motion_pilot,2023.2.3,Win32,60.24096386,613ad089983f33fc8194d601,657bb317c8798c6608bceb3f,657bb43bf6e17e695207f353,0.0411,0.0412,0,156,156,100,1,sevenfive,,,,,,,,,,,,,,,,,,,,,,,,,,,,,,,,,,,,,,,,,,,,,,,,,,,,,,,,,,,,,,,,,,,,,,,,,,,,,,,,,,,,,,,,,,,,,,,,,,,,,,,,,,,,,,,,,,,,,,,,,,,,,,,,,,,,,,,
,,613ad089983f33fc8194d601,2023-12-14_20h05.22.923,kallum_motion_pilot,2023.2.3,Win32,60.24096386,613ad089983f33fc8194d601,657bb317c8798c6608bceb3f,657bb43bf6e17e695207f353,0.0412,0.0412,0,157,157,105,1,fiveseven,,,,,,,,,,,,,,,,,,,,,,,,,,,,,,,,,,,,,,,,,,,,,,,,,,,,,,,,,,,,,,,,,,,,,,,,,,,,,,,,,,,,,,,,,,,,,,,,,,,,,,,,,,,,,,,,,,,,,,,,,,,,,,,,,,,,,,,
,,613ad089983f33fc8194d601,2023-12-14_20h05.22.923,kallum_motion_pilot,2023.2.3,Win32,60.24096386,613ad089983f33fc8194d601,657bb317c8798c6608bceb3f,657bb43bf6e17e695207f353,0.0413,0.0413,0,158,158,128,1,fivesix,,,,,,,,,,,,,,,,,,,,,,,,,,,,,,,,,,,,,,,,,,,,,,,,,,,,,,,,,,,,,,,,,,,,,,,,,,,,,,,,,,,,,,,,,,,,,,,,,,,,,,,,,,,,,,,,,,,,,,,,,,,,,,,,,,,,,,,
,,613ad089983f33fc8194d601,2023-12-14_20h05.22.923,kallum_motion_pilot,2023.2.3,Win32,60.24096386,613ad089983f33fc8194d601,657bb317c8798c6608bceb3f,657bb43bf6e17e695207f353,0.0414,0.0414,0,159,159,43,1,twofour,,,,,,,,,,,,,,,,,,,,,,,,,,,,,,,,,,,,,,,,,,,,,,,,,,,,,,,,,,,,,,,,,,,,,,,,,,,,,,,,,,,,,,,,,,,,,,,,,,,,,,,,,,,,,,,,,,,,,,,,,,,,,,,,,,,,,,,
,,613ad089983f33fc8194d601,2023-12-14_20h05.22.923,kallum_motion_pilot,2023.2.3,Win32,60.24096386,613ad089983f33fc8194d601,657bb317c8798c6608bceb3f,657bb43bf6e17e695207f353,0.0416,0.0416,0,160,160,30,1,fourtwo,,,,,,,,,,,,,,,,,,,,,,,,,,,,,,,,,,,,,,,,,,,,,,,,,,,,,,,,,,,,,,,,,,,,,,,,,,,,,,,,,,,,,,,,,,,,,,,,,,,,,,,,,,,,,,,,,,,,,,,,,,,,,,,,,,,,,,,
,,613ad089983f33fc8194d601,2023-12-14_20h05.22.923,kallum_motion_pilot,2023.2.3,Win32,60.24096386,613ad089983f33fc8194d601,657bb317c8798c6608bceb3f,657bb43bf6e17e695207f353,0.0417,0.0418,0,161,161,1,1,onethree,,,,,,,,,,,,,,,,,,,,,,,,,,,,,,,,,,,,,,,,,,,,,,,,,,,,,,,,,,,,,,,,,,,,,,,,,,,,,,,,,,,,,,,,,,,,,,,,,,,,,,,,,,,,,,,,,,,,,,,,,,,,,,,,,,,,,,,
,,613ad089983f33fc8194d601,2023-12-14_20h05.22.923,kallum_motion_pilot,2023.2.3,Win32,60.24096386,613ad089983f33fc8194d601,657bb317c8798c6608bceb3f,657bb43bf6e17e695207f353,0.0418,0.0418,1,0,162,148,1,sevenfive,,,,,,,,,,,,,,,,,,,,,,,,,,,,,,,,,,,,,,,,,,,,,,,,,,,,,,,,,,,,,,,,,,,,,,,,,,,,,,,,,,,,,,,,,,,,,,,,,,,,,,,,,,,,,,,,,,,,,,,,,,,,,,,,,,,,,,,
,,613ad089983f33fc8194d601,2023-12-14_20h05.22.923,kallum_motion_pilot,2023.2.3,Win32,60.24096386,613ad089983f33fc8194d601,657bb317c8798c6608bceb3f,657bb43bf6e17e695207f353,0.0419,0.0419,1,1,163,3,1,twofour,,,,,,,,,,,,,,,,,,,,,,,,,,,,,,,,,,,,,,,,,,,,,,,,,,,,,,,,,,,,,,,,,,,,,,,,,,,,,,,,,,,,,,,,,,,,,,,,,,,,,,,,,,,,,,,,,,,,,,,,,,,,,,,,,,,,,,,
,,613ad089983f33fc8194d601,2023-12-14_20h05.22.923,kallum_motion_pilot,2023.2.3,Win32,60.24096386,613ad089983f33fc8194d601,657bb317c8798c6608bceb3f,657bb43bf6e17e695207f353,0.042,0.0421,1,2,164,58,1,twoone,,,,,,,,,,,,,,,,,,,,,,,,,,,,,,,,,,,,,,,,,,,,,,,,,,,,,,,,,,,,,,,,,,,,,,,,,,,,,,,,,,,,,,,,,,,,,,,,,,,,,,,,,,,,,,,,,,,,,,,,,,,,,,,,,,,,,,,
,,613ad089983f33fc8194d601,2023-12-14_20h05.22.923,kallum_motion_pilot,2023.2.3,Win32,60.24096386,613ad089983f33fc8194d601,657bb317c8798c6608bceb3f,657bb43bf6e17e695207f353,0.0421,0.0421,1,3,165,47,1,fourthree,,,,,,,,,,,,,,,,,,,,,,,,,,,,,,,,,,,,,,,,,,,,,,,,,,,,,,,,,,,,,,,,,,,,,,,,,,,,,,,,,,,,,,,,,,,,,,,,,,,,,,,,,,,,,,,,,,,,,,,,,,,,,,,,,,,,,,,
,,613ad089983f33fc8194d601,2023-12-14_20h05.22.923,kallum_motion_pilot,2023.2.3,Win32,60.24096386,613ad089983f33fc8194d601,657bb317c8798c6608bceb3f,657bb43bf6e17e695207f353,0.0423,0.0423,1,4,166,64,1,onetwo,,,,,,,,,,,,,,,,,,,,,,,,,,,,,,,,,,,,,,,,,,,,,,,,,,,,,,,,,,,,,,,,,,,,,,,,,,,,,,,,,,,,,,,,,,,,,,,,,,,,,,,,,,,,,,,,,,,,,,,,,,,,,,,,,,,,,,,
,,613ad089983f33fc8194d601,2023-12-14_20h05.22.923,kallum_motion_pilot,2023.2.3,Win32,60.24096386,613ad089983f33fc8194d601,657bb317c8798c6608bceb3f,657bb43bf6e17e695207f353,0.0423,0.0424,1,5,167,67,1,twofour,,,,,,,,,,,,,,,,,,,,,,,,,,,,,,,,,,,,,,,,,,,,,,,,,,,,,,,,,,,,,,,,,,,,,,,,,,,,,,,,,,,,,,,,,,,,,,,,,,,,,,,,,,,,,,,,,,,,,,,,,,,,,,,,,,,,,,,
,,613ad089983f33fc8194d601,2023-12-14_20h05.22.923,kallum_motion_pilot,2023.2.3,Win32,60.24096386,613ad089983f33fc8194d601,657bb317c8798c6608bceb3f,657bb43bf6e17e695207f353,0.0424,0.0425,1,6,168,118,1,eightsix,,,,,,,,,,,,,,,,,,,,,,,,,,,,,,,,,,,,,,,,,,,,,,,,,,,,,,,,,,,,,,,,,,,,,,,,,,,,,,,,,,,,,,,,,,,,,,,,,,,,,,,,,,,,,,,,,,,,,,,,,,,,,,,,,,,,,,,
,,613ad089983f33fc8194d601,2023-12-14_20h05.22.923,kallum_motion_pilot,2023.2.3,Win32,60.24096386,613ad089983f33fc8194d601,657bb317c8798c6608bceb3f,657bb43bf6e17e695207f353,0.0426,0.0426,1,7,169,89,1,fiveseven,,,,,,,,,,,,,,,,,,,,,,,,,,,,,,,,,,,,,,,,,,,,,,,,,,,,,,,,,,,,,,,,,,,,,,,,,,,,,,,,,,,,,,,,,,,,,,,,,,,,,,,,,,,,,,,,,,,,,,,,,,,,,,,,,,,,,,,
,,613ad089983f33fc8194d601,2023-12-14_20h05.22.923,kallum_motion_pilot,2023.2.3,Win32,60.24096386,613ad089983f33fc8194d601,657bb317c8798c6608bceb3f,657bb43bf6e17e695207f353,0.0426,0.0428,1,8,170,19,1,twofour,,,,,,,,,,,,,,,,,,,,,,,,,,,,,,,,,,,,,,,,,,,,,,,,,,,,,,,,,,,,,,,,,,,,,,,,,,,,,,,,,,,,,,,,,,,,,,,,,,,,,,,,,,,,,,,,,,,,,,,,,,,,,,,,,,,,,,,
,,613ad089983f33fc8194d601,2023-12-14_20h05.22.923,kallum_motion_pilot,2023.2.3,Win32,60.24096386,613ad089983f33fc8194d601,657bb317c8798c6608bceb3f,657bb43bf6e17e695207f353,0.0428,0.0429,1,9,171,48,1,onetwo,,,,,,,,,,,,,,,,,,,,,,,,,,,,,,,,,,,,,,,,,,,,,,,,,,,,,,,,,,,,,,,,,,,,,,,,,,,,,,,,,,,,,,,,,,,,,,,,,,,,,,,,,,,,,,,,,,,,,,,,,,,,,,,,,,,,,,,
,,613ad089983f33fc8194d601,2023-12-14_20h05.22.923,kallum_motion_pilot,2023.2.3,Win32,60.24096386,613ad089983f33fc8194d601,657bb317c8798c6608bceb3f,657bb43bf6e17e695207f353,0.0429,0.043,1,10,172,128,1,fivesix,,,,,,,,,,,,,,,,,,,,,,,,,,,,,,,,,,,,,,,,,,,,,,,,,,,,,,,,,,,,,,,,,,,,,,,,,,,,,,,,,,,,,,,,,,,,,,,,,,,,,,,,,,,,,,,,,,,,,,,,,,,,,,,,,,,,,,,
,,613ad089983f33fc8194d601,2023-12-14_20h05.22.923,kallum_motion_pilot,2023.2.3,Win32,60.24096386,613ad089983f33fc8194d601,657bb317c8798c6608bceb3f,657bb43bf6e17e695207f353,0.043,0.0431,1,11,173,51,1,twofour,,,,,,,,,,,,,,,,,,,,,,,,,,,,,,,,,,,,,,,,,,,,,,,,,,,,,,,,,,,,,,,,,,,,,,,,,,,,,,,,,,,,,,,,,,,,,,,,,,,,,,,,,,,,,,,,,,,,,,,,,,,,,,,,,,,,,,,
,,613ad089983f33fc8194d601,2023-12-14_20h05.22.923,kallum_motion_pilot,2023.2.3,Win32,60.24096386,613ad089983f33fc8194d601,657bb317c8798c6608bceb3f,657bb43bf6e17e695207f353,0.0432,0.0432,1,12,174,145,1,fiveseven,,,,,,,,,,,,,,,,,,,,,,,,,,,,,,,,,,,,,,,,,,,,,,,,,,,,,,,,,,,,,,,,,,,,,,,,,,,,,,,,,,,,,,,,,,,,,,,,,,,,,,,,,,,,,,,,,,,,,,,,,,,,,,,,,,,,,,,
,,613ad089983f33fc8194d601,2023-12-14_20h05.22.923,kallum_motion_pilot,2023.2.3,Win32,60.24096386,613ad089983f33fc8194d601,657bb317c8798c6608bceb3f,657bb43bf6e17e695207f353,0.0433,0.0433,1,13,175,24,1,onetwo,,,,,,,,,,,,,,,,,,,,,,,,,,,,,,,,,,,,,,,,,,,,,,,,,,,,,,,,,,,,,,,,,,,,,,,,,,,,,,,,,,,,,,,,,,,,,,,,,,,,,,,,,,,,,,,,,,,,,,,,,,,,,,,,,,,,,,,
,,613ad089983f33fc8194d601,2023-12-14_20h05.22.923,kallum_motion_pilot,2023.2.3,Win32,60.24096386,613ad089983f33fc8194d601,657bb317c8798c6608bceb3f,657bb43bf6e17e695207f353,0.0434,0.0434,1,14,176,117,1,seveneight,,,,,,,,,,,,,,,,,,,,,,,,,,,,,,,,,,,,,,,,,,,,,,,,,,,,,,,,,,,,,,,,,,,,,,,,,,,,,,,,,,,,,,,,,,,,,,,,,,,,,,,,,,,,,,,,,,,,,,,,,,,,,,,,,,,,,,,
,,613ad089983f33fc8194d601,2023-12-14_20h05.22.923,kallum_motion_pilot,2023.2.3,Win32,60.24096386,613ad089983f33fc8194d601,657bb317c8798c6608bceb3f,657bb43bf6e17e695207f353,0.0436,0.0437,1,15,177,98,1,sixfive,,,,,,,,,,,,,,,,,,,,,,,,,,,,,,,,,,,,,,,,,,,,,,,,,,,,,,,,,,,,,,,,,,,,,,,,,,,,,,,,,,,,,,,,,,,,,,,,,,,,,,,,,,,,,,,,,,,,,,,,,,,,,,,,,,,,,,,
,,613ad089983f33fc8194d601,2023-12-14_20h05.22.923,kallum_motion_pilot,2023.2.3,Win32,60.24096386,613ad089983f33fc8194d601,657bb317c8798c6608bceb3f,657bb43bf6e17e695207f353,0.0437,0.0439,1,16,178,93,1,seveneight,,,,,,,,,,,,,,,,,,,,,,,,,,,,,,,,,,,,,,,,,,,,,,,,,,,,,,,,,,,,,,,,,,,,,,,,,,,,,,,,,,,,,,,,,,,,,,,,,,,,,,,,,,,,,,,,,,,,,,,,,,,,,,,,,,,,,,,
,,613ad089983f33fc8194d601,2023-12-14_20h05.22.923,kallum_motion_pilot,2023.2.3,Win32,60.24096386,613ad089983f33fc8194d601,657bb317c8798c6608bceb3f,657bb43bf6e17e695207f353,0.0441,0.0444,1,17,179,116,1,sevenfive,,,,,,,,,,,,,,,,,,,,,,,,,,,,,,,,,,,,,,,,,,,,,,,,,,,,,,,,,,,,,,,,,,,,,,,,,,,,,,,,,,,,,,,,,,,,,,,,,,,,,,,,,,,,,,,,,,,,,,,,,,,,,,,,,,,,,,,
,,613ad089983f33fc8194d601,2023-12-14_20h05.22.923,kallum_motion_pilot,2023.2.3,Win32,60.24096386,613ad089983f33fc8194d601,657bb317c8798c6608bceb3f,657bb43bf6e17e695207f353,0.0448,0.0448,1,18,180,53,1,threefour,,,,,,,,,,,,,,,,,,,,,,,,,,,,,,,,,,,,,,,,,,,,,,,,,,,,,,,,,,,,,,,,,,,,,,,,,,,,,,,,,,,,,,,,,,,,,,,,,,,,,,,,,,,,,,,,,,,,,,,,,,,,,,,,,,,,,,,
,,613ad089983f33fc8194d601,2023-12-14_20h05.22.923,kallum_motion_pilot,2023.2.3,Win32,60.24096386,613ad089983f33fc8194d601,657bb317c8798c6608bceb3f,657bb43bf6e17e695207f353,0.045,0.045,1,19,181,158,1,eightsix,,,,,,,,,,,,,,,,,,,,,,,,,,,,,,,,,,,,,,,,,,,,,,,,,,,,,,,,,,,,,,,,,,,,,,,,,,,,,,,,,,,,,,,,,,,,,,,,,,,,,,,,,,,,,,,,,,,,,,,,,,,,,,,,,,,,,,,
,,613ad089983f33fc8194d601,2023-12-14_20h05.22.923,kallum_motion_pilot,2023.2.3,Win32,60.24096386,613ad089983f33fc8194d601,657bb317c8798c6608bceb3f,657bb43bf6e17e695207f353,0.0451,0.0452,1,20,182,56,1,onetwo,,,,,,,,,,,,,,,,,,,,,,,,,,,,,,,,,,,,,,,,,,,,,,,,,,,,,,,,,,,,,,,,,,,,,,,,,,,,,,,,,,,,,,,,,,,,,,,,,,,,,,,,,,,,,,,,,,,,,,,,,,,,,,,,,,,,,,,
,,613ad089983f33fc8194d601,2023-12-14_20h05.22.923,kallum_motion_pilot,2023.2.3,Win32,60.24096386,613ad089983f33fc8194d601,657bb317c8798c6608bceb3f,657bb43bf6e17e695207f353,0.0453,0.0453,1,21,183,43,1,twofour,,,,,,,,,,,,,,,,,,,,,,,,,,,,,,,,,,,,,,,,,,,,,,,,,,,,,,,,,,,,,,,,,,,,,,,,,,,,,,,,,,,,,,,,,,,,,,,,,,,,,,,,,,,,,,,,,,,,,,,,,,,,,,,,,,,,,,,
,,613ad089983f33fc8194d601,2023-12-14_20h05.22.923,kallum_motion_pilot,2023.2.3,Win32,60.24096386,613ad089983f33fc8194d601,657bb317c8798c6608bceb3f,657bb43bf6e17e695207f353,0.0455,0.0455,1,22,184,41,1,onethree,,,,,,,,,,,,,,,,,,,,,,,,,,,,,,,,,,,,,,,,,,,,,,,,,,,,,,,,,,,,,,,,,,,,,,,,,,,,,,,,,,,,,,,,,,,,,,,,,,,,,,,,,,,,,,,,,,,,,,,,,,,,,,,,,,,,,,,
,,613ad089983f33fc8194d601,2023-12-14_20h05.22.923,kallum_motion_pilot,2023.2.3,Win32,60.24096386,613ad089983f33fc8194d601,657bb317c8798c6608bceb3f,657bb43bf6e17e695207f353,0.0456,0.0456,1,23,185,85,1,seveneight,,,,,,,,,,,,,,,,,,,,,,,,,,,,,,,,,,,,,,,,,,,,,,,,,,,,,,,,,,,,,,,,,,,,,,,,,,,,,,,,,,,,,,,,,,,,,,,,,,,,,,,,,,,,,,,,,,,,,,,,,,,,,,,,,,,,,,,
,,613ad089983f33fc8194d601,2023-12-14_20h05.22.923,kallum_motion_pilot,2023.2.3,Win32,60.24096386,613ad089983f33fc8194d601,657bb317c8798c6608bceb3f,657bb43bf6e17e695207f353,0.0457,0.0458,1,24,186,152,1,fivesix,,,,,,,,,,,,,,,,,,,,,,,,,,,,,,,,,,,,,,,,,,,,,,,,,,,,,,,,,,,,,,,,,,,,,,,,,,,,,,,,,,,,,,,,,,,,,,,,,,,,,,,,,,,,,,,,,,,,,,,,,,,,,,,,,,,,,,,
,,613ad089983f33fc8194d601,2023-12-14_20h05.22.923,kallum_motion_pilot,2023.2.3,Win32,60.24096386,613ad089983f33fc8194d601,657bb317c8798c6608bceb3f,657bb43bf6e17e695207f353,0.0458,0.0459,1,25,187,160,1,fivesix,,,,,,,,,,,,,,,,,,,,,,,,,,,,,,,,,,,,,,,,,,,,,,,,,,,,,,,,,,,,,,,,,,,,,,,,,,,,,,,,,,,,,,,,,,,,,,,,,,,,,,,,,,,,,,,,,,,,,,,,,,,,,,,,,,,,,,,
,,613ad089983f33fc8194d601,2023-12-14_20h05.22.923,kallum_motion_pilot,2023.2.3,Win32,60.24096386,613ad089983f33fc8194d601,657bb317c8798c6608bceb3f,657bb43bf6e17e695207f353,0.0459,0.046,1,26,188,104,1,fivesix,,,,,,,,,,,,,,,,,,,,,,,,,,,,,,,,,,,,,,,,,,,,,,,,,,,,,,,,,,,,,,,,,,,,,,,,,,,,,,,,,,,,,,,,,,,,,,,,,,,,,,,,,,,,,,,,,,,,,,,,,,,,,,,,,,,,,,,
,,613ad089983f33fc8194d601,2023-12-14_20h05.22.923,kallum_motion_pilot,2023.2.3,Win32,60.24096386,613ad089983f33fc8194d601,657bb317c8798c6608bceb3f,657bb43bf6e17e695207f353,0.0461,0.0463,1,27,189,72,1,onetwo,,,,,,,,,,,,,,,,,,,,,,,,,,,,,,,,,,,,,,,,,,,,,,,,,,,,,,,,,,,,,,,,,,,,,,,,,,,,,,,,,,,,,,,,,,,,,,,,,,,,,,,,,,,,,,,,,,,,,,,,,,,,,,,,,,,,,,,
,,613ad089983f33fc8194d601,2023-12-14_20h05.22.923,kallum_motion_pilot,2023.2.3,Win32,60.24096386,613ad089983f33fc8194d601,657bb317c8798c6608bceb3f,657bb43bf6e17e695207f353,0.0463,0.0465,1,28,190,76,1,threeone,,,,,,,,,,,,,,,,,,,,,,,,,,,,,,,,,,,,,,,,,,,,,,,,,,,,,,,,,,,,,,,,,,,,,,,,,,,,,,,,,,,,,,,,,,,,,,,,,,,,,,,,,,,,,,,,,,,,,,,,,,,,,,,,,,,,,,,
,,613ad089983f33fc8194d601,2023-12-14_20h05.22.923,kallum_motion_pilot,2023.2.3,Win32,60.24096386,613ad089983f33fc8194d601,657bb317c8798c6608bceb3f,657bb43bf6e17e695207f353,0.0465,0.0465,1,29,191,23,1,fourthree,,,,,,,,,,,,,,,,,,,,,,,,,,,,,,,,,,,,,,,,,,,,,,,,,,,,,,,,,,,,,,,,,,,,,,,,,,,,,,,,,,,,,,,,,,,,,,,,,,,,,,,,,,,,,,,,,,,,,,,,,,,,,,,,,,,,,,,
,,613ad089983f33fc8194d601,2023-12-14_20h05.22.923,kallum_motion_pilot,2023.2.3,Win32,60.24096386,613ad089983f33fc8194d601,657bb317c8798c6608bceb3f,657bb43bf6e17e695207f353,0.0467,0.0467,1,30,192,108,1,sevenfive,,,,,,,,,,,,,,,,,,,,,,,,,,,,,,,,,,,,,,,,,,,,,,,,,,,,,,,,,,,,,,,,,,,,,,,,,,,,,,,,,,,,,,,,,,,,,,,,,,,,,,,,,,,,,,,,,,,,,,,,,,,,,,,,,,,,,,,
,,613ad089983f33fc8194d601,2023-12-14_20h05.22.923,kallum_motion_pilot,2023.2.3,Win32,60.24096386,613ad089983f33fc8194d601,657bb317c8798c6608bceb3f,657bb43bf6e17e695207f353,0.0467,0.0468,1,31,193,62,1,fourtwo,,,,,,,,,,,,,,,,,,,,,,,,,,,,,,,,,,,,,,,,,,,,,,,,,,,,,,,,,,,,,,,,,,,,,,,,,,,,,,,,,,,,,,,,,,,,,,,,,,,,,,,,,,,,,,,,,,,,,,,,,,,,,,,,,,,,,,,
,,613ad089983f33fc8194d601,2023-12-14_20h05.22.923,kallum_motion_pilot,2023.2.3,Win32,60.24096386,613ad089983f33fc8194d601,657bb317c8798c6608bceb3f,657bb43bf6e17e695207f353,0.0468,0.0469,1,32,194,95,1,eightseven,,,,,,,,,,,,,,,,,,,,,,,,,,,,,,,,,,,,,,,,,,,,,,,,,,,,,,,,,,,,,,,,,,,,,,,,,,,,,,,,,,,,,,,,,,,,,,,,,,,,,,,,,,,,,,,,,,,,,,,,,,,,,,,,,,,,,,,
,,613ad089983f33fc8194d601,2023-12-14_20h05.22.923,kallum_motion_pilot,2023.2.3,Win32,60.24096386,613ad089983f33fc8194d601,657bb317c8798c6608bceb3f,657bb43bf6e17e695207f353,0.047,0.0471,1,33,195,73,1,onethree,,,,,,,,,,,,,,,,,,,,,,,,,,,,,,,,,,,,,,,,,,,,,,,,,,,,,,,,,,,,,,,,,,,,,,,,,,,,,,,,,,,,,,,,,,,,,,,,,,,,,,,,,,,,,,,,,,,,,,,,,,,,,,,,,,,,,,,
,,613ad089983f33fc8194d601,2023-12-14_20h05.22.923,kallum_motion_pilot,2023.2.3,Win32,60.24096386,613ad089983f33fc8194d601,657bb317c8798c6608bceb3f,657bb43bf6e17e695207f353,0.0473,0.0473,1,34,196,28,1,threeone,,,,,,,,,,,,,,,,,,,,,,,,,,,,,,,,,,,,,,,,,,,,,,,,,,,,,,,,,,,,,,,,,,,,,,,,,,,,,,,,,,,,,,,,,,,,,,,,,,,,,,,,,,,,,,,,,,,,,,,,,,,,,,,,,,,,,,,
,,613ad089983f33fc8194d601,2023-12-14_20h05.22.923,kallum_motion_pilot,2023.2.3,Win32,60.24096386,613ad089983f33fc8194d601,657bb317c8798c6608bceb3f,657bb43bf6e17e695207f353,0.0473,0.0475,1,35,197,50,1,twoone,,,,,,,,,,,,,,,,,,,,,,,,,,,,,,,,,,,,,,,,,,,,,,,,,,,,,,,,,,,,,,,,,,,,,,,,,,,,,,,,,,,,,,,,,,,,,,,,,,,,,,,,,,,,,,,,,,,,,,,,,,,,,,,,,,,,,,,
,,613ad089983f33fc8194d601,2023-12-14_20h05.22.923,kallum_motion_pilot,2023.2.3,Win32,60.24096386,613ad089983f33fc8194d601,657bb317c8798c6608bceb3f,657bb43bf6e17e695207f353,0.0475,0.0476,1,36,198,110,1,eightsix,,,,,,,,,,,,,,,,,,,,,,,,,,,,,,,,,,,,,,,,,,,,,,,,,,,,,,,,,,,,,,,,,,,,,,,,,,,,,,,,,,,,,,,,,,,,,,,,,,,,,,,,,,,,,,,,,,,,,,,,,,,,,,,,,,,,,,,
,,613ad089983f33fc8194d601,2023-12-14_20h05.22.923,kallum_motion_pilot,2023.2.3,Win32,60.24096386,613ad089983f33fc8194d601,657bb317c8798c6608bceb3f,657bb43bf6e17e695207f353,0.0476,0.0477,1,37,199,121,1,fiveseven,,,,,,,,,,,,,,,,,,,,,,,,,,,,,,,,,,,,,,,,,,,,,,,,,,,,,,,,,,,,,,,,,,,,,,,,,,,,,,,,,,,,,,,,,,,,,,,,,,,,,,,,,,,,,,,,,,,,,,,,,,,,,,,,,,,,,,,
,,613ad089983f33fc8194d601,2023-12-14_20h05.22.923,kallum_motion_pilot,2023.2.3,Win32,60.24096386,613ad089983f33fc8194d601,657bb317c8798c6608bceb3f,657bb43bf6e17e695207f353,0.0478,0.0478,1,38,200,154,1,sixfive,,,,,,,,,,,,,,,,,,,,,,,,,,,,,,,,,,,,,,,,,,,,,,,,,,,,,,,,,,,,,,,,,,,,,,,,,,,,,,,,,,,,,,,,,,,,,,,,,,,,,,,,,,,,,,,,,,,,,,,,,,,,,,,,,,,,,,,
,,613ad089983f33fc8194d601,2023-12-14_20h05.22.923,kallum_motion_pilot,2023.2.3,Win32,60.24096386,613ad089983f33fc8194d601,657bb317c8798c6608bceb3f,657bb43bf6e17e695207f353,0.0479,0.0479,1,39,201,141,1,seveneight,,,,,,,,,,,,,,,,,,,,,,,,,,,,,,,,,,,,,,,,,,,,,,,,,,,,,,,,,,,,,,,,,,,,,,,,,,,,,,,,,,,,,,,,,,,,,,,,,,,,,,,,,,,,,,,,,,,,,,,,,,,,,,,,,,,,,,,
,,613ad089983f33fc8194d601,2023-12-14_20h05.22.923,kallum_motion_pilot,2023.2.3,Win32,60.24096386,613ad089983f33fc8194d601,657bb317c8798c6608bceb3f,657bb43bf6e17e695207f353,0.048,0.0481,1,40,202,126,1,eightsix,,,,,,,,,,,,,,,,,,,,,,,,,,,,,,,,,,,,,,,,,,,,,,,,,,,,,,,,,,,,,,,,,,,,,,,,,,,,,,,,,,,,,,,,,,,,,,,,,,,,,,,,,,,,,,,,,,,,,,,,,,,,,,,,,,,,,,,
,,613ad089983f33fc8194d601,2023-12-14_20h05.22.923,kallum_motion_pilot,2023.2.3,Win32,60.24096386,613ad089983f33fc8194d601,657bb317c8798c6608bceb3f,657bb43bf6e17e695207f353,0.0481,0.0482,1,41,203,33,1,onethree,,,,,,,,,,,,,,,,,,,,,,,,,,,,,,,,,,,,,,,,,,,,,,,,,,,,,,,,,,,,,,,,,,,,,,,,,,,,,,,,,,,,,,,,,,,,,,,,,,,,,,,,,,,,,,,,,,,,,,,,,,,,,,,,,,,,,,,
,,613ad089983f33fc8194d601,2023-12-14_20h05.22.923,kallum_motion_pilot,2023.2.3,Win32,60.24096386,613ad089983f33fc8194d601,657bb317c8798c6608bceb3f,657bb43bf6e17e695207f353,0.0483,0.0484,1,42,204,29,1,threefour,,,,,,,,,,,,,,,,,,,,,,,,,,,,,,,,,,,,,,,,,,,,,,,,,,,,,,,,,,,,,,,,,,,,,,,,,,,,,,,,,,,,,,,,,,,,,,,,,,,,,,,,,,,,,,,,,,,,,,,,,,,,,,,,,,,,,,,
,,613ad089983f33fc8194d601,2023-12-14_20h05.22.923,kallum_motion_pilot,2023.2.3,Win32,60.24096386,613ad089983f33fc8194d601,657bb317c8798c6608bceb3f,657bb43bf6e17e695207f353,0.0484,0.0484,1,43,205,66,1,twoone,,,,,,,,,,,,,,,,,,,,,,,,,,,,,,,,,,,,,,,,,,,,,,,,,,,,,,,,,,,,,,,,,,,,,,,,,,,,,,,,,,,,,,,,,,,,,,,,,,,,,,,,,,,,,,,,,,,,,,,,,,,,,,,,,,,,,,,
,,613ad089983f33fc8194d601,2023-12-14_20h05.22.923,kallum_motion_pilot,2023.2.3,Win32,60.24096386,613ad089983f33fc8194d601,657bb317c8798c6608bceb3f,657bb43bf6e17e695207f353,0.0485,0.0486,1,44,206,35,1,twofour,,,,,,,,,,,,,,,,,,,,,,,,,,,,,,,,,,,,,,,,,,,,,,,,,,,,,,,,,,,,,,,,,,,,,,,,,,,,,,,,,,,,,,,,,,,,,,,,,,,,,,,,,,,,,,,,,,,,,,,,,,,,,,,,,,,,,,,
,,613ad089983f33fc8194d601,2023-12-14_20h05.22.923,kallum_motion_pilot,2023.2.3,Win32,60.24096386,613ad089983f33fc8194d601,657bb317c8798c6608bceb3f,657bb43bf6e17e695207f353,0.0486,0.0487,1,45,207,132,1,sevenfive,,,,,,,,,,,,,,,,,,,,,,,,,,,,,,,,,,,,,,,,,,,,,,,,,,,,,,,,,,,,,,,,,,,,,,,,,,,,,,,,,,,,,,,,,,,,,,,,,,,,,,,,,,,,,,,,,,,,,,,,,,,,,,,,,,,,,,,
,,613ad089983f33fc8194d601,2023-12-14_20h05.22.923,kallum_motion_pilot,2023.2.3,Win32,60.24096386,613ad089983f33fc8194d601,657bb317c8798c6608bceb3f,657bb43bf6e17e695207f353,0.0488,0.0488,1,46,208,61,1,threefour,,,,,,,,,,,,,,,,,,,,,,,,,,,,,,,,,,,,,,,,,,,,,,,,,,,,,,,,,,,,,,,,,,,,,,,,,,,,,,,,,,,,,,,,,,,,,,,,,,,,,,,,,,,,,,,,,,,,,,,,,,,,,,,,,,,,,,,
,,613ad089983f33fc8194d601,2023-12-14_20h05.22.923,kallum_motion_pilot,2023.2.3,Win32,60.24096386,613ad089983f33fc8194d601,657bb317c8798c6608bceb3f,657bb43bf6e17e695207f353,0.0489,0.049,1,47,209,12,1,threeone,,,,,,,,,,,,,,,,,,,,,,,,,,,,,,,,,,,,,,,,,,,,,,,,,,,,,,,,,,,,,,,,,,,,,,,,,,,,,,,,,,,,,,,,,,,,,,,,,,,,,,,,,,,,,,,,,,,,,,,,,,,,,,,,,,,,,,,
,,613ad089983f33fc8194d601,2023-12-14_20h05.22.923,kallum_motion_pilot,2023.2.3,Win32,60.24096386,613ad089983f33fc8194d601,657bb317c8798c6608bceb3f,657bb43bf6e17e695207f353,0.049,0.0491,1,48,210,156,1,sevenfive,,,,,,,,,,,,,,,,,,,,,,,,,,,,,,,,,,,,,,,,,,,,,,,,,,,,,,,,,,,,,,,,,,,,,,,,,,,,,,,,,,,,,,,,,,,,,,,,,,,,,,,,,,,,,,,,,,,,,,,,,,,,,,,,,,,,,,,
,,613ad089983f33fc8194d601,2023-12-14_20h05.22.923,kallum_motion_pilot,2023.2.3,Win32,60.24096386,613ad089983f33fc8194d601,657bb317c8798c6608bceb3f,657bb43bf6e17e695207f353,0.0492,0.0492,1,49,211,60,1,threeone,,,,,,,,,,,,,,,,,,,,,,,,,,,,,,,,,,,,,,,,,,,,,,,,,,,,,,,,,,,,,,,,,,,,,,,,,,,,,,,,,,,,,,,,,,,,,,,,,,,,,,,,,,,,,,,,,,,,,,,,,,,,,,,,,,,,,,,
,,613ad089983f33fc8194d601,2023-12-14_20h05.22.923,kallum_motion_pilot,2023.2.3,Win32,60.24096386,613ad089983f33fc8194d601,657bb317c8798c6608bceb3f,657bb43bf6e17e695207f353,0.0493,0.0494,1,50,212,124,1,sevenfive,,,,,,,,,,,,,,,,,,,,,,,,,,,,,,,,,,,,,,,,,,,,,,,,,,,,,,,,,,,,,,,,,,,,,,,,,,,,,,,,,,,,,,,,,,,,,,,,,,,,,,,,,,,,,,,,,,,,,,,,,,,,,,,,,,,,,,,
,,613ad089983f33fc8194d601,2023-12-14_20h05.22.923,kallum_motion_pilot,2023.2.3,Win32,60.24096386,613ad089983f33fc8194d601,657bb317c8798c6608bceb3f,657bb43bf6e17e695207f353,0.0494,0.0494,1,51,213,111,1,eightseven,,,,,,,,,,,,,,,,,,,,,,,,,,,,,,,,,,,,,,,,,,,,,,,,,,,,,,,,,,,,,,,,,,,,,,,,,,,,,,,,,,,,,,,,,,,,,,,,,,,,,,,,,,,,,,,,,,,,,,,,,,,,,,,,,,,,,,,
,,613ad089983f33fc8194d601,2023-12-14_20h05.22.923,kallum_motion_pilot,2023.2.3,Win32,60.24096386,613ad089983f33fc8194d601,657bb317c8798c6608bceb3f,657bb43bf6e17e695207f353,0.0496,0.0496,1,52,214,2,1,twoone,,,,,,,,,,,,,,,,,,,,,,,,,,,,,,,,,,,,,,,,,,,,,,,,,,,,,,,,,,,,,,,,,,,,,,,,,,,,,,,,,,,,,,,,,,,,,,,,,,,,,,,,,,,,,,,,,,,,,,,,,,,,,,,,,,,,,,,
,,613ad089983f33fc8194d601,2023-12-14_20h05.22.923,kallum_motion_pilot,2023.2.3,Win32,60.24096386,613ad089983f33fc8194d601,657bb317c8798c6608bceb3f,657bb43bf6e17e695207f353,0.0497,0.0497,1,53,215,25,1,onethree,,,,,,,,,,,,,,,,,,,,,,,,,,,,,,,,,,,,,,,,,,,,,,,,,,,,,,,,,,,,,,,,,,,,,,,,,,,,,,,,,,,,,,,,,,,,,,,,,,,,,,,,,,,,,,,,,,,,,,,,,,,,,,,,,,,,,,,
,,613ad089983f33fc8194d601,2023-12-14_20h05.22.923,kallum_motion_pilot,2023.2.3,Win32,60.24096386,613ad089983f33fc8194d601,657bb317c8798c6608bceb3f,657bb43bf6e17e695207f353,0.0498,0.0499,1,54,216,5,1,threefour,,,,,,,,,,,,,,,,,,,,,,,,,,,,,,,,,,,,,,,,,,,,,,,,,,,,,,,,,,,,,,,,,,,,,,,,,,,,,,,,,,,,,,,,,,,,,,,,,,,,,,,,,,,,,,,,,,,,,,,,,,,,,,,,,,,,,,,
,,613ad089983f33fc8194d601,2023-12-14_20h05.22.923,kallum_motion_pilot,2023.2.3,Win32,60.24096386,613ad089983f33fc8194d601,657bb317c8798c6608bceb3f,657bb43bf6e17e695207f353,0.0499,0.05,1,55,217,123,1,sixeight,,,,,,,,,,,,,,,,,,,,,,,,,,,,,,,,,,,,,,,,,,,,,,,,,,,,,,,,,,,,,,,,,,,,,,,,,,,,,,,,,,,,,,,,,,,,,,,,,,,,,,,,,,,,,,,,,,,,,,,,,,,,,,,,,,,,,,,
,,613ad089983f33fc8194d601,2023-12-14_20h05.22.923,kallum_motion_pilot,2023.2.3,Win32,60.24096386,613ad089983f33fc8194d601,657bb317c8798c6608bceb3f,657bb43bf6e17e695207f353,0.05,0.0501,1,56,218,21,1,threefour,,,,,,,,,,,,,,,,,,,,,,,,,,,,,,,,,,,,,,,,,,,,,,,,,,,,,,,,,,,,,,,,,,,,,,,,,,,,,,,,,,,,,,,,,,,,,,,,,,,,,,,,,,,,,,,,,,,,,,,,,,,,,,,,,,,,,,,
,,613ad089983f33fc8194d601,2023-12-14_20h05.22.923,kallum_motion_pilot,2023.2.3,Win32,60.24096386,613ad089983f33fc8194d601,657bb317c8798c6608bceb3f,657bb43bf6e17e695207f353,0.0501,0.0502,1,57,219,127,1,eightseven,,,,,,,,,,,,,,,,,,,,,,,,,,,,,,,,,,,,,,,,,,,,,,,,,,,,,,,,,,,,,,,,,,,,,,,,,,,,,,,,,,,,,,,,,,,,,,,,,,,,,,,,,,,,,,,,,,,,,,,,,,,,,,,,,,,,,,,
,,613ad089983f33fc8194d601,2023-12-14_20h05.22.923,kallum_motion_pilot,2023.2.3,Win32,60.24096386,613ad089983f33fc8194d601,657bb317c8798c6608bceb3f,657bb43bf6e17e695207f353,0.0503,0.0503,1,58,220,15,1,fourthree,,,,,,,,,,,,,,,,,,,,,,,,,,,,,,,,,,,,,,,,,,,,,,,,,,,,,,,,,,,,,,,,,,,,,,,,,,,,,,,,,,,,,,,,,,,,,,,,,,,,,,,,,,,,,,,,,,,,,,,,,,,,,,,,,,,,,,,
,,613ad089983f33fc8194d601,2023-12-14_20h05.22.923,kallum_motion_pilot,2023.2.3,Win32,60.24096386,613ad089983f33fc8194d601,657bb317c8798c6608bceb3f,657bb43bf6e17e695207f353,0.0504,0.0504,1,59,221,81,1,fiveseven,,,,,,,,,,,,,,,,,,,,,,,,,,,,,,,,,,,,,,,,,,,,,,,,,,,,,,,,,,,,,,,,,,,,,,,,,,,,,,,,,,,,,,,,,,,,,,,,,,,,,,,,,,,,,,,,,,,,,,,,,,,,,,,,,,,,,,,
,,613ad089983f33fc8194d601,2023-12-14_20h05.22.923,kallum_motion_pilot,2023.2.3,Win32,60.24096386,613ad089983f33fc8194d601,657bb317c8798c6608bceb3f,657bb43bf6e17e695207f353,0.0506,0.0506,1,60,222,59,1,twofour,,,,,,,,,,,,,,,,,,,,,,,,,,,,,,,,,,,,,,,,,,,,,,,,,,,,,,,,,,,,,,,,,,,,,,,,,,,,,,,,,,,,,,,,,,,,,,,,,,,,,,,,,,,,,,,,,,,,,,,,,,,,,,,,,,,,,,,
,,613ad089983f33fc8194d601,2023-12-14_20h05.22.923,kallum_motion_pilot,2023.2.3,Win32,60.24096386,613ad089983f33fc8194d601,657bb317c8798c6608bceb3f,657bb43bf6e17e695207f353,0.0506,0.0508,1,61,223,103,1,eightseven,,,,,,,,,,,,,,,,,,,,,,,,,,,,,,,,,,,,,,,,,,,,,,,,,,,,,,,,,,,,,,,,,,,,,,,,,,,,,,,,,,,,,,,,,,,,,,,,,,,,,,,,,,,,,,,,,,,,,,,,,,,,,,,,,,,,,,,
,,613ad089983f33fc8194d601,2023-12-14_20h05.22.923,kallum_motion_pilot,2023.2.3,Win32,60.24096386,613ad089983f33fc8194d601,657bb317c8798c6608bceb3f,657bb43bf6e17e695207f353,0.0508,0.0508,1,62,224,13,1,threefour,,,,,,,,,,,,,,,,,,,,,,,,,,,,,,,,,,,,,,,,,,,,,,,,,,,,,,,,,,,,,,,,,,,,,,,,,,,,,,,,,,,,,,,,,,,,,,,,,,,,,,,,,,,,,,,,,,,,,,,,,,,,,,,,,,,,,,,
,,613ad089983f33fc8194d601,2023-12-14_20h05.22.923,kallum_motion_pilot,2023.2.3,Win32,60.24096386,613ad089983f33fc8194d601,657bb317c8798c6608bceb3f,657bb43bf6e17e695207f353,0.0509,0.051,1,63,225,129,1,fiveseven,,,,,,,,,,,,,,,,,,,,,,,,,,,,,,,,,,,,,,,,,,,,,,,,,,,,,,,,,,,,,,,,,,,,,,,,,,,,,,,,,,,,,,,,,,,,,,,,,,,,,,,,,,,,,,,,,,,,,,,,,,,,,,,,,,,,,,,
,,613ad089983f33fc8194d601,2023-12-14_20h05.22.923,kallum_motion_pilot,2023.2.3,Win32,60.24096386,613ad089983f33fc8194d601,657bb317c8798c6608bceb3f,657bb43bf6e17e695207f353,0.0511,0.0512,1,64,226,83,1,sixeight,,,,,,,,,,,,,,,,,,,,,,,,,,,,,,,,,,,,,,,,,,,,,,,,,,,,,,,,,,,,,,,,,,,,,,,,,,,,,,,,,,,,,,,,,,,,,,,,,,,,,,,,,,,,,,,,,,,,,,,,,,,,,,,,,,,,,,,
,,613ad089983f33fc8194d601,2023-12-14_20h05.22.923,kallum_motion_pilot,2023.2.3,Win32,60.24096386,613ad089983f33fc8194d601,657bb317c8798c6608bceb3f,657bb43bf6e17e695207f353,0.0513,0.0513,1,65,227,6,1,fourtwo,,,,,,,,,,,,,,,,,,,,,,,,,,,,,,,,,,,,,,,,,,,,,,,,,,,,,,,,,,,,,,,,,,,,,,,,,,,,,,,,,,,,,,,,,,,,,,,,,,,,,,,,,,,,,,,,,,,,,,,,,,,,,,,,,,,,,,,
,,613ad089983f33fc8194d601,2023-12-14_20h05.22.923,kallum_motion_pilot,2023.2.3,Win32,60.24096386,613ad089983f33fc8194d601,657bb317c8798c6608bceb3f,657bb43bf6e17e695207f353,0.0515,0.0515,1,66,228,78,1,fourtwo,,,,,,,,,,,,,,,,,,,,,,,,,,,,,,,,,,,,,,,,,,,,,,,,,,,,,,,,,,,,,,,,,,,,,,,,,,,,,,,,,,,,,,,,,,,,,,,,,,,,,,,,,,,,,,,,,,,,,,,,,,,,,,,,,,,,,,,
,,613ad089983f33fc8194d601,2023-12-14_20h05.22.923,kallum_motion_pilot,2023.2.3,Win32,60.24096386,613ad089983f33fc8194d601,657bb317c8798c6608bceb3f,657bb43bf6e17e695207f353,0.0516,0.0516,1,67,229,68,1,threeone,,,,,,,,,,,,,,,,,,,,,,,,,,,,,,,,,,,,,,,,,,,,,,,,,,,,,,,,,,,,,,,,,,,,,,,,,,,,,,,,,,,,,,,,,,,,,,,,,,,,,,,,,,,,,,,,,,,,,,,,,,,,,,,,,,,,,,,
,,613ad089983f33fc8194d601,2023-12-14_20h05.22.923,kallum_motion_pilot,2023.2.3,Win32,60.24096386,613ad089983f33fc8194d601,657bb317c8798c6608bceb3f,657bb43bf6e17e695207f353,0.0517,0.0518,1,68,230,144,1,fivesix,,,,,,,,,,,,,,,,,,,,,,,,,,,,,,,,,,,,,,,,,,,,,,,,,,,,,,,,,,,,,,,,,,,,,,,,,,,,,,,,,,,,,,,,,,,,,,,,,,,,,,,,,,,,,,,,,,,,,,,,,,,,,,,,,,,,,,,
,,613ad089983f33fc8194d601,2023-12-14_20h05.22.923,kallum_motion_pilot,2023.2.3,Win32,60.24096386,613ad089983f33fc8194d601,657bb317c8798c6608bceb3f,657bb43bf6e17e695207f353,0.0518,0.0519,1,69,231,70,1,fourtwo,,,,,,,,,,,,,,,,,,,,,,,,,,,,,,,,,,,,,,,,,,,,,,,,,,,,,,,,,,,,,,,,,,,,,,,,,,,,,,,,,,,,,,,,,,,,,,,,,,,,,,,,,,,,,,,,,,,,,,,,,,,,,,,,,,,,,,,
,,613ad089983f33fc8194d601,2023-12-14_20h05.22.923,kallum_motion_pilot,2023.2.3,Win32,60.24096386,613ad089983f33fc8194d601,657bb317c8798c6608bceb3f,657bb43bf6e17e695207f353,0.0519,0.0521,1,70,232,65,1,onethree,,,,,,,,,,,,,,,,,,,,,,,,,,,,,,,,,,,,,,,,,,,,,,,,,,,,,,,,,,,,,,,,,,,,,,,,,,,,,,,,,,,,,,,,,,,,,,,,,,,,,,,,,,,,,,,,,,,,,,,,,,,,,,,,,,,,,,,
,,613ad089983f33fc8194d601,2023-12-14_20h05.22.923,kallum_motion_pilot,2023.2.3,Win32,60.24096386,613ad089983f33fc8194d601,657bb317c8798c6608bceb3f,657bb43bf6e17e695207f353,0.0522,0.0522,1,71,233,22,1,fourtwo,,,,,,,,,,,,,,,,,,,,,,,,,,,,,,,,,,,,,,,,,,,,,,,,,,,,,,,,,,,,,,,,,,,,,,,,,,,,,,,,,,,,,,,,,,,,,,,,,,,,,,,,,,,,,,,,,,,,,,,,,,,,,,,,,,,,,,,
,,613ad089983f33fc8194d601,2023-12-14_20h05.22.923,kallum_motion_pilot,2023.2.3,Win32,60.24096386,613ad089983f33fc8194d601,657bb317c8798c6608bceb3f,657bb43bf6e17e695207f353,0.0524,0.0524,1,72,234,115,1,sixeight,,,,,,,,,,,,,,,,,,,,,,,,,,,,,,,,,,,,,,,,,,,,,,,,,,,,,,,,,,,,,,,,,,,,,,,,,,,,,,,,,,,,,,,,,,,,,,,,,,,,,,,,,,,,,,,,,,,,,,,,,,,,,,,,,,,,,,,
,,613ad089983f33fc8194d601,2023-12-14_20h05.22.923,kallum_motion_pilot,2023.2.3,Win32,60.24096386,613ad089983f33fc8194d601,657bb317c8798c6608bceb3f,657bb43bf6e17e695207f353,0.0526,0.0527,1,73,235,30,1,fourtwo,,,,,,,,,,,,,,,,,,,,,,,,,,,,,,,,,,,,,,,,,,,,,,,,,,,,,,,,,,,,,,,,,,,,,,,,,,,,,,,,,,,,,,,,,,,,,,,,,,,,,,,,,,,,,,,,,,,,,,,,,,,,,,,,,,,,,,,
,,613ad089983f33fc8194d601,2023-12-14_20h05.22.923,kallum_motion_pilot,2023.2.3,Win32,60.24096386,613ad089983f33fc8194d601,657bb317c8798c6608bceb3f,657bb43bf6e17e695207f353,0.0528,0.0528,1,74,236,46,1,fourtwo,,,,,,,,,,,,,,,,,,,,,,,,,,,,,,,,,,,,,,,,,,,,,,,,,,,,,,,,,,,,,,,,,,,,,,,,,,,,,,,,,,,,,,,,,,,,,,,,,,,,,,,,,,,,,,,,,,,,,,,,,,,,,,,,,,,,,,,
,,613ad089983f33fc8194d601,2023-12-14_20h05.22.923,kallum_motion_pilot,2023.2.3,Win32,60.24096386,613ad089983f33fc8194d601,657bb317c8798c6608bceb3f,657bb43bf6e17e695207f353,0.053,0.0531,1,75,237,80,1,fivesix,,,,,,,,,,,,,,,,,,,,,,,,,,,,,,,,,,,,,,,,,,,,,,,,,,,,,,,,,,,,,,,,,,,,,,,,,,,,,,,,,,,,,,,,,,,,,,,,,,,,,,,,,,,,,,,,,,,,,,,,,,,,,,,,,,,,,,,
,,613ad089983f33fc8194d601,2023-12-14_20h05.22.923,kallum_motion_pilot,2023.2.3,Win32,60.24096386,613ad089983f33fc8194d601,657bb317c8798c6608bceb3f,657bb43bf6e17e695207f353,0.0532,0.0533,1,76,238,37,1,threefour,,,,,,,,,,,,,,,,,,,,,,,,,,,,,,,,,,,,,,,,,,,,,,,,,,,,,,,,,,,,,,,,,,,,,,,,,,,,,,,,,,,,,,,,,,,,,,,,,,,,,,,,,,,,,,,,,,,,,,,,,,,,,,,,,,,,,,,
,,613ad089983f33fc8194d601,2023-12-14_20h05.22.923,kallum_motion_pilot,2023.2.3,Win32,60.24096386,613ad089983f33fc8194d601,657bb317c8798c6608bceb3f,657bb43bf6e17e695207f353,0.0533,0.0534,1,77,239,137,1,fiveseven,,,,,,,,,,,,,,,,,,,,,,,,,,,,,,,,,,,,,,,,,,,,,,,,,,,,,,,,,,,,,,,,,,,,,,,,,,,,,,,,,,,,,,,,,,,,,,,,,,,,,,,,,,,,,,,,,,,,,,,,,,,,,,,,,,,,,,,
,,613ad089983f33fc8194d601,2023-12-14_20h05.22.923,kallum_motion_pilot,2023.2.3,Win32,60.24096386,613ad089983f33fc8194d601,657bb317c8798c6608bceb3f,657bb43bf6e17e695207f353,0.0535,0.0535,1,78,240,150,1,eightsix,,,,,,,,,,,,,,,,,,,,,,,,,,,,,,,,,,,,,,,,,,,,,,,,,,,,,,,,,,,,,,,,,,,,,,,,,,,,,,,,,,,,,,,,,,,,,,,,,,,,,,,,,,,,,,,,,,,,,,,,,,,,,,,,,,,,,,,
,,613ad089983f33fc8194d601,2023-12-14_20h05.22.923,kallum_motion_pilot,2023.2.3,Win32,60.24096386,613ad089983f33fc8194d601,657bb317c8798c6608bceb3f,657bb43bf6e17e695207f353,0.0536,0.0536,1,79,241,149,1,seveneight,,,,,,,,,,,,,,,,,,,,,,,,,,,,,,,,,,,,,,,,,,,,,,,,,,,,,,,,,,,,,,,,,,,,,,,,,,,,,,,,,,,,,,,,,,,,,,,,,,,,,,,,,,,,,,,,,,,,,,,,,,,,,,,,,,,,,,,
,,613ad089983f33fc8194d601,2023-12-14_20h05.22.923,kallum_motion_pilot,2023.2.3,Win32,60.24096386,613ad089983f33fc8194d601,657bb317c8798c6608bceb3f,657bb43bf6e17e695207f353,0.0537,0.0538,1,80,242,38,1,fourtwo,,,,,,,,,,,,,,,,,,,,,,,,,,,,,,,,,,,,,,,,,,,,,,,,,,,,,,,,,,,,,,,,,,,,,,,,,,,,,,,,,,,,,,,,,,,,,,,,,,,,,,,,,,,,,,,,,,,,,,,,,,,,,,,,,,,,,,,
,,613ad089983f33fc8194d601,2023-12-14_20h05.22.923,kallum_motion_pilot,2023.2.3,Win32,60.24096386,613ad089983f33fc8194d601,657bb317c8798c6608bceb3f,657bb43bf6e17e695207f353,0.0539,0.054,1,81,243,90,1,sixfive,,,,,,,,,,,,,,,,,,,,,,,,,,,,,,,,,,,,,,,,,,,,,,,,,,,,,,,,,,,,,,,,,,,,,,,,,,,,,,,,,,,,,,,,,,,,,,,,,,,,,,,,,,,,,,,,,,,,,,,,,,,,,,,,,,,,,,,
,,613ad089983f33fc8194d601,2023-12-14_20h05.22.923,kallum_motion_pilot,2023.2.3,Win32,60.24096386,613ad089983f33fc8194d601,657bb317c8798c6608bceb3f,657bb43bf6e17e695207f353,0.0541,0.0541,1,82,244,0,1,onetwo,,,,,,,,,,,,,,,,,,,,,,,,,,,,,,,,,,,,,,,,,,,,,,,,,,,,,,,,,,,,,,,,,,,,,,,,,,,,,,,,,,,,,,,,,,,,,,,,,,,,,,,,,,,,,,,,,,,,,,,,,,,,,,,,,,,,,,,
,,613ad089983f33fc8194d601,2023-12-14_20h05.22.923,kallum_motion_pilot,2023.2.3,Win32,60.24096386,613ad089983f33fc8194d601,657bb317c8798c6608bceb3f,657bb43bf6e17e695207f353,0.0542,0.0543,1,83,245,112,1,fivesix,,,,,,,,,,,,,,,,,,,,,,,,,,,,,,,,,,,,,,,,,,,,,,,,,,,,,,,,,,,,,,,,,,,,,,,,,,,,,,,,,,,,,,,,,,,,,,,,,,,,,,,,,,,,,,,,,,,,,,,,,,,,,,,,,,,,,,,
,,613ad089983f33fc8194d601,2023-12-14_20h05.22.923,kallum_motion_pilot,2023.2.3,Win32,60.24096386,613ad089983f33fc8194d601,657bb317c8798c6608bceb3f,657bb43bf6e17e695207f353,0.0543,0.0544,1,84,246,20,1,threeone,,,,,,,,,,,,,,,,,,,,,,,,,,,,,,,,,,,,,,,,,,,,,,,,,,,,,,,,,,,,,,,,,,,,,,,,,,,,,,,,,,,,,,,,,,,,,,,,,,,,,,,,,,,,,,,,,,,,,,,,,,,,,,,,,,,,,,,
,,613ad089983f33fc8194d601,2023-12-14_20h05.22.923,kallum_motion_pilot,2023.2.3,Win32,60.24096386,613ad089983f33fc8194d601,657bb317c8798c6608bceb3f,657bb43bf6e17e695207f353,0.0544,0.0545,1,85,247,139,1,sixeight,,,,,,,,,,,,,,,,,,,,,,,,,,,,,,,,,,,,,,,,,,,,,,,,,,,,,,,,,,,,,,,,,,,,,,,,,,,,,,,,,,,,,,,,,,,,,,,,,,,,,,,,,,,,,,,,,,,,,,,,,,,,,,,,,,,,,,,
,,613ad089983f33fc8194d601,2023-12-14_20h05.22.923,kallum_motion_pilot,2023.2.3,Win32,60.24096386,613ad089983f33fc8194d601,657bb317c8798c6608bceb3f,657bb43bf6e17e695207f353,0.0546,0.0546,1,86,248,54,1,fourtwo,,,,,,,,,,,,,,,,,,,,,,,,,,,,,,,,,,,,,,,,,,,,,,,,,,,,,,,,,,,,,,,,,,,,,,,,,,,,,,,,,,,,,,,,,,,,,,,,,,,,,,,,,,,,,,,,,,,,,,,,,,,,,,,,,,,,,,,
,,613ad089983f33fc8194d601,2023-12-14_20h05.22.923,kallum_motion_pilot,2023.2.3,Win32,60.24096386,613ad089983f33fc8194d601,657bb317c8798c6608bceb3f,657bb43bf6e17e695207f353,0.0546,0.0547,1,87,249,86,1,eightsix,,,,,,,,,,,,,,,,,,,,,,,,,,,,,,,,,,,,,,,,,,,,,,,,,,,,,,,,,,,,,,,,,,,,,,,,,,,,,,,,,,,,,,,,,,,,,,,,,,,,,,,,,,,,,,,,,,,,,,,,,,,,,,,,,,,,,,,
,,613ad089983f33fc8194d601,2023-12-14_20h05.22.923,kallum_motion_pilot,2023.2.3,Win32,60.24096386,613ad089983f33fc8194d601,657bb317c8798c6608bceb3f,657bb43bf6e17e695207f353,0.0549,0.0549,1,88,250,18,1,twoone,,,,,,,,,,,,,,,,,,,,,,,,,,,,,,,,,,,,,,,,,,,,,,,,,,,,,,,,,,,,,,,,,,,,,,,,,,,,,,,,,,,,,,,,,,,,,,,,,,,,,,,,,,,,,,,,,,,,,,,,,,,,,,,,,,,,,,,
,,613ad089983f33fc8194d601,2023-12-14_20h05.22.923,kallum_motion_pilot,2023.2.3,Win32,60.24096386,613ad089983f33fc8194d601,657bb317c8798c6608bceb3f,657bb43bf6e17e695207f353,0.055,0.0551,1,89,251,55,1,fourthree,,,,,,,,,,,,,,,,,,,,,,,,,,,,,,,,,,,,,,,,,,,,,,,,,,,,,,,,,,,,,,,,,,,,,,,,,,,,,,,,,,,,,,,,,,,,,,,,,,,,,,,,,,,,,,,,,,,,,,,,,,,,,,,,,,,,,,,
,,613ad089983f33fc8194d601,2023-12-14_20h05.22.923,kallum_motion_pilot,2023.2.3,Win32,60.24096386,613ad089983f33fc8194d601,657bb317c8798c6608bceb3f,657bb43bf6e17e695207f353,0.0552,0.0553,1,90,252,122,1,sixfive,,,,,,,,,,,,,,,,,,,,,,,,,,,,,,,,,,,,,,,,,,,,,,,,,,,,,,,,,,,,,,,,,,,,,,,,,,,,,,,,,,,,,,,,,,,,,,,,,,,,,,,,,,,,,,,,,,,,,,,,,,,,,,,,,,,,,,,
,,613ad089983f33fc8194d601,2023-12-14_20h05.22.923,kallum_motion_pilot,2023.2.3,Win32,60.24096386,613ad089983f33fc8194d601,657bb317c8798c6608bceb3f,657bb43bf6e17e695207f353,0.0553,0.0554,1,91,253,84,1,sevenfive,,,,,,,,,,,,,,,,,,,,,,,,,,,,,,,,,,,,,,,,,,,,,,,,,,,,,,,,,,,,,,,,,,,,,,,,,,,,,,,,,,,,,,,,,,,,,,,,,,,,,,,,,,,,,,,,,,,,,,,,,,,,,,,,,,,,,,,
,,613ad089983f33fc8194d601,2023-12-14_20h05.22.923,kallum_motion_pilot,2023.2.3,Win32,60.24096386,613ad089983f33fc8194d601,657bb317c8798c6608bceb3f,657bb43bf6e17e695207f353,0.0555,0.0555,1,92,254,161,1,fiveseven,,,,,,,,,,,,,,,,,,,,,,,,,,,,,,,,,,,,,,,,,,,,,,,,,,,,,,,,,,,,,,,,,,,,,,,,,,,,,,,,,,,,,,,,,,,,,,,,,,,,,,,,,,,,,,,,,,,,,,,,,,,,,,,,,,,,,,,
,,613ad089983f33fc8194d601,2023-12-14_20h05.22.923,kallum_motion_pilot,2023.2.3,Win32,60.24096386,613ad089983f33fc8194d601,657bb317c8798c6608bceb3f,657bb43bf6e17e695207f353,0.0556,0.0557,1,93,255,27,1,twofour,,,,,,,,,,,,,,,,,,,,,,,,,,,,,,,,,,,,,,,,,,,,,,,,,,,,,,,,,,,,,,,,,,,,,,,,,,,,,,,,,,,,,,,,,,,,,,,,,,,,,,,,,,,,,,,,,,,,,,,,,,,,,,,,,,,,,,,
,,613ad089983f33fc8194d601,2023-12-14_20h05.22.923,kallum_motion_pilot,2023.2.3,Win32,60.24096386,613ad089983f33fc8194d601,657bb317c8798c6608bceb3f,657bb43bf6e17e695207f353,0.0558,0.0559,1,94,256,34,1,twoone,,,,,,,,,,,,,,,,,,,,,,,,,,,,,,,,,,,,,,,,,,,,,,,,,,,,,,,,,,,,,,,,,,,,,,,,,,,,,,,,,,,,,,,,,,,,,,,,,,,,,,,,,,,,,,,,,,,,,,,,,,,,,,,,,,,,,,,
,,613ad089983f33fc8194d601,2023-12-14_20h05.22.923,kallum_motion_pilot,2023.2.3,Win32,60.24096386,613ad089983f33fc8194d601,657bb317c8798c6608bceb3f,657bb43bf6e17e695207f353,0.0559,0.056,1,95,257,120,1,fivesix,,,,,,,,,,,,,,,,,,,,,,,,,,,,,,,,,,,,,,,,,,,,,,,,,,,,,,,,,,,,,,,,,,,,,,,,,,,,,,,,,,,,,,,,,,,,,,,,,,,,,,,,,,,,,,,,,,,,,,,,,,,,,,,,,,,,,,,
,,613ad089983f33fc8194d601,2023-12-14_20h05.22.923,kallum_motion_pilot,2023.2.3,Win32,60.24096386,613ad089983f33fc8194d601,657bb317c8798c6608bceb3f,657bb43bf6e17e695207f353,0.0561,0.0562,1,96,258,142,1,eightsix,,,,,,,,,,,,,,,,,,,,,,,,,,,,,,,,,,,,,,,,,,,,,,,,,,,,,,,,,,,,,,,,,,,,,,,,,,,,,,,,,,,,,,,,,,,,,,,,,,,,,,,,,,,,,,,,,,,,,,,,,,,,,,,,,,,,,,,
,,613ad089983f33fc8194d601,2023-12-14_20h05.22.923,kallum_motion_pilot,2023.2.3,Win32,60.24096386,613ad089983f33fc8194d601,657bb317c8798c6608bceb3f,657bb43bf6e17e695207f353,0.0562,0.0563,1,97,259,143,1,eightseven,,,,,,,,,,,,,,,,,,,,,,,,,,,,,,,,,,,,,,,,,,,,,,,,,,,,,,,,,,,,,,,,,,,,,,,,,,,,,,,,,,,,,,,,,,,,,,,,,,,,,,,,,,,,,,,,,,,,,,,,,,,,,,,,,,,,,,,
,,613ad089983f33fc8194d601,2023-12-14_20h05.22.923,kallum_motion_pilot,2023.2.3,Win32,60.24096386,613ad089983f33fc8194d601,657bb317c8798c6608bceb3f,657bb43bf6e17e695207f353,0.0563,0.0564,1,98,260,94,1,eightsix,,,,,,,,,,,,,,,,,,,,,,,,,,,,,,,,,,,,,,,,,,,,,,,,,,,,,,,,,,,,,,,,,,,,,,,,,,,,,,,,,,,,,,,,,,,,,,,,,,,,,,,,,,,,,,,,,,,,,,,,,,,,,,,,,,,,,,,
,,613ad089983f33fc8194d601,2023-12-14_20h05.22.923,kallum_motion_pilot,2023.2.3,Win32,60.24096386,613ad089983f33fc8194d601,657bb317c8798c6608bceb3f,657bb43bf6e17e695207f353,0.0565,0.0565,1,99,261,10,1,twoone,,,,,,,,,,,,,,,,,,,,,,,,,,,,,,,,,,,,,,,,,,,,,,,,,,,,,,,,,,,,,,,,,,,,,,,,,,,,,,,,,,,,,,,,,,,,,,,,,,,,,,,,,,,,,,,,,,,,,,,,,,,,,,,,,,,,,,,
,,613ad089983f33fc8194d601,2023-12-14_20h05.22.923,kallum_motion_pilot,2023.2.3,Win32,60.24096386,613ad089983f33fc8194d601,657bb317c8798c6608bceb3f,657bb43bf6e17e695207f353,0.0565,0.0567,1,100,262,42,1,twoone,,,,,,,,,,,,,,,,,,,,,,,,,,,,,,,,,,,,,,,,,,,,,,,,,,,,,,,,,,,,,,,,,,,,,,,,,,,,,,,,,,,,,,,,,,,,,,,,,,,,,,,,,,,,,,,,,,,,,,,,,,,,,,,,,,,,,,,
,,613ad089983f33fc8194d601,2023-12-14_20h05.22.923,kallum_motion_pilot,2023.2.3,Win32,60.24096386,613ad089983f33fc8194d601,657bb317c8798c6608bceb3f,657bb43bf6e17e695207f353,0.0567,0.0567,1,101,263,26,1,twoone,,,,,,,,,,,,,,,,,,,,,,,,,,,,,,,,,,,,,,,,,,,,,,,,,,,,,,,,,,,,,,,,,,,,,,,,,,,,,,,,,,,,,,,,,,,,,,,,,,,,,,,,,,,,,,,,,,,,,,,,,,,,,,,,,,,,,,,
,,613ad089983f33fc8194d601,2023-12-14_20h05.22.923,kallum_motion_pilot,2023.2.3,Win32,60.24096386,613ad089983f33fc8194d601,657bb317c8798c6608bceb3f,657bb43bf6e17e695207f353,0.0569,0.0569,1,102,264,57,1,onethree,,,,,,,,,,,,,,,,,,,,,,,,,,,,,,,,,,,,,,,,,,,,,,,,,,,,,,,,,,,,,,,,,,,,,,,,,,,,,,,,,,,,,,,,,,,,,,,,,,,,,,,,,,,,,,,,,,,,,,,,,,,,,,,,,,,,,,,
,,613ad089983f33fc8194d601,2023-12-14_20h05.22.923,kallum_motion_pilot,2023.2.3,Win32,60.24096386,613ad089983f33fc8194d601,657bb317c8798c6608bceb3f,657bb43bf6e17e695207f353,0.057,0.057,1,103,265,40,1,onetwo,,,,,,,,,,,,,,,,,,,,,,,,,,,,,,,,,,,,,,,,,,,,,,,,,,,,,,,,,,,,,,,,,,,,,,,,,,,,,,,,,,,,,,,,,,,,,,,,,,,,,,,,,,,,,,,,,,,,,,,,,,,,,,,,,,,,,,,
,,613ad089983f33fc8194d601,2023-12-14_20h05.22.923,kallum_motion_pilot,2023.2.3,Win32,60.24096386,613ad089983f33fc8194d601,657bb317c8798c6608bceb3f,657bb43bf6e17e695207f353,0.0571,0.0571,1,104,266,130,1,sixfive,,,,,,,,,,,,,,,,,,,,,,,,,,,,,,,,,,,,,,,,,,,,,,,,,,,,,,,,,,,,,,,,,,,,,,,,,,,,,,,,,,,,,,,,,,,,,,,,,,,,,,,,,,,,,,,,,,,,,,,,,,,,,,,,,,,,,,,
,,613ad089983f33fc8194d601,2023-12-14_20h05.22.923,kallum_motion_pilot,2023.2.3,Win32,60.24096386,613ad089983f33fc8194d601,657bb317c8798c6608bceb3f,657bb43bf6e17e695207f353,0.0572,0.0573,1,105,267,44,1,threeone,,,,,,,,,,,,,,,,,,,,,,,,,,,,,,,,,,,,,,,,,,,,,,,,,,,,,,,,,,,,,,,,,,,,,,,,,,,,,,,,,,,,,,,,,,,,,,,,,,,,,,,,,,,,,,,,,,,,,,,,,,,,,,,,,,,,,,,
,,613ad089983f33fc8194d601,2023-12-14_20h05.22.923,kallum_motion_pilot,2023.2.3,Win32,60.24096386,613ad089983f33fc8194d601,657bb317c8798c6608bceb3f,657bb43bf6e17e695207f353,0.0574,0.0574,1,106,268,74,1,twoone,,,,,,,,,,,,,,,,,,,,,,,,,,,,,,,,,,,,,,,,,,,,,,,,,,,,,,,,,,,,,,,,,,,,,,,,,,,,,,,,,,,,,,,,,,,,,,,,,,,,,,,,,,,,,,,,,,,,,,,,,,,,,,,,,,,,,,,
,,613ad089983f33fc8194d601,2023-12-14_20h05.22.923,kallum_motion_pilot,2023.2.3,Win32,60.24096386,613ad089983f33fc8194d601,657bb317c8798c6608bceb3f,657bb43bf6e17e695207f353,0.0575,0.0575,1,107,269,31,1,fourthree,,,,,,,,,,,,,,,,,,,,,,,,,,,,,,,,,,,,,,,,,,,,,,,,,,,,,,,,,,,,,,,,,,,,,,,,,,,,,,,,,,,,,,,,,,,,,,,,,,,,,,,,,,,,,,,,,,,,,,,,,,,,,,,,,,,,,,,
,,613ad089983f33fc8194d601,2023-12-14_20h05.22.923,kallum_motion_pilot,2023.2.3,Win32,60.24096386,613ad089983f33fc8194d601,657bb317c8798c6608bceb3f,657bb43bf6e17e695207f353,0.0576,0.0577,1,108,270,146,1,sixfive,,,,,,,,,,,,,,,,,,,,,,,,,,,,,,,,,,,,,,,,,,,,,,,,,,,,,,,,,,,,,,,,,,,,,,,,,,,,,,,,,,,,,,,,,,,,,,,,,,,,,,,,,,,,,,,,,,,,,,,,,,,,,,,,,,,,,,,
,,613ad089983f33fc8194d601,2023-12-14_20h05.22.923,kallum_motion_pilot,2023.2.3,Win32,60.24096386,613ad089983f33fc8194d601,657bb317c8798c6608bceb3f,657bb43bf6e17e695207f353,0.0577,0.0578,1,109,271,147,1,sixeight,,,,,,,,,,,,,,,,,,,,,,,,,,,,,,,,,,,,,,,,,,,,,,,,,,,,,,,,,,,,,,,,,,,,,,,,,,,,,,,,,,,,,,,,,,,,,,,,,,,,,,,,,,,,,,,,,,,,,,,,,,,,,,,,,,,,,,,
,,613ad089983f33fc8194d601,2023-12-14_20h05.22.923,kallum_motion_pilot,2023.2.3,Win32,60.24096386,613ad089983f33fc8194d601,657bb317c8798c6608bceb3f,657bb43bf6e17e695207f353,0.0579,0.0579,1,110,272,36,1,threeone,,,,,,,,,,,,,,,,,,,,,,,,,,,,,,,,,,,,,,,,,,,,,,,,,,,,,,,,,,,,,,,,,,,,,,,,,,,,,,,,,,,,,,,,,,,,,,,,,,,,,,,,,,,,,,,,,,,,,,,,,,,,,,,,,,,,,,,
,,613ad089983f33fc8194d601,2023-12-14_20h05.22.923,kallum_motion_pilot,2023.2.3,Win32,60.24096386,613ad089983f33fc8194d601,657bb317c8798c6608bceb3f,657bb43bf6e17e695207f353,0.058,0.0581,1,111,273,14,1,fourtwo,,,,,,,,,,,,,,,,,,,,,,,,,,,,,,,,,,,,,,,,,,,,,,,,,,,,,,,,,,,,,,,,,,,,,,,,,,,,,,,,,,,,,,,,,,,,,,,,,,,,,,,,,,,,,,,,,,,,,,,,,,,,,,,,,,,,,,,
,,613ad089983f33fc8194d601,2023-12-14_20h05.22.923,kallum_motion_pilot,2023.2.3,Win32,60.24096386,613ad089983f33fc8194d601,657bb317c8798c6608bceb3f,657bb43bf6e17e695207f353,0.0582,0.0582,1,112,274,140,1,sevenfive,,,,,,,,,,,,,,,,,,,,,,,,,,,,,,,,,,,,,,,,,,,,,,,,,,,,,,,,,,,,,,,,,,,,,,,,,,,,,,,,,,,,,,,,,,,,,,,,,,,,,,,,,,,,,,,,,,,,,,,,,,,,,,,,,,,,,,,
,,613ad089983f33fc8194d601,2023-12-14_20h05.22.923,kallum_motion_pilot,2023.2.3,Win32,60.24096386,613ad089983f33fc8194d601,657bb317c8798c6608bceb3f,657bb43bf6e17e695207f353,0.0583,0.0583,1,113,275,102,1,eightsix,,,,,,,,,,,,,,,,,,,,,,,,,,,,,,,,,,,,,,,,,,,,,,,,,,,,,,,,,,,,,,,,,,,,,,,,,,,,,,,,,,,,,,,,,,,,,,,,,,,,,,,,,,,,,,,,,,,,,,,,,,,,,,,,,,,,,,,
,,613ad089983f33fc8194d601,2023-12-14_20h05.22.923,kallum_motion_pilot,2023.2.3,Win32,60.24096386,613ad089983f33fc8194d601,657bb317c8798c6608bceb3f,657bb43bf6e17e695207f353,0.0585,0.0585,1,114,276,75,1,twofour,,,,,,,,,,,,,,,,,,,,,,,,,,,,,,,,,,,,,,,,,,,,,,,,,,,,,,,,,,,,,,,,,,,,,,,,,,,,,,,,,,,,,,,,,,,,,,,,,,,,,,,,,,,,,,,,,,,,,,,,,,,,,,,,,,,,,,,
,,613ad089983f33fc8194d601,2023-12-14_20h05.22.923,kallum_motion_pilot,2023.2.3,Win32,60.24096386,613ad089983f33fc8194d601,657bb317c8798c6608bceb3f,657bb43bf6e17e695207f353,0.0586,0.0587,1,115,277,8,1,onetwo,,,,,,,,,,,,,,,,,,,,,,,,,,,,,,,,,,,,,,,,,,,,,,,,,,,,,,,,,,,,,,,,,,,,,,,,,,,,,,,,,,,,,,,,,,,,,,,,,,,,,,,,,,,,,,,,,,,,,,,,,,,,,,,,,,,,,,,
,,613ad089983f33fc8194d601,2023-12-14_20h05.22.923,kallum_motion_pilot,2023.2.3,Win32,60.24096386,613ad089983f33fc8194d601,657bb317c8798c6608bceb3f,657bb43bf6e17e695207f353,0.0587,0.0588,1,116,278,157,1,seveneight,,,,,,,,,,,,,,,,,,,,,,,,,,,,,,,,,,,,,,,,,,,,,,,,,,,,,,,,,,,,,,,,,,,,,,,,,,,,,,,,,,,,,,,,,,,,,,,,,,,,,,,,,,,,,,,,,,,,,,,,,,,,,,,,,,,,,,,
,,613ad089983f33fc8194d601,2023-12-14_20h05.22.923,kallum_motion_pilot,2023.2.3,Win32,60.24096386,613ad089983f33fc8194d601,657bb317c8798c6608bceb3f,657bb43bf6e17e695207f353,0.0588,0.059,1,117,279,133,1,seveneight,,,,,,,,,,,,,,,,,,,,,,,,,,,,,,,,,,,,,,,,,,,,,,,,,,,,,,,,,,,,,,,,,,,,,,,,,,,,,,,,,,,,,,,,,,,,,,,,,,,,,,,,,,,,,,,,,,,,,,,,,,,,,,,,,,,,,,,
