startup.started,startup.stopped,Prolific ID*,date,expName,psychopyVersion,OS,frameRate,participant,study_id,session,stimpositions.started,stimpositions.stopped,hardcoded_stimulus_positions.thisRepN,hardcoded_stimulus_positions.thisTrialN,hardcoded_stimulus_positions.thisN,hardcoded_stimulus_positions.thisIndex,hardcoded_stimulus_positions.ran,StimulusPos,stimorientation.started,stimorientation.stopped,prac_stimorientation_import_loop.thisRepN,prac_stimorientation_import_loop.thisTrialN,prac_stimorientation_import_loop.thisN,prac_stimorientation_import_loop.thisIndex,prac_stimorientation_import_loop.ran,Stimorientation,welcome_instr.started,welcome_instr.stopped,key_resp.keys,key_resp.rt,key_resp.duration,response_steppedout_1.started,response_steppedout_1.stopped,key_resp_20.keys,key_resp_20.rt,key_resp_20.duration,response_steppedout_2.started,response_steppedout_2.stopped,key_resp_19.keys,key_resp_19.rt,key_resp_19.duration,stim_response_instr.started,stim_response_instr.stopped,key_resp_15.keys,key_resp_15.rt,key_resp_15.duration,direction_instr_2.started,direction_instr_2.stopped,key_resp_9.keys,key_resp_9.rt,key_resp_9.duration,instr_prac.started,instr_prac.stopped,key_resp_10.keys,key_resp_10.rt,key_resp_10.duration,Stim1_display_prac.started,Stim1_display_prac.stopped,Ecc,Circle1_ori,Circle2_ori,response_prac.started,similarity,response_time,response_prac.stopped,mouse_5.x,mouse_5.y,mouse_5.leftButton,mouse_5.midButton,mouse_5.rightButton,mouse_5.clicked_name,responseprac_feedback.started,responseprac_feedback.stopped,summary2_prac.started,summary2_prac.stopped,mouse_6.x,mouse_6.y,mouse_6.leftButton,mouse_6.midButton,mouse_6.rightButton,mouse_6.clicked_name,duringprac.thisRepN,duringprac.thisTrialN,duringprac.thisN,duringprac.thisIndex,duringprac.ran,begin.started,begin.stopped,key_resp_22.keys,key_resp_22.rt,key_resp_22.duration,Stim1_display.started,Stim1_display.stopped,circle1_ori,circle2_ori,blank.started,blank.stopped,response.started,response.stopped,mouse.x,mouse.y,mouse.leftButton,mouse.midButton,mouse.rightButton,mouse.clicked_name,response_2.started,response_2.stopped,mouse_2.x,mouse_2.y,mouse_2.leftButton,mouse_2.midButton,mouse_2.rightButton,mouse_2.clicked_name,special_trial.started,special_trial.stopped,catch_1.started,catch_1.stopped,mouse_3.x,mouse_3.y,mouse_3.leftButton,mouse_3.midButton,mouse_3.rightButton,catchresponse,catchnumber,response_time_catch,Catch,response_sum.started,response_sum.stopped,mouse_11.x,mouse_11.y,mouse_11.leftButton,mouse_11.midButton,mouse_11.rightButton,main_trial.thisRepN,main_trial.thisTrialN,main_trial.thisN,main_trial.thisIndex,main_trial.ran,Orientationtrialno,xcircle1_ori,xcircle2_ori,flip_presentation_sequence_for_double_pass.started,flip_presentation_sequence_for_double_pass.stopped,double_pass.thisRepN,double_pass.thisTrialN,double_pass.thisN,double_pass.thisIndex,double_pass.ran,goodbye.started,goodbye.stopped,key_resp_3.keys,key_resp_3.rt,key_resp_3.duration
0.000200001,0.000300001,613e868f4d6c157238b8fd87,2023-12-14_20h11.13.528,kallum_motion_pilot,2023.2.3,Win32,60.97560976,613e868f4d6c157238b8fd87,657bb317c8798c6608bceb3f,657bb5a5fb8b312e6fc39561,,,,,,,,,,,,,,,,,,,,,,,,,,,,,,,,,,,,,,,,,,,,,,,,,,,,,,,,,,,,,,,,,,,,,,,,,,,,,,,,,,,,,,,,,,,,,,,,,,,,,,,,,,,,,,,,,,,,,,,,,,,,,,,,,,,,,,,,,,,,,,,
,,613e868f4d6c157238b8fd87,2023-12-14_20h11.13.528,kallum_motion_pilot,2023.2.3,Win32,60.97560976,613e868f4d6c157238b8fd87,657bb317c8798c6608bceb3f,657bb5a5fb8b312e6fc39561,0.020200001,0.0204,0,0,0,50,1,twoone,,,,,,,,,,,,,,,,,,,,,,,,,,,,,,,,,,,,,,,,,,,,,,,,,,,,,,,,,,,,,,,,,,,,,,,,,,,,,,,,,,,,,,,,,,,,,,,,,,,,,,,,,,,,,,,,,,,,,,,,,,,,,,,,,,,,,,,
,,613e868f4d6c157238b8fd87,2023-12-14_20h11.13.528,kallum_motion_pilot,2023.2.3,Win32,60.97560976,613e868f4d6c157238b8fd87,657bb317c8798c6608bceb3f,657bb5a5fb8b312e6fc39561,0.020700001,0.020700001,0,1,1,143,1,eightseven,,,,,,,,,,,,,,,,,,,,,,,,,,,,,,,,,,,,,,,,,,,,,,,,,,,,,,,,,,,,,,,,,,,,,,,,,,,,,,,,,,,,,,,,,,,,,,,,,,,,,,,,,,,,,,,,,,,,,,,,,,,,,,,,,,,,,,,
,,613e868f4d6c157238b8fd87,2023-12-14_20h11.13.528,kallum_motion_pilot,2023.2.3,Win32,60.97560976,613e868f4d6c157238b8fd87,657bb317c8798c6608bceb3f,657bb5a5fb8b312e6fc39561,0.020700001,0.020700001,0,2,2,4,1,threeone,,,,,,,,,,,,,,,,,,,,,,,,,,,,,,,,,,,,,,,,,,,,,,,,,,,,,,,,,,,,,,,,,,,,,,,,,,,,,,,,,,,,,,,,,,,,,,,,,,,,,,,,,,,,,,,,,,,,,,,,,,,,,,,,,,,,,,,
,,613e868f4d6c157238b8fd87,2023-12-14_20h11.13.528,kallum_motion_pilot,2023.2.3,Win32,60.97560976,613e868f4d6c157238b8fd87,657bb317c8798c6608bceb3f,657bb5a5fb8b312e6fc39561,0.020800001,0.020800001,0,3,3,45,1,threefour,,,,,,,,,,,,,,,,,,,,,,,,,,,,,,,,,,,,,,,,,,,,,,,,,,,,,,,,,,,,,,,,,,,,,,,,,,,,,,,,,,,,,,,,,,,,,,,,,,,,,,,,,,,,,,,,,,,,,,,,,,,,,,,,,,,,,,,
,,613e868f4d6c157238b8fd87,2023-12-14_20h11.13.528,kallum_motion_pilot,2023.2.3,Win32,60.97560976,613e868f4d6c157238b8fd87,657bb317c8798c6608bceb3f,657bb5a5fb8b312e6fc39561,0.0209,0.0209,0,4,4,86,1,eightsix,,,,,,,,,,,,,,,,,,,,,,,,,,,,,,,,,,,,,,,,,,,,,,,,,,,,,,,,,,,,,,,,,,,,,,,,,,,,,,,,,,,,,,,,,,,,,,,,,,,,,,,,,,,,,,,,,,,,,,,,,,,,,,,,,,,,,,,
,,613e868f4d6c157238b8fd87,2023-12-14_20h11.13.528,kallum_motion_pilot,2023.2.3,Win32,60.97560976,613e868f4d6c157238b8fd87,657bb317c8798c6608bceb3f,657bb5a5fb8b312e6fc39561,0.021,0.021,0,5,5,140,1,sevenfive,,,,,,,,,,,,,,,,,,,,,,,,,,,,,,,,,,,,,,,,,,,,,,,,,,,,,,,,,,,,,,,,,,,,,,,,,,,,,,,,,,,,,,,,,,,,,,,,,,,,,,,,,,,,,,,,,,,,,,,,,,,,,,,,,,,,,,,
,,613e868f4d6c157238b8fd87,2023-12-14_20h11.13.528,kallum_motion_pilot,2023.2.3,Win32,60.97560976,613e868f4d6c157238b8fd87,657bb317c8798c6608bceb3f,657bb5a5fb8b312e6fc39561,0.0211,0.0211,0,6,6,64,1,onetwo,,,,,,,,,,,,,,,,,,,,,,,,,,,,,,,,,,,,,,,,,,,,,,,,,,,,,,,,,,,,,,,,,,,,,,,,,,,,,,,,,,,,,,,,,,,,,,,,,,,,,,,,,,,,,,,,,,,,,,,,,,,,,,,,,,,,,,,
,,613e868f4d6c157238b8fd87,2023-12-14_20h11.13.528,kallum_motion_pilot,2023.2.3,Win32,60.97560976,613e868f4d6c157238b8fd87,657bb317c8798c6608bceb3f,657bb5a5fb8b312e6fc39561,0.021200001,0.021200001,0,7,7,144,1,fivesix,,,,,,,,,,,,,,,,,,,,,,,,,,,,,,,,,,,,,,,,,,,,,,,,,,,,,,,,,,,,,,,,,,,,,,,,,,,,,,,,,,,,,,,,,,,,,,,,,,,,,,,,,,,,,,,,,,,,,,,,,,,,,,,,,,,,,,,
,,613e868f4d6c157238b8fd87,2023-12-14_20h11.13.528,kallum_motion_pilot,2023.2.3,Win32,60.97560976,613e868f4d6c157238b8fd87,657bb317c8798c6608bceb3f,657bb5a5fb8b312e6fc39561,0.021200001,0.021300001,0,8,8,136,1,fivesix,,,,,,,,,,,,,,,,,,,,,,,,,,,,,,,,,,,,,,,,,,,,,,,,,,,,,,,,,,,,,,,,,,,,,,,,,,,,,,,,,,,,,,,,,,,,,,,,,,,,,,,,,,,,,,,,,,,,,,,,,,,,,,,,,,,,,,,
,,613e868f4d6c157238b8fd87,2023-12-14_20h11.13.528,kallum_motion_pilot,2023.2.3,Win32,60.97560976,613e868f4d6c157238b8fd87,657bb317c8798c6608bceb3f,657bb5a5fb8b312e6fc39561,0.021300001,0.0214,0,9,9,58,1,twoone,,,,,,,,,,,,,,,,,,,,,,,,,,,,,,,,,,,,,,,,,,,,,,,,,,,,,,,,,,,,,,,,,,,,,,,,,,,,,,,,,,,,,,,,,,,,,,,,,,,,,,,,,,,,,,,,,,,,,,,,,,,,,,,,,,,,,,,
,,613e868f4d6c157238b8fd87,2023-12-14_20h11.13.528,kallum_motion_pilot,2023.2.3,Win32,60.97560976,613e868f4d6c157238b8fd87,657bb317c8798c6608bceb3f,657bb5a5fb8b312e6fc39561,0.0214,0.0214,0,10,10,8,1,onetwo,,,,,,,,,,,,,,,,,,,,,,,,,,,,,,,,,,,,,,,,,,,,,,,,,,,,,,,,,,,,,,,,,,,,,,,,,,,,,,,,,,,,,,,,,,,,,,,,,,,,,,,,,,,,,,,,,,,,,,,,,,,,,,,,,,,,,,,
,,613e868f4d6c157238b8fd87,2023-12-14_20h11.13.528,kallum_motion_pilot,2023.2.3,Win32,60.97560976,613e868f4d6c157238b8fd87,657bb317c8798c6608bceb3f,657bb5a5fb8b312e6fc39561,0.0215,0.0215,0,11,11,74,1,twoone,,,,,,,,,,,,,,,,,,,,,,,,,,,,,,,,,,,,,,,,,,,,,,,,,,,,,,,,,,,,,,,,,,,,,,,,,,,,,,,,,,,,,,,,,,,,,,,,,,,,,,,,,,,,,,,,,,,,,,,,,,,,,,,,,,,,,,,
,,613e868f4d6c157238b8fd87,2023-12-14_20h11.13.528,kallum_motion_pilot,2023.2.3,Win32,60.97560976,613e868f4d6c157238b8fd87,657bb317c8798c6608bceb3f,657bb5a5fb8b312e6fc39561,0.0216,0.0216,0,12,12,126,1,eightsix,,,,,,,,,,,,,,,,,,,,,,,,,,,,,,,,,,,,,,,,,,,,,,,,,,,,,,,,,,,,,,,,,,,,,,,,,,,,,,,,,,,,,,,,,,,,,,,,,,,,,,,,,,,,,,,,,,,,,,,,,,,,,,,,,,,,,,,
,,613e868f4d6c157238b8fd87,2023-12-14_20h11.13.528,kallum_motion_pilot,2023.2.3,Win32,60.97560976,613e868f4d6c157238b8fd87,657bb317c8798c6608bceb3f,657bb5a5fb8b312e6fc39561,0.0216,0.0216,0,13,13,1,1,onethree,,,,,,,,,,,,,,,,,,,,,,,,,,,,,,,,,,,,,,,,,,,,,,,,,,,,,,,,,,,,,,,,,,,,,,,,,,,,,,,,,,,,,,,,,,,,,,,,,,,,,,,,,,,,,,,,,,,,,,,,,,,,,,,,,,,,,,,
,,613e868f4d6c157238b8fd87,2023-12-14_20h11.13.528,kallum_motion_pilot,2023.2.3,Win32,60.97560976,613e868f4d6c157238b8fd87,657bb317c8798c6608bceb3f,657bb5a5fb8b312e6fc39561,0.021700001,0.021700001,0,14,14,61,1,threefour,,,,,,,,,,,,,,,,,,,,,,,,,,,,,,,,,,,,,,,,,,,,,,,,,,,,,,,,,,,,,,,,,,,,,,,,,,,,,,,,,,,,,,,,,,,,,,,,,,,,,,,,,,,,,,,,,,,,,,,,,,,,,,,,,,,,,,,
,,613e868f4d6c157238b8fd87,2023-12-14_20h11.13.528,kallum_motion_pilot,2023.2.3,Win32,60.97560976,613e868f4d6c157238b8fd87,657bb317c8798c6608bceb3f,657bb5a5fb8b312e6fc39561,0.021700001,0.021800001,0,15,15,132,1,sevenfive,,,,,,,,,,,,,,,,,,,,,,,,,,,,,,,,,,,,,,,,,,,,,,,,,,,,,,,,,,,,,,,,,,,,,,,,,,,,,,,,,,,,,,,,,,,,,,,,,,,,,,,,,,,,,,,,,,,,,,,,,,,,,,,,,,,,,,,
,,613e868f4d6c157238b8fd87,2023-12-14_20h11.13.528,kallum_motion_pilot,2023.2.3,Win32,60.97560976,613e868f4d6c157238b8fd87,657bb317c8798c6608bceb3f,657bb5a5fb8b312e6fc39561,0.021800001,0.021800001,0,16,16,124,1,sevenfive,,,,,,,,,,,,,,,,,,,,,,,,,,,,,,,,,,,,,,,,,,,,,,,,,,,,,,,,,,,,,,,,,,,,,,,,,,,,,,,,,,,,,,,,,,,,,,,,,,,,,,,,,,,,,,,,,,,,,,,,,,,,,,,,,,,,,,,
,,613e868f4d6c157238b8fd87,2023-12-14_20h11.13.528,kallum_motion_pilot,2023.2.3,Win32,60.97560976,613e868f4d6c157238b8fd87,657bb317c8798c6608bceb3f,657bb5a5fb8b312e6fc39561,0.0219,0.0219,0,17,17,104,1,fivesix,,,,,,,,,,,,,,,,,,,,,,,,,,,,,,,,,,,,,,,,,,,,,,,,,,,,,,,,,,,,,,,,,,,,,,,,,,,,,,,,,,,,,,,,,,,,,,,,,,,,,,,,,,,,,,,,,,,,,,,,,,,,,,,,,,,,,,,
,,613e868f4d6c157238b8fd87,2023-12-14_20h11.13.528,kallum_motion_pilot,2023.2.3,Win32,60.97560976,613e868f4d6c157238b8fd87,657bb317c8798c6608bceb3f,657bb5a5fb8b312e6fc39561,0.0219,0.0219,0,18,18,57,1,onethree,,,,,,,,,,,,,,,,,,,,,,,,,,,,,,,,,,,,,,,,,,,,,,,,,,,,,,,,,,,,,,,,,,,,,,,,,,,,,,,,,,,,,,,,,,,,,,,,,,,,,,,,,,,,,,,,,,,,,,,,,,,,,,,,,,,,,,,
,,613e868f4d6c157238b8fd87,2023-12-14_20h11.13.528,kallum_motion_pilot,2023.2.3,Win32,60.97560976,613e868f4d6c157238b8fd87,657bb317c8798c6608bceb3f,657bb5a5fb8b312e6fc39561,0.022,0.022,0,19,19,87,1,eightseven,,,,,,,,,,,,,,,,,,,,,,,,,,,,,,,,,,,,,,,,,,,,,,,,,,,,,,,,,,,,,,,,,,,,,,,,,,,,,,,,,,,,,,,,,,,,,,,,,,,,,,,,,,,,,,,,,,,,,,,,,,,,,,,,,,,,,,,
,,613e868f4d6c157238b8fd87,2023-12-14_20h11.13.528,kallum_motion_pilot,2023.2.3,Win32,60.97560976,613e868f4d6c157238b8fd87,657bb317c8798c6608bceb3f,657bb5a5fb8b312e6fc39561,0.0221,0.0221,0,20,20,77,1,threefour,,,,,,,,,,,,,,,,,,,,,,,,,,,,,,,,,,,,,,,,,,,,,,,,,,,,,,,,,,,,,,,,,,,,,,,,,,,,,,,,,,,,,,,,,,,,,,,,,,,,,,,,,,,,,,,,,,,,,,,,,,,,,,,,,,,,,,,
,,613e868f4d6c157238b8fd87,2023-12-14_20h11.13.528,kallum_motion_pilot,2023.2.3,Win32,60.97560976,613e868f4d6c157238b8fd87,657bb317c8798c6608bceb3f,657bb5a5fb8b312e6fc39561,0.0221,0.0221,0,21,21,73,1,onethree,,,,,,,,,,,,,,,,,,,,,,,,,,,,,,,,,,,,,,,,,,,,,,,,,,,,,,,,,,,,,,,,,,,,,,,,,,,,,,,,,,,,,,,,,,,,,,,,,,,,,,,,,,,,,,,,,,,,,,,,,,,,,,,,,,,,,,,
,,613e868f4d6c157238b8fd87,2023-12-14_20h11.13.528,kallum_motion_pilot,2023.2.3,Win32,60.97560976,613e868f4d6c157238b8fd87,657bb317c8798c6608bceb3f,657bb5a5fb8b312e6fc39561,0.022200001,0.022200001,0,22,22,13,1,threefour,,,,,,,,,,,,,,,,,,,,,,,,,,,,,,,,,,,,,,,,,,,,,,,,,,,,,,,,,,,,,,,,,,,,,,,,,,,,,,,,,,,,,,,,,,,,,,,,,,,,,,,,,,,,,,,,,,,,,,,,,,,,,,,,,,,,,,,
,,613e868f4d6c157238b8fd87,2023-12-14_20h11.13.528,kallum_motion_pilot,2023.2.3,Win32,60.97560976,613e868f4d6c157238b8fd87,657bb317c8798c6608bceb3f,657bb5a5fb8b312e6fc39561,0.022300001,0.022300001,0,23,23,145,1,fiveseven,,,,,,,,,,,,,,,,,,,,,,,,,,,,,,,,,,,,,,,,,,,,,,,,,,,,,,,,,,,,,,,,,,,,,,,,,,,,,,,,,,,,,,,,,,,,,,,,,,,,,,,,,,,,,,,,,,,,,,,,,,,,,,,,,,,,,,,
,,613e868f4d6c157238b8fd87,2023-12-14_20h11.13.528,kallum_motion_pilot,2023.2.3,Win32,60.97560976,613e868f4d6c157238b8fd87,657bb317c8798c6608bceb3f,657bb5a5fb8b312e6fc39561,0.0224,0.0224,0,24,24,75,1,twofour,,,,,,,,,,,,,,,,,,,,,,,,,,,,,,,,,,,,,,,,,,,,,,,,,,,,,,,,,,,,,,,,,,,,,,,,,,,,,,,,,,,,,,,,,,,,,,,,,,,,,,,,,,,,,,,,,,,,,,,,,,,,,,,,,,,,,,,
,,613e868f4d6c157238b8fd87,2023-12-14_20h11.13.528,kallum_motion_pilot,2023.2.3,Win32,60.97560976,613e868f4d6c157238b8fd87,657bb317c8798c6608bceb3f,657bb5a5fb8b312e6fc39561,0.0224,0.0224,0,25,25,160,1,fivesix,,,,,,,,,,,,,,,,,,,,,,,,,,,,,,,,,,,,,,,,,,,,,,,,,,,,,,,,,,,,,,,,,,,,,,,,,,,,,,,,,,,,,,,,,,,,,,,,,,,,,,,,,,,,,,,,,,,,,,,,,,,,,,,,,,,,,,,
,,613e868f4d6c157238b8fd87,2023-12-14_20h11.13.528,kallum_motion_pilot,2023.2.3,Win32,60.97560976,613e868f4d6c157238b8fd87,657bb317c8798c6608bceb3f,657bb5a5fb8b312e6fc39561,0.0224,0.0225,0,26,26,71,1,fourthree,,,,,,,,,,,,,,,,,,,,,,,,,,,,,,,,,,,,,,,,,,,,,,,,,,,,,,,,,,,,,,,,,,,,,,,,,,,,,,,,,,,,,,,,,,,,,,,,,,,,,,,,,,,,,,,,,,,,,,,,,,,,,,,,,,,,,,,
,,613e868f4d6c157238b8fd87,2023-12-14_20h11.13.528,kallum_motion_pilot,2023.2.3,Win32,60.97560976,613e868f4d6c157238b8fd87,657bb317c8798c6608bceb3f,657bb5a5fb8b312e6fc39561,0.0226,0.0226,0,27,27,19,1,twofour,,,,,,,,,,,,,,,,,,,,,,,,,,,,,,,,,,,,,,,,,,,,,,,,,,,,,,,,,,,,,,,,,,,,,,,,,,,,,,,,,,,,,,,,,,,,,,,,,,,,,,,,,,,,,,,,,,,,,,,,,,,,,,,,,,,,,,,
,,613e868f4d6c157238b8fd87,2023-12-14_20h11.13.528,kallum_motion_pilot,2023.2.3,Win32,60.97560976,613e868f4d6c157238b8fd87,657bb317c8798c6608bceb3f,657bb5a5fb8b312e6fc39561,0.022700001,0.022700001,0,28,28,44,1,threeone,,,,,,,,,,,,,,,,,,,,,,,,,,,,,,,,,,,,,,,,,,,,,,,,,,,,,,,,,,,,,,,,,,,,,,,,,,,,,,,,,,,,,,,,,,,,,,,,,,,,,,,,,,,,,,,,,,,,,,,,,,,,,,,,,,,,,,,
,,613e868f4d6c157238b8fd87,2023-12-14_20h11.13.528,kallum_motion_pilot,2023.2.3,Win32,60.97560976,613e868f4d6c157238b8fd87,657bb317c8798c6608bceb3f,657bb5a5fb8b312e6fc39561,0.022700001,0.022700001,0,29,29,76,1,threeone,,,,,,,,,,,,,,,,,,,,,,,,,,,,,,,,,,,,,,,,,,,,,,,,,,,,,,,,,,,,,,,,,,,,,,,,,,,,,,,,,,,,,,,,,,,,,,,,,,,,,,,,,,,,,,,,,,,,,,,,,,,,,,,,,,,,,,,
,,613e868f4d6c157238b8fd87,2023-12-14_20h11.13.528,kallum_motion_pilot,2023.2.3,Win32,60.97560976,613e868f4d6c157238b8fd87,657bb317c8798c6608bceb3f,657bb5a5fb8b312e6fc39561,0.022700001,0.022700001,0,30,30,12,1,threeone,,,,,,,,,,,,,,,,,,,,,,,,,,,,,,,,,,,,,,,,,,,,,,,,,,,,,,,,,,,,,,,,,,,,,,,,,,,,,,,,,,,,,,,,,,,,,,,,,,,,,,,,,,,,,,,,,,,,,,,,,,,,,,,,,,,,,,,
,,613e868f4d6c157238b8fd87,2023-12-14_20h11.13.528,kallum_motion_pilot,2023.2.3,Win32,60.97560976,613e868f4d6c157238b8fd87,657bb317c8798c6608bceb3f,657bb5a5fb8b312e6fc39561,0.022800001,0.022800001,0,31,31,148,1,sevenfive,,,,,,,,,,,,,,,,,,,,,,,,,,,,,,,,,,,,,,,,,,,,,,,,,,,,,,,,,,,,,,,,,,,,,,,,,,,,,,,,,,,,,,,,,,,,,,,,,,,,,,,,,,,,,,,,,,,,,,,,,,,,,,,,,,,,,,,
,,613e868f4d6c157238b8fd87,2023-12-14_20h11.13.528,kallum_motion_pilot,2023.2.3,Win32,60.97560976,613e868f4d6c157238b8fd87,657bb317c8798c6608bceb3f,657bb5a5fb8b312e6fc39561,0.022800001,0.0229,0,32,32,152,1,fivesix,,,,,,,,,,,,,,,,,,,,,,,,,,,,,,,,,,,,,,,,,,,,,,,,,,,,,,,,,,,,,,,,,,,,,,,,,,,,,,,,,,,,,,,,,,,,,,,,,,,,,,,,,,,,,,,,,,,,,,,,,,,,,,,,,,,,,,,
,,613e868f4d6c157238b8fd87,2023-12-14_20h11.13.528,kallum_motion_pilot,2023.2.3,Win32,60.97560976,613e868f4d6c157238b8fd87,657bb317c8798c6608bceb3f,657bb5a5fb8b312e6fc39561,0.0229,0.0229,0,33,33,59,1,twofour,,,,,,,,,,,,,,,,,,,,,,,,,,,,,,,,,,,,,,,,,,,,,,,,,,,,,,,,,,,,,,,,,,,,,,,,,,,,,,,,,,,,,,,,,,,,,,,,,,,,,,,,,,,,,,,,,,,,,,,,,,,,,,,,,,,,,,,
,,613e868f4d6c157238b8fd87,2023-12-14_20h11.13.528,kallum_motion_pilot,2023.2.3,Win32,60.97560976,613e868f4d6c157238b8fd87,657bb317c8798c6608bceb3f,657bb5a5fb8b312e6fc39561,0.0231,0.0231,0,34,34,46,1,fourtwo,,,,,,,,,,,,,,,,,,,,,,,,,,,,,,,,,,,,,,,,,,,,,,,,,,,,,,,,,,,,,,,,,,,,,,,,,,,,,,,,,,,,,,,,,,,,,,,,,,,,,,,,,,,,,,,,,,,,,,,,,,,,,,,,,,,,,,,
,,613e868f4d6c157238b8fd87,2023-12-14_20h11.13.528,kallum_motion_pilot,2023.2.3,Win32,60.97560976,613e868f4d6c157238b8fd87,657bb317c8798c6608bceb3f,657bb5a5fb8b312e6fc39561,0.0231,0.0231,0,35,35,32,1,onetwo,,,,,,,,,,,,,,,,,,,,,,,,,,,,,,,,,,,,,,,,,,,,,,,,,,,,,,,,,,,,,,,,,,,,,,,,,,,,,,,,,,,,,,,,,,,,,,,,,,,,,,,,,,,,,,,,,,,,,,,,,,,,,,,,,,,,,,,
,,613e868f4d6c157238b8fd87,2023-12-14_20h11.13.528,kallum_motion_pilot,2023.2.3,Win32,60.97560976,613e868f4d6c157238b8fd87,657bb317c8798c6608bceb3f,657bb5a5fb8b312e6fc39561,0.0231,0.0231,0,36,36,130,1,sixfive,,,,,,,,,,,,,,,,,,,,,,,,,,,,,,,,,,,,,,,,,,,,,,,,,,,,,,,,,,,,,,,,,,,,,,,,,,,,,,,,,,,,,,,,,,,,,,,,,,,,,,,,,,,,,,,,,,,,,,,,,,,,,,,,,,,,,,,
,,613e868f4d6c157238b8fd87,2023-12-14_20h11.13.528,kallum_motion_pilot,2023.2.3,Win32,60.97560976,613e868f4d6c157238b8fd87,657bb317c8798c6608bceb3f,657bb5a5fb8b312e6fc39561,0.023200001,0.023200001,0,37,37,142,1,eightsix,,,,,,,,,,,,,,,,,,,,,,,,,,,,,,,,,,,,,,,,,,,,,,,,,,,,,,,,,,,,,,,,,,,,,,,,,,,,,,,,,,,,,,,,,,,,,,,,,,,,,,,,,,,,,,,,,,,,,,,,,,,,,,,,,,,,,,,
,,613e868f4d6c157238b8fd87,2023-12-14_20h11.13.528,kallum_motion_pilot,2023.2.3,Win32,60.97560976,613e868f4d6c157238b8fd87,657bb317c8798c6608bceb3f,657bb5a5fb8b312e6fc39561,0.023300001,0.0234,0,38,38,66,1,twoone,,,,,,,,,,,,,,,,,,,,,,,,,,,,,,,,,,,,,,,,,,,,,,,,,,,,,,,,,,,,,,,,,,,,,,,,,,,,,,,,,,,,,,,,,,,,,,,,,,,,,,,,,,,,,,,,,,,,,,,,,,,,,,,,,,,,,,,
,,613e868f4d6c157238b8fd87,2023-12-14_20h11.13.528,kallum_motion_pilot,2023.2.3,Win32,60.97560976,613e868f4d6c157238b8fd87,657bb317c8798c6608bceb3f,657bb5a5fb8b312e6fc39561,0.0234,0.0234,0,39,39,70,1,fourtwo,,,,,,,,,,,,,,,,,,,,,,,,,,,,,,,,,,,,,,,,,,,,,,,,,,,,,,,,,,,,,,,,,,,,,,,,,,,,,,,,,,,,,,,,,,,,,,,,,,,,,,,,,,,,,,,,,,,,,,,,,,,,,,,,,,,,,,,
,,613e868f4d6c157238b8fd87,2023-12-14_20h11.13.528,kallum_motion_pilot,2023.2.3,Win32,60.97560976,613e868f4d6c157238b8fd87,657bb317c8798c6608bceb3f,657bb5a5fb8b312e6fc39561,0.0235,0.0235,0,40,40,56,1,onetwo,,,,,,,,,,,,,,,,,,,,,,,,,,,,,,,,,,,,,,,,,,,,,,,,,,,,,,,,,,,,,,,,,,,,,,,,,,,,,,,,,,,,,,,,,,,,,,,,,,,,,,,,,,,,,,,,,,,,,,,,,,,,,,,,,,,,,,,
,,613e868f4d6c157238b8fd87,2023-12-14_20h11.13.528,kallum_motion_pilot,2023.2.3,Win32,60.97560976,613e868f4d6c157238b8fd87,657bb317c8798c6608bceb3f,657bb5a5fb8b312e6fc39561,0.0235,0.0235,0,41,41,53,1,threefour,,,,,,,,,,,,,,,,,,,,,,,,,,,,,,,,,,,,,,,,,,,,,,,,,,,,,,,,,,,,,,,,,,,,,,,,,,,,,,,,,,,,,,,,,,,,,,,,,,,,,,,,,,,,,,,,,,,,,,,,,,,,,,,,,,,,,,,
,,613e868f4d6c157238b8fd87,2023-12-14_20h11.13.528,kallum_motion_pilot,2023.2.3,Win32,60.97560976,613e868f4d6c157238b8fd87,657bb317c8798c6608bceb3f,657bb5a5fb8b312e6fc39561,0.0236,0.0236,0,42,42,2,1,twoone,,,,,,,,,,,,,,,,,,,,,,,,,,,,,,,,,,,,,,,,,,,,,,,,,,,,,,,,,,,,,,,,,,,,,,,,,,,,,,,,,,,,,,,,,,,,,,,,,,,,,,,,,,,,,,,,,,,,,,,,,,,,,,,,,,,,,,,
,,613e868f4d6c157238b8fd87,2023-12-14_20h11.13.528,kallum_motion_pilot,2023.2.3,Win32,60.97560976,613e868f4d6c157238b8fd87,657bb317c8798c6608bceb3f,657bb5a5fb8b312e6fc39561,0.023700001,0.023700001,0,43,43,60,1,threeone,,,,,,,,,,,,,,,,,,,,,,,,,,,,,,,,,,,,,,,,,,,,,,,,,,,,,,,,,,,,,,,,,,,,,,,,,,,,,,,,,,,,,,,,,,,,,,,,,,,,,,,,,,,,,,,,,,,,,,,,,,,,,,,,,,,,,,,
,,613e868f4d6c157238b8fd87,2023-12-14_20h11.13.528,kallum_motion_pilot,2023.2.3,Win32,60.97560976,613e868f4d6c157238b8fd87,657bb317c8798c6608bceb3f,657bb5a5fb8b312e6fc39561,0.023700001,0.023800001,0,44,44,123,1,sixeight,,,,,,,,,,,,,,,,,,,,,,,,,,,,,,,,,,,,,,,,,,,,,,,,,,,,,,,,,,,,,,,,,,,,,,,,,,,,,,,,,,,,,,,,,,,,,,,,,,,,,,,,,,,,,,,,,,,,,,,,,,,,,,,,,,,,,,,
,,613e868f4d6c157238b8fd87,2023-12-14_20h11.13.528,kallum_motion_pilot,2023.2.3,Win32,60.97560976,613e868f4d6c157238b8fd87,657bb317c8798c6608bceb3f,657bb5a5fb8b312e6fc39561,0.023800001,0.023800001,0,45,45,149,1,seveneight,,,,,,,,,,,,,,,,,,,,,,,,,,,,,,,,,,,,,,,,,,,,,,,,,,,,,,,,,,,,,,,,,,,,,,,,,,,,,,,,,,,,,,,,,,,,,,,,,,,,,,,,,,,,,,,,,,,,,,,,,,,,,,,,,,,,,,,
,,613e868f4d6c157238b8fd87,2023-12-14_20h11.13.528,kallum_motion_pilot,2023.2.3,Win32,60.97560976,613e868f4d6c157238b8fd87,657bb317c8798c6608bceb3f,657bb5a5fb8b312e6fc39561,0.0239,0.0239,0,46,46,134,1,eightsix,,,,,,,,,,,,,,,,,,,,,,,,,,,,,,,,,,,,,,,,,,,,,,,,,,,,,,,,,,,,,,,,,,,,,,,,,,,,,,,,,,,,,,,,,,,,,,,,,,,,,,,,,,,,,,,,,,,,,,,,,,,,,,,,,,,,,,,
,,613e868f4d6c157238b8fd87,2023-12-14_20h11.13.528,kallum_motion_pilot,2023.2.3,Win32,60.97560976,613e868f4d6c157238b8fd87,657bb317c8798c6608bceb3f,657bb5a5fb8b312e6fc39561,0.0239,0.024,0,47,47,81,1,fiveseven,,,,,,,,,,,,,,,,,,,,,,,,,,,,,,,,,,,,,,,,,,,,,,,,,,,,,,,,,,,,,,,,,,,,,,,,,,,,,,,,,,,,,,,,,,,,,,,,,,,,,,,,,,,,,,,,,,,,,,,,,,,,,,,,,,,,,,,
,,613e868f4d6c157238b8fd87,2023-12-14_20h11.13.528,kallum_motion_pilot,2023.2.3,Win32,60.97560976,613e868f4d6c157238b8fd87,657bb317c8798c6608bceb3f,657bb5a5fb8b312e6fc39561,0.024,0.024,0,48,48,84,1,sevenfive,,,,,,,,,,,,,,,,,,,,,,,,,,,,,,,,,,,,,,,,,,,,,,,,,,,,,,,,,,,,,,,,,,,,,,,,,,,,,,,,,,,,,,,,,,,,,,,,,,,,,,,,,,,,,,,,,,,,,,,,,,,,,,,,,,,,,,,
,,613e868f4d6c157238b8fd87,2023-12-14_20h11.13.528,kallum_motion_pilot,2023.2.3,Win32,60.97560976,613e868f4d6c157238b8fd87,657bb317c8798c6608bceb3f,657bb5a5fb8b312e6fc39561,0.0241,0.0241,0,49,49,43,1,twofour,,,,,,,,,,,,,,,,,,,,,,,,,,,,,,,,,,,,,,,,,,,,,,,,,,,,,,,,,,,,,,,,,,,,,,,,,,,,,,,,,,,,,,,,,,,,,,,,,,,,,,,,,,,,,,,,,,,,,,,,,,,,,,,,,,,,,,,
,,613e868f4d6c157238b8fd87,2023-12-14_20h11.13.528,kallum_motion_pilot,2023.2.3,Win32,60.97560976,613e868f4d6c157238b8fd87,657bb317c8798c6608bceb3f,657bb5a5fb8b312e6fc39561,0.0241,0.0241,0,50,50,24,1,onetwo,,,,,,,,,,,,,,,,,,,,,,,,,,,,,,,,,,,,,,,,,,,,,,,,,,,,,,,,,,,,,,,,,,,,,,,,,,,,,,,,,,,,,,,,,,,,,,,,,,,,,,,,,,,,,,,,,,,,,,,,,,,,,,,,,,,,,,,
,,613e868f4d6c157238b8fd87,2023-12-14_20h11.13.528,kallum_motion_pilot,2023.2.3,Win32,60.97560976,613e868f4d6c157238b8fd87,657bb317c8798c6608bceb3f,657bb5a5fb8b312e6fc39561,0.024200001,0.024200001,0,51,51,146,1,sixfive,,,,,,,,,,,,,,,,,,,,,,,,,,,,,,,,,,,,,,,,,,,,,,,,,,,,,,,,,,,,,,,,,,,,,,,,,,,,,,,,,,,,,,,,,,,,,,,,,,,,,,,,,,,,,,,,,,,,,,,,,,,,,,,,,,,,,,,
,,613e868f4d6c157238b8fd87,2023-12-14_20h11.13.528,kallum_motion_pilot,2023.2.3,Win32,60.97560976,613e868f4d6c157238b8fd87,657bb317c8798c6608bceb3f,657bb5a5fb8b312e6fc39561,0.024300001,0.024300001,0,52,52,18,1,twoone,,,,,,,,,,,,,,,,,,,,,,,,,,,,,,,,,,,,,,,,,,,,,,,,,,,,,,,,,,,,,,,,,,,,,,,,,,,,,,,,,,,,,,,,,,,,,,,,,,,,,,,,,,,,,,,,,,,,,,,,,,,,,,,,,,,,,,,
,,613e868f4d6c157238b8fd87,2023-12-14_20h11.13.528,kallum_motion_pilot,2023.2.3,Win32,60.97560976,613e868f4d6c157238b8fd87,657bb317c8798c6608bceb3f,657bb5a5fb8b312e6fc39561,0.0244,0.0244,0,53,53,106,1,sixfive,,,,,,,,,,,,,,,,,,,,,,,,,,,,,,,,,,,,,,,,,,,,,,,,,,,,,,,,,,,,,,,,,,,,,,,,,,,,,,,,,,,,,,,,,,,,,,,,,,,,,,,,,,,,,,,,,,,,,,,,,,,,,,,,,,,,,,,
,,613e868f4d6c157238b8fd87,2023-12-14_20h11.13.528,kallum_motion_pilot,2023.2.3,Win32,60.97560976,613e868f4d6c157238b8fd87,657bb317c8798c6608bceb3f,657bb5a5fb8b312e6fc39561,0.0244,0.0244,0,54,54,35,1,twofour,,,,,,,,,,,,,,,,,,,,,,,,,,,,,,,,,,,,,,,,,,,,,,,,,,,,,,,,,,,,,,,,,,,,,,,,,,,,,,,,,,,,,,,,,,,,,,,,,,,,,,,,,,,,,,,,,,,,,,,,,,,,,,,,,,,,,,,
,,613e868f4d6c157238b8fd87,2023-12-14_20h11.13.528,kallum_motion_pilot,2023.2.3,Win32,60.97560976,613e868f4d6c157238b8fd87,657bb317c8798c6608bceb3f,657bb5a5fb8b312e6fc39561,0.0244,0.0244,0,55,55,72,1,onetwo,,,,,,,,,,,,,,,,,,,,,,,,,,,,,,,,,,,,,,,,,,,,,,,,,,,,,,,,,,,,,,,,,,,,,,,,,,,,,,,,,,,,,,,,,,,,,,,,,,,,,,,,,,,,,,,,,,,,,,,,,,,,,,,,,,,,,,,
,,613e868f4d6c157238b8fd87,2023-12-14_20h11.13.528,kallum_motion_pilot,2023.2.3,Win32,60.97560976,613e868f4d6c157238b8fd87,657bb317c8798c6608bceb3f,657bb5a5fb8b312e6fc39561,0.0245,0.0245,0,56,56,78,1,fourtwo,,,,,,,,,,,,,,,,,,,,,,,,,,,,,,,,,,,,,,,,,,,,,,,,,,,,,,,,,,,,,,,,,,,,,,,,,,,,,,,,,,,,,,,,,,,,,,,,,,,,,,,,,,,,,,,,,,,,,,,,,,,,,,,,,,,,,,,
,,613e868f4d6c157238b8fd87,2023-12-14_20h11.13.528,kallum_motion_pilot,2023.2.3,Win32,60.97560976,613e868f4d6c157238b8fd87,657bb317c8798c6608bceb3f,657bb5a5fb8b312e6fc39561,0.0246,0.025200001,0,57,57,9,1,onethree,,,,,,,,,,,,,,,,,,,,,,,,,,,,,,,,,,,,,,,,,,,,,,,,,,,,,,,,,,,,,,,,,,,,,,,,,,,,,,,,,,,,,,,,,,,,,,,,,,,,,,,,,,,,,,,,,,,,,,,,,,,,,,,,,,,,,,,
,,613e868f4d6c157238b8fd87,2023-12-14_20h11.13.528,kallum_motion_pilot,2023.2.3,Win32,60.97560976,613e868f4d6c157238b8fd87,657bb317c8798c6608bceb3f,657bb5a5fb8b312e6fc39561,0.025300001,0.025300001,0,58,58,69,1,threefour,,,,,,,,,,,,,,,,,,,,,,,,,,,,,,,,,,,,,,,,,,,,,,,,,,,,,,,,,,,,,,,,,,,,,,,,,,,,,,,,,,,,,,,,,,,,,,,,,,,,,,,,,,,,,,,,,,,,,,,,,,,,,,,,,,,,,,,
,,613e868f4d6c157238b8fd87,2023-12-14_20h11.13.528,kallum_motion_pilot,2023.2.3,Win32,60.97560976,613e868f4d6c157238b8fd87,657bb317c8798c6608bceb3f,657bb5a5fb8b312e6fc39561,0.025300001,0.025300001,0,59,59,122,1,sixfive,,,,,,,,,,,,,,,,,,,,,,,,,,,,,,,,,,,,,,,,,,,,,,,,,,,,,,,,,,,,,,,,,,,,,,,,,,,,,,,,,,,,,,,,,,,,,,,,,,,,,,,,,,,,,,,,,,,,,,,,,,,,,,,,,,,,,,,
,,613e868f4d6c157238b8fd87,2023-12-14_20h11.13.528,kallum_motion_pilot,2023.2.3,Win32,60.97560976,613e868f4d6c157238b8fd87,657bb317c8798c6608bceb3f,657bb5a5fb8b312e6fc39561,0.0254,0.0255,0,60,60,67,1,twofour,,,,,,,,,,,,,,,,,,,,,,,,,,,,,,,,,,,,,,,,,,,,,,,,,,,,,,,,,,,,,,,,,,,,,,,,,,,,,,,,,,,,,,,,,,,,,,,,,,,,,,,,,,,,,,,,,,,,,,,,,,,,,,,,,,,,,,,
,,613e868f4d6c157238b8fd87,2023-12-14_20h11.13.528,kallum_motion_pilot,2023.2.3,Win32,60.97560976,613e868f4d6c157238b8fd87,657bb317c8798c6608bceb3f,657bb5a5fb8b312e6fc39561,0.0255,0.0255,0,61,61,6,1,fourtwo,,,,,,,,,,,,,,,,,,,,,,,,,,,,,,,,,,,,,,,,,,,,,,,,,,,,,,,,,,,,,,,,,,,,,,,,,,,,,,,,,,,,,,,,,,,,,,,,,,,,,,,,,,,,,,,,,,,,,,,,,,,,,,,,,,,,,,,
,,613e868f4d6c157238b8fd87,2023-12-14_20h11.13.528,kallum_motion_pilot,2023.2.3,Win32,60.97560976,613e868f4d6c157238b8fd87,657bb317c8798c6608bceb3f,657bb5a5fb8b312e6fc39561,0.0256,0.0256,0,62,62,116,1,sevenfive,,,,,,,,,,,,,,,,,,,,,,,,,,,,,,,,,,,,,,,,,,,,,,,,,,,,,,,,,,,,,,,,,,,,,,,,,,,,,,,,,,,,,,,,,,,,,,,,,,,,,,,,,,,,,,,,,,,,,,,,,,,,,,,,,,,,,,,
,,613e868f4d6c157238b8fd87,2023-12-14_20h11.13.528,kallum_motion_pilot,2023.2.3,Win32,60.97560976,613e868f4d6c157238b8fd87,657bb317c8798c6608bceb3f,657bb5a5fb8b312e6fc39561,0.025700001,0.025700001,0,63,63,113,1,fiveseven,,,,,,,,,,,,,,,,,,,,,,,,,,,,,,,,,,,,,,,,,,,,,,,,,,,,,,,,,,,,,,,,,,,,,,,,,,,,,,,,,,,,,,,,,,,,,,,,,,,,,,,,,,,,,,,,,,,,,,,,,,,,,,,,,,,,,,,
,,613e868f4d6c157238b8fd87,2023-12-14_20h11.13.528,kallum_motion_pilot,2023.2.3,Win32,60.97560976,613e868f4d6c157238b8fd87,657bb317c8798c6608bceb3f,657bb5a5fb8b312e6fc39561,0.025800001,0.025800001,0,64,64,62,1,fourtwo,,,,,,,,,,,,,,,,,,,,,,,,,,,,,,,,,,,,,,,,,,,,,,,,,,,,,,,,,,,,,,,,,,,,,,,,,,,,,,,,,,,,,,,,,,,,,,,,,,,,,,,,,,,,,,,,,,,,,,,,,,,,,,,,,,,,,,,
,,613e868f4d6c157238b8fd87,2023-12-14_20h11.13.528,kallum_motion_pilot,2023.2.3,Win32,60.97560976,613e868f4d6c157238b8fd87,657bb317c8798c6608bceb3f,657bb5a5fb8b312e6fc39561,0.026,0.026,0,65,65,94,1,eightsix,,,,,,,,,,,,,,,,,,,,,,,,,,,,,,,,,,,,,,,,,,,,,,,,,,,,,,,,,,,,,,,,,,,,,,,,,,,,,,,,,,,,,,,,,,,,,,,,,,,,,,,,,,,,,,,,,,,,,,,,,,,,,,,,,,,,,,,
,,613e868f4d6c157238b8fd87,2023-12-14_20h11.13.528,kallum_motion_pilot,2023.2.3,Win32,60.97560976,613e868f4d6c157238b8fd87,657bb317c8798c6608bceb3f,657bb5a5fb8b312e6fc39561,0.026,0.0261,0,66,66,157,1,seveneight,,,,,,,,,,,,,,,,,,,,,,,,,,,,,,,,,,,,,,,,,,,,,,,,,,,,,,,,,,,,,,,,,,,,,,,,,,,,,,,,,,,,,,,,,,,,,,,,,,,,,,,,,,,,,,,,,,,,,,,,,,,,,,,,,,,,,,,
,,613e868f4d6c157238b8fd87,2023-12-14_20h11.13.528,kallum_motion_pilot,2023.2.3,Win32,60.97560976,613e868f4d6c157238b8fd87,657bb317c8798c6608bceb3f,657bb5a5fb8b312e6fc39561,0.0261,0.0261,0,67,67,139,1,sixeight,,,,,,,,,,,,,,,,,,,,,,,,,,,,,,,,,,,,,,,,,,,,,,,,,,,,,,,,,,,,,,,,,,,,,,,,,,,,,,,,,,,,,,,,,,,,,,,,,,,,,,,,,,,,,,,,,,,,,,,,,,,,,,,,,,,,,,,
,,613e868f4d6c157238b8fd87,2023-12-14_20h11.13.528,kallum_motion_pilot,2023.2.3,Win32,60.97560976,613e868f4d6c157238b8fd87,657bb317c8798c6608bceb3f,657bb5a5fb8b312e6fc39561,0.0261,0.0261,0,68,68,85,1,seveneight,,,,,,,,,,,,,,,,,,,,,,,,,,,,,,,,,,,,,,,,,,,,,,,,,,,,,,,,,,,,,,,,,,,,,,,,,,,,,,,,,,,,,,,,,,,,,,,,,,,,,,,,,,,,,,,,,,,,,,,,,,,,,,,,,,,,,,,
,,613e868f4d6c157238b8fd87,2023-12-14_20h11.13.528,kallum_motion_pilot,2023.2.3,Win32,60.97560976,613e868f4d6c157238b8fd87,657bb317c8798c6608bceb3f,657bb5a5fb8b312e6fc39561,0.026200001,0.026300001,0,69,69,25,1,onethree,,,,,,,,,,,,,,,,,,,,,,,,,,,,,,,,,,,,,,,,,,,,,,,,,,,,,,,,,,,,,,,,,,,,,,,,,,,,,,,,,,,,,,,,,,,,,,,,,,,,,,,,,,,,,,,,,,,,,,,,,,,,,,,,,,,,,,,
,,613e868f4d6c157238b8fd87,2023-12-14_20h11.13.528,kallum_motion_pilot,2023.2.3,Win32,60.97560976,613e868f4d6c157238b8fd87,657bb317c8798c6608bceb3f,657bb5a5fb8b312e6fc39561,0.026300001,0.0264,0,70,70,68,1,threeone,,,,,,,,,,,,,,,,,,,,,,,,,,,,,,,,,,,,,,,,,,,,,,,,,,,,,,,,,,,,,,,,,,,,,,,,,,,,,,,,,,,,,,,,,,,,,,,,,,,,,,,,,,,,,,,,,,,,,,,,,,,,,,,,,,,,,,,
,,613e868f4d6c157238b8fd87,2023-12-14_20h11.13.528,kallum_motion_pilot,2023.2.3,Win32,60.97560976,613e868f4d6c157238b8fd87,657bb317c8798c6608bceb3f,657bb5a5fb8b312e6fc39561,0.0264,0.0264,0,71,71,82,1,sixfive,,,,,,,,,,,,,,,,,,,,,,,,,,,,,,,,,,,,,,,,,,,,,,,,,,,,,,,,,,,,,,,,,,,,,,,,,,,,,,,,,,,,,,,,,,,,,,,,,,,,,,,,,,,,,,,,,,,,,,,,,,,,,,,,,,,,,,,
,,613e868f4d6c157238b8fd87,2023-12-14_20h11.13.528,kallum_motion_pilot,2023.2.3,Win32,60.97560976,613e868f4d6c157238b8fd87,657bb317c8798c6608bceb3f,657bb5a5fb8b312e6fc39561,0.0265,0.0265,0,72,72,109,1,seveneight,,,,,,,,,,,,,,,,,,,,,,,,,,,,,,,,,,,,,,,,,,,,,,,,,,,,,,,,,,,,,,,,,,,,,,,,,,,,,,,,,,,,,,,,,,,,,,,,,,,,,,,,,,,,,,,,,,,,,,,,,,,,,,,,,,,,,,,
,,613e868f4d6c157238b8fd87,2023-12-14_20h11.13.528,kallum_motion_pilot,2023.2.3,Win32,60.97560976,613e868f4d6c157238b8fd87,657bb317c8798c6608bceb3f,657bb5a5fb8b312e6fc39561,0.0266,0.0266,0,73,73,22,1,fourtwo,,,,,,,,,,,,,,,,,,,,,,,,,,,,,,,,,,,,,,,,,,,,,,,,,,,,,,,,,,,,,,,,,,,,,,,,,,,,,,,,,,,,,,,,,,,,,,,,,,,,,,,,,,,,,,,,,,,,,,,,,,,,,,,,,,,,,,,
,,613e868f4d6c157238b8fd87,2023-12-14_20h11.13.528,kallum_motion_pilot,2023.2.3,Win32,60.97560976,613e868f4d6c157238b8fd87,657bb317c8798c6608bceb3f,657bb5a5fb8b312e6fc39561,0.026700001,0.026700001,0,74,74,137,1,fiveseven,,,,,,,,,,,,,,,,,,,,,,,,,,,,,,,,,,,,,,,,,,,,,,,,,,,,,,,,,,,,,,,,,,,,,,,,,,,,,,,,,,,,,,,,,,,,,,,,,,,,,,,,,,,,,,,,,,,,,,,,,,,,,,,,,,,,,,,
,,613e868f4d6c157238b8fd87,2023-12-14_20h11.13.528,kallum_motion_pilot,2023.2.3,Win32,60.97560976,613e868f4d6c157238b8fd87,657bb317c8798c6608bceb3f,657bb5a5fb8b312e6fc39561,0.026700001,0.026800001,0,75,75,27,1,twofour,,,,,,,,,,,,,,,,,,,,,,,,,,,,,,,,,,,,,,,,,,,,,,,,,,,,,,,,,,,,,,,,,,,,,,,,,,,,,,,,,,,,,,,,,,,,,,,,,,,,,,,,,,,,,,,,,,,,,,,,,,,,,,,,,,,,,,,
,,613e868f4d6c157238b8fd87,2023-12-14_20h11.13.528,kallum_motion_pilot,2023.2.3,Win32,60.97560976,613e868f4d6c157238b8fd87,657bb317c8798c6608bceb3f,657bb5a5fb8b312e6fc39561,0.026800001,0.026800001,0,76,76,51,1,twofour,,,,,,,,,,,,,,,,,,,,,,,,,,,,,,,,,,,,,,,,,,,,,,,,,,,,,,,,,,,,,,,,,,,,,,,,,,,,,,,,,,,,,,,,,,,,,,,,,,,,,,,,,,,,,,,,,,,,,,,,,,,,,,,,,,,,,,,
,,613e868f4d6c157238b8fd87,2023-12-14_20h11.13.528,kallum_motion_pilot,2023.2.3,Win32,60.97560976,613e868f4d6c157238b8fd87,657bb317c8798c6608bceb3f,657bb5a5fb8b312e6fc39561,0.0269,0.0269,0,77,77,0,1,onetwo,,,,,,,,,,,,,,,,,,,,,,,,,,,,,,,,,,,,,,,,,,,,,,,,,,,,,,,,,,,,,,,,,,,,,,,,,,,,,,,,,,,,,,,,,,,,,,,,,,,,,,,,,,,,,,,,,,,,,,,,,,,,,,,,,,,,,,,
,,613e868f4d6c157238b8fd87,2023-12-14_20h11.13.528,kallum_motion_pilot,2023.2.3,Win32,60.97560976,613e868f4d6c157238b8fd87,657bb317c8798c6608bceb3f,657bb5a5fb8b312e6fc39561,0.027,0.027,0,78,78,120,1,fivesix,,,,,,,,,,,,,,,,,,,,,,,,,,,,,,,,,,,,,,,,,,,,,,,,,,,,,,,,,,,,,,,,,,,,,,,,,,,,,,,,,,,,,,,,,,,,,,,,,,,,,,,,,,,,,,,,,,,,,,,,,,,,,,,,,,,,,,,
,,613e868f4d6c157238b8fd87,2023-12-14_20h11.13.528,kallum_motion_pilot,2023.2.3,Win32,60.97560976,613e868f4d6c157238b8fd87,657bb317c8798c6608bceb3f,657bb5a5fb8b312e6fc39561,0.0271,0.0271,0,79,79,141,1,seveneight,,,,,,,,,,,,,,,,,,,,,,,,,,,,,,,,,,,,,,,,,,,,,,,,,,,,,,,,,,,,,,,,,,,,,,,,,,,,,,,,,,,,,,,,,,,,,,,,,,,,,,,,,,,,,,,,,,,,,,,,,,,,,,,,,,,,,,,
,,613e868f4d6c157238b8fd87,2023-12-14_20h11.13.528,kallum_motion_pilot,2023.2.3,Win32,60.97560976,613e868f4d6c157238b8fd87,657bb317c8798c6608bceb3f,657bb5a5fb8b312e6fc39561,0.0271,0.0271,0,80,80,138,1,sixfive,,,,,,,,,,,,,,,,,,,,,,,,,,,,,,,,,,,,,,,,,,,,,,,,,,,,,,,,,,,,,,,,,,,,,,,,,,,,,,,,,,,,,,,,,,,,,,,,,,,,,,,,,,,,,,,,,,,,,,,,,,,,,,,,,,,,,,,
,,613e868f4d6c157238b8fd87,2023-12-14_20h11.13.528,kallum_motion_pilot,2023.2.3,Win32,60.97560976,613e868f4d6c157238b8fd87,657bb317c8798c6608bceb3f,657bb5a5fb8b312e6fc39561,0.027200001,0.027300001,0,81,81,63,1,fourthree,,,,,,,,,,,,,,,,,,,,,,,,,,,,,,,,,,,,,,,,,,,,,,,,,,,,,,,,,,,,,,,,,,,,,,,,,,,,,,,,,,,,,,,,,,,,,,,,,,,,,,,,,,,,,,,,,,,,,,,,,,,,,,,,,,,,,,,
,,613e868f4d6c157238b8fd87,2023-12-14_20h11.13.528,kallum_motion_pilot,2023.2.3,Win32,60.97560976,613e868f4d6c157238b8fd87,657bb317c8798c6608bceb3f,657bb5a5fb8b312e6fc39561,0.027300001,0.027300001,0,82,82,89,1,fiveseven,,,,,,,,,,,,,,,,,,,,,,,,,,,,,,,,,,,,,,,,,,,,,,,,,,,,,,,,,,,,,,,,,,,,,,,,,,,,,,,,,,,,,,,,,,,,,,,,,,,,,,,,,,,,,,,,,,,,,,,,,,,,,,,,,,,,,,,
,,613e868f4d6c157238b8fd87,2023-12-14_20h11.13.528,kallum_motion_pilot,2023.2.3,Win32,60.97560976,613e868f4d6c157238b8fd87,657bb317c8798c6608bceb3f,657bb5a5fb8b312e6fc39561,0.0274,0.0274,0,83,83,21,1,threefour,,,,,,,,,,,,,,,,,,,,,,,,,,,,,,,,,,,,,,,,,,,,,,,,,,,,,,,,,,,,,,,,,,,,,,,,,,,,,,,,,,,,,,,,,,,,,,,,,,,,,,,,,,,,,,,,,,,,,,,,,,,,,,,,,,,,,,,
,,613e868f4d6c157238b8fd87,2023-12-14_20h11.13.528,kallum_motion_pilot,2023.2.3,Win32,60.97560976,613e868f4d6c157238b8fd87,657bb317c8798c6608bceb3f,657bb5a5fb8b312e6fc39561,0.0275,0.0275,0,84,84,111,1,eightseven,,,,,,,,,,,,,,,,,,,,,,,,,,,,,,,,,,,,,,,,,,,,,,,,,,,,,,,,,,,,,,,,,,,,,,,,,,,,,,,,,,,,,,,,,,,,,,,,,,,,,,,,,,,,,,,,,,,,,,,,,,,,,,,,,,,,,,,
,,613e868f4d6c157238b8fd87,2023-12-14_20h11.13.528,kallum_motion_pilot,2023.2.3,Win32,60.97560976,613e868f4d6c157238b8fd87,657bb317c8798c6608bceb3f,657bb5a5fb8b312e6fc39561,0.0275,0.0275,0,85,85,33,1,onethree,,,,,,,,,,,,,,,,,,,,,,,,,,,,,,,,,,,,,,,,,,,,,,,,,,,,,,,,,,,,,,,,,,,,,,,,,,,,,,,,,,,,,,,,,,,,,,,,,,,,,,,,,,,,,,,,,,,,,,,,,,,,,,,,,,,,,,,
,,613e868f4d6c157238b8fd87,2023-12-14_20h11.13.528,kallum_motion_pilot,2023.2.3,Win32,60.97560976,613e868f4d6c157238b8fd87,657bb317c8798c6608bceb3f,657bb5a5fb8b312e6fc39561,0.0276,0.0276,0,86,86,31,1,fourthree,,,,,,,,,,,,,,,,,,,,,,,,,,,,,,,,,,,,,,,,,,,,,,,,,,,,,,,,,,,,,,,,,,,,,,,,,,,,,,,,,,,,,,,,,,,,,,,,,,,,,,,,,,,,,,,,,,,,,,,,,,,,,,,,,,,,,,,
,,613e868f4d6c157238b8fd87,2023-12-14_20h11.13.528,kallum_motion_pilot,2023.2.3,Win32,60.97560976,613e868f4d6c157238b8fd87,657bb317c8798c6608bceb3f,657bb5a5fb8b312e6fc39561,0.027700001,0.027700001,0,87,87,147,1,sixeight,,,,,,,,,,,,,,,,,,,,,,,,,,,,,,,,,,,,,,,,,,,,,,,,,,,,,,,,,,,,,,,,,,,,,,,,,,,,,,,,,,,,,,,,,,,,,,,,,,,,,,,,,,,,,,,,,,,,,,,,,,,,,,,,,,,,,,,
,,613e868f4d6c157238b8fd87,2023-12-14_20h11.13.528,kallum_motion_pilot,2023.2.3,Win32,60.97560976,613e868f4d6c157238b8fd87,657bb317c8798c6608bceb3f,657bb5a5fb8b312e6fc39561,0.027700001,0.027800001,0,88,88,91,1,sixeight,,,,,,,,,,,,,,,,,,,,,,,,,,,,,,,,,,,,,,,,,,,,,,,,,,,,,,,,,,,,,,,,,,,,,,,,,,,,,,,,,,,,,,,,,,,,,,,,,,,,,,,,,,,,,,,,,,,,,,,,,,,,,,,,,,,,,,,
,,613e868f4d6c157238b8fd87,2023-12-14_20h11.13.528,kallum_motion_pilot,2023.2.3,Win32,60.97560976,613e868f4d6c157238b8fd87,657bb317c8798c6608bceb3f,657bb5a5fb8b312e6fc39561,0.027800001,0.0279,0,89,89,48,1,onetwo,,,,,,,,,,,,,,,,,,,,,,,,,,,,,,,,,,,,,,,,,,,,,,,,,,,,,,,,,,,,,,,,,,,,,,,,,,,,,,,,,,,,,,,,,,,,,,,,,,,,,,,,,,,,,,,,,,,,,,,,,,,,,,,,,,,,,,,
,,613e868f4d6c157238b8fd87,2023-12-14_20h11.13.528,kallum_motion_pilot,2023.2.3,Win32,60.97560976,613e868f4d6c157238b8fd87,657bb317c8798c6608bceb3f,657bb5a5fb8b312e6fc39561,0.0279,0.028,0,90,90,97,1,fiveseven,,,,,,,,,,,,,,,,,,,,,,,,,,,,,,,,,,,,,,,,,,,,,,,,,,,,,,,,,,,,,,,,,,,,,,,,,,,,,,,,,,,,,,,,,,,,,,,,,,,,,,,,,,,,,,,,,,,,,,,,,,,,,,,,,,,,,,,
,,613e868f4d6c157238b8fd87,2023-12-14_20h11.13.528,kallum_motion_pilot,2023.2.3,Win32,60.97560976,613e868f4d6c157238b8fd87,657bb317c8798c6608bceb3f,657bb5a5fb8b312e6fc39561,0.028,0.0281,0,91,91,16,1,onetwo,,,,,,,,,,,,,,,,,,,,,,,,,,,,,,,,,,,,,,,,,,,,,,,,,,,,,,,,,,,,,,,,,,,,,,,,,,,,,,,,,,,,,,,,,,,,,,,,,,,,,,,,,,,,,,,,,,,,,,,,,,,,,,,,,,,,,,,
,,613e868f4d6c157238b8fd87,2023-12-14_20h11.13.528,kallum_motion_pilot,2023.2.3,Win32,60.97560976,613e868f4d6c157238b8fd87,657bb317c8798c6608bceb3f,657bb5a5fb8b312e6fc39561,0.0281,0.0281,0,92,92,99,1,sixeight,,,,,,,,,,,,,,,,,,,,,,,,,,,,,,,,,,,,,,,,,,,,,,,,,,,,,,,,,,,,,,,,,,,,,,,,,,,,,,,,,,,,,,,,,,,,,,,,,,,,,,,,,,,,,,,,,,,,,,,,,,,,,,,,,,,,,,,
,,613e868f4d6c157238b8fd87,2023-12-14_20h11.13.528,kallum_motion_pilot,2023.2.3,Win32,60.97560976,613e868f4d6c157238b8fd87,657bb317c8798c6608bceb3f,657bb5a5fb8b312e6fc39561,0.0281,0.028300001,0,93,93,55,1,fourthree,,,,,,,,,,,,,,,,,,,,,,,,,,,,,,,,,,,,,,,,,,,,,,,,,,,,,,,,,,,,,,,,,,,,,,,,,,,,,,,,,,,,,,,,,,,,,,,,,,,,,,,,,,,,,,,,,,,,,,,,,,,,,,,,,,,,,,,
,,613e868f4d6c157238b8fd87,2023-12-14_20h11.13.528,kallum_motion_pilot,2023.2.3,Win32,60.97560976,613e868f4d6c157238b8fd87,657bb317c8798c6608bceb3f,657bb5a5fb8b312e6fc39561,0.028300001,0.028300001,0,94,94,128,1,fivesix,,,,,,,,,,,,,,,,,,,,,,,,,,,,,,,,,,,,,,,,,,,,,,,,,,,,,,,,,,,,,,,,,,,,,,,,,,,,,,,,,,,,,,,,,,,,,,,,,,,,,,,,,,,,,,,,,,,,,,,,,,,,,,,,,,,,,,,
,,613e868f4d6c157238b8fd87,2023-12-14_20h11.13.528,kallum_motion_pilot,2023.2.3,Win32,60.97560976,613e868f4d6c157238b8fd87,657bb317c8798c6608bceb3f,657bb5a5fb8b312e6fc39561,0.0284,0.0284,0,95,95,36,1,threeone,,,,,,,,,,,,,,,,,,,,,,,,,,,,,,,,,,,,,,,,,,,,,,,,,,,,,,,,,,,,,,,,,,,,,,,,,,,,,,,,,,,,,,,,,,,,,,,,,,,,,,,,,,,,,,,,,,,,,,,,,,,,,,,,,,,,,,,
,,613e868f4d6c157238b8fd87,2023-12-14_20h11.13.528,kallum_motion_pilot,2023.2.3,Win32,60.97560976,613e868f4d6c157238b8fd87,657bb317c8798c6608bceb3f,657bb5a5fb8b312e6fc39561,0.0284,0.0285,0,96,96,115,1,sixeight,,,,,,,,,,,,,,,,,,,,,,,,,,,,,,,,,,,,,,,,,,,,,,,,,,,,,,,,,,,,,,,,,,,,,,,,,,,,,,,,,,,,,,,,,,,,,,,,,,,,,,,,,,,,,,,,,,,,,,,,,,,,,,,,,,,,,,,
,,613e868f4d6c157238b8fd87,2023-12-14_20h11.13.528,kallum_motion_pilot,2023.2.3,Win32,60.97560976,613e868f4d6c157238b8fd87,657bb317c8798c6608bceb3f,657bb5a5fb8b312e6fc39561,0.0285,0.0286,0,97,97,103,1,eightseven,,,,,,,,,,,,,,,,,,,,,,,,,,,,,,,,,,,,,,,,,,,,,,,,,,,,,,,,,,,,,,,,,,,,,,,,,,,,,,,,,,,,,,,,,,,,,,,,,,,,,,,,,,,,,,,,,,,,,,,,,,,,,,,,,,,,,,,
,,613e868f4d6c157238b8fd87,2023-12-14_20h11.13.528,kallum_motion_pilot,2023.2.3,Win32,60.97560976,613e868f4d6c157238b8fd87,657bb317c8798c6608bceb3f,657bb5a5fb8b312e6fc39561,0.0286,0.028700001,0,98,98,88,1,fivesix,,,,,,,,,,,,,,,,,,,,,,,,,,,,,,,,,,,,,,,,,,,,,,,,,,,,,,,,,,,,,,,,,,,,,,,,,,,,,,,,,,,,,,,,,,,,,,,,,,,,,,,,,,,,,,,,,,,,,,,,,,,,,,,,,,,,,,,
,,613e868f4d6c157238b8fd87,2023-12-14_20h11.13.528,kallum_motion_pilot,2023.2.3,Win32,60.97560976,613e868f4d6c157238b8fd87,657bb317c8798c6608bceb3f,657bb5a5fb8b312e6fc39561,0.028800001,0.028800001,0,99,99,96,1,fivesix,,,,,,,,,,,,,,,,,,,,,,,,,,,,,,,,,,,,,,,,,,,,,,,,,,,,,,,,,,,,,,,,,,,,,,,,,,,,,,,,,,,,,,,,,,,,,,,,,,,,,,,,,,,,,,,,,,,,,,,,,,,,,,,,,,,,,,,
,,613e868f4d6c157238b8fd87,2023-12-14_20h11.13.528,kallum_motion_pilot,2023.2.3,Win32,60.97560976,613e868f4d6c157238b8fd87,657bb317c8798c6608bceb3f,657bb5a5fb8b312e6fc39561,0.028800001,0.028800001,0,100,100,15,1,fourthree,,,,,,,,,,,,,,,,,,,,,,,,,,,,,,,,,,,,,,,,,,,,,,,,,,,,,,,,,,,,,,,,,,,,,,,,,,,,,,,,,,,,,,,,,,,,,,,,,,,,,,,,,,,,,,,,,,,,,,,,,,,,,,,,,,,,,,,
,,613e868f4d6c157238b8fd87,2023-12-14_20h11.13.528,kallum_motion_pilot,2023.2.3,Win32,60.97560976,613e868f4d6c157238b8fd87,657bb317c8798c6608bceb3f,657bb5a5fb8b312e6fc39561,0.0289,0.0289,0,101,101,102,1,eightsix,,,,,,,,,,,,,,,,,,,,,,,,,,,,,,,,,,,,,,,,,,,,,,,,,,,,,,,,,,,,,,,,,,,,,,,,,,,,,,,,,,,,,,,,,,,,,,,,,,,,,,,,,,,,,,,,,,,,,,,,,,,,,,,,,,,,,,,
,,613e868f4d6c157238b8fd87,2023-12-14_20h11.13.528,kallum_motion_pilot,2023.2.3,Win32,60.97560976,613e868f4d6c157238b8fd87,657bb317c8798c6608bceb3f,657bb5a5fb8b312e6fc39561,0.029,0.0291,0,102,102,107,1,sixeight,,,,,,,,,,,,,,,,,,,,,,,,,,,,,,,,,,,,,,,,,,,,,,,,,,,,,,,,,,,,,,,,,,,,,,,,,,,,,,,,,,,,,,,,,,,,,,,,,,,,,,,,,,,,,,,,,,,,,,,,,,,,,,,,,,,,,,,
,,613e868f4d6c157238b8fd87,2023-12-14_20h11.13.528,kallum_motion_pilot,2023.2.3,Win32,60.97560976,613e868f4d6c157238b8fd87,657bb317c8798c6608bceb3f,657bb5a5fb8b312e6fc39561,0.0291,0.0291,0,103,103,90,1,sixfive,,,,,,,,,,,,,,,,,,,,,,,,,,,,,,,,,,,,,,,,,,,,,,,,,,,,,,,,,,,,,,,,,,,,,,,,,,,,,,,,,,,,,,,,,,,,,,,,,,,,,,,,,,,,,,,,,,,,,,,,,,,,,,,,,,,,,,,
,,613e868f4d6c157238b8fd87,2023-12-14_20h11.13.528,kallum_motion_pilot,2023.2.3,Win32,60.97560976,613e868f4d6c157238b8fd87,657bb317c8798c6608bceb3f,657bb5a5fb8b312e6fc39561,0.029200001,0.029200001,0,104,104,151,1,eightseven,,,,,,,,,,,,,,,,,,,,,,,,,,,,,,,,,,,,,,,,,,,,,,,,,,,,,,,,,,,,,,,,,,,,,,,,,,,,,,,,,,,,,,,,,,,,,,,,,,,,,,,,,,,,,,,,,,,,,,,,,,,,,,,,,,,,,,,
,,613e868f4d6c157238b8fd87,2023-12-14_20h11.13.528,kallum_motion_pilot,2023.2.3,Win32,60.97560976,613e868f4d6c157238b8fd87,657bb317c8798c6608bceb3f,657bb5a5fb8b312e6fc39561,0.029300001,0.029300001,0,105,105,93,1,seveneight,,,,,,,,,,,,,,,,,,,,,,,,,,,,,,,,,,,,,,,,,,,,,,,,,,,,,,,,,,,,,,,,,,,,,,,,,,,,,,,,,,,,,,,,,,,,,,,,,,,,,,,,,,,,,,,,,,,,,,,,,,,,,,,,,,,,,,,
,,613e868f4d6c157238b8fd87,2023-12-14_20h11.13.528,kallum_motion_pilot,2023.2.3,Win32,60.97560976,613e868f4d6c157238b8fd87,657bb317c8798c6608bceb3f,657bb5a5fb8b312e6fc39561,0.029300001,0.0294,0,106,106,108,1,sevenfive,,,,,,,,,,,,,,,,,,,,,,,,,,,,,,,,,,,,,,,,,,,,,,,,,,,,,,,,,,,,,,,,,,,,,,,,,,,,,,,,,,,,,,,,,,,,,,,,,,,,,,,,,,,,,,,,,,,,,,,,,,,,,,,,,,,,,,,
,,613e868f4d6c157238b8fd87,2023-12-14_20h11.13.528,kallum_motion_pilot,2023.2.3,Win32,60.97560976,613e868f4d6c157238b8fd87,657bb317c8798c6608bceb3f,657bb5a5fb8b312e6fc39561,0.0294,0.0295,0,107,107,42,1,twoone,,,,,,,,,,,,,,,,,,,,,,,,,,,,,,,,,,,,,,,,,,,,,,,,,,,,,,,,,,,,,,,,,,,,,,,,,,,,,,,,,,,,,,,,,,,,,,,,,,,,,,,,,,,,,,,,,,,,,,,,,,,,,,,,,,,,,,,
,,613e868f4d6c157238b8fd87,2023-12-14_20h11.13.528,kallum_motion_pilot,2023.2.3,Win32,60.97560976,613e868f4d6c157238b8fd87,657bb317c8798c6608bceb3f,657bb5a5fb8b312e6fc39561,0.0295,0.0295,0,108,108,158,1,eightsix,,,,,,,,,,,,,,,,,,,,,,,,,,,,,,,,,,,,,,,,,,,,,,,,,,,,,,,,,,,,,,,,,,,,,,,,,,,,,,,,,,,,,,,,,,,,,,,,,,,,,,,,,,,,,,,,,,,,,,,,,,,,,,,,,,,,,,,
,,613e868f4d6c157238b8fd87,2023-12-14_20h11.13.528,kallum_motion_pilot,2023.2.3,Win32,60.97560976,613e868f4d6c157238b8fd87,657bb317c8798c6608bceb3f,657bb5a5fb8b312e6fc39561,0.0296,0.0296,0,109,109,112,1,fivesix,,,,,,,,,,,,,,,,,,,,,,,,,,,,,,,,,,,,,,,,,,,,,,,,,,,,,,,,,,,,,,,,,,,,,,,,,,,,,,,,,,,,,,,,,,,,,,,,,,,,,,,,,,,,,,,,,,,,,,,,,,,,,,,,,,,,,,,
,,613e868f4d6c157238b8fd87,2023-12-14_20h11.13.528,kallum_motion_pilot,2023.2.3,Win32,60.97560976,613e868f4d6c157238b8fd87,657bb317c8798c6608bceb3f,657bb5a5fb8b312e6fc39561,0.0296,0.029700001,0,110,110,100,1,sevenfive,,,,,,,,,,,,,,,,,,,,,,,,,,,,,,,,,,,,,,,,,,,,,,,,,,,,,,,,,,,,,,,,,,,,,,,,,,,,,,,,,,,,,,,,,,,,,,,,,,,,,,,,,,,,,,,,,,,,,,,,,,,,,,,,,,,,,,,
,,613e868f4d6c157238b8fd87,2023-12-14_20h11.13.528,kallum_motion_pilot,2023.2.3,Win32,60.97560976,613e868f4d6c157238b8fd87,657bb317c8798c6608bceb3f,657bb5a5fb8b312e6fc39561,0.029800001,0.029800001,0,111,111,95,1,eightseven,,,,,,,,,,,,,,,,,,,,,,,,,,,,,,,,,,,,,,,,,,,,,,,,,,,,,,,,,,,,,,,,,,,,,,,,,,,,,,,,,,,,,,,,,,,,,,,,,,,,,,,,,,,,,,,,,,,,,,,,,,,,,,,,,,,,,,,
,,613e868f4d6c157238b8fd87,2023-12-14_20h11.13.528,kallum_motion_pilot,2023.2.3,Win32,60.97560976,613e868f4d6c157238b8fd87,657bb317c8798c6608bceb3f,657bb5a5fb8b312e6fc39561,0.0299,0.0299,0,112,112,154,1,sixfive,,,,,,,,,,,,,,,,,,,,,,,,,,,,,,,,,,,,,,,,,,,,,,,,,,,,,,,,,,,,,,,,,,,,,,,,,,,,,,,,,,,,,,,,,,,,,,,,,,,,,,,,,,,,,,,,,,,,,,,,,,,,,,,,,,,,,,,
,,613e868f4d6c157238b8fd87,2023-12-14_20h11.13.528,kallum_motion_pilot,2023.2.3,Win32,60.97560976,613e868f4d6c157238b8fd87,657bb317c8798c6608bceb3f,657bb5a5fb8b312e6fc39561,0.03,0.03,0,113,113,26,1,twoone,,,,,,,,,,,,,,,,,,,,,,,,,,,,,,,,,,,,,,,,,,,,,,,,,,,,,,,,,,,,,,,,,,,,,,,,,,,,,,,,,,,,,,,,,,,,,,,,,,,,,,,,,,,,,,,,,,,,,,,,,,,,,,,,,,,,,,,
,,613e868f4d6c157238b8fd87,2023-12-14_20h11.13.528,kallum_motion_pilot,2023.2.3,Win32,60.97560976,613e868f4d6c157238b8fd87,657bb317c8798c6608bceb3f,657bb5a5fb8b312e6fc39561,0.03,0.0301,0,114,114,54,1,fourtwo,,,,,,,,,,,,,,,,,,,,,,,,,,,,,,,,,,,,,,,,,,,,,,,,,,,,,,,,,,,,,,,,,,,,,,,,,,,,,,,,,,,,,,,,,,,,,,,,,,,,,,,,,,,,,,,,,,,,,,,,,,,,,,,,,,,,,,,
,,613e868f4d6c157238b8fd87,2023-12-14_20h11.13.528,kallum_motion_pilot,2023.2.3,Win32,60.97560976,613e868f4d6c157238b8fd87,657bb317c8798c6608bceb3f,657bb5a5fb8b312e6fc39561,0.030300001,0.030300001,0,115,115,101,1,seveneight,,,,,,,,,,,,,,,,,,,,,,,,,,,,,,,,,,,,,,,,,,,,,,,,,,,,,,,,,,,,,,,,,,,,,,,,,,,,,,,,,,,,,,,,,,,,,,,,,,,,,,,,,,,,,,,,,,,,,,,,,,,,,,,,,,,,,,,
,,613e868f4d6c157238b8fd87,2023-12-14_20h11.13.528,kallum_motion_pilot,2023.2.3,Win32,60.97560976,613e868f4d6c157238b8fd87,657bb317c8798c6608bceb3f,657bb5a5fb8b312e6fc39561,0.0304,0.0304,0,116,116,121,1,fiveseven,,,,,,,,,,,,,,,,,,,,,,,,,,,,,,,,,,,,,,,,,,,,,,,,,,,,,,,,,,,,,,,,,,,,,,,,,,,,,,,,,,,,,,,,,,,,,,,,,,,,,,,,,,,,,,,,,,,,,,,,,,,,,,,,,,,,,,,
,,613e868f4d6c157238b8fd87,2023-12-14_20h11.13.528,kallum_motion_pilot,2023.2.3,Win32,60.97560976,613e868f4d6c157238b8fd87,657bb317c8798c6608bceb3f,657bb5a5fb8b312e6fc39561,0.0304,0.0305,0,117,117,161,1,fiveseven,,,,,,,,,,,,,,,,,,,,,,,,,,,,,,,,,,,,,,,,,,,,,,,,,,,,,,,,,,,,,,,,,,,,,,,,,,,,,,,,,,,,,,,,,,,,,,,,,,,,,,,,,,,,,,,,,,,,,,,,,,,,,,,,,,,,,,,
,,613e868f4d6c157238b8fd87,2023-12-14_20h11.13.528,kallum_motion_pilot,2023.2.3,Win32,60.97560976,613e868f4d6c157238b8fd87,657bb317c8798c6608bceb3f,657bb5a5fb8b312e6fc39561,0.0306,0.0306,0,118,118,127,1,eightseven,,,,,,,,,,,,,,,,,,,,,,,,,,,,,,,,,,,,,,,,,,,,,,,,,,,,,,,,,,,,,,,,,,,,,,,,,,,,,,,,,,,,,,,,,,,,,,,,,,,,,,,,,,,,,,,,,,,,,,,,,,,,,,,,,,,,,,,
,,613e868f4d6c157238b8fd87,2023-12-14_20h11.13.528,kallum_motion_pilot,2023.2.3,Win32,60.97560976,613e868f4d6c157238b8fd87,657bb317c8798c6608bceb3f,657bb5a5fb8b312e6fc39561,0.0306,0.030700001,0,119,119,38,1,fourtwo,,,,,,,,,,,,,,,,,,,,,,,,,,,,,,,,,,,,,,,,,,,,,,,,,,,,,,,,,,,,,,,,,,,,,,,,,,,,,,,,,,,,,,,,,,,,,,,,,,,,,,,,,,,,,,,,,,,,,,,,,,,,,,,,,,,,,,,
,,613e868f4d6c157238b8fd87,2023-12-14_20h11.13.528,kallum_motion_pilot,2023.2.3,Win32,60.97560976,613e868f4d6c157238b8fd87,657bb317c8798c6608bceb3f,657bb5a5fb8b312e6fc39561,0.030800001,0.030800001,0,120,120,135,1,eightseven,,,,,,,,,,,,,,,,,,,,,,,,,,,,,,,,,,,,,,,,,,,,,,,,,,,,,,,,,,,,,,,,,,,,,,,,,,,,,,,,,,,,,,,,,,,,,,,,,,,,,,,,,,,,,,,,,,,,,,,,,,,,,,,,,,,,,,,
,,613e868f4d6c157238b8fd87,2023-12-14_20h11.13.528,kallum_motion_pilot,2023.2.3,Win32,60.97560976,613e868f4d6c157238b8fd87,657bb317c8798c6608bceb3f,657bb5a5fb8b312e6fc39561,0.0309,0.031,0,121,121,155,1,sixeight,,,,,,,,,,,,,,,,,,,,,,,,,,,,,,,,,,,,,,,,,,,,,,,,,,,,,,,,,,,,,,,,,,,,,,,,,,,,,,,,,,,,,,,,,,,,,,,,,,,,,,,,,,,,,,,,,,,,,,,,,,,,,,,,,,,,,,,
,,613e868f4d6c157238b8fd87,2023-12-14_20h11.13.528,kallum_motion_pilot,2023.2.3,Win32,60.97560976,613e868f4d6c157238b8fd87,657bb317c8798c6608bceb3f,657bb5a5fb8b312e6fc39561,0.031,0.031,0,122,122,29,1,threefour,,,,,,,,,,,,,,,,,,,,,,,,,,,,,,,,,,,,,,,,,,,,,,,,,,,,,,,,,,,,,,,,,,,,,,,,,,,,,,,,,,,,,,,,,,,,,,,,,,,,,,,,,,,,,,,,,,,,,,,,,,,,,,,,,,,,,,,
,,613e868f4d6c157238b8fd87,2023-12-14_20h11.13.528,kallum_motion_pilot,2023.2.3,Win32,60.97560976,613e868f4d6c157238b8fd87,657bb317c8798c6608bceb3f,657bb5a5fb8b312e6fc39561,0.0311,0.031200001,0,123,123,98,1,sixfive,,,,,,,,,,,,,,,,,,,,,,,,,,,,,,,,,,,,,,,,,,,,,,,,,,,,,,,,,,,,,,,,,,,,,,,,,,,,,,,,,,,,,,,,,,,,,,,,,,,,,,,,,,,,,,,,,,,,,,,,,,,,,,,,,,,,,,,
,,613e868f4d6c157238b8fd87,2023-12-14_20h11.13.528,kallum_motion_pilot,2023.2.3,Win32,60.97560976,613e868f4d6c157238b8fd87,657bb317c8798c6608bceb3f,657bb5a5fb8b312e6fc39561,0.031300001,0.031300001,0,124,124,156,1,sevenfive,,,,,,,,,,,,,,,,,,,,,,,,,,,,,,,,,,,,,,,,,,,,,,,,,,,,,,,,,,,,,,,,,,,,,,,,,,,,,,,,,,,,,,,,,,,,,,,,,,,,,,,,,,,,,,,,,,,,,,,,,,,,,,,,,,,,,,,
,,613e868f4d6c157238b8fd87,2023-12-14_20h11.13.528,kallum_motion_pilot,2023.2.3,Win32,60.97560976,613e868f4d6c157238b8fd87,657bb317c8798c6608bceb3f,657bb5a5fb8b312e6fc39561,0.0316,0.0316,0,125,125,52,1,threeone,,,,,,,,,,,,,,,,,,,,,,,,,,,,,,,,,,,,,,,,,,,,,,,,,,,,,,,,,,,,,,,,,,,,,,,,,,,,,,,,,,,,,,,,,,,,,,,,,,,,,,,,,,,,,,,,,,,,,,,,,,,,,,,,,,,,,,,
,,613e868f4d6c157238b8fd87,2023-12-14_20h11.13.528,kallum_motion_pilot,2023.2.3,Win32,60.97560976,613e868f4d6c157238b8fd87,657bb317c8798c6608bceb3f,657bb5a5fb8b312e6fc39561,0.031800001,0.0319,0,126,126,47,1,fourthree,,,,,,,,,,,,,,,,,,,,,,,,,,,,,,,,,,,,,,,,,,,,,,,,,,,,,,,,,,,,,,,,,,,,,,,,,,,,,,,,,,,,,,,,,,,,,,,,,,,,,,,,,,,,,,,,,,,,,,,,,,,,,,,,,,,,,,,
,,613e868f4d6c157238b8fd87,2023-12-14_20h11.13.528,kallum_motion_pilot,2023.2.3,Win32,60.97560976,613e868f4d6c157238b8fd87,657bb317c8798c6608bceb3f,657bb5a5fb8b312e6fc39561,0.0321,0.032300001,0,127,127,23,1,fourthree,,,,,,,,,,,,,,,,,,,,,,,,,,,,,,,,,,,,,,,,,,,,,,,,,,,,,,,,,,,,,,,,,,,,,,,,,,,,,,,,,,,,,,,,,,,,,,,,,,,,,,,,,,,,,,,,,,,,,,,,,,,,,,,,,,,,,,,
,,613e868f4d6c157238b8fd87,2023-12-14_20h11.13.528,kallum_motion_pilot,2023.2.3,Win32,60.97560976,613e868f4d6c157238b8fd87,657bb317c8798c6608bceb3f,657bb5a5fb8b312e6fc39561,0.0324,0.0325,0,128,128,129,1,fiveseven,,,,,,,,,,,,,,,,,,,,,,,,,,,,,,,,,,,,,,,,,,,,,,,,,,,,,,,,,,,,,,,,,,,,,,,,,,,,,,,,,,,,,,,,,,,,,,,,,,,,,,,,,,,,,,,,,,,,,,,,,,,,,,,,,,,,,,,
,,613e868f4d6c157238b8fd87,2023-12-14_20h11.13.528,kallum_motion_pilot,2023.2.3,Win32,60.97560976,613e868f4d6c157238b8fd87,657bb317c8798c6608bceb3f,657bb5a5fb8b312e6fc39561,0.0325,0.0326,0,129,129,83,1,sixeight,,,,,,,,,,,,,,,,,,,,,,,,,,,,,,,,,,,,,,,,,,,,,,,,,,,,,,,,,,,,,,,,,,,,,,,,,,,,,,,,,,,,,,,,,,,,,,,,,,,,,,,,,,,,,,,,,,,,,,,,,,,,,,,,,,,,,,,
,,613e868f4d6c157238b8fd87,2023-12-14_20h11.13.528,kallum_motion_pilot,2023.2.3,Win32,60.97560976,613e868f4d6c157238b8fd87,657bb317c8798c6608bceb3f,657bb5a5fb8b312e6fc39561,0.032700001,0.032800001,0,130,130,3,1,twofour,,,,,,,,,,,,,,,,,,,,,,,,,,,,,,,,,,,,,,,,,,,,,,,,,,,,,,,,,,,,,,,,,,,,,,,,,,,,,,,,,,,,,,,,,,,,,,,,,,,,,,,,,,,,,,,,,,,,,,,,,,,,,,,,,,,,,,,
,,613e868f4d6c157238b8fd87,2023-12-14_20h11.13.528,kallum_motion_pilot,2023.2.3,Win32,60.97560976,613e868f4d6c157238b8fd87,657bb317c8798c6608bceb3f,657bb5a5fb8b312e6fc39561,0.032800001,0.0329,0,131,131,10,1,twoone,,,,,,,,,,,,,,,,,,,,,,,,,,,,,,,,,,,,,,,,,,,,,,,,,,,,,,,,,,,,,,,,,,,,,,,,,,,,,,,,,,,,,,,,,,,,,,,,,,,,,,,,,,,,,,,,,,,,,,,,,,,,,,,,,,,,,,,
,,613e868f4d6c157238b8fd87,2023-12-14_20h11.13.528,kallum_motion_pilot,2023.2.3,Win32,60.97560976,613e868f4d6c157238b8fd87,657bb317c8798c6608bceb3f,657bb5a5fb8b312e6fc39561,0.033,0.033,0,132,132,17,1,onethree,,,,,,,,,,,,,,,,,,,,,,,,,,,,,,,,,,,,,,,,,,,,,,,,,,,,,,,,,,,,,,,,,,,,,,,,,,,,,,,,,,,,,,,,,,,,,,,,,,,,,,,,,,,,,,,,,,,,,,,,,,,,,,,,,,,,,,,
,,613e868f4d6c157238b8fd87,2023-12-14_20h11.13.528,kallum_motion_pilot,2023.2.3,Win32,60.97560976,613e868f4d6c157238b8fd87,657bb317c8798c6608bceb3f,657bb5a5fb8b312e6fc39561,0.033,0.0331,0,133,133,114,1,sixfive,,,,,,,,,,,,,,,,,,,,,,,,,,,,,,,,,,,,,,,,,,,,,,,,,,,,,,,,,,,,,,,,,,,,,,,,,,,,,,,,,,,,,,,,,,,,,,,,,,,,,,,,,,,,,,,,,,,,,,,,,,,,,,,,,,,,,,,
,,613e868f4d6c157238b8fd87,2023-12-14_20h11.13.528,kallum_motion_pilot,2023.2.3,Win32,60.97560976,613e868f4d6c157238b8fd87,657bb317c8798c6608bceb3f,657bb5a5fb8b312e6fc39561,0.033300001,0.033300001,0,134,134,40,1,onetwo,,,,,,,,,,,,,,,,,,,,,,,,,,,,,,,,,,,,,,,,,,,,,,,,,,,,,,,,,,,,,,,,,,,,,,,,,,,,,,,,,,,,,,,,,,,,,,,,,,,,,,,,,,,,,,,,,,,,,,,,,,,,,,,,,,,,,,,
,,613e868f4d6c157238b8fd87,2023-12-14_20h11.13.528,kallum_motion_pilot,2023.2.3,Win32,60.97560976,613e868f4d6c157238b8fd87,657bb317c8798c6608bceb3f,657bb5a5fb8b312e6fc39561,0.033300001,0.0334,0,135,135,117,1,seveneight,,,,,,,,,,,,,,,,,,,,,,,,,,,,,,,,,,,,,,,,,,,,,,,,,,,,,,,,,,,,,,,,,,,,,,,,,,,,,,,,,,,,,,,,,,,,,,,,,,,,,,,,,,,,,,,,,,,,,,,,,,,,,,,,,,,,,,,
,,613e868f4d6c157238b8fd87,2023-12-14_20h11.13.528,kallum_motion_pilot,2023.2.3,Win32,60.97560976,613e868f4d6c157238b8fd87,657bb317c8798c6608bceb3f,657bb5a5fb8b312e6fc39561,0.0334,0.0335,0,136,136,119,1,eightseven,,,,,,,,,,,,,,,,,,,,,,,,,,,,,,,,,,,,,,,,,,,,,,,,,,,,,,,,,,,,,,,,,,,,,,,,,,,,,,,,,,,,,,,,,,,,,,,,,,,,,,,,,,,,,,,,,,,,,,,,,,,,,,,,,,,,,,,
,,613e868f4d6c157238b8fd87,2023-12-14_20h11.13.528,kallum_motion_pilot,2023.2.3,Win32,60.97560976,613e868f4d6c157238b8fd87,657bb317c8798c6608bceb3f,657bb5a5fb8b312e6fc39561,0.0335,0.0335,0,137,137,5,1,threefour,,,,,,,,,,,,,,,,,,,,,,,,,,,,,,,,,,,,,,,,,,,,,,,,,,,,,,,,,,,,,,,,,,,,,,,,,,,,,,,,,,,,,,,,,,,,,,,,,,,,,,,,,,,,,,,,,,,,,,,,,,,,,,,,,,,,,,,
,,613e868f4d6c157238b8fd87,2023-12-14_20h11.13.528,kallum_motion_pilot,2023.2.3,Win32,60.97560976,613e868f4d6c157238b8fd87,657bb317c8798c6608bceb3f,657bb5a5fb8b312e6fc39561,0.0336,0.033700001,0,138,138,37,1,threefour,,,,,,,,,,,,,,,,,,,,,,,,,,,,,,,,,,,,,,,,,,,,,,,,,,,,,,,,,,,,,,,,,,,,,,,,,,,,,,,,,,,,,,,,,,,,,,,,,,,,,,,,,,,,,,,,,,,,,,,,,,,,,,,,,,,,,,,
,,613e868f4d6c157238b8fd87,2023-12-14_20h11.13.528,kallum_motion_pilot,2023.2.3,Win32,60.97560976,613e868f4d6c157238b8fd87,657bb317c8798c6608bceb3f,657bb5a5fb8b312e6fc39561,0.033700001,0.033700001,0,139,139,20,1,threeone,,,,,,,,,,,,,,,,,,,,,,,,,,,,,,,,,,,,,,,,,,,,,,,,,,,,,,,,,,,,,,,,,,,,,,,,,,,,,,,,,,,,,,,,,,,,,,,,,,,,,,,,,,,,,,,,,,,,,,,,,,,,,,,,,,,,,,,
,,613e868f4d6c157238b8fd87,2023-12-14_20h11.13.528,kallum_motion_pilot,2023.2.3,Win32,60.97560976,613e868f4d6c157238b8fd87,657bb317c8798c6608bceb3f,657bb5a5fb8b312e6fc39561,0.033800001,0.033800001,0,140,140,133,1,seveneight,,,,,,,,,,,,,,,,,,,,,,,,,,,,,,,,,,,,,,,,,,,,,,,,,,,,,,,,,,,,,,,,,,,,,,,,,,,,,,,,,,,,,,,,,,,,,,,,,,,,,,,,,,,,,,,,,,,,,,,,,,,,,,,,,,,,,,,
,,613e868f4d6c157238b8fd87,2023-12-14_20h11.13.528,kallum_motion_pilot,2023.2.3,Win32,60.97560976,613e868f4d6c157238b8fd87,657bb317c8798c6608bceb3f,657bb5a5fb8b312e6fc39561,0.033800001,0.0339,0,141,141,49,1,onethree,,,,,,,,,,,,,,,,,,,,,,,,,,,,,,,,,,,,,,,,,,,,,,,,,,,,,,,,,,,,,,,,,,,,,,,,,,,,,,,,,,,,,,,,,,,,,,,,,,,,,,,,,,,,,,,,,,,,,,,,,,,,,,,,,,,,,,,
,,613e868f4d6c157238b8fd87,2023-12-14_20h11.13.528,kallum_motion_pilot,2023.2.3,Win32,60.97560976,613e868f4d6c157238b8fd87,657bb317c8798c6608bceb3f,657bb5a5fb8b312e6fc39561,0.034,0.034,0,142,142,118,1,eightsix,,,,,,,,,,,,,,,,,,,,,,,,,,,,,,,,,,,,,,,,,,,,,,,,,,,,,,,,,,,,,,,,,,,,,,,,,,,,,,,,,,,,,,,,,,,,,,,,,,,,,,,,,,,,,,,,,,,,,,,,,,,,,,,,,,,,,,,
,,613e868f4d6c157238b8fd87,2023-12-14_20h11.13.528,kallum_motion_pilot,2023.2.3,Win32,60.97560976,613e868f4d6c157238b8fd87,657bb317c8798c6608bceb3f,657bb5a5fb8b312e6fc39561,0.0341,0.0341,0,143,143,65,1,onethree,,,,,,,,,,,,,,,,,,,,,,,,,,,,,,,,,,,,,,,,,,,,,,,,,,,,,,,,,,,,,,,,,,,,,,,,,,,,,,,,,,,,,,,,,,,,,,,,,,,,,,,,,,,,,,,,,,,,,,,,,,,,,,,,,,,,,,,
,,613e868f4d6c157238b8fd87,2023-12-14_20h11.13.528,kallum_motion_pilot,2023.2.3,Win32,60.97560976,613e868f4d6c157238b8fd87,657bb317c8798c6608bceb3f,657bb5a5fb8b312e6fc39561,0.0341,0.034200001,0,144,144,79,1,eightseven,,,,,,,,,,,,,,,,,,,,,,,,,,,,,,,,,,,,,,,,,,,,,,,,,,,,,,,,,,,,,,,,,,,,,,,,,,,,,,,,,,,,,,,,,,,,,,,,,,,,,,,,,,,,,,,,,,,,,,,,,,,,,,,,,,,,,,,
,,613e868f4d6c157238b8fd87,2023-12-14_20h11.13.528,kallum_motion_pilot,2023.2.3,Win32,60.97560976,613e868f4d6c157238b8fd87,657bb317c8798c6608bceb3f,657bb5a5fb8b312e6fc39561,0.0346,0.0346,0,145,145,28,1,threeone,,,,,,,,,,,,,,,,,,,,,,,,,,,,,,,,,,,,,,,,,,,,,,,,,,,,,,,,,,,,,,,,,,,,,,,,,,,,,,,,,,,,,,,,,,,,,,,,,,,,,,,,,,,,,,,,,,,,,,,,,,,,,,,,,,,,,,,
,,613e868f4d6c157238b8fd87,2023-12-14_20h11.13.528,kallum_motion_pilot,2023.2.3,Win32,60.97560976,613e868f4d6c157238b8fd87,657bb317c8798c6608bceb3f,657bb5a5fb8b312e6fc39561,0.034800001,0.034800001,0,146,146,92,1,sevenfive,,,,,,,,,,,,,,,,,,,,,,,,,,,,,,,,,,,,,,,,,,,,,,,,,,,,,,,,,,,,,,,,,,,,,,,,,,,,,,,,,,,,,,,,,,,,,,,,,,,,,,,,,,,,,,,,,,,,,,,,,,,,,,,,,,,,,,,
,,613e868f4d6c157238b8fd87,2023-12-14_20h11.13.528,kallum_motion_pilot,2023.2.3,Win32,60.97560976,613e868f4d6c157238b8fd87,657bb317c8798c6608bceb3f,657bb5a5fb8b312e6fc39561,0.034800001,0.034800001,0,147,147,14,1,fourtwo,,,,,,,,,,,,,,,,,,,,,,,,,,,,,,,,,,,,,,,,,,,,,,,,,,,,,,,,,,,,,,,,,,,,,,,,,,,,,,,,,,,,,,,,,,,,,,,,,,,,,,,,,,,,,,,,,,,,,,,,,,,,,,,,,,,,,,,
,,613e868f4d6c157238b8fd87,2023-12-14_20h11.13.528,kallum_motion_pilot,2023.2.3,Win32,60.97560976,613e868f4d6c157238b8fd87,657bb317c8798c6608bceb3f,657bb5a5fb8b312e6fc39561,0.0349,0.0349,0,148,148,30,1,fourtwo,,,,,,,,,,,,,,,,,,,,,,,,,,,,,,,,,,,,,,,,,,,,,,,,,,,,,,,,,,,,,,,,,,,,,,,,,,,,,,,,,,,,,,,,,,,,,,,,,,,,,,,,,,,,,,,,,,,,,,,,,,,,,,,,,,,,,,,
,,613e868f4d6c157238b8fd87,2023-12-14_20h11.13.528,kallum_motion_pilot,2023.2.3,Win32,60.97560976,613e868f4d6c157238b8fd87,657bb317c8798c6608bceb3f,657bb5a5fb8b312e6fc39561,0.035,0.0351,0,149,149,110,1,eightsix,,,,,,,,,,,,,,,,,,,,,,,,,,,,,,,,,,,,,,,,,,,,,,,,,,,,,,,,,,,,,,,,,,,,,,,,,,,,,,,,,,,,,,,,,,,,,,,,,,,,,,,,,,,,,,,,,,,,,,,,,,,,,,,,,,,,,,,
,,613e868f4d6c157238b8fd87,2023-12-14_20h11.13.528,kallum_motion_pilot,2023.2.3,Win32,60.97560976,613e868f4d6c157238b8fd87,657bb317c8798c6608bceb3f,657bb5a5fb8b312e6fc39561,0.0351,0.0351,0,150,150,125,1,seveneight,,,,,,,,,,,,,,,,,,,,,,,,,,,,,,,,,,,,,,,,,,,,,,,,,,,,,,,,,,,,,,,,,,,,,,,,,,,,,,,,,,,,,,,,,,,,,,,,,,,,,,,,,,,,,,,,,,,,,,,,,,,,,,,,,,,,,,,
,,613e868f4d6c157238b8fd87,2023-12-14_20h11.13.528,kallum_motion_pilot,2023.2.3,Win32,60.97560976,613e868f4d6c157238b8fd87,657bb317c8798c6608bceb3f,657bb5a5fb8b312e6fc39561,0.0351,0.035200001,0,151,151,80,1,fivesix,,,,,,,,,,,,,,,,,,,,,,,,,,,,,,,,,,,,,,,,,,,,,,,,,,,,,,,,,,,,,,,,,,,,,,,,,,,,,,,,,,,,,,,,,,,,,,,,,,,,,,,,,,,,,,,,,,,,,,,,,,,,,,,,,,,,,,,
,,613e868f4d6c157238b8fd87,2023-12-14_20h11.13.528,kallum_motion_pilot,2023.2.3,Win32,60.97560976,613e868f4d6c157238b8fd87,657bb317c8798c6608bceb3f,657bb5a5fb8b312e6fc39561,0.035300001,0.035300001,0,152,152,41,1,onethree,,,,,,,,,,,,,,,,,,,,,,,,,,,,,,,,,,,,,,,,,,,,,,,,,,,,,,,,,,,,,,,,,,,,,,,,,,,,,,,,,,,,,,,,,,,,,,,,,,,,,,,,,,,,,,,,,,,,,,,,,,,,,,,,,,,,,,,
,,613e868f4d6c157238b8fd87,2023-12-14_20h11.13.528,kallum_motion_pilot,2023.2.3,Win32,60.97560976,613e868f4d6c157238b8fd87,657bb317c8798c6608bceb3f,657bb5a5fb8b312e6fc39561,0.035300001,0.0354,0,153,153,153,1,fiveseven,,,,,,,,,,,,,,,,,,,,,,,,,,,,,,,,,,,,,,,,,,,,,,,,,,,,,,,,,,,,,,,,,,,,,,,,,,,,,,,,,,,,,,,,,,,,,,,,,,,,,,,,,,,,,,,,,,,,,,,,,,,,,,,,,,,,,,,
,,613e868f4d6c157238b8fd87,2023-12-14_20h11.13.528,kallum_motion_pilot,2023.2.3,Win32,60.97560976,613e868f4d6c157238b8fd87,657bb317c8798c6608bceb3f,657bb5a5fb8b312e6fc39561,0.0355,0.0355,0,154,154,131,1,sixeight,,,,,,,,,,,,,,,,,,,,,,,,,,,,,,,,,,,,,,,,,,,,,,,,,,,,,,,,,,,,,,,,,,,,,,,,,,,,,,,,,,,,,,,,,,,,,,,,,,,,,,,,,,,,,,,,,,,,,,,,,,,,,,,,,,,,,,,
,,613e868f4d6c157238b8fd87,2023-12-14_20h11.13.528,kallum_motion_pilot,2023.2.3,Win32,60.97560976,613e868f4d6c157238b8fd87,657bb317c8798c6608bceb3f,657bb5a5fb8b312e6fc39561,0.0355,0.0355,0,155,155,34,1,twoone,,,,,,,,,,,,,,,,,,,,,,,,,,,,,,,,,,,,,,,,,,,,,,,,,,,,,,,,,,,,,,,,,,,,,,,,,,,,,,,,,,,,,,,,,,,,,,,,,,,,,,,,,,,,,,,,,,,,,,,,,,,,,,,,,,,,,,,
,,613e868f4d6c157238b8fd87,2023-12-14_20h11.13.528,kallum_motion_pilot,2023.2.3,Win32,60.97560976,613e868f4d6c157238b8fd87,657bb317c8798c6608bceb3f,657bb5a5fb8b312e6fc39561,0.0356,0.035700001,0,156,156,39,1,fourthree,,,,,,,,,,,,,,,,,,,,,,,,,,,,,,,,,,,,,,,,,,,,,,,,,,,,,,,,,,,,,,,,,,,,,,,,,,,,,,,,,,,,,,,,,,,,,,,,,,,,,,,,,,,,,,,,,,,,,,,,,,,,,,,,,,,,,,,
,,613e868f4d6c157238b8fd87,2023-12-14_20h11.13.528,kallum_motion_pilot,2023.2.3,Win32,60.97560976,613e868f4d6c157238b8fd87,657bb317c8798c6608bceb3f,657bb5a5fb8b312e6fc39561,0.035700001,0.035800001,0,157,157,105,1,fiveseven,,,,,,,,,,,,,,,,,,,,,,,,,,,,,,,,,,,,,,,,,,,,,,,,,,,,,,,,,,,,,,,,,,,,,,,,,,,,,,,,,,,,,,,,,,,,,,,,,,,,,,,,,,,,,,,,,,,,,,,,,,,,,,,,,,,,,,,
,,613e868f4d6c157238b8fd87,2023-12-14_20h11.13.528,kallum_motion_pilot,2023.2.3,Win32,60.97560976,613e868f4d6c157238b8fd87,657bb317c8798c6608bceb3f,657bb5a5fb8b312e6fc39561,0.035800001,0.035800001,0,158,158,11,1,twofour,,,,,,,,,,,,,,,,,,,,,,,,,,,,,,,,,,,,,,,,,,,,,,,,,,,,,,,,,,,,,,,,,,,,,,,,,,,,,,,,,,,,,,,,,,,,,,,,,,,,,,,,,,,,,,,,,,,,,,,,,,,,,,,,,,,,,,,
,,613e868f4d6c157238b8fd87,2023-12-14_20h11.13.528,kallum_motion_pilot,2023.2.3,Win32,60.97560976,613e868f4d6c157238b8fd87,657bb317c8798c6608bceb3f,657bb5a5fb8b312e6fc39561,0.0359,0.036,0,159,159,150,1,eightsix,,,,,,,,,,,,,,,,,,,,,,,,,,,,,,,,,,,,,,,,,,,,,,,,,,,,,,,,,,,,,,,,,,,,,,,,,,,,,,,,,,,,,,,,,,,,,,,,,,,,,,,,,,,,,,,,,,,,,,,,,,,,,,,,,,,,,,,
,,613e868f4d6c157238b8fd87,2023-12-14_20h11.13.528,kallum_motion_pilot,2023.2.3,Win32,60.97560976,613e868f4d6c157238b8fd87,657bb317c8798c6608bceb3f,657bb5a5fb8b312e6fc39561,0.036,0.0361,0,160,160,7,1,fourthree,,,,,,,,,,,,,,,,,,,,,,,,,,,,,,,,,,,,,,,,,,,,,,,,,,,,,,,,,,,,,,,,,,,,,,,,,,,,,,,,,,,,,,,,,,,,,,,,,,,,,,,,,,,,,,,,,,,,,,,,,,,,,,,,,,,,,,,
,,613e868f4d6c157238b8fd87,2023-12-14_20h11.13.528,kallum_motion_pilot,2023.2.3,Win32,60.97560976,613e868f4d6c157238b8fd87,657bb317c8798c6608bceb3f,657bb5a5fb8b312e6fc39561,0.0361,0.0361,0,161,161,159,1,eightseven,,,,,,,,,,,,,,,,,,,,,,,,,,,,,,,,,,,,,,,,,,,,,,,,,,,,,,,,,,,,,,,,,,,,,,,,,,,,,,,,,,,,,,,,,,,,,,,,,,,,,,,,,,,,,,,,,,,,,,,,,,,,,,,,,,,,,,,
,,613e868f4d6c157238b8fd87,2023-12-14_20h11.13.528,kallum_motion_pilot,2023.2.3,Win32,60.97560976,613e868f4d6c157238b8fd87,657bb317c8798c6608bceb3f,657bb5a5fb8b312e6fc39561,0.036200001,0.036200001,1,0,162,67,1,twofour,,,,,,,,,,,,,,,,,,,,,,,,,,,,,,,,,,,,,,,,,,,,,,,,,,,,,,,,,,,,,,,,,,,,,,,,,,,,,,,,,,,,,,,,,,,,,,,,,,,,,,,,,,,,,,,,,,,,,,,,,,,,,,,,,,,,,,,
,,613e868f4d6c157238b8fd87,2023-12-14_20h11.13.528,kallum_motion_pilot,2023.2.3,Win32,60.97560976,613e868f4d6c157238b8fd87,657bb317c8798c6608bceb3f,657bb5a5fb8b312e6fc39561,0.036300001,0.036300001,1,1,163,22,1,fourtwo,,,,,,,,,,,,,,,,,,,,,,,,,,,,,,,,,,,,,,,,,,,,,,,,,,,,,,,,,,,,,,,,,,,,,,,,,,,,,,,,,,,,,,,,,,,,,,,,,,,,,,,,,,,,,,,,,,,,,,,,,,,,,,,,,,,,,,,
,,613e868f4d6c157238b8fd87,2023-12-14_20h11.13.528,kallum_motion_pilot,2023.2.3,Win32,60.97560976,613e868f4d6c157238b8fd87,657bb317c8798c6608bceb3f,657bb5a5fb8b312e6fc39561,0.036300001,0.0364,1,2,164,31,1,fourthree,,,,,,,,,,,,,,,,,,,,,,,,,,,,,,,,,,,,,,,,,,,,,,,,,,,,,,,,,,,,,,,,,,,,,,,,,,,,,,,,,,,,,,,,,,,,,,,,,,,,,,,,,,,,,,,,,,,,,,,,,,,,,,,,,,,,,,,
,,613e868f4d6c157238b8fd87,2023-12-14_20h11.13.528,kallum_motion_pilot,2023.2.3,Win32,60.97560976,613e868f4d6c157238b8fd87,657bb317c8798c6608bceb3f,657bb5a5fb8b312e6fc39561,0.0365,0.0365,1,3,165,94,1,eightsix,,,,,,,,,,,,,,,,,,,,,,,,,,,,,,,,,,,,,,,,,,,,,,,,,,,,,,,,,,,,,,,,,,,,,,,,,,,,,,,,,,,,,,,,,,,,,,,,,,,,,,,,,,,,,,,,,,,,,,,,,,,,,,,,,,,,,,,
,,613e868f4d6c157238b8fd87,2023-12-14_20h11.13.528,kallum_motion_pilot,2023.2.3,Win32,60.97560976,613e868f4d6c157238b8fd87,657bb317c8798c6608bceb3f,657bb5a5fb8b312e6fc39561,0.0366,0.0366,1,4,166,89,1,fiveseven,,,,,,,,,,,,,,,,,,,,,,,,,,,,,,,,,,,,,,,,,,,,,,,,,,,,,,,,,,,,,,,,,,,,,,,,,,,,,,,,,,,,,,,,,,,,,,,,,,,,,,,,,,,,,,,,,,,,,,,,,,,,,,,,,,,,,,,
,,613e868f4d6c157238b8fd87,2023-12-14_20h11.13.528,kallum_motion_pilot,2023.2.3,Win32,60.97560976,613e868f4d6c157238b8fd87,657bb317c8798c6608bceb3f,657bb5a5fb8b312e6fc39561,0.0366,0.036700001,1,5,167,101,1,seveneight,,,,,,,,,,,,,,,,,,,,,,,,,,,,,,,,,,,,,,,,,,,,,,,,,,,,,,,,,,,,,,,,,,,,,,,,,,,,,,,,,,,,,,,,,,,,,,,,,,,,,,,,,,,,,,,,,,,,,,,,,,,,,,,,,,,,,,,
,,613e868f4d6c157238b8fd87,2023-12-14_20h11.13.528,kallum_motion_pilot,2023.2.3,Win32,60.97560976,613e868f4d6c157238b8fd87,657bb317c8798c6608bceb3f,657bb5a5fb8b312e6fc39561,0.036800001,0.036800001,1,6,168,0,1,onetwo,,,,,,,,,,,,,,,,,,,,,,,,,,,,,,,,,,,,,,,,,,,,,,,,,,,,,,,,,,,,,,,,,,,,,,,,,,,,,,,,,,,,,,,,,,,,,,,,,,,,,,,,,,,,,,,,,,,,,,,,,,,,,,,,,,,,,,,
,,613e868f4d6c157238b8fd87,2023-12-14_20h11.13.528,kallum_motion_pilot,2023.2.3,Win32,60.97560976,613e868f4d6c157238b8fd87,657bb317c8798c6608bceb3f,657bb5a5fb8b312e6fc39561,0.036800001,0.036800001,1,7,169,59,1,twofour,,,,,,,,,,,,,,,,,,,,,,,,,,,,,,,,,,,,,,,,,,,,,,,,,,,,,,,,,,,,,,,,,,,,,,,,,,,,,,,,,,,,,,,,,,,,,,,,,,,,,,,,,,,,,,,,,,,,,,,,,,,,,,,,,,,,,,,
,,613e868f4d6c157238b8fd87,2023-12-14_20h11.13.528,kallum_motion_pilot,2023.2.3,Win32,60.97560976,613e868f4d6c157238b8fd87,657bb317c8798c6608bceb3f,657bb5a5fb8b312e6fc39561,0.0369,0.037,1,8,170,50,1,twoone,,,,,,,,,,,,,,,,,,,,,,,,,,,,,,,,,,,,,,,,,,,,,,,,,,,,,,,,,,,,,,,,,,,,,,,,,,,,,,,,,,,,,,,,,,,,,,,,,,,,,,,,,,,,,,,,,,,,,,,,,,,,,,,,,,,,,,,
,,613e868f4d6c157238b8fd87,2023-12-14_20h11.13.528,kallum_motion_pilot,2023.2.3,Win32,60.97560976,613e868f4d6c157238b8fd87,657bb317c8798c6608bceb3f,657bb5a5fb8b312e6fc39561,0.037,0.037,1,9,171,146,1,sixfive,,,,,,,,,,,,,,,,,,,,,,,,,,,,,,,,,,,,,,,,,,,,,,,,,,,,,,,,,,,,,,,,,,,,,,,,,,,,,,,,,,,,,,,,,,,,,,,,,,,,,,,,,,,,,,,,,,,,,,,,,,,,,,,,,,,,,,,
,,613e868f4d6c157238b8fd87,2023-12-14_20h11.13.528,kallum_motion_pilot,2023.2.3,Win32,60.97560976,613e868f4d6c157238b8fd87,657bb317c8798c6608bceb3f,657bb5a5fb8b312e6fc39561,0.0371,0.0371,1,10,172,26,1,twoone,,,,,,,,,,,,,,,,,,,,,,,,,,,,,,,,,,,,,,,,,,,,,,,,,,,,,,,,,,,,,,,,,,,,,,,,,,,,,,,,,,,,,,,,,,,,,,,,,,,,,,,,,,,,,,,,,,,,,,,,,,,,,,,,,,,,,,,
,,613e868f4d6c157238b8fd87,2023-12-14_20h11.13.528,kallum_motion_pilot,2023.2.3,Win32,60.97560976,613e868f4d6c157238b8fd87,657bb317c8798c6608bceb3f,657bb5a5fb8b312e6fc39561,0.037200001,0.037300001,1,11,173,111,1,eightseven,,,,,,,,,,,,,,,,,,,,,,,,,,,,,,,,,,,,,,,,,,,,,,,,,,,,,,,,,,,,,,,,,,,,,,,,,,,,,,,,,,,,,,,,,,,,,,,,,,,,,,,,,,,,,,,,,,,,,,,,,,,,,,,,,,,,,,,
,,613e868f4d6c157238b8fd87,2023-12-14_20h11.13.528,kallum_motion_pilot,2023.2.3,Win32,60.97560976,613e868f4d6c157238b8fd87,657bb317c8798c6608bceb3f,657bb5a5fb8b312e6fc39561,0.037300001,0.0374,1,12,174,139,1,sixeight,,,,,,,,,,,,,,,,,,,,,,,,,,,,,,,,,,,,,,,,,,,,,,,,,,,,,,,,,,,,,,,,,,,,,,,,,,,,,,,,,,,,,,,,,,,,,,,,,,,,,,,,,,,,,,,,,,,,,,,,,,,,,,,,,,,,,,,
,,613e868f4d6c157238b8fd87,2023-12-14_20h11.13.528,kallum_motion_pilot,2023.2.3,Win32,60.97560976,613e868f4d6c157238b8fd87,657bb317c8798c6608bceb3f,657bb5a5fb8b312e6fc39561,0.0374,0.0374,1,13,175,136,1,fivesix,,,,,,,,,,,,,,,,,,,,,,,,,,,,,,,,,,,,,,,,,,,,,,,,,,,,,,,,,,,,,,,,,,,,,,,,,,,,,,,,,,,,,,,,,,,,,,,,,,,,,,,,,,,,,,,,,,,,,,,,,,,,,,,,,,,,,,,
,,613e868f4d6c157238b8fd87,2023-12-14_20h11.13.528,kallum_motion_pilot,2023.2.3,Win32,60.97560976,613e868f4d6c157238b8fd87,657bb317c8798c6608bceb3f,657bb5a5fb8b312e6fc39561,0.0375,0.0375,1,14,176,87,1,eightseven,,,,,,,,,,,,,,,,,,,,,,,,,,,,,,,,,,,,,,,,,,,,,,,,,,,,,,,,,,,,,,,,,,,,,,,,,,,,,,,,,,,,,,,,,,,,,,,,,,,,,,,,,,,,,,,,,,,,,,,,,,,,,,,,,,,,,,,
,,613e868f4d6c157238b8fd87,2023-12-14_20h11.13.528,kallum_motion_pilot,2023.2.3,Win32,60.97560976,613e868f4d6c157238b8fd87,657bb317c8798c6608bceb3f,657bb5a5fb8b312e6fc39561,0.0375,0.0376,1,15,177,152,1,fivesix,,,,,,,,,,,,,,,,,,,,,,,,,,,,,,,,,,,,,,,,,,,,,,,,,,,,,,,,,,,,,,,,,,,,,,,,,,,,,,,,,,,,,,,,,,,,,,,,,,,,,,,,,,,,,,,,,,,,,,,,,,,,,,,,,,,,,,,
,,613e868f4d6c157238b8fd87,2023-12-14_20h11.13.528,kallum_motion_pilot,2023.2.3,Win32,60.97560976,613e868f4d6c157238b8fd87,657bb317c8798c6608bceb3f,657bb5a5fb8b312e6fc39561,0.037700001,0.037800001,1,16,178,55,1,fourthree,,,,,,,,,,,,,,,,,,,,,,,,,,,,,,,,,,,,,,,,,,,,,,,,,,,,,,,,,,,,,,,,,,,,,,,,,,,,,,,,,,,,,,,,,,,,,,,,,,,,,,,,,,,,,,,,,,,,,,,,,,,,,,,,,,,,,,,
,,613e868f4d6c157238b8fd87,2023-12-14_20h11.13.528,kallum_motion_pilot,2023.2.3,Win32,60.97560976,613e868f4d6c157238b8fd87,657bb317c8798c6608bceb3f,657bb5a5fb8b312e6fc39561,0.037800001,0.037800001,1,17,179,127,1,eightseven,,,,,,,,,,,,,,,,,,,,,,,,,,,,,,,,,,,,,,,,,,,,,,,,,,,,,,,,,,,,,,,,,,,,,,,,,,,,,,,,,,,,,,,,,,,,,,,,,,,,,,,,,,,,,,,,,,,,,,,,,,,,,,,,,,,,,,,
,,613e868f4d6c157238b8fd87,2023-12-14_20h11.13.528,kallum_motion_pilot,2023.2.3,Win32,60.97560976,613e868f4d6c157238b8fd87,657bb317c8798c6608bceb3f,657bb5a5fb8b312e6fc39561,0.037800001,0.038,1,18,180,114,1,sixfive,,,,,,,,,,,,,,,,,,,,,,,,,,,,,,,,,,,,,,,,,,,,,,,,,,,,,,,,,,,,,,,,,,,,,,,,,,,,,,,,,,,,,,,,,,,,,,,,,,,,,,,,,,,,,,,,,,,,,,,,,,,,,,,,,,,,,,,
,,613e868f4d6c157238b8fd87,2023-12-14_20h11.13.528,kallum_motion_pilot,2023.2.3,Win32,60.97560976,613e868f4d6c157238b8fd87,657bb317c8798c6608bceb3f,657bb5a5fb8b312e6fc39561,0.038,0.038,1,19,181,158,1,eightsix,,,,,,,,,,,,,,,,,,,,,,,,,,,,,,,,,,,,,,,,,,,,,,,,,,,,,,,,,,,,,,,,,,,,,,,,,,,,,,,,,,,,,,,,,,,,,,,,,,,,,,,,,,,,,,,,,,,,,,,,,,,,,,,,,,,,,,,
,,613e868f4d6c157238b8fd87,2023-12-14_20h11.13.528,kallum_motion_pilot,2023.2.3,Win32,60.97560976,613e868f4d6c157238b8fd87,657bb317c8798c6608bceb3f,657bb5a5fb8b312e6fc39561,0.0381,0.0381,1,20,182,159,1,eightseven,,,,,,,,,,,,,,,,,,,,,,,,,,,,,,,,,,,,,,,,,,,,,,,,,,,,,,,,,,,,,,,,,,,,,,,,,,,,,,,,,,,,,,,,,,,,,,,,,,,,,,,,,,,,,,,,,,,,,,,,,,,,,,,,,,,,,,,
,,613e868f4d6c157238b8fd87,2023-12-14_20h11.13.528,kallum_motion_pilot,2023.2.3,Win32,60.97560976,613e868f4d6c157238b8fd87,657bb317c8798c6608bceb3f,657bb5a5fb8b312e6fc39561,0.0381,0.038200001,1,21,183,40,1,onetwo,,,,,,,,,,,,,,,,,,,,,,,,,,,,,,,,,,,,,,,,,,,,,,,,,,,,,,,,,,,,,,,,,,,,,,,,,,,,,,,,,,,,,,,,,,,,,,,,,,,,,,,,,,,,,,,,,,,,,,,,,,,,,,,,,,,,,,,
,,613e868f4d6c157238b8fd87,2023-12-14_20h11.13.528,kallum_motion_pilot,2023.2.3,Win32,60.97560976,613e868f4d6c157238b8fd87,657bb317c8798c6608bceb3f,657bb5a5fb8b312e6fc39561,0.0384,0.0384,1,22,184,108,1,sevenfive,,,,,,,,,,,,,,,,,,,,,,,,,,,,,,,,,,,,,,,,,,,,,,,,,,,,,,,,,,,,,,,,,,,,,,,,,,,,,,,,,,,,,,,,,,,,,,,,,,,,,,,,,,,,,,,,,,,,,,,,,,,,,,,,,,,,,,,
,,613e868f4d6c157238b8fd87,2023-12-14_20h11.13.528,kallum_motion_pilot,2023.2.3,Win32,60.97560976,613e868f4d6c157238b8fd87,657bb317c8798c6608bceb3f,657bb5a5fb8b312e6fc39561,0.0385,0.0385,1,23,185,62,1,fourtwo,,,,,,,,,,,,,,,,,,,,,,,,,,,,,,,,,,,,,,,,,,,,,,,,,,,,,,,,,,,,,,,,,,,,,,,,,,,,,,,,,,,,,,,,,,,,,,,,,,,,,,,,,,,,,,,,,,,,,,,,,,,,,,,,,,,,,,,
,,613e868f4d6c157238b8fd87,2023-12-14_20h11.13.528,kallum_motion_pilot,2023.2.3,Win32,60.97560976,613e868f4d6c157238b8fd87,657bb317c8798c6608bceb3f,657bb5a5fb8b312e6fc39561,0.0385,0.0386,1,24,186,121,1,fiveseven,,,,,,,,,,,,,,,,,,,,,,,,,,,,,,,,,,,,,,,,,,,,,,,,,,,,,,,,,,,,,,,,,,,,,,,,,,,,,,,,,,,,,,,,,,,,,,,,,,,,,,,,,,,,,,,,,,,,,,,,,,,,,,,,,,,,,,,
,,613e868f4d6c157238b8fd87,2023-12-14_20h11.13.528,kallum_motion_pilot,2023.2.3,Win32,60.97560976,613e868f4d6c157238b8fd87,657bb317c8798c6608bceb3f,657bb5a5fb8b312e6fc39561,0.038700001,0.038800001,1,25,187,157,1,seveneight,,,,,,,,,,,,,,,,,,,,,,,,,,,,,,,,,,,,,,,,,,,,,,,,,,,,,,,,,,,,,,,,,,,,,,,,,,,,,,,,,,,,,,,,,,,,,,,,,,,,,,,,,,,,,,,,,,,,,,,,,,,,,,,,,,,,,,,
,,613e868f4d6c157238b8fd87,2023-12-14_20h11.13.528,kallum_motion_pilot,2023.2.3,Win32,60.97560976,613e868f4d6c157238b8fd87,657bb317c8798c6608bceb3f,657bb5a5fb8b312e6fc39561,0.038800001,0.038800001,1,26,188,21,1,threefour,,,,,,,,,,,,,,,,,,,,,,,,,,,,,,,,,,,,,,,,,,,,,,,,,,,,,,,,,,,,,,,,,,,,,,,,,,,,,,,,,,,,,,,,,,,,,,,,,,,,,,,,,,,,,,,,,,,,,,,,,,,,,,,,,,,,,,,
,,613e868f4d6c157238b8fd87,2023-12-14_20h11.13.528,kallum_motion_pilot,2023.2.3,Win32,60.97560976,613e868f4d6c157238b8fd87,657bb317c8798c6608bceb3f,657bb5a5fb8b312e6fc39561,0.0389,0.0389,1,27,189,147,1,sixeight,,,,,,,,,,,,,,,,,,,,,,,,,,,,,,,,,,,,,,,,,,,,,,,,,,,,,,,,,,,,,,,,,,,,,,,,,,,,,,,,,,,,,,,,,,,,,,,,,,,,,,,,,,,,,,,,,,,,,,,,,,,,,,,,,,,,,,,
,,613e868f4d6c157238b8fd87,2023-12-14_20h11.13.528,kallum_motion_pilot,2023.2.3,Win32,60.97560976,613e868f4d6c157238b8fd87,657bb317c8798c6608bceb3f,657bb5a5fb8b312e6fc39561,0.039,0.039,1,28,190,68,1,threeone,,,,,,,,,,,,,,,,,,,,,,,,,,,,,,,,,,,,,,,,,,,,,,,,,,,,,,,,,,,,,,,,,,,,,,,,,,,,,,,,,,,,,,,,,,,,,,,,,,,,,,,,,,,,,,,,,,,,,,,,,,,,,,,,,,,,,,,
,,613e868f4d6c157238b8fd87,2023-12-14_20h11.13.528,kallum_motion_pilot,2023.2.3,Win32,60.97560976,613e868f4d6c157238b8fd87,657bb317c8798c6608bceb3f,657bb5a5fb8b312e6fc39561,0.0391,0.0391,1,29,191,95,1,eightseven,,,,,,,,,,,,,,,,,,,,,,,,,,,,,,,,,,,,,,,,,,,,,,,,,,,,,,,,,,,,,,,,,,,,,,,,,,,,,,,,,,,,,,,,,,,,,,,,,,,,,,,,,,,,,,,,,,,,,,,,,,,,,,,,,,,,,,,
,,613e868f4d6c157238b8fd87,2023-12-14_20h11.13.528,kallum_motion_pilot,2023.2.3,Win32,60.97560976,613e868f4d6c157238b8fd87,657bb317c8798c6608bceb3f,657bb5a5fb8b312e6fc39561,0.039200001,0.039200001,1,30,192,130,1,sixfive,,,,,,,,,,,,,,,,,,,,,,,,,,,,,,,,,,,,,,,,,,,,,,,,,,,,,,,,,,,,,,,,,,,,,,,,,,,,,,,,,,,,,,,,,,,,,,,,,,,,,,,,,,,,,,,,,,,,,,,,,,,,,,,,,,,,,,,
,,613e868f4d6c157238b8fd87,2023-12-14_20h11.13.528,kallum_motion_pilot,2023.2.3,Win32,60.97560976,613e868f4d6c157238b8fd87,657bb317c8798c6608bceb3f,657bb5a5fb8b312e6fc39561,0.039300001,0.0394,1,31,193,70,1,fourtwo,,,,,,,,,,,,,,,,,,,,,,,,,,,,,,,,,,,,,,,,,,,,,,,,,,,,,,,,,,,,,,,,,,,,,,,,,,,,,,,,,,,,,,,,,,,,,,,,,,,,,,,,,,,,,,,,,,,,,,,,,,,,,,,,,,,,,,,
,,613e868f4d6c157238b8fd87,2023-12-14_20h11.13.528,kallum_motion_pilot,2023.2.3,Win32,60.97560976,613e868f4d6c157238b8fd87,657bb317c8798c6608bceb3f,657bb5a5fb8b312e6fc39561,0.0394,0.0395,1,32,194,30,1,fourtwo,,,,,,,,,,,,,,,,,,,,,,,,,,,,,,,,,,,,,,,,,,,,,,,,,,,,,,,,,,,,,,,,,,,,,,,,,,,,,,,,,,,,,,,,,,,,,,,,,,,,,,,,,,,,,,,,,,,,,,,,,,,,,,,,,,,,,,,
,,613e868f4d6c157238b8fd87,2023-12-14_20h11.13.528,kallum_motion_pilot,2023.2.3,Win32,60.97560976,613e868f4d6c157238b8fd87,657bb317c8798c6608bceb3f,657bb5a5fb8b312e6fc39561,0.0395,0.0395,1,33,195,2,1,twoone,,,,,,,,,,,,,,,,,,,,,,,,,,,,,,,,,,,,,,,,,,,,,,,,,,,,,,,,,,,,,,,,,,,,,,,,,,,,,,,,,,,,,,,,,,,,,,,,,,,,,,,,,,,,,,,,,,,,,,,,,,,,,,,,,,,,,,,
,,613e868f4d6c157238b8fd87,2023-12-14_20h11.13.528,kallum_motion_pilot,2023.2.3,Win32,60.97560976,613e868f4d6c157238b8fd87,657bb317c8798c6608bceb3f,657bb5a5fb8b312e6fc39561,0.0396,0.0396,1,34,196,12,1,threeone,,,,,,,,,,,,,,,,,,,,,,,,,,,,,,,,,,,,,,,,,,,,,,,,,,,,,,,,,,,,,,,,,,,,,,,,,,,,,,,,,,,,,,,,,,,,,,,,,,,,,,,,,,,,,,,,,,,,,,,,,,,,,,,,,,,,,,,
,,613e868f4d6c157238b8fd87,2023-12-14_20h11.13.528,kallum_motion_pilot,2023.2.3,Win32,60.97560976,613e868f4d6c157238b8fd87,657bb317c8798c6608bceb3f,657bb5a5fb8b312e6fc39561,0.039700001,0.039700001,1,35,197,97,1,fiveseven,,,,,,,,,,,,,,,,,,,,,,,,,,,,,,,,,,,,,,,,,,,,,,,,,,,,,,,,,,,,,,,,,,,,,,,,,,,,,,,,,,,,,,,,,,,,,,,,,,,,,,,,,,,,,,,,,,,,,,,,,,,,,,,,,,,,,,,
,,613e868f4d6c157238b8fd87,2023-12-14_20h11.13.528,kallum_motion_pilot,2023.2.3,Win32,60.97560976,613e868f4d6c157238b8fd87,657bb317c8798c6608bceb3f,657bb5a5fb8b312e6fc39561,0.039800001,0.039800001,1,36,198,106,1,sixfive,,,,,,,,,,,,,,,,,,,,,,,,,,,,,,,,,,,,,,,,,,,,,,,,,,,,,,,,,,,,,,,,,,,,,,,,,,,,,,,,,,,,,,,,,,,,,,,,,,,,,,,,,,,,,,,,,,,,,,,,,,,,,,,,,,,,,,,
,,613e868f4d6c157238b8fd87,2023-12-14_20h11.13.528,kallum_motion_pilot,2023.2.3,Win32,60.97560976,613e868f4d6c157238b8fd87,657bb317c8798c6608bceb3f,657bb5a5fb8b312e6fc39561,0.0399,0.0399,1,37,199,128,1,fivesix,,,,,,,,,,,,,,,,,,,,,,,,,,,,,,,,,,,,,,,,,,,,,,,,,,,,,,,,,,,,,,,,,,,,,,,,,,,,,,,,,,,,,,,,,,,,,,,,,,,,,,,,,,,,,,,,,,,,,,,,,,,,,,,,,,,,,,,
,,613e868f4d6c157238b8fd87,2023-12-14_20h11.13.528,kallum_motion_pilot,2023.2.3,Win32,60.97560976,613e868f4d6c157238b8fd87,657bb317c8798c6608bceb3f,657bb5a5fb8b312e6fc39561,0.0399,0.04,1,38,200,24,1,onetwo,,,,,,,,,,,,,,,,,,,,,,,,,,,,,,,,,,,,,,,,,,,,,,,,,,,,,,,,,,,,,,,,,,,,,,,,,,,,,,,,,,,,,,,,,,,,,,,,,,,,,,,,,,,,,,,,,,,,,,,,,,,,,,,,,,,,,,,
,,613e868f4d6c157238b8fd87,2023-12-14_20h11.13.528,kallum_motion_pilot,2023.2.3,Win32,60.97560976,613e868f4d6c157238b8fd87,657bb317c8798c6608bceb3f,657bb5a5fb8b312e6fc39561,0.0401,0.0401,1,39,201,124,1,sevenfive,,,,,,,,,,,,,,,,,,,,,,,,,,,,,,,,,,,,,,,,,,,,,,,,,,,,,,,,,,,,,,,,,,,,,,,,,,,,,,,,,,,,,,,,,,,,,,,,,,,,,,,,,,,,,,,,,,,,,,,,,,,,,,,,,,,,,,,
,,613e868f4d6c157238b8fd87,2023-12-14_20h11.13.528,kallum_motion_pilot,2023.2.3,Win32,60.97560976,613e868f4d6c157238b8fd87,657bb317c8798c6608bceb3f,657bb5a5fb8b312e6fc39561,0.040200001,0.040200001,1,40,202,45,1,threefour,,,,,,,,,,,,,,,,,,,,,,,,,,,,,,,,,,,,,,,,,,,,,,,,,,,,,,,,,,,,,,,,,,,,,,,,,,,,,,,,,,,,,,,,,,,,,,,,,,,,,,,,,,,,,,,,,,,,,,,,,,,,,,,,,,,,,,,
,,613e868f4d6c157238b8fd87,2023-12-14_20h11.13.528,kallum_motion_pilot,2023.2.3,Win32,60.97560976,613e868f4d6c157238b8fd87,657bb317c8798c6608bceb3f,657bb5a5fb8b312e6fc39561,0.040300001,0.0404,1,41,203,84,1,sevenfive,,,,,,,,,,,,,,,,,,,,,,,,,,,,,,,,,,,,,,,,,,,,,,,,,,,,,,,,,,,,,,,,,,,,,,,,,,,,,,,,,,,,,,,,,,,,,,,,,,,,,,,,,,,,,,,,,,,,,,,,,,,,,,,,,,,,,,,
,,613e868f4d6c157238b8fd87,2023-12-14_20h11.13.528,kallum_motion_pilot,2023.2.3,Win32,60.97560976,613e868f4d6c157238b8fd87,657bb317c8798c6608bceb3f,657bb5a5fb8b312e6fc39561,0.0404,0.0405,1,42,204,8,1,onetwo,,,,,,,,,,,,,,,,,,,,,,,,,,,,,,,,,,,,,,,,,,,,,,,,,,,,,,,,,,,,,,,,,,,,,,,,,,,,,,,,,,,,,,,,,,,,,,,,,,,,,,,,,,,,,,,,,,,,,,,,,,,,,,,,,,,,,,,
,,613e868f4d6c157238b8fd87,2023-12-14_20h11.13.528,kallum_motion_pilot,2023.2.3,Win32,60.97560976,613e868f4d6c157238b8fd87,657bb317c8798c6608bceb3f,657bb5a5fb8b312e6fc39561,0.0405,0.0405,1,43,205,144,1,fivesix,,,,,,,,,,,,,,,,,,,,,,,,,,,,,,,,,,,,,,,,,,,,,,,,,,,,,,,,,,,,,,,,,,,,,,,,,,,,,,,,,,,,,,,,,,,,,,,,,,,,,,,,,,,,,,,,,,,,,,,,,,,,,,,,,,,,,,,
,,613e868f4d6c157238b8fd87,2023-12-14_20h11.13.528,kallum_motion_pilot,2023.2.3,Win32,60.97560976,613e868f4d6c157238b8fd87,657bb317c8798c6608bceb3f,657bb5a5fb8b312e6fc39561,0.0406,0.040700001,1,44,206,58,1,twoone,,,,,,,,,,,,,,,,,,,,,,,,,,,,,,,,,,,,,,,,,,,,,,,,,,,,,,,,,,,,,,,,,,,,,,,,,,,,,,,,,,,,,,,,,,,,,,,,,,,,,,,,,,,,,,,,,,,,,,,,,,,,,,,,,,,,,,,
,,613e868f4d6c157238b8fd87,2023-12-14_20h11.13.528,kallum_motion_pilot,2023.2.3,Win32,60.97560976,613e868f4d6c157238b8fd87,657bb317c8798c6608bceb3f,657bb5a5fb8b312e6fc39561,0.040700001,0.040800001,1,45,207,148,1,sevenfive,,,,,,,,,,,,,,,,,,,,,,,,,,,,,,,,,,,,,,,,,,,,,,,,,,,,,,,,,,,,,,,,,,,,,,,,,,,,,,,,,,,,,,,,,,,,,,,,,,,,,,,,,,,,,,,,,,,,,,,,,,,,,,,,,,,,,,,
,,613e868f4d6c157238b8fd87,2023-12-14_20h11.13.528,kallum_motion_pilot,2023.2.3,Win32,60.97560976,613e868f4d6c157238b8fd87,657bb317c8798c6608bceb3f,657bb5a5fb8b312e6fc39561,0.040800001,0.0409,1,46,208,39,1,fourthree,,,,,,,,,,,,,,,,,,,,,,,,,,,,,,,,,,,,,,,,,,,,,,,,,,,,,,,,,,,,,,,,,,,,,,,,,,,,,,,,,,,,,,,,,,,,,,,,,,,,,,,,,,,,,,,,,,,,,,,,,,,,,,,,,,,,,,,
,,613e868f4d6c157238b8fd87,2023-12-14_20h11.13.528,kallum_motion_pilot,2023.2.3,Win32,60.97560976,613e868f4d6c157238b8fd87,657bb317c8798c6608bceb3f,657bb5a5fb8b312e6fc39561,0.0409,0.041,1,47,209,156,1,sevenfive,,,,,,,,,,,,,,,,,,,,,,,,,,,,,,,,,,,,,,,,,,,,,,,,,,,,,,,,,,,,,,,,,,,,,,,,,,,,,,,,,,,,,,,,,,,,,,,,,,,,,,,,,,,,,,,,,,,,,,,,,,,,,,,,,,,,,,,
,,613e868f4d6c157238b8fd87,2023-12-14_20h11.13.528,kallum_motion_pilot,2023.2.3,Win32,60.97560976,613e868f4d6c157238b8fd87,657bb317c8798c6608bceb3f,657bb5a5fb8b312e6fc39561,0.041,0.0411,1,48,210,3,1,twofour,,,,,,,,,,,,,,,,,,,,,,,,,,,,,,,,,,,,,,,,,,,,,,,,,,,,,,,,,,,,,,,,,,,,,,,,,,,,,,,,,,,,,,,,,,,,,,,,,,,,,,,,,,,,,,,,,,,,,,,,,,,,,,,,,,,,,,,
,,613e868f4d6c157238b8fd87,2023-12-14_20h11.13.528,kallum_motion_pilot,2023.2.3,Win32,60.97560976,613e868f4d6c157238b8fd87,657bb317c8798c6608bceb3f,657bb5a5fb8b312e6fc39561,0.0411,0.041200001,1,49,211,17,1,onethree,,,,,,,,,,,,,,,,,,,,,,,,,,,,,,,,,,,,,,,,,,,,,,,,,,,,,,,,,,,,,,,,,,,,,,,,,,,,,,,,,,,,,,,,,,,,,,,,,,,,,,,,,,,,,,,,,,,,,,,,,,,,,,,,,,,,,,,
,,613e868f4d6c157238b8fd87,2023-12-14_20h11.13.528,kallum_motion_pilot,2023.2.3,Win32,60.97560976,613e868f4d6c157238b8fd87,657bb317c8798c6608bceb3f,657bb5a5fb8b312e6fc39561,0.041200001,0.041300001,1,50,212,61,1,threefour,,,,,,,,,,,,,,,,,,,,,,,,,,,,,,,,,,,,,,,,,,,,,,,,,,,,,,,,,,,,,,,,,,,,,,,,,,,,,,,,,,,,,,,,,,,,,,,,,,,,,,,,,,,,,,,,,,,,,,,,,,,,,,,,,,,,,,,
,,613e868f4d6c157238b8fd87,2023-12-14_20h11.13.528,kallum_motion_pilot,2023.2.3,Win32,60.97560976,613e868f4d6c157238b8fd87,657bb317c8798c6608bceb3f,657bb5a5fb8b312e6fc39561,0.041300001,0.0414,1,51,213,135,1,eightseven,,,,,,,,,,,,,,,,,,,,,,,,,,,,,,,,,,,,,,,,,,,,,,,,,,,,,,,,,,,,,,,,,,,,,,,,,,,,,,,,,,,,,,,,,,,,,,,,,,,,,,,,,,,,,,,,,,,,,,,,,,,,,,,,,,,,,,,
,,613e868f4d6c157238b8fd87,2023-12-14_20h11.13.528,kallum_motion_pilot,2023.2.3,Win32,60.97560976,613e868f4d6c157238b8fd87,657bb317c8798c6608bceb3f,657bb5a5fb8b312e6fc39561,0.0414,0.0415,1,52,214,76,1,threeone,,,,,,,,,,,,,,,,,,,,,,,,,,,,,,,,,,,,,,,,,,,,,,,,,,,,,,,,,,,,,,,,,,,,,,,,,,,,,,,,,,,,,,,,,,,,,,,,,,,,,,,,,,,,,,,,,,,,,,,,,,,,,,,,,,,,,,,
,,613e868f4d6c157238b8fd87,2023-12-14_20h11.13.528,kallum_motion_pilot,2023.2.3,Win32,60.97560976,613e868f4d6c157238b8fd87,657bb317c8798c6608bceb3f,657bb5a5fb8b312e6fc39561,0.0415,0.0416,1,53,215,132,1,sevenfive,,,,,,,,,,,,,,,,,,,,,,,,,,,,,,,,,,,,,,,,,,,,,,,,,,,,,,,,,,,,,,,,,,,,,,,,,,,,,,,,,,,,,,,,,,,,,,,,,,,,,,,,,,,,,,,,,,,,,,,,,,,,,,,,,,,,,,,
,,613e868f4d6c157238b8fd87,2023-12-14_20h11.13.528,kallum_motion_pilot,2023.2.3,Win32,60.97560976,613e868f4d6c157238b8fd87,657bb317c8798c6608bceb3f,657bb5a5fb8b312e6fc39561,0.0416,0.0416,1,54,216,129,1,fiveseven,,,,,,,,,,,,,,,,,,,,,,,,,,,,,,,,,,,,,,,,,,,,,,,,,,,,,,,,,,,,,,,,,,,,,,,,,,,,,,,,,,,,,,,,,,,,,,,,,,,,,,,,,,,,,,,,,,,,,,,,,,,,,,,,,,,,,,,
,,613e868f4d6c157238b8fd87,2023-12-14_20h11.13.528,kallum_motion_pilot,2023.2.3,Win32,60.97560976,613e868f4d6c157238b8fd87,657bb317c8798c6608bceb3f,657bb5a5fb8b312e6fc39561,0.041700001,0.041700001,1,55,217,28,1,threeone,,,,,,,,,,,,,,,,,,,,,,,,,,,,,,,,,,,,,,,,,,,,,,,,,,,,,,,,,,,,,,,,,,,,,,,,,,,,,,,,,,,,,,,,,,,,,,,,,,,,,,,,,,,,,,,,,,,,,,,,,,,,,,,,,,,,,,,
,,613e868f4d6c157238b8fd87,2023-12-14_20h11.13.528,kallum_motion_pilot,2023.2.3,Win32,60.97560976,613e868f4d6c157238b8fd87,657bb317c8798c6608bceb3f,657bb5a5fb8b312e6fc39561,0.041800001,0.041800001,1,56,218,123,1,sixeight,,,,,,,,,,,,,,,,,,,,,,,,,,,,,,,,,,,,,,,,,,,,,,,,,,,,,,,,,,,,,,,,,,,,,,,,,,,,,,,,,,,,,,,,,,,,,,,,,,,,,,,,,,,,,,,,,,,,,,,,,,,,,,,,,,,,,,,
,,613e868f4d6c157238b8fd87,2023-12-14_20h11.13.528,kallum_motion_pilot,2023.2.3,Win32,60.97560976,613e868f4d6c157238b8fd87,657bb317c8798c6608bceb3f,657bb5a5fb8b312e6fc39561,0.0419,0.042,1,57,219,66,1,twoone,,,,,,,,,,,,,,,,,,,,,,,,,,,,,,,,,,,,,,,,,,,,,,,,,,,,,,,,,,,,,,,,,,,,,,,,,,,,,,,,,,,,,,,,,,,,,,,,,,,,,,,,,,,,,,,,,,,,,,,,,,,,,,,,,,,,,,,
,,613e868f4d6c157238b8fd87,2023-12-14_20h11.13.528,kallum_motion_pilot,2023.2.3,Win32,60.97560976,613e868f4d6c157238b8fd87,657bb317c8798c6608bceb3f,657bb5a5fb8b312e6fc39561,0.0421,0.0421,1,58,220,83,1,sixeight,,,,,,,,,,,,,,,,,,,,,,,,,,,,,,,,,,,,,,,,,,,,,,,,,,,,,,,,,,,,,,,,,,,,,,,,,,,,,,,,,,,,,,,,,,,,,,,,,,,,,,,,,,,,,,,,,,,,,,,,,,,,,,,,,,,,,,,
,,613e868f4d6c157238b8fd87,2023-12-14_20h11.13.528,kallum_motion_pilot,2023.2.3,Win32,60.97560976,613e868f4d6c157238b8fd87,657bb317c8798c6608bceb3f,657bb5a5fb8b312e6fc39561,0.0421,0.042200001,1,59,221,125,1,seveneight,,,,,,,,,,,,,,,,,,,,,,,,,,,,,,,,,,,,,,,,,,,,,,,,,,,,,,,,,,,,,,,,,,,,,,,,,,,,,,,,,,,,,,,,,,,,,,,,,,,,,,,,,,,,,,,,,,,,,,,,,,,,,,,,,,,,,,,
,,613e868f4d6c157238b8fd87,2023-12-14_20h11.13.528,kallum_motion_pilot,2023.2.3,Win32,60.97560976,613e868f4d6c157238b8fd87,657bb317c8798c6608bceb3f,657bb5a5fb8b312e6fc39561,0.042200001,0.042300001,1,60,222,118,1,eightsix,,,,,,,,,,,,,,,,,,,,,,,,,,,,,,,,,,,,,,,,,,,,,,,,,,,,,,,,,,,,,,,,,,,,,,,,,,,,,,,,,,,,,,,,,,,,,,,,,,,,,,,,,,,,,,,,,,,,,,,,,,,,,,,,,,,,,,,
,,613e868f4d6c157238b8fd87,2023-12-14_20h11.13.528,kallum_motion_pilot,2023.2.3,Win32,60.97560976,613e868f4d6c157238b8fd87,657bb317c8798c6608bceb3f,657bb5a5fb8b312e6fc39561,0.0424,0.0424,1,61,223,100,1,sevenfive,,,,,,,,,,,,,,,,,,,,,,,,,,,,,,,,,,,,,,,,,,,,,,,,,,,,,,,,,,,,,,,,,,,,,,,,,,,,,,,,,,,,,,,,,,,,,,,,,,,,,,,,,,,,,,,,,,,,,,,,,,,,,,,,,,,,,,,
,,613e868f4d6c157238b8fd87,2023-12-14_20h11.13.528,kallum_motion_pilot,2023.2.3,Win32,60.97560976,613e868f4d6c157238b8fd87,657bb317c8798c6608bceb3f,657bb5a5fb8b312e6fc39561,0.0425,0.0426,1,62,224,42,1,twoone,,,,,,,,,,,,,,,,,,,,,,,,,,,,,,,,,,,,,,,,,,,,,,,,,,,,,,,,,,,,,,,,,,,,,,,,,,,,,,,,,,,,,,,,,,,,,,,,,,,,,,,,,,,,,,,,,,,,,,,,,,,,,,,,,,,,,,,
,,613e868f4d6c157238b8fd87,2023-12-14_20h11.13.528,kallum_motion_pilot,2023.2.3,Win32,60.97560976,613e868f4d6c157238b8fd87,657bb317c8798c6608bceb3f,657bb5a5fb8b312e6fc39561,0.0426,0.0426,1,63,225,74,1,twoone,,,,,,,,,,,,,,,,,,,,,,,,,,,,,,,,,,,,,,,,,,,,,,,,,,,,,,,,,,,,,,,,,,,,,,,,,,,,,,,,,,,,,,,,,,,,,,,,,,,,,,,,,,,,,,,,,,,,,,,,,,,,,,,,,,,,,,,
,,613e868f4d6c157238b8fd87,2023-12-14_20h11.13.528,kallum_motion_pilot,2023.2.3,Win32,60.97560976,613e868f4d6c157238b8fd87,657bb317c8798c6608bceb3f,657bb5a5fb8b312e6fc39561,0.042800001,0.042800001,1,64,226,48,1,onetwo,,,,,,,,,,,,,,,,,,,,,,,,,,,,,,,,,,,,,,,,,,,,,,,,,,,,,,,,,,,,,,,,,,,,,,,,,,,,,,,,,,,,,,,,,,,,,,,,,,,,,,,,,,,,,,,,,,,,,,,,,,,,,,,,,,,,,,,
,,613e868f4d6c157238b8fd87,2023-12-14_20h11.13.528,kallum_motion_pilot,2023.2.3,Win32,60.97560976,613e868f4d6c157238b8fd87,657bb317c8798c6608bceb3f,657bb5a5fb8b312e6fc39561,0.042800001,0.0429,1,65,227,73,1,onethree,,,,,,,,,,,,,,,,,,,,,,,,,,,,,,,,,,,,,,,,,,,,,,,,,,,,,,,,,,,,,,,,,,,,,,,,,,,,,,,,,,,,,,,,,,,,,,,,,,,,,,,,,,,,,,,,,,,,,,,,,,,,,,,,,,,,,,,
,,613e868f4d6c157238b8fd87,2023-12-14_20h11.13.528,kallum_motion_pilot,2023.2.3,Win32,60.97560976,613e868f4d6c157238b8fd87,657bb317c8798c6608bceb3f,657bb5a5fb8b312e6fc39561,0.0429,0.043,1,66,228,109,1,seveneight,,,,,,,,,,,,,,,,,,,,,,,,,,,,,,,,,,,,,,,,,,,,,,,,,,,,,,,,,,,,,,,,,,,,,,,,,,,,,,,,,,,,,,,,,,,,,,,,,,,,,,,,,,,,,,,,,,,,,,,,,,,,,,,,,,,,,,,
,,613e868f4d6c157238b8fd87,2023-12-14_20h11.13.528,kallum_motion_pilot,2023.2.3,Win32,60.97560976,613e868f4d6c157238b8fd87,657bb317c8798c6608bceb3f,657bb5a5fb8b312e6fc39561,0.043,0.0431,1,67,229,117,1,seveneight,,,,,,,,,,,,,,,,,,,,,,,,,,,,,,,,,,,,,,,,,,,,,,,,,,,,,,,,,,,,,,,,,,,,,,,,,,,,,,,,,,,,,,,,,,,,,,,,,,,,,,,,,,,,,,,,,,,,,,,,,,,,,,,,,,,,,,,
,,613e868f4d6c157238b8fd87,2023-12-14_20h11.13.528,kallum_motion_pilot,2023.2.3,Win32,60.97560976,613e868f4d6c157238b8fd87,657bb317c8798c6608bceb3f,657bb5a5fb8b312e6fc39561,0.043200001,0.043200001,1,68,230,27,1,twofour,,,,,,,,,,,,,,,,,,,,,,,,,,,,,,,,,,,,,,,,,,,,,,,,,,,,,,,,,,,,,,,,,,,,,,,,,,,,,,,,,,,,,,,,,,,,,,,,,,,,,,,,,,,,,,,,,,,,,,,,,,,,,,,,,,,,,,,
,,613e868f4d6c157238b8fd87,2023-12-14_20h11.13.528,kallum_motion_pilot,2023.2.3,Win32,60.97560976,613e868f4d6c157238b8fd87,657bb317c8798c6608bceb3f,657bb5a5fb8b312e6fc39561,0.043300001,0.043300001,1,69,231,153,1,fiveseven,,,,,,,,,,,,,,,,,,,,,,,,,,,,,,,,,,,,,,,,,,,,,,,,,,,,,,,,,,,,,,,,,,,,,,,,,,,,,,,,,,,,,,,,,,,,,,,,,,,,,,,,,,,,,,,,,,,,,,,,,,,,,,,,,,,,,,,
,,613e868f4d6c157238b8fd87,2023-12-14_20h11.13.528,kallum_motion_pilot,2023.2.3,Win32,60.97560976,613e868f4d6c157238b8fd87,657bb317c8798c6608bceb3f,657bb5a5fb8b312e6fc39561,0.0434,0.0434,1,70,232,15,1,fourthree,,,,,,,,,,,,,,,,,,,,,,,,,,,,,,,,,,,,,,,,,,,,,,,,,,,,,,,,,,,,,,,,,,,,,,,,,,,,,,,,,,,,,,,,,,,,,,,,,,,,,,,,,,,,,,,,,,,,,,,,,,,,,,,,,,,,,,,
,,613e868f4d6c157238b8fd87,2023-12-14_20h11.13.528,kallum_motion_pilot,2023.2.3,Win32,60.97560976,613e868f4d6c157238b8fd87,657bb317c8798c6608bceb3f,657bb5a5fb8b312e6fc39561,0.0434,0.0435,1,71,233,134,1,eightsix,,,,,,,,,,,,,,,,,,,,,,,,,,,,,,,,,,,,,,,,,,,,,,,,,,,,,,,,,,,,,,,,,,,,,,,,,,,,,,,,,,,,,,,,,,,,,,,,,,,,,,,,,,,,,,,,,,,,,,,,,,,,,,,,,,,,,,,
,,613e868f4d6c157238b8fd87,2023-12-14_20h11.13.528,kallum_motion_pilot,2023.2.3,Win32,60.97560976,613e868f4d6c157238b8fd87,657bb317c8798c6608bceb3f,657bb5a5fb8b312e6fc39561,0.0435,0.0436,1,72,234,119,1,eightseven,,,,,,,,,,,,,,,,,,,,,,,,,,,,,,,,,,,,,,,,,,,,,,,,,,,,,,,,,,,,,,,,,,,,,,,,,,,,,,,,,,,,,,,,,,,,,,,,,,,,,,,,,,,,,,,,,,,,,,,,,,,,,,,,,,,,,,,
,,613e868f4d6c157238b8fd87,2023-12-14_20h11.13.528,kallum_motion_pilot,2023.2.3,Win32,60.97560976,613e868f4d6c157238b8fd87,657bb317c8798c6608bceb3f,657bb5a5fb8b312e6fc39561,0.043700001,0.043700001,1,73,235,104,1,fivesix,,,,,,,,,,,,,,,,,,,,,,,,,,,,,,,,,,,,,,,,,,,,,,,,,,,,,,,,,,,,,,,,,,,,,,,,,,,,,,,,,,,,,,,,,,,,,,,,,,,,,,,,,,,,,,,,,,,,,,,,,,,,,,,,,,,,,,,
,,613e868f4d6c157238b8fd87,2023-12-14_20h11.13.528,kallum_motion_pilot,2023.2.3,Win32,60.97560976,613e868f4d6c157238b8fd87,657bb317c8798c6608bceb3f,657bb5a5fb8b312e6fc39561,0.043800001,0.0439,1,74,236,14,1,fourtwo,,,,,,,,,,,,,,,,,,,,,,,,,,,,,,,,,,,,,,,,,,,,,,,,,,,,,,,,,,,,,,,,,,,,,,,,,,,,,,,,,,,,,,,,,,,,,,,,,,,,,,,,,,,,,,,,,,,,,,,,,,,,,,,,,,,,,,,
,,613e868f4d6c157238b8fd87,2023-12-14_20h11.13.528,kallum_motion_pilot,2023.2.3,Win32,60.97560976,613e868f4d6c157238b8fd87,657bb317c8798c6608bceb3f,657bb5a5fb8b312e6fc39561,0.0439,0.0439,1,75,237,18,1,twoone,,,,,,,,,,,,,,,,,,,,,,,,,,,,,,,,,,,,,,,,,,,,,,,,,,,,,,,,,,,,,,,,,,,,,,,,,,,,,,,,,,,,,,,,,,,,,,,,,,,,,,,,,,,,,,,,,,,,,,,,,,,,,,,,,,,,,,,
,,613e868f4d6c157238b8fd87,2023-12-14_20h11.13.528,kallum_motion_pilot,2023.2.3,Win32,60.97560976,613e868f4d6c157238b8fd87,657bb317c8798c6608bceb3f,657bb5a5fb8b312e6fc39561,0.044,0.044,1,76,238,82,1,sixfive,,,,,,,,,,,,,,,,,,,,,,,,,,,,,,,,,,,,,,,,,,,,,,,,,,,,,,,,,,,,,,,,,,,,,,,,,,,,,,,,,,,,,,,,,,,,,,,,,,,,,,,,,,,,,,,,,,,,,,,,,,,,,,,,,,,,,,,
,,613e868f4d6c157238b8fd87,2023-12-14_20h11.13.528,kallum_motion_pilot,2023.2.3,Win32,60.97560976,613e868f4d6c157238b8fd87,657bb317c8798c6608bceb3f,657bb5a5fb8b312e6fc39561,0.044,0.0441,1,77,239,7,1,fourthree,,,,,,,,,,,,,,,,,,,,,,,,,,,,,,,,,,,,,,,,,,,,,,,,,,,,,,,,,,,,,,,,,,,,,,,,,,,,,,,,,,,,,,,,,,,,,,,,,,,,,,,,,,,,,,,,,,,,,,,,,,,,,,,,,,,,,,,
,,613e868f4d6c157238b8fd87,2023-12-14_20h11.13.528,kallum_motion_pilot,2023.2.3,Win32,60.97560976,613e868f4d6c157238b8fd87,657bb317c8798c6608bceb3f,657bb5a5fb8b312e6fc39561,0.044200001,0.044200001,1,78,240,37,1,threefour,,,,,,,,,,,,,,,,,,,,,,,,,,,,,,,,,,,,,,,,,,,,,,,,,,,,,,,,,,,,,,,,,,,,,,,,,,,,,,,,,,,,,,,,,,,,,,,,,,,,,,,,,,,,,,,,,,,,,,,,,,,,,,,,,,,,,,,
,,613e868f4d6c157238b8fd87,2023-12-14_20h11.13.528,kallum_motion_pilot,2023.2.3,Win32,60.97560976,613e868f4d6c157238b8fd87,657bb317c8798c6608bceb3f,657bb5a5fb8b312e6fc39561,0.044200001,0.044300001,1,79,241,77,1,threefour,,,,,,,,,,,,,,,,,,,,,,,,,,,,,,,,,,,,,,,,,,,,,,,,,,,,,,,,,,,,,,,,,,,,,,,,,,,,,,,,,,,,,,,,,,,,,,,,,,,,,,,,,,,,,,,,,,,,,,,,,,,,,,,,,,,,,,,
,,613e868f4d6c157238b8fd87,2023-12-14_20h11.13.528,kallum_motion_pilot,2023.2.3,Win32,60.97560976,613e868f4d6c157238b8fd87,657bb317c8798c6608bceb3f,657bb5a5fb8b312e6fc39561,0.044300001,0.0444,1,80,242,23,1,fourthree,,,,,,,,,,,,,,,,,,,,,,,,,,,,,,,,,,,,,,,,,,,,,,,,,,,,,,,,,,,,,,,,,,,,,,,,,,,,,,,,,,,,,,,,,,,,,,,,,,,,,,,,,,,,,,,,,,,,,,,,,,,,,,,,,,,,,,,
,,613e868f4d6c157238b8fd87,2023-12-14_20h11.13.528,kallum_motion_pilot,2023.2.3,Win32,60.97560976,613e868f4d6c157238b8fd87,657bb317c8798c6608bceb3f,657bb5a5fb8b312e6fc39561,0.0444,0.0445,1,81,243,29,1,threefour,,,,,,,,,,,,,,,,,,,,,,,,,,,,,,,,,,,,,,,,,,,,,,,,,,,,,,,,,,,,,,,,,,,,,,,,,,,,,,,,,,,,,,,,,,,,,,,,,,,,,,,,,,,,,,,,,,,,,,,,,,,,,,,,,,,,,,,
,,613e868f4d6c157238b8fd87,2023-12-14_20h11.13.528,kallum_motion_pilot,2023.2.3,Win32,60.97560976,613e868f4d6c157238b8fd87,657bb317c8798c6608bceb3f,657bb5a5fb8b312e6fc39561,0.0446,0.044700001,1,82,244,102,1,eightsix,,,,,,,,,,,,,,,,,,,,,,,,,,,,,,,,,,,,,,,,,,,,,,,,,,,,,,,,,,,,,,,,,,,,,,,,,,,,,,,,,,,,,,,,,,,,,,,,,,,,,,,,,,,,,,,,,,,,,,,,,,,,,,,,,,,,,,,
,,613e868f4d6c157238b8fd87,2023-12-14_20h11.13.528,kallum_motion_pilot,2023.2.3,Win32,60.97560976,613e868f4d6c157238b8fd87,657bb317c8798c6608bceb3f,657bb5a5fb8b312e6fc39561,0.044700001,0.044700001,1,83,245,10,1,twoone,,,,,,,,,,,,,,,,,,,,,,,,,,,,,,,,,,,,,,,,,,,,,,,,,,,,,,,,,,,,,,,,,,,,,,,,,,,,,,,,,,,,,,,,,,,,,,,,,,,,,,,,,,,,,,,,,,,,,,,,,,,,,,,,,,,,,,,
,,613e868f4d6c157238b8fd87,2023-12-14_20h11.13.528,kallum_motion_pilot,2023.2.3,Win32,60.97560976,613e868f4d6c157238b8fd87,657bb317c8798c6608bceb3f,657bb5a5fb8b312e6fc39561,0.044800001,0.0449,1,84,246,112,1,fivesix,,,,,,,,,,,,,,,,,,,,,,,,,,,,,,,,,,,,,,,,,,,,,,,,,,,,,,,,,,,,,,,,,,,,,,,,,,,,,,,,,,,,,,,,,,,,,,,,,,,,,,,,,,,,,,,,,,,,,,,,,,,,,,,,,,,,,,,
,,613e868f4d6c157238b8fd87,2023-12-14_20h11.13.528,kallum_motion_pilot,2023.2.3,Win32,60.97560976,613e868f4d6c157238b8fd87,657bb317c8798c6608bceb3f,657bb5a5fb8b312e6fc39561,0.0449,0.0451,1,85,247,113,1,fiveseven,,,,,,,,,,,,,,,,,,,,,,,,,,,,,,,,,,,,,,,,,,,,,,,,,,,,,,,,,,,,,,,,,,,,,,,,,,,,,,,,,,,,,,,,,,,,,,,,,,,,,,,,,,,,,,,,,,,,,,,,,,,,,,,,,,,,,,,
,,613e868f4d6c157238b8fd87,2023-12-14_20h11.13.528,kallum_motion_pilot,2023.2.3,Win32,60.97560976,613e868f4d6c157238b8fd87,657bb317c8798c6608bceb3f,657bb5a5fb8b312e6fc39561,0.045200001,0.045200001,1,86,248,38,1,fourtwo,,,,,,,,,,,,,,,,,,,,,,,,,,,,,,,,,,,,,,,,,,,,,,,,,,,,,,,,,,,,,,,,,,,,,,,,,,,,,,,,,,,,,,,,,,,,,,,,,,,,,,,,,,,,,,,,,,,,,,,,,,,,,,,,,,,,,,,
,,613e868f4d6c157238b8fd87,2023-12-14_20h11.13.528,kallum_motion_pilot,2023.2.3,Win32,60.97560976,613e868f4d6c157238b8fd87,657bb317c8798c6608bceb3f,657bb5a5fb8b312e6fc39561,0.045300001,0.045300001,1,87,249,1,1,onethree,,,,,,,,,,,,,,,,,,,,,,,,,,,,,,,,,,,,,,,,,,,,,,,,,,,,,,,,,,,,,,,,,,,,,,,,,,,,,,,,,,,,,,,,,,,,,,,,,,,,,,,,,,,,,,,,,,,,,,,,,,,,,,,,,,,,,,,
,,613e868f4d6c157238b8fd87,2023-12-14_20h11.13.528,kallum_motion_pilot,2023.2.3,Win32,60.97560976,613e868f4d6c157238b8fd87,657bb317c8798c6608bceb3f,657bb5a5fb8b312e6fc39561,0.0454,0.0455,1,88,250,41,1,onethree,,,,,,,,,,,,,,,,,,,,,,,,,,,,,,,,,,,,,,,,,,,,,,,,,,,,,,,,,,,,,,,,,,,,,,,,,,,,,,,,,,,,,,,,,,,,,,,,,,,,,,,,,,,,,,,,,,,,,,,,,,,,,,,,,,,,,,,
,,613e868f4d6c157238b8fd87,2023-12-14_20h11.13.528,kallum_motion_pilot,2023.2.3,Win32,60.97560976,613e868f4d6c157238b8fd87,657bb317c8798c6608bceb3f,657bb5a5fb8b312e6fc39561,0.0455,0.0455,1,89,251,131,1,sixeight,,,,,,,,,,,,,,,,,,,,,,,,,,,,,,,,,,,,,,,,,,,,,,,,,,,,,,,,,,,,,,,,,,,,,,,,,,,,,,,,,,,,,,,,,,,,,,,,,,,,,,,,,,,,,,,,,,,,,,,,,,,,,,,,,,,,,,,
,,613e868f4d6c157238b8fd87,2023-12-14_20h11.13.528,kallum_motion_pilot,2023.2.3,Win32,60.97560976,613e868f4d6c157238b8fd87,657bb317c8798c6608bceb3f,657bb5a5fb8b312e6fc39561,0.0456,0.0456,1,90,252,96,1,fivesix,,,,,,,,,,,,,,,,,,,,,,,,,,,,,,,,,,,,,,,,,,,,,,,,,,,,,,,,,,,,,,,,,,,,,,,,,,,,,,,,,,,,,,,,,,,,,,,,,,,,,,,,,,,,,,,,,,,,,,,,,,,,,,,,,,,,,,,
,,613e868f4d6c157238b8fd87,2023-12-14_20h11.13.528,kallum_motion_pilot,2023.2.3,Win32,60.97560976,613e868f4d6c157238b8fd87,657bb317c8798c6608bceb3f,657bb5a5fb8b312e6fc39561,0.0456,0.045700001,1,91,253,65,1,onethree,,,,,,,,,,,,,,,,,,,,,,,,,,,,,,,,,,,,,,,,,,,,,,,,,,,,,,,,,,,,,,,,,,,,,,,,,,,,,,,,,,,,,,,,,,,,,,,,,,,,,,,,,,,,,,,,,,,,,,,,,,,,,,,,,,,,,,,
,,613e868f4d6c157238b8fd87,2023-12-14_20h11.13.528,kallum_motion_pilot,2023.2.3,Win32,60.97560976,613e868f4d6c157238b8fd87,657bb317c8798c6608bceb3f,657bb5a5fb8b312e6fc39561,0.045800001,0.0459,1,92,254,154,1,sixfive,,,,,,,,,,,,,,,,,,,,,,,,,,,,,,,,,,,,,,,,,,,,,,,,,,,,,,,,,,,,,,,,,,,,,,,,,,,,,,,,,,,,,,,,,,,,,,,,,,,,,,,,,,,,,,,,,,,,,,,,,,,,,,,,,,,,,,,
,,613e868f4d6c157238b8fd87,2023-12-14_20h11.13.528,kallum_motion_pilot,2023.2.3,Win32,60.97560976,613e868f4d6c157238b8fd87,657bb317c8798c6608bceb3f,657bb5a5fb8b312e6fc39561,0.0459,0.046,1,93,255,36,1,threeone,,,,,,,,,,,,,,,,,,,,,,,,,,,,,,,,,,,,,,,,,,,,,,,,,,,,,,,,,,,,,,,,,,,,,,,,,,,,,,,,,,,,,,,,,,,,,,,,,,,,,,,,,,,,,,,,,,,,,,,,,,,,,,,,,,,,,,,
,,613e868f4d6c157238b8fd87,2023-12-14_20h11.13.528,kallum_motion_pilot,2023.2.3,Win32,60.97560976,613e868f4d6c157238b8fd87,657bb317c8798c6608bceb3f,657bb5a5fb8b312e6fc39561,0.046,0.0461,1,94,256,99,1,sixeight,,,,,,,,,,,,,,,,,,,,,,,,,,,,,,,,,,,,,,,,,,,,,,,,,,,,,,,,,,,,,,,,,,,,,,,,,,,,,,,,,,,,,,,,,,,,,,,,,,,,,,,,,,,,,,,,,,,,,,,,,,,,,,,,,,,,,,,
,,613e868f4d6c157238b8fd87,2023-12-14_20h11.13.528,kallum_motion_pilot,2023.2.3,Win32,60.97560976,613e868f4d6c157238b8fd87,657bb317c8798c6608bceb3f,657bb5a5fb8b312e6fc39561,0.0461,0.046200001,1,95,257,145,1,fiveseven,,,,,,,,,,,,,,,,,,,,,,,,,,,,,,,,,,,,,,,,,,,,,,,,,,,,,,,,,,,,,,,,,,,,,,,,,,,,,,,,,,,,,,,,,,,,,,,,,,,,,,,,,,,,,,,,,,,,,,,,,,,,,,,,,,,,,,,
,,613e868f4d6c157238b8fd87,2023-12-14_20h11.13.528,kallum_motion_pilot,2023.2.3,Win32,60.97560976,613e868f4d6c157238b8fd87,657bb317c8798c6608bceb3f,657bb5a5fb8b312e6fc39561,0.046300001,0.046300001,1,96,258,140,1,sevenfive,,,,,,,,,,,,,,,,,,,,,,,,,,,,,,,,,,,,,,,,,,,,,,,,,,,,,,,,,,,,,,,,,,,,,,,,,,,,,,,,,,,,,,,,,,,,,,,,,,,,,,,,,,,,,,,,,,,,,,,,,,,,,,,,,,,,,,,
,,613e868f4d6c157238b8fd87,2023-12-14_20h11.13.528,kallum_motion_pilot,2023.2.3,Win32,60.97560976,613e868f4d6c157238b8fd87,657bb317c8798c6608bceb3f,657bb5a5fb8b312e6fc39561,0.0464,0.0464,1,97,259,19,1,twofour,,,,,,,,,,,,,,,,,,,,,,,,,,,,,,,,,,,,,,,,,,,,,,,,,,,,,,,,,,,,,,,,,,,,,,,,,,,,,,,,,,,,,,,,,,,,,,,,,,,,,,,,,,,,,,,,,,,,,,,,,,,,,,,,,,,,,,,
,,613e868f4d6c157238b8fd87,2023-12-14_20h11.13.528,kallum_motion_pilot,2023.2.3,Win32,60.97560976,613e868f4d6c157238b8fd87,657bb317c8798c6608bceb3f,657bb5a5fb8b312e6fc39561,0.0465,0.0465,1,98,260,44,1,threeone,,,,,,,,,,,,,,,,,,,,,,,,,,,,,,,,,,,,,,,,,,,,,,,,,,,,,,,,,,,,,,,,,,,,,,,,,,,,,,,,,,,,,,,,,,,,,,,,,,,,,,,,,,,,,,,,,,,,,,,,,,,,,,,,,,,,,,,
,,613e868f4d6c157238b8fd87,2023-12-14_20h11.13.528,kallum_motion_pilot,2023.2.3,Win32,60.97560976,613e868f4d6c157238b8fd87,657bb317c8798c6608bceb3f,657bb5a5fb8b312e6fc39561,0.0466,0.046700001,1,99,261,151,1,eightseven,,,,,,,,,,,,,,,,,,,,,,,,,,,,,,,,,,,,,,,,,,,,,,,,,,,,,,,,,,,,,,,,,,,,,,,,,,,,,,,,,,,,,,,,,,,,,,,,,,,,,,,,,,,,,,,,,,,,,,,,,,,,,,,,,,,,,,,
,,613e868f4d6c157238b8fd87,2023-12-14_20h11.13.528,kallum_motion_pilot,2023.2.3,Win32,60.97560976,613e868f4d6c157238b8fd87,657bb317c8798c6608bceb3f,657bb5a5fb8b312e6fc39561,0.046700001,0.046700001,1,100,262,43,1,twofour,,,,,,,,,,,,,,,,,,,,,,,,,,,,,,,,,,,,,,,,,,,,,,,,,,,,,,,,,,,,,,,,,,,,,,,,,,,,,,,,,,,,,,,,,,,,,,,,,,,,,,,,,,,,,,,,,,,,,,,,,,,,,,,,,,,,,,,
,,613e868f4d6c157238b8fd87,2023-12-14_20h11.13.528,kallum_motion_pilot,2023.2.3,Win32,60.97560976,613e868f4d6c157238b8fd87,657bb317c8798c6608bceb3f,657bb5a5fb8b312e6fc39561,0.046700001,0.046800001,1,101,263,92,1,sevenfive,,,,,,,,,,,,,,,,,,,,,,,,,,,,,,,,,,,,,,,,,,,,,,,,,,,,,,,,,,,,,,,,,,,,,,,,,,,,,,,,,,,,,,,,,,,,,,,,,,,,,,,,,,,,,,,,,,,,,,,,,,,,,,,,,,,,,,,
,,613e868f4d6c157238b8fd87,2023-12-14_20h11.13.528,kallum_motion_pilot,2023.2.3,Win32,60.97560976,613e868f4d6c157238b8fd87,657bb317c8798c6608bceb3f,657bb5a5fb8b312e6fc39561,0.0469,0.0469,1,102,264,53,1,threefour,,,,,,,,,,,,,,,,,,,,,,,,,,,,,,,,,,,,,,,,,,,,,,,,,,,,,,,,,,,,,,,,,,,,,,,,,,,,,,,,,,,,,,,,,,,,,,,,,,,,,,,,,,,,,,,,,,,,,,,,,,,,,,,,,,,,,,,
,,613e868f4d6c157238b8fd87,2023-12-14_20h11.13.528,kallum_motion_pilot,2023.2.3,Win32,60.97560976,613e868f4d6c157238b8fd87,657bb317c8798c6608bceb3f,657bb5a5fb8b312e6fc39561,0.047,0.0471,1,103,265,137,1,fiveseven,,,,,,,,,,,,,,,,,,,,,,,,,,,,,,,,,,,,,,,,,,,,,,,,,,,,,,,,,,,,,,,,,,,,,,,,,,,,,,,,,,,,,,,,,,,,,,,,,,,,,,,,,,,,,,,,,,,,,,,,,,,,,,,,,,,,,,,
,,613e868f4d6c157238b8fd87,2023-12-14_20h11.13.528,kallum_motion_pilot,2023.2.3,Win32,60.97560976,613e868f4d6c157238b8fd87,657bb317c8798c6608bceb3f,657bb5a5fb8b312e6fc39561,0.0471,0.047200001,1,104,266,80,1,fivesix,,,,,,,,,,,,,,,,,,,,,,,,,,,,,,,,,,,,,,,,,,,,,,,,,,,,,,,,,,,,,,,,,,,,,,,,,,,,,,,,,,,,,,,,,,,,,,,,,,,,,,,,,,,,,,,,,,,,,,,,,,,,,,,,,,,,,,,
,,613e868f4d6c157238b8fd87,2023-12-14_20h11.13.528,kallum_motion_pilot,2023.2.3,Win32,60.97560976,613e868f4d6c157238b8fd87,657bb317c8798c6608bceb3f,657bb5a5fb8b312e6fc39561,0.047300001,0.0474,1,105,267,143,1,eightseven,,,,,,,,,,,,,,,,,,,,,,,,,,,,,,,,,,,,,,,,,,,,,,,,,,,,,,,,,,,,,,,,,,,,,,,,,,,,,,,,,,,,,,,,,,,,,,,,,,,,,,,,,,,,,,,,,,,,,,,,,,,,,,,,,,,,,,,
,,613e868f4d6c157238b8fd87,2023-12-14_20h11.13.528,kallum_motion_pilot,2023.2.3,Win32,60.97560976,613e868f4d6c157238b8fd87,657bb317c8798c6608bceb3f,657bb5a5fb8b312e6fc39561,0.0474,0.0474,1,106,268,6,1,fourtwo,,,,,,,,,,,,,,,,,,,,,,,,,,,,,,,,,,,,,,,,,,,,,,,,,,,,,,,,,,,,,,,,,,,,,,,,,,,,,,,,,,,,,,,,,,,,,,,,,,,,,,,,,,,,,,,,,,,,,,,,,,,,,,,,,,,,,,,
,,613e868f4d6c157238b8fd87,2023-12-14_20h11.13.528,kallum_motion_pilot,2023.2.3,Win32,60.97560976,613e868f4d6c157238b8fd87,657bb317c8798c6608bceb3f,657bb5a5fb8b312e6fc39561,0.0475,0.0475,1,107,269,126,1,eightsix,,,,,,,,,,,,,,,,,,,,,,,,,,,,,,,,,,,,,,,,,,,,,,,,,,,,,,,,,,,,,,,,,,,,,,,,,,,,,,,,,,,,,,,,,,,,,,,,,,,,,,,,,,,,,,,,,,,,,,,,,,,,,,,,,,,,,,,
,,613e868f4d6c157238b8fd87,2023-12-14_20h11.13.528,kallum_motion_pilot,2023.2.3,Win32,60.97560976,613e868f4d6c157238b8fd87,657bb317c8798c6608bceb3f,657bb5a5fb8b312e6fc39561,0.0476,0.0476,1,108,270,4,1,threeone,,,,,,,,,,,,,,,,,,,,,,,,,,,,,,,,,,,,,,,,,,,,,,,,,,,,,,,,,,,,,,,,,,,,,,,,,,,,,,,,,,,,,,,,,,,,,,,,,,,,,,,,,,,,,,,,,,,,,,,,,,,,,,,,,,,,,,,
,,613e868f4d6c157238b8fd87,2023-12-14_20h11.13.528,kallum_motion_pilot,2023.2.3,Win32,60.97560976,613e868f4d6c157238b8fd87,657bb317c8798c6608bceb3f,657bb5a5fb8b312e6fc39561,0.047700001,0.047800001,1,109,271,71,1,fourthree,,,,,,,,,,,,,,,,,,,,,,,,,,,,,,,,,,,,,,,,,,,,,,,,,,,,,,,,,,,,,,,,,,,,,,,,,,,,,,,,,,,,,,,,,,,,,,,,,,,,,,,,,,,,,,,,,,,,,,,,,,,,,,,,,,,,,,,
,,613e868f4d6c157238b8fd87,2023-12-14_20h11.13.528,kallum_motion_pilot,2023.2.3,Win32,60.97560976,613e868f4d6c157238b8fd87,657bb317c8798c6608bceb3f,657bb5a5fb8b312e6fc39561,0.047800001,0.0479,1,110,272,103,1,eightseven,,,,,,,,,,,,,,,,,,,,,,,,,,,,,,,,,,,,,,,,,,,,,,,,,,,,,,,,,,,,,,,,,,,,,,,,,,,,,,,,,,,,,,,,,,,,,,,,,,,,,,,,,,,,,,,,,,,,,,,,,,,,,,,,,,,,,,,
,,613e868f4d6c157238b8fd87,2023-12-14_20h11.13.528,kallum_motion_pilot,2023.2.3,Win32,60.97560976,613e868f4d6c157238b8fd87,657bb317c8798c6608bceb3f,657bb5a5fb8b312e6fc39561,0.0479,0.0481,1,111,273,20,1,threeone,,,,,,,,,,,,,,,,,,,,,,,,,,,,,,,,,,,,,,,,,,,,,,,,,,,,,,,,,,,,,,,,,,,,,,,,,,,,,,,,,,,,,,,,,,,,,,,,,,,,,,,,,,,,,,,,,,,,,,,,,,,,,,,,,,,,,,,
,,613e868f4d6c157238b8fd87,2023-12-14_20h11.13.528,kallum_motion_pilot,2023.2.3,Win32,60.97560976,613e868f4d6c157238b8fd87,657bb317c8798c6608bceb3f,657bb5a5fb8b312e6fc39561,0.048200001,0.048300001,1,112,274,91,1,sixeight,,,,,,,,,,,,,,,,,,,,,,,,,,,,,,,,,,,,,,,,,,,,,,,,,,,,,,,,,,,,,,,,,,,,,,,,,,,,,,,,,,,,,,,,,,,,,,,,,,,,,,,,,,,,,,,,,,,,,,,,,,,,,,,,,,,,,,,
,,613e868f4d6c157238b8fd87,2023-12-14_20h11.13.528,kallum_motion_pilot,2023.2.3,Win32,60.97560976,613e868f4d6c157238b8fd87,657bb317c8798c6608bceb3f,657bb5a5fb8b312e6fc39561,0.0485,0.0486,1,113,275,85,1,seveneight,,,,,,,,,,,,,,,,,,,,,,,,,,,,,,,,,,,,,,,,,,,,,,,,,,,,,,,,,,,,,,,,,,,,,,,,,,,,,,,,,,,,,,,,,,,,,,,,,,,,,,,,,,,,,,,,,,,,,,,,,,,,,,,,,,,,,,,
,,613e868f4d6c157238b8fd87,2023-12-14_20h11.13.528,kallum_motion_pilot,2023.2.3,Win32,60.97560976,613e868f4d6c157238b8fd87,657bb317c8798c6608bceb3f,657bb5a5fb8b312e6fc39561,0.048800001,0.048800001,1,114,276,79,1,eightseven,,,,,,,,,,,,,,,,,,,,,,,,,,,,,,,,,,,,,,,,,,,,,,,,,,,,,,,,,,,,,,,,,,,,,,,,,,,,,,,,,,,,,,,,,,,,,,,,,,,,,,,,,,,,,,,,,,,,,,,,,,,,,,,,,,,,,,,
