startup.started,startup.stopped,Prolific ID*,date,expName,psychopyVersion,OS,frameRate,participant,study_id,session,stimpositions.started,stimpositions.stopped,hardcoded_stimulus_positions.thisRepN,hardcoded_stimulus_positions.thisTrialN,hardcoded_stimulus_positions.thisN,hardcoded_stimulus_positions.thisIndex,hardcoded_stimulus_positions.ran,StimulusPos,stimorientation.started,stimorientation.stopped,prac_stimorientation_import_loop.thisRepN,prac_stimorientation_import_loop.thisTrialN,prac_stimorientation_import_loop.thisN,prac_stimorientation_import_loop.thisIndex,prac_stimorientation_import_loop.ran,Stimorientation,welcome_instr.started,welcome_instr.stopped,key_resp.keys,key_resp.rt,key_resp.duration,response_steppedout_1.started,response_steppedout_1.stopped,key_resp_20.keys,key_resp_20.rt,key_resp_20.duration,response_steppedout_2.started,response_steppedout_2.stopped,key_resp_19.keys,key_resp_19.rt,key_resp_19.duration,stim_response_instr.started,stim_response_instr.stopped,key_resp_15.keys,key_resp_15.rt,key_resp_15.duration,direction_instr_2.started,direction_instr_2.stopped,key_resp_9.keys,key_resp_9.rt,key_resp_9.duration,instr_prac.started,instr_prac.stopped,key_resp_10.keys,key_resp_10.rt,key_resp_10.duration,Stim1_display_prac.started,Stim1_display_prac.stopped,Ecc,Circle1_ori,Circle2_ori,response_prac.started,similarity,response_time,response_prac.stopped,mouse_5.x,mouse_5.y,mouse_5.leftButton,mouse_5.midButton,mouse_5.rightButton,mouse_5.clicked_name,responseprac_feedback.started,responseprac_feedback.stopped,summary2_prac.started,summary2_prac.stopped,mouse_6.x,mouse_6.y,mouse_6.leftButton,mouse_6.midButton,mouse_6.rightButton,mouse_6.clicked_name,duringprac.thisRepN,duringprac.thisTrialN,duringprac.thisN,duringprac.thisIndex,duringprac.ran,begin.started,begin.stopped,key_resp_22.keys,key_resp_22.rt,key_resp_22.duration,Stim1_display.started,Stim1_display.stopped,circle1_ori,circle2_ori,blank.started,blank.stopped,response.started,response.stopped,mouse.x,mouse.y,mouse.leftButton,mouse.midButton,mouse.rightButton,mouse.clicked_name,response_2.started,response_2.stopped,mouse_2.x,mouse_2.y,mouse_2.leftButton,mouse_2.midButton,mouse_2.rightButton,mouse_2.clicked_name,special_trial.started,special_trial.stopped,catch_1.started,catch_1.stopped,mouse_3.x,mouse_3.y,mouse_3.leftButton,mouse_3.midButton,mouse_3.rightButton,catchresponse,catchnumber,response_time_catch,Catch,response_sum.started,response_sum.stopped,mouse_11.x,mouse_11.y,mouse_11.leftButton,mouse_11.midButton,mouse_11.rightButton,main_trial.thisRepN,main_trial.thisTrialN,main_trial.thisN,main_trial.thisIndex,main_trial.ran,Orientationtrialno,xcircle1_ori,xcircle2_ori,flip_presentation_sequence_for_double_pass.started,flip_presentation_sequence_for_double_pass.stopped,double_pass.thisRepN,double_pass.thisTrialN,double_pass.thisN,double_pass.thisIndex,double_pass.ran,goodbye.started,goodbye.stopped,key_resp_3.keys,key_resp_3.rt,key_resp_3.duration
0.0004,0.0006,6142a70e4c34ce72b50a2eff,2023-12-14_20h21.26.970,kallum_motion_pilot,2023.2.3,Win32,59.93407252,6142a70e4c34ce72b50a2eff,657bb317c8798c6608bceb3f,657bb6af7edeab95b28ae919,,,,,,,,,,,,,,,,,,,,,,,,,,,,,,,,,,,,,,,,,,,,,,,,,,,,,,,,,,,,,,,,,,,,,,,,,,,,,,,,,,,,,,,,,,,,,,,,,,,,,,,,,,,,,,,,,,,,,,,,,,,,,,,,,,,,,,,,,,,,,,,
,,6142a70e4c34ce72b50a2eff,2023-12-14_20h21.26.970,kallum_motion_pilot,2023.2.3,Win32,59.93407252,6142a70e4c34ce72b50a2eff,657bb317c8798c6608bceb3f,657bb6af7edeab95b28ae919,0.041,0.0413,0,0,0,18,1,twoone,,,,,,,,,,,,,,,,,,,,,,,,,,,,,,,,,,,,,,,,,,,,,,,,,,,,,,,,,,,,,,,,,,,,,,,,,,,,,,,,,,,,,,,,,,,,,,,,,,,,,,,,,,,,,,,,,,,,,,,,,,,,,,,,,,,,,,,
,,6142a70e4c34ce72b50a2eff,2023-12-14_20h21.26.970,kallum_motion_pilot,2023.2.3,Win32,59.93407252,6142a70e4c34ce72b50a2eff,657bb317c8798c6608bceb3f,657bb6af7edeab95b28ae919,0.0417,0.0418,0,1,1,93,1,seveneight,,,,,,,,,,,,,,,,,,,,,,,,,,,,,,,,,,,,,,,,,,,,,,,,,,,,,,,,,,,,,,,,,,,,,,,,,,,,,,,,,,,,,,,,,,,,,,,,,,,,,,,,,,,,,,,,,,,,,,,,,,,,,,,,,,,,,,,
,,6142a70e4c34ce72b50a2eff,2023-12-14_20h21.26.970,kallum_motion_pilot,2023.2.3,Win32,59.93407252,6142a70e4c34ce72b50a2eff,657bb317c8798c6608bceb3f,657bb6af7edeab95b28ae919,0.0427,0.043,0,2,2,16,1,onetwo,,,,,,,,,,,,,,,,,,,,,,,,,,,,,,,,,,,,,,,,,,,,,,,,,,,,,,,,,,,,,,,,,,,,,,,,,,,,,,,,,,,,,,,,,,,,,,,,,,,,,,,,,,,,,,,,,,,,,,,,,,,,,,,,,,,,,,,
,,6142a70e4c34ce72b50a2eff,2023-12-14_20h21.26.970,kallum_motion_pilot,2023.2.3,Win32,59.93407252,6142a70e4c34ce72b50a2eff,657bb317c8798c6608bceb3f,657bb6af7edeab95b28ae919,0.0434,0.0437,0,3,3,46,1,fourtwo,,,,,,,,,,,,,,,,,,,,,,,,,,,,,,,,,,,,,,,,,,,,,,,,,,,,,,,,,,,,,,,,,,,,,,,,,,,,,,,,,,,,,,,,,,,,,,,,,,,,,,,,,,,,,,,,,,,,,,,,,,,,,,,,,,,,,,,
,,6142a70e4c34ce72b50a2eff,2023-12-14_20h21.26.970,kallum_motion_pilot,2023.2.3,Win32,59.93407252,6142a70e4c34ce72b50a2eff,657bb317c8798c6608bceb3f,657bb6af7edeab95b28ae919,0.044,0.0453,0,4,4,54,1,fourtwo,,,,,,,,,,,,,,,,,,,,,,,,,,,,,,,,,,,,,,,,,,,,,,,,,,,,,,,,,,,,,,,,,,,,,,,,,,,,,,,,,,,,,,,,,,,,,,,,,,,,,,,,,,,,,,,,,,,,,,,,,,,,,,,,,,,,,,,
,,6142a70e4c34ce72b50a2eff,2023-12-14_20h21.26.970,kallum_motion_pilot,2023.2.3,Win32,59.93407252,6142a70e4c34ce72b50a2eff,657bb317c8798c6608bceb3f,657bb6af7edeab95b28ae919,0.0457,0.0458,0,5,5,85,1,seveneight,,,,,,,,,,,,,,,,,,,,,,,,,,,,,,,,,,,,,,,,,,,,,,,,,,,,,,,,,,,,,,,,,,,,,,,,,,,,,,,,,,,,,,,,,,,,,,,,,,,,,,,,,,,,,,,,,,,,,,,,,,,,,,,,,,,,,,,
,,6142a70e4c34ce72b50a2eff,2023-12-14_20h21.26.970,kallum_motion_pilot,2023.2.3,Win32,59.93407252,6142a70e4c34ce72b50a2eff,657bb317c8798c6608bceb3f,657bb6af7edeab95b28ae919,0.0459,0.046,0,6,6,60,1,threeone,,,,,,,,,,,,,,,,,,,,,,,,,,,,,,,,,,,,,,,,,,,,,,,,,,,,,,,,,,,,,,,,,,,,,,,,,,,,,,,,,,,,,,,,,,,,,,,,,,,,,,,,,,,,,,,,,,,,,,,,,,,,,,,,,,,,,,,
,,6142a70e4c34ce72b50a2eff,2023-12-14_20h21.26.970,kallum_motion_pilot,2023.2.3,Win32,59.93407252,6142a70e4c34ce72b50a2eff,657bb317c8798c6608bceb3f,657bb6af7edeab95b28ae919,0.0461,0.0462,0,7,7,64,1,onetwo,,,,,,,,,,,,,,,,,,,,,,,,,,,,,,,,,,,,,,,,,,,,,,,,,,,,,,,,,,,,,,,,,,,,,,,,,,,,,,,,,,,,,,,,,,,,,,,,,,,,,,,,,,,,,,,,,,,,,,,,,,,,,,,,,,,,,,,
,,6142a70e4c34ce72b50a2eff,2023-12-14_20h21.26.970,kallum_motion_pilot,2023.2.3,Win32,59.93407252,6142a70e4c34ce72b50a2eff,657bb317c8798c6608bceb3f,657bb6af7edeab95b28ae919,0.0464,0.0465,0,8,8,98,1,sixfive,,,,,,,,,,,,,,,,,,,,,,,,,,,,,,,,,,,,,,,,,,,,,,,,,,,,,,,,,,,,,,,,,,,,,,,,,,,,,,,,,,,,,,,,,,,,,,,,,,,,,,,,,,,,,,,,,,,,,,,,,,,,,,,,,,,,,,,
,,6142a70e4c34ce72b50a2eff,2023-12-14_20h21.26.970,kallum_motion_pilot,2023.2.3,Win32,59.93407252,6142a70e4c34ce72b50a2eff,657bb317c8798c6608bceb3f,657bb6af7edeab95b28ae919,0.0466,0.0467,0,9,9,6,1,fourtwo,,,,,,,,,,,,,,,,,,,,,,,,,,,,,,,,,,,,,,,,,,,,,,,,,,,,,,,,,,,,,,,,,,,,,,,,,,,,,,,,,,,,,,,,,,,,,,,,,,,,,,,,,,,,,,,,,,,,,,,,,,,,,,,,,,,,,,,
,,6142a70e4c34ce72b50a2eff,2023-12-14_20h21.26.970,kallum_motion_pilot,2023.2.3,Win32,59.93407252,6142a70e4c34ce72b50a2eff,657bb317c8798c6608bceb3f,657bb6af7edeab95b28ae919,0.047,0.047,0,10,10,128,1,fivesix,,,,,,,,,,,,,,,,,,,,,,,,,,,,,,,,,,,,,,,,,,,,,,,,,,,,,,,,,,,,,,,,,,,,,,,,,,,,,,,,,,,,,,,,,,,,,,,,,,,,,,,,,,,,,,,,,,,,,,,,,,,,,,,,,,,,,,,
,,6142a70e4c34ce72b50a2eff,2023-12-14_20h21.26.970,kallum_motion_pilot,2023.2.3,Win32,59.93407252,6142a70e4c34ce72b50a2eff,657bb317c8798c6608bceb3f,657bb6af7edeab95b28ae919,0.0471,0.0472,0,11,11,133,1,seveneight,,,,,,,,,,,,,,,,,,,,,,,,,,,,,,,,,,,,,,,,,,,,,,,,,,,,,,,,,,,,,,,,,,,,,,,,,,,,,,,,,,,,,,,,,,,,,,,,,,,,,,,,,,,,,,,,,,,,,,,,,,,,,,,,,,,,,,,
,,6142a70e4c34ce72b50a2eff,2023-12-14_20h21.26.970,kallum_motion_pilot,2023.2.3,Win32,59.93407252,6142a70e4c34ce72b50a2eff,657bb317c8798c6608bceb3f,657bb6af7edeab95b28ae919,0.0473,0.0474,0,12,12,136,1,fivesix,,,,,,,,,,,,,,,,,,,,,,,,,,,,,,,,,,,,,,,,,,,,,,,,,,,,,,,,,,,,,,,,,,,,,,,,,,,,,,,,,,,,,,,,,,,,,,,,,,,,,,,,,,,,,,,,,,,,,,,,,,,,,,,,,,,,,,,
,,6142a70e4c34ce72b50a2eff,2023-12-14_20h21.26.970,kallum_motion_pilot,2023.2.3,Win32,59.93407252,6142a70e4c34ce72b50a2eff,657bb317c8798c6608bceb3f,657bb6af7edeab95b28ae919,0.0475,0.0476,0,13,13,82,1,sixfive,,,,,,,,,,,,,,,,,,,,,,,,,,,,,,,,,,,,,,,,,,,,,,,,,,,,,,,,,,,,,,,,,,,,,,,,,,,,,,,,,,,,,,,,,,,,,,,,,,,,,,,,,,,,,,,,,,,,,,,,,,,,,,,,,,,,,,,
,,6142a70e4c34ce72b50a2eff,2023-12-14_20h21.26.970,kallum_motion_pilot,2023.2.3,Win32,59.93407252,6142a70e4c34ce72b50a2eff,657bb317c8798c6608bceb3f,657bb6af7edeab95b28ae919,0.0477,0.0478,0,14,14,106,1,sixfive,,,,,,,,,,,,,,,,,,,,,,,,,,,,,,,,,,,,,,,,,,,,,,,,,,,,,,,,,,,,,,,,,,,,,,,,,,,,,,,,,,,,,,,,,,,,,,,,,,,,,,,,,,,,,,,,,,,,,,,,,,,,,,,,,,,,,,,
,,6142a70e4c34ce72b50a2eff,2023-12-14_20h21.26.970,kallum_motion_pilot,2023.2.3,Win32,59.93407252,6142a70e4c34ce72b50a2eff,657bb317c8798c6608bceb3f,657bb6af7edeab95b28ae919,0.0479,0.048,0,15,15,96,1,fivesix,,,,,,,,,,,,,,,,,,,,,,,,,,,,,,,,,,,,,,,,,,,,,,,,,,,,,,,,,,,,,,,,,,,,,,,,,,,,,,,,,,,,,,,,,,,,,,,,,,,,,,,,,,,,,,,,,,,,,,,,,,,,,,,,,,,,,,,
,,6142a70e4c34ce72b50a2eff,2023-12-14_20h21.26.970,kallum_motion_pilot,2023.2.3,Win32,59.93407252,6142a70e4c34ce72b50a2eff,657bb317c8798c6608bceb3f,657bb6af7edeab95b28ae919,0.048,0.0482,0,16,16,88,1,fivesix,,,,,,,,,,,,,,,,,,,,,,,,,,,,,,,,,,,,,,,,,,,,,,,,,,,,,,,,,,,,,,,,,,,,,,,,,,,,,,,,,,,,,,,,,,,,,,,,,,,,,,,,,,,,,,,,,,,,,,,,,,,,,,,,,,,,,,,
,,6142a70e4c34ce72b50a2eff,2023-12-14_20h21.26.970,kallum_motion_pilot,2023.2.3,Win32,59.93407252,6142a70e4c34ce72b50a2eff,657bb317c8798c6608bceb3f,657bb6af7edeab95b28ae919,0.0483,0.0483,0,17,17,29,1,threefour,,,,,,,,,,,,,,,,,,,,,,,,,,,,,,,,,,,,,,,,,,,,,,,,,,,,,,,,,,,,,,,,,,,,,,,,,,,,,,,,,,,,,,,,,,,,,,,,,,,,,,,,,,,,,,,,,,,,,,,,,,,,,,,,,,,,,,,
,,6142a70e4c34ce72b50a2eff,2023-12-14_20h21.26.970,kallum_motion_pilot,2023.2.3,Win32,59.93407252,6142a70e4c34ce72b50a2eff,657bb317c8798c6608bceb3f,657bb6af7edeab95b28ae919,0.0484,0.0485,0,18,18,27,1,twofour,,,,,,,,,,,,,,,,,,,,,,,,,,,,,,,,,,,,,,,,,,,,,,,,,,,,,,,,,,,,,,,,,,,,,,,,,,,,,,,,,,,,,,,,,,,,,,,,,,,,,,,,,,,,,,,,,,,,,,,,,,,,,,,,,,,,,,,
,,6142a70e4c34ce72b50a2eff,2023-12-14_20h21.26.970,kallum_motion_pilot,2023.2.3,Win32,59.93407252,6142a70e4c34ce72b50a2eff,657bb317c8798c6608bceb3f,657bb6af7edeab95b28ae919,0.0487,0.0487,0,19,19,151,1,eightseven,,,,,,,,,,,,,,,,,,,,,,,,,,,,,,,,,,,,,,,,,,,,,,,,,,,,,,,,,,,,,,,,,,,,,,,,,,,,,,,,,,,,,,,,,,,,,,,,,,,,,,,,,,,,,,,,,,,,,,,,,,,,,,,,,,,,,,,
,,6142a70e4c34ce72b50a2eff,2023-12-14_20h21.26.970,kallum_motion_pilot,2023.2.3,Win32,59.93407252,6142a70e4c34ce72b50a2eff,657bb317c8798c6608bceb3f,657bb6af7edeab95b28ae919,0.0489,0.049,0,20,20,147,1,sixeight,,,,,,,,,,,,,,,,,,,,,,,,,,,,,,,,,,,,,,,,,,,,,,,,,,,,,,,,,,,,,,,,,,,,,,,,,,,,,,,,,,,,,,,,,,,,,,,,,,,,,,,,,,,,,,,,,,,,,,,,,,,,,,,,,,,,,,,
,,6142a70e4c34ce72b50a2eff,2023-12-14_20h21.26.970,kallum_motion_pilot,2023.2.3,Win32,59.93407252,6142a70e4c34ce72b50a2eff,657bb317c8798c6608bceb3f,657bb6af7edeab95b28ae919,0.0491,0.0491,0,21,21,139,1,sixeight,,,,,,,,,,,,,,,,,,,,,,,,,,,,,,,,,,,,,,,,,,,,,,,,,,,,,,,,,,,,,,,,,,,,,,,,,,,,,,,,,,,,,,,,,,,,,,,,,,,,,,,,,,,,,,,,,,,,,,,,,,,,,,,,,,,,,,,
,,6142a70e4c34ce72b50a2eff,2023-12-14_20h21.26.970,kallum_motion_pilot,2023.2.3,Win32,59.93407252,6142a70e4c34ce72b50a2eff,657bb317c8798c6608bceb3f,657bb6af7edeab95b28ae919,0.0493,0.0494,0,22,22,112,1,fivesix,,,,,,,,,,,,,,,,,,,,,,,,,,,,,,,,,,,,,,,,,,,,,,,,,,,,,,,,,,,,,,,,,,,,,,,,,,,,,,,,,,,,,,,,,,,,,,,,,,,,,,,,,,,,,,,,,,,,,,,,,,,,,,,,,,,,,,,
,,6142a70e4c34ce72b50a2eff,2023-12-14_20h21.26.970,kallum_motion_pilot,2023.2.3,Win32,59.93407252,6142a70e4c34ce72b50a2eff,657bb317c8798c6608bceb3f,657bb6af7edeab95b28ae919,0.0496,0.0497,0,23,23,119,1,eightseven,,,,,,,,,,,,,,,,,,,,,,,,,,,,,,,,,,,,,,,,,,,,,,,,,,,,,,,,,,,,,,,,,,,,,,,,,,,,,,,,,,,,,,,,,,,,,,,,,,,,,,,,,,,,,,,,,,,,,,,,,,,,,,,,,,,,,,,
,,6142a70e4c34ce72b50a2eff,2023-12-14_20h21.26.970,kallum_motion_pilot,2023.2.3,Win32,59.93407252,6142a70e4c34ce72b50a2eff,657bb317c8798c6608bceb3f,657bb6af7edeab95b28ae919,0.0498,0.0499,0,24,24,13,1,threefour,,,,,,,,,,,,,,,,,,,,,,,,,,,,,,,,,,,,,,,,,,,,,,,,,,,,,,,,,,,,,,,,,,,,,,,,,,,,,,,,,,,,,,,,,,,,,,,,,,,,,,,,,,,,,,,,,,,,,,,,,,,,,,,,,,,,,,,
,,6142a70e4c34ce72b50a2eff,2023-12-14_20h21.26.970,kallum_motion_pilot,2023.2.3,Win32,59.93407252,6142a70e4c34ce72b50a2eff,657bb317c8798c6608bceb3f,657bb6af7edeab95b28ae919,0.0501,0.0501,0,25,25,20,1,threeone,,,,,,,,,,,,,,,,,,,,,,,,,,,,,,,,,,,,,,,,,,,,,,,,,,,,,,,,,,,,,,,,,,,,,,,,,,,,,,,,,,,,,,,,,,,,,,,,,,,,,,,,,,,,,,,,,,,,,,,,,,,,,,,,,,,,,,,
,,6142a70e4c34ce72b50a2eff,2023-12-14_20h21.26.970,kallum_motion_pilot,2023.2.3,Win32,59.93407252,6142a70e4c34ce72b50a2eff,657bb317c8798c6608bceb3f,657bb6af7edeab95b28ae919,0.0503,0.0503,0,26,26,57,1,onethree,,,,,,,,,,,,,,,,,,,,,,,,,,,,,,,,,,,,,,,,,,,,,,,,,,,,,,,,,,,,,,,,,,,,,,,,,,,,,,,,,,,,,,,,,,,,,,,,,,,,,,,,,,,,,,,,,,,,,,,,,,,,,,,,,,,,,,,
,,6142a70e4c34ce72b50a2eff,2023-12-14_20h21.26.970,kallum_motion_pilot,2023.2.3,Win32,59.93407252,6142a70e4c34ce72b50a2eff,657bb317c8798c6608bceb3f,657bb6af7edeab95b28ae919,0.0505,0.0506,0,27,27,110,1,eightsix,,,,,,,,,,,,,,,,,,,,,,,,,,,,,,,,,,,,,,,,,,,,,,,,,,,,,,,,,,,,,,,,,,,,,,,,,,,,,,,,,,,,,,,,,,,,,,,,,,,,,,,,,,,,,,,,,,,,,,,,,,,,,,,,,,,,,,,
,,6142a70e4c34ce72b50a2eff,2023-12-14_20h21.26.970,kallum_motion_pilot,2023.2.3,Win32,59.93407252,6142a70e4c34ce72b50a2eff,657bb317c8798c6608bceb3f,657bb6af7edeab95b28ae919,0.0507,0.0508,0,28,28,157,1,seveneight,,,,,,,,,,,,,,,,,,,,,,,,,,,,,,,,,,,,,,,,,,,,,,,,,,,,,,,,,,,,,,,,,,,,,,,,,,,,,,,,,,,,,,,,,,,,,,,,,,,,,,,,,,,,,,,,,,,,,,,,,,,,,,,,,,,,,,,
,,6142a70e4c34ce72b50a2eff,2023-12-14_20h21.26.970,kallum_motion_pilot,2023.2.3,Win32,59.93407252,6142a70e4c34ce72b50a2eff,657bb317c8798c6608bceb3f,657bb6af7edeab95b28ae919,0.051,0.0511,0,29,29,8,1,onetwo,,,,,,,,,,,,,,,,,,,,,,,,,,,,,,,,,,,,,,,,,,,,,,,,,,,,,,,,,,,,,,,,,,,,,,,,,,,,,,,,,,,,,,,,,,,,,,,,,,,,,,,,,,,,,,,,,,,,,,,,,,,,,,,,,,,,,,,
,,6142a70e4c34ce72b50a2eff,2023-12-14_20h21.26.970,kallum_motion_pilot,2023.2.3,Win32,59.93407252,6142a70e4c34ce72b50a2eff,657bb317c8798c6608bceb3f,657bb6af7edeab95b28ae919,0.0512,0.0513,0,30,30,58,1,twoone,,,,,,,,,,,,,,,,,,,,,,,,,,,,,,,,,,,,,,,,,,,,,,,,,,,,,,,,,,,,,,,,,,,,,,,,,,,,,,,,,,,,,,,,,,,,,,,,,,,,,,,,,,,,,,,,,,,,,,,,,,,,,,,,,,,,,,,
,,6142a70e4c34ce72b50a2eff,2023-12-14_20h21.26.970,kallum_motion_pilot,2023.2.3,Win32,59.93407252,6142a70e4c34ce72b50a2eff,657bb317c8798c6608bceb3f,657bb6af7edeab95b28ae919,0.0514,0.0515,0,31,31,154,1,sixfive,,,,,,,,,,,,,,,,,,,,,,,,,,,,,,,,,,,,,,,,,,,,,,,,,,,,,,,,,,,,,,,,,,,,,,,,,,,,,,,,,,,,,,,,,,,,,,,,,,,,,,,,,,,,,,,,,,,,,,,,,,,,,,,,,,,,,,,
,,6142a70e4c34ce72b50a2eff,2023-12-14_20h21.26.970,kallum_motion_pilot,2023.2.3,Win32,59.93407252,6142a70e4c34ce72b50a2eff,657bb317c8798c6608bceb3f,657bb6af7edeab95b28ae919,0.0517,0.0517,0,32,32,55,1,fourthree,,,,,,,,,,,,,,,,,,,,,,,,,,,,,,,,,,,,,,,,,,,,,,,,,,,,,,,,,,,,,,,,,,,,,,,,,,,,,,,,,,,,,,,,,,,,,,,,,,,,,,,,,,,,,,,,,,,,,,,,,,,,,,,,,,,,,,,
,,6142a70e4c34ce72b50a2eff,2023-12-14_20h21.26.970,kallum_motion_pilot,2023.2.3,Win32,59.93407252,6142a70e4c34ce72b50a2eff,657bb317c8798c6608bceb3f,657bb6af7edeab95b28ae919,0.0519,0.0519,0,33,33,70,1,fourtwo,,,,,,,,,,,,,,,,,,,,,,,,,,,,,,,,,,,,,,,,,,,,,,,,,,,,,,,,,,,,,,,,,,,,,,,,,,,,,,,,,,,,,,,,,,,,,,,,,,,,,,,,,,,,,,,,,,,,,,,,,,,,,,,,,,,,,,,
,,6142a70e4c34ce72b50a2eff,2023-12-14_20h21.26.970,kallum_motion_pilot,2023.2.3,Win32,59.93407252,6142a70e4c34ce72b50a2eff,657bb317c8798c6608bceb3f,657bb6af7edeab95b28ae919,0.0521,0.0522,0,34,34,47,1,fourthree,,,,,,,,,,,,,,,,,,,,,,,,,,,,,,,,,,,,,,,,,,,,,,,,,,,,,,,,,,,,,,,,,,,,,,,,,,,,,,,,,,,,,,,,,,,,,,,,,,,,,,,,,,,,,,,,,,,,,,,,,,,,,,,,,,,,,,,
,,6142a70e4c34ce72b50a2eff,2023-12-14_20h21.26.970,kallum_motion_pilot,2023.2.3,Win32,59.93407252,6142a70e4c34ce72b50a2eff,657bb317c8798c6608bceb3f,657bb6af7edeab95b28ae919,0.0524,0.0525,0,35,35,42,1,twoone,,,,,,,,,,,,,,,,,,,,,,,,,,,,,,,,,,,,,,,,,,,,,,,,,,,,,,,,,,,,,,,,,,,,,,,,,,,,,,,,,,,,,,,,,,,,,,,,,,,,,,,,,,,,,,,,,,,,,,,,,,,,,,,,,,,,,,,
,,6142a70e4c34ce72b50a2eff,2023-12-14_20h21.26.970,kallum_motion_pilot,2023.2.3,Win32,59.93407252,6142a70e4c34ce72b50a2eff,657bb317c8798c6608bceb3f,657bb6af7edeab95b28ae919,0.0528,0.0529,0,36,36,40,1,onetwo,,,,,,,,,,,,,,,,,,,,,,,,,,,,,,,,,,,,,,,,,,,,,,,,,,,,,,,,,,,,,,,,,,,,,,,,,,,,,,,,,,,,,,,,,,,,,,,,,,,,,,,,,,,,,,,,,,,,,,,,,,,,,,,,,,,,,,,
,,6142a70e4c34ce72b50a2eff,2023-12-14_20h21.26.970,kallum_motion_pilot,2023.2.3,Win32,59.93407252,6142a70e4c34ce72b50a2eff,657bb317c8798c6608bceb3f,657bb6af7edeab95b28ae919,0.0532,0.0533,0,37,37,26,1,twoone,,,,,,,,,,,,,,,,,,,,,,,,,,,,,,,,,,,,,,,,,,,,,,,,,,,,,,,,,,,,,,,,,,,,,,,,,,,,,,,,,,,,,,,,,,,,,,,,,,,,,,,,,,,,,,,,,,,,,,,,,,,,,,,,,,,,,,,
,,6142a70e4c34ce72b50a2eff,2023-12-14_20h21.26.970,kallum_motion_pilot,2023.2.3,Win32,59.93407252,6142a70e4c34ce72b50a2eff,657bb317c8798c6608bceb3f,657bb6af7edeab95b28ae919,0.0536,0.0537,0,38,38,24,1,onetwo,,,,,,,,,,,,,,,,,,,,,,,,,,,,,,,,,,,,,,,,,,,,,,,,,,,,,,,,,,,,,,,,,,,,,,,,,,,,,,,,,,,,,,,,,,,,,,,,,,,,,,,,,,,,,,,,,,,,,,,,,,,,,,,,,,,,,,,
,,6142a70e4c34ce72b50a2eff,2023-12-14_20h21.26.970,kallum_motion_pilot,2023.2.3,Win32,59.93407252,6142a70e4c34ce72b50a2eff,657bb317c8798c6608bceb3f,657bb6af7edeab95b28ae919,0.054,0.0542,0,39,39,124,1,sevenfive,,,,,,,,,,,,,,,,,,,,,,,,,,,,,,,,,,,,,,,,,,,,,,,,,,,,,,,,,,,,,,,,,,,,,,,,,,,,,,,,,,,,,,,,,,,,,,,,,,,,,,,,,,,,,,,,,,,,,,,,,,,,,,,,,,,,,,,
,,6142a70e4c34ce72b50a2eff,2023-12-14_20h21.26.970,kallum_motion_pilot,2023.2.3,Win32,59.93407252,6142a70e4c34ce72b50a2eff,657bb317c8798c6608bceb3f,657bb6af7edeab95b28ae919,0.0544,0.0545,0,40,40,59,1,twofour,,,,,,,,,,,,,,,,,,,,,,,,,,,,,,,,,,,,,,,,,,,,,,,,,,,,,,,,,,,,,,,,,,,,,,,,,,,,,,,,,,,,,,,,,,,,,,,,,,,,,,,,,,,,,,,,,,,,,,,,,,,,,,,,,,,,,,,
,,6142a70e4c34ce72b50a2eff,2023-12-14_20h21.26.970,kallum_motion_pilot,2023.2.3,Win32,59.93407252,6142a70e4c34ce72b50a2eff,657bb317c8798c6608bceb3f,657bb6af7edeab95b28ae919,0.0548,0.0549,0,41,41,75,1,twofour,,,,,,,,,,,,,,,,,,,,,,,,,,,,,,,,,,,,,,,,,,,,,,,,,,,,,,,,,,,,,,,,,,,,,,,,,,,,,,,,,,,,,,,,,,,,,,,,,,,,,,,,,,,,,,,,,,,,,,,,,,,,,,,,,,,,,,,
,,6142a70e4c34ce72b50a2eff,2023-12-14_20h21.26.970,kallum_motion_pilot,2023.2.3,Win32,59.93407252,6142a70e4c34ce72b50a2eff,657bb317c8798c6608bceb3f,657bb6af7edeab95b28ae919,0.0553,0.0554,0,42,42,53,1,threefour,,,,,,,,,,,,,,,,,,,,,,,,,,,,,,,,,,,,,,,,,,,,,,,,,,,,,,,,,,,,,,,,,,,,,,,,,,,,,,,,,,,,,,,,,,,,,,,,,,,,,,,,,,,,,,,,,,,,,,,,,,,,,,,,,,,,,,,
,,6142a70e4c34ce72b50a2eff,2023-12-14_20h21.26.970,kallum_motion_pilot,2023.2.3,Win32,59.93407252,6142a70e4c34ce72b50a2eff,657bb317c8798c6608bceb3f,657bb6af7edeab95b28ae919,0.0556,0.0558,0,43,43,134,1,eightsix,,,,,,,,,,,,,,,,,,,,,,,,,,,,,,,,,,,,,,,,,,,,,,,,,,,,,,,,,,,,,,,,,,,,,,,,,,,,,,,,,,,,,,,,,,,,,,,,,,,,,,,,,,,,,,,,,,,,,,,,,,,,,,,,,,,,,,,
,,6142a70e4c34ce72b50a2eff,2023-12-14_20h21.26.970,kallum_motion_pilot,2023.2.3,Win32,59.93407252,6142a70e4c34ce72b50a2eff,657bb317c8798c6608bceb3f,657bb6af7edeab95b28ae919,0.0561,0.0562,0,44,44,62,1,fourtwo,,,,,,,,,,,,,,,,,,,,,,,,,,,,,,,,,,,,,,,,,,,,,,,,,,,,,,,,,,,,,,,,,,,,,,,,,,,,,,,,,,,,,,,,,,,,,,,,,,,,,,,,,,,,,,,,,,,,,,,,,,,,,,,,,,,,,,,
,,6142a70e4c34ce72b50a2eff,2023-12-14_20h21.26.970,kallum_motion_pilot,2023.2.3,Win32,59.93407252,6142a70e4c34ce72b50a2eff,657bb317c8798c6608bceb3f,657bb6af7edeab95b28ae919,0.0563,0.0564,0,45,45,132,1,sevenfive,,,,,,,,,,,,,,,,,,,,,,,,,,,,,,,,,,,,,,,,,,,,,,,,,,,,,,,,,,,,,,,,,,,,,,,,,,,,,,,,,,,,,,,,,,,,,,,,,,,,,,,,,,,,,,,,,,,,,,,,,,,,,,,,,,,,,,,
,,6142a70e4c34ce72b50a2eff,2023-12-14_20h21.26.970,kallum_motion_pilot,2023.2.3,Win32,59.93407252,6142a70e4c34ce72b50a2eff,657bb317c8798c6608bceb3f,657bb6af7edeab95b28ae919,0.0566,0.0566,0,46,46,141,1,seveneight,,,,,,,,,,,,,,,,,,,,,,,,,,,,,,,,,,,,,,,,,,,,,,,,,,,,,,,,,,,,,,,,,,,,,,,,,,,,,,,,,,,,,,,,,,,,,,,,,,,,,,,,,,,,,,,,,,,,,,,,,,,,,,,,,,,,,,,
,,6142a70e4c34ce72b50a2eff,2023-12-14_20h21.26.970,kallum_motion_pilot,2023.2.3,Win32,59.93407252,6142a70e4c34ce72b50a2eff,657bb317c8798c6608bceb3f,657bb6af7edeab95b28ae919,0.0568,0.0568,0,47,47,74,1,twoone,,,,,,,,,,,,,,,,,,,,,,,,,,,,,,,,,,,,,,,,,,,,,,,,,,,,,,,,,,,,,,,,,,,,,,,,,,,,,,,,,,,,,,,,,,,,,,,,,,,,,,,,,,,,,,,,,,,,,,,,,,,,,,,,,,,,,,,
,,6142a70e4c34ce72b50a2eff,2023-12-14_20h21.26.970,kallum_motion_pilot,2023.2.3,Win32,59.93407252,6142a70e4c34ce72b50a2eff,657bb317c8798c6608bceb3f,657bb6af7edeab95b28ae919,0.057,0.057,0,48,48,9,1,onethree,,,,,,,,,,,,,,,,,,,,,,,,,,,,,,,,,,,,,,,,,,,,,,,,,,,,,,,,,,,,,,,,,,,,,,,,,,,,,,,,,,,,,,,,,,,,,,,,,,,,,,,,,,,,,,,,,,,,,,,,,,,,,,,,,,,,,,,
,,6142a70e4c34ce72b50a2eff,2023-12-14_20h21.26.970,kallum_motion_pilot,2023.2.3,Win32,59.93407252,6142a70e4c34ce72b50a2eff,657bb317c8798c6608bceb3f,657bb6af7edeab95b28ae919,0.0571,0.0572,0,49,49,129,1,fiveseven,,,,,,,,,,,,,,,,,,,,,,,,,,,,,,,,,,,,,,,,,,,,,,,,,,,,,,,,,,,,,,,,,,,,,,,,,,,,,,,,,,,,,,,,,,,,,,,,,,,,,,,,,,,,,,,,,,,,,,,,,,,,,,,,,,,,,,,
,,6142a70e4c34ce72b50a2eff,2023-12-14_20h21.26.970,kallum_motion_pilot,2023.2.3,Win32,59.93407252,6142a70e4c34ce72b50a2eff,657bb317c8798c6608bceb3f,657bb6af7edeab95b28ae919,0.0573,0.0574,0,50,50,149,1,seveneight,,,,,,,,,,,,,,,,,,,,,,,,,,,,,,,,,,,,,,,,,,,,,,,,,,,,,,,,,,,,,,,,,,,,,,,,,,,,,,,,,,,,,,,,,,,,,,,,,,,,,,,,,,,,,,,,,,,,,,,,,,,,,,,,,,,,,,,
,,6142a70e4c34ce72b50a2eff,2023-12-14_20h21.26.970,kallum_motion_pilot,2023.2.3,Win32,59.93407252,6142a70e4c34ce72b50a2eff,657bb317c8798c6608bceb3f,657bb6af7edeab95b28ae919,0.0575,0.0576,0,51,51,43,1,twofour,,,,,,,,,,,,,,,,,,,,,,,,,,,,,,,,,,,,,,,,,,,,,,,,,,,,,,,,,,,,,,,,,,,,,,,,,,,,,,,,,,,,,,,,,,,,,,,,,,,,,,,,,,,,,,,,,,,,,,,,,,,,,,,,,,,,,,,
,,6142a70e4c34ce72b50a2eff,2023-12-14_20h21.26.970,kallum_motion_pilot,2023.2.3,Win32,59.93407252,6142a70e4c34ce72b50a2eff,657bb317c8798c6608bceb3f,657bb6af7edeab95b28ae919,0.0579,0.0579,0,52,52,14,1,fourtwo,,,,,,,,,,,,,,,,,,,,,,,,,,,,,,,,,,,,,,,,,,,,,,,,,,,,,,,,,,,,,,,,,,,,,,,,,,,,,,,,,,,,,,,,,,,,,,,,,,,,,,,,,,,,,,,,,,,,,,,,,,,,,,,,,,,,,,,
,,6142a70e4c34ce72b50a2eff,2023-12-14_20h21.26.970,kallum_motion_pilot,2023.2.3,Win32,59.93407252,6142a70e4c34ce72b50a2eff,657bb317c8798c6608bceb3f,657bb6af7edeab95b28ae919,0.0581,0.0582,0,53,53,103,1,eightseven,,,,,,,,,,,,,,,,,,,,,,,,,,,,,,,,,,,,,,,,,,,,,,,,,,,,,,,,,,,,,,,,,,,,,,,,,,,,,,,,,,,,,,,,,,,,,,,,,,,,,,,,,,,,,,,,,,,,,,,,,,,,,,,,,,,,,,,
,,6142a70e4c34ce72b50a2eff,2023-12-14_20h21.26.970,kallum_motion_pilot,2023.2.3,Win32,59.93407252,6142a70e4c34ce72b50a2eff,657bb317c8798c6608bceb3f,657bb6af7edeab95b28ae919,0.0584,0.0584,0,54,54,94,1,eightsix,,,,,,,,,,,,,,,,,,,,,,,,,,,,,,,,,,,,,,,,,,,,,,,,,,,,,,,,,,,,,,,,,,,,,,,,,,,,,,,,,,,,,,,,,,,,,,,,,,,,,,,,,,,,,,,,,,,,,,,,,,,,,,,,,,,,,,,
,,6142a70e4c34ce72b50a2eff,2023-12-14_20h21.26.970,kallum_motion_pilot,2023.2.3,Win32,59.93407252,6142a70e4c34ce72b50a2eff,657bb317c8798c6608bceb3f,657bb6af7edeab95b28ae919,0.059,0.0591,0,55,55,65,1,onethree,,,,,,,,,,,,,,,,,,,,,,,,,,,,,,,,,,,,,,,,,,,,,,,,,,,,,,,,,,,,,,,,,,,,,,,,,,,,,,,,,,,,,,,,,,,,,,,,,,,,,,,,,,,,,,,,,,,,,,,,,,,,,,,,,,,,,,,
,,6142a70e4c34ce72b50a2eff,2023-12-14_20h21.26.970,kallum_motion_pilot,2023.2.3,Win32,59.93407252,6142a70e4c34ce72b50a2eff,657bb317c8798c6608bceb3f,657bb6af7edeab95b28ae919,0.0595,0.0597,0,56,56,138,1,sixfive,,,,,,,,,,,,,,,,,,,,,,,,,,,,,,,,,,,,,,,,,,,,,,,,,,,,,,,,,,,,,,,,,,,,,,,,,,,,,,,,,,,,,,,,,,,,,,,,,,,,,,,,,,,,,,,,,,,,,,,,,,,,,,,,,,,,,,,
,,6142a70e4c34ce72b50a2eff,2023-12-14_20h21.26.970,kallum_motion_pilot,2023.2.3,Win32,59.93407252,6142a70e4c34ce72b50a2eff,657bb317c8798c6608bceb3f,657bb6af7edeab95b28ae919,0.0599,0.06,0,57,57,108,1,sevenfive,,,,,,,,,,,,,,,,,,,,,,,,,,,,,,,,,,,,,,,,,,,,,,,,,,,,,,,,,,,,,,,,,,,,,,,,,,,,,,,,,,,,,,,,,,,,,,,,,,,,,,,,,,,,,,,,,,,,,,,,,,,,,,,,,,,,,,,
,,6142a70e4c34ce72b50a2eff,2023-12-14_20h21.26.970,kallum_motion_pilot,2023.2.3,Win32,59.93407252,6142a70e4c34ce72b50a2eff,657bb317c8798c6608bceb3f,657bb6af7edeab95b28ae919,0.0604,0.0605,0,58,58,4,1,threeone,,,,,,,,,,,,,,,,,,,,,,,,,,,,,,,,,,,,,,,,,,,,,,,,,,,,,,,,,,,,,,,,,,,,,,,,,,,,,,,,,,,,,,,,,,,,,,,,,,,,,,,,,,,,,,,,,,,,,,,,,,,,,,,,,,,,,,,
,,6142a70e4c34ce72b50a2eff,2023-12-14_20h21.26.970,kallum_motion_pilot,2023.2.3,Win32,59.93407252,6142a70e4c34ce72b50a2eff,657bb317c8798c6608bceb3f,657bb6af7edeab95b28ae919,0.0607,0.0608,0,59,59,102,1,eightsix,,,,,,,,,,,,,,,,,,,,,,,,,,,,,,,,,,,,,,,,,,,,,,,,,,,,,,,,,,,,,,,,,,,,,,,,,,,,,,,,,,,,,,,,,,,,,,,,,,,,,,,,,,,,,,,,,,,,,,,,,,,,,,,,,,,,,,,
,,6142a70e4c34ce72b50a2eff,2023-12-14_20h21.26.970,kallum_motion_pilot,2023.2.3,Win32,59.93407252,6142a70e4c34ce72b50a2eff,657bb317c8798c6608bceb3f,657bb6af7edeab95b28ae919,0.061,0.0611,0,60,60,15,1,fourthree,,,,,,,,,,,,,,,,,,,,,,,,,,,,,,,,,,,,,,,,,,,,,,,,,,,,,,,,,,,,,,,,,,,,,,,,,,,,,,,,,,,,,,,,,,,,,,,,,,,,,,,,,,,,,,,,,,,,,,,,,,,,,,,,,,,,,,,
,,6142a70e4c34ce72b50a2eff,2023-12-14_20h21.26.970,kallum_motion_pilot,2023.2.3,Win32,59.93407252,6142a70e4c34ce72b50a2eff,657bb317c8798c6608bceb3f,657bb6af7edeab95b28ae919,0.0613,0.0613,0,61,61,92,1,sevenfive,,,,,,,,,,,,,,,,,,,,,,,,,,,,,,,,,,,,,,,,,,,,,,,,,,,,,,,,,,,,,,,,,,,,,,,,,,,,,,,,,,,,,,,,,,,,,,,,,,,,,,,,,,,,,,,,,,,,,,,,,,,,,,,,,,,,,,,
,,6142a70e4c34ce72b50a2eff,2023-12-14_20h21.26.970,kallum_motion_pilot,2023.2.3,Win32,59.93407252,6142a70e4c34ce72b50a2eff,657bb317c8798c6608bceb3f,657bb6af7edeab95b28ae919,0.0615,0.0616,0,62,62,56,1,onetwo,,,,,,,,,,,,,,,,,,,,,,,,,,,,,,,,,,,,,,,,,,,,,,,,,,,,,,,,,,,,,,,,,,,,,,,,,,,,,,,,,,,,,,,,,,,,,,,,,,,,,,,,,,,,,,,,,,,,,,,,,,,,,,,,,,,,,,,
,,6142a70e4c34ce72b50a2eff,2023-12-14_20h21.26.970,kallum_motion_pilot,2023.2.3,Win32,59.93407252,6142a70e4c34ce72b50a2eff,657bb317c8798c6608bceb3f,657bb6af7edeab95b28ae919,0.0618,0.0619,0,63,63,91,1,sixeight,,,,,,,,,,,,,,,,,,,,,,,,,,,,,,,,,,,,,,,,,,,,,,,,,,,,,,,,,,,,,,,,,,,,,,,,,,,,,,,,,,,,,,,,,,,,,,,,,,,,,,,,,,,,,,,,,,,,,,,,,,,,,,,,,,,,,,,
,,6142a70e4c34ce72b50a2eff,2023-12-14_20h21.26.970,kallum_motion_pilot,2023.2.3,Win32,59.93407252,6142a70e4c34ce72b50a2eff,657bb317c8798c6608bceb3f,657bb6af7edeab95b28ae919,0.0621,0.0622,0,64,64,122,1,sixfive,,,,,,,,,,,,,,,,,,,,,,,,,,,,,,,,,,,,,,,,,,,,,,,,,,,,,,,,,,,,,,,,,,,,,,,,,,,,,,,,,,,,,,,,,,,,,,,,,,,,,,,,,,,,,,,,,,,,,,,,,,,,,,,,,,,,,,,
,,6142a70e4c34ce72b50a2eff,2023-12-14_20h21.26.970,kallum_motion_pilot,2023.2.3,Win32,59.93407252,6142a70e4c34ce72b50a2eff,657bb317c8798c6608bceb3f,657bb6af7edeab95b28ae919,0.0625,0.0626,0,65,65,28,1,threeone,,,,,,,,,,,,,,,,,,,,,,,,,,,,,,,,,,,,,,,,,,,,,,,,,,,,,,,,,,,,,,,,,,,,,,,,,,,,,,,,,,,,,,,,,,,,,,,,,,,,,,,,,,,,,,,,,,,,,,,,,,,,,,,,,,,,,,,
,,6142a70e4c34ce72b50a2eff,2023-12-14_20h21.26.970,kallum_motion_pilot,2023.2.3,Win32,59.93407252,6142a70e4c34ce72b50a2eff,657bb317c8798c6608bceb3f,657bb6af7edeab95b28ae919,0.0628,0.0629,0,66,66,84,1,sevenfive,,,,,,,,,,,,,,,,,,,,,,,,,,,,,,,,,,,,,,,,,,,,,,,,,,,,,,,,,,,,,,,,,,,,,,,,,,,,,,,,,,,,,,,,,,,,,,,,,,,,,,,,,,,,,,,,,,,,,,,,,,,,,,,,,,,,,,,
,,6142a70e4c34ce72b50a2eff,2023-12-14_20h21.26.970,kallum_motion_pilot,2023.2.3,Win32,59.93407252,6142a70e4c34ce72b50a2eff,657bb317c8798c6608bceb3f,657bb6af7edeab95b28ae919,0.0632,0.0633,0,67,67,79,1,eightseven,,,,,,,,,,,,,,,,,,,,,,,,,,,,,,,,,,,,,,,,,,,,,,,,,,,,,,,,,,,,,,,,,,,,,,,,,,,,,,,,,,,,,,,,,,,,,,,,,,,,,,,,,,,,,,,,,,,,,,,,,,,,,,,,,,,,,,,
,,6142a70e4c34ce72b50a2eff,2023-12-14_20h21.26.970,kallum_motion_pilot,2023.2.3,Win32,59.93407252,6142a70e4c34ce72b50a2eff,657bb317c8798c6608bceb3f,657bb6af7edeab95b28ae919,0.0633,0.0634,0,68,68,126,1,eightsix,,,,,,,,,,,,,,,,,,,,,,,,,,,,,,,,,,,,,,,,,,,,,,,,,,,,,,,,,,,,,,,,,,,,,,,,,,,,,,,,,,,,,,,,,,,,,,,,,,,,,,,,,,,,,,,,,,,,,,,,,,,,,,,,,,,,,,,
,,6142a70e4c34ce72b50a2eff,2023-12-14_20h21.26.970,kallum_motion_pilot,2023.2.3,Win32,59.93407252,6142a70e4c34ce72b50a2eff,657bb317c8798c6608bceb3f,657bb6af7edeab95b28ae919,0.0637,0.0637,0,69,69,86,1,eightsix,,,,,,,,,,,,,,,,,,,,,,,,,,,,,,,,,,,,,,,,,,,,,,,,,,,,,,,,,,,,,,,,,,,,,,,,,,,,,,,,,,,,,,,,,,,,,,,,,,,,,,,,,,,,,,,,,,,,,,,,,,,,,,,,,,,,,,,
,,6142a70e4c34ce72b50a2eff,2023-12-14_20h21.26.970,kallum_motion_pilot,2023.2.3,Win32,59.93407252,6142a70e4c34ce72b50a2eff,657bb317c8798c6608bceb3f,657bb6af7edeab95b28ae919,0.064,0.064,0,70,70,50,1,twoone,,,,,,,,,,,,,,,,,,,,,,,,,,,,,,,,,,,,,,,,,,,,,,,,,,,,,,,,,,,,,,,,,,,,,,,,,,,,,,,,,,,,,,,,,,,,,,,,,,,,,,,,,,,,,,,,,,,,,,,,,,,,,,,,,,,,,,,
,,6142a70e4c34ce72b50a2eff,2023-12-14_20h21.26.970,kallum_motion_pilot,2023.2.3,Win32,59.93407252,6142a70e4c34ce72b50a2eff,657bb317c8798c6608bceb3f,657bb6af7edeab95b28ae919,0.0643,0.0644,0,71,71,104,1,fivesix,,,,,,,,,,,,,,,,,,,,,,,,,,,,,,,,,,,,,,,,,,,,,,,,,,,,,,,,,,,,,,,,,,,,,,,,,,,,,,,,,,,,,,,,,,,,,,,,,,,,,,,,,,,,,,,,,,,,,,,,,,,,,,,,,,,,,,,
,,6142a70e4c34ce72b50a2eff,2023-12-14_20h21.26.970,kallum_motion_pilot,2023.2.3,Win32,59.93407252,6142a70e4c34ce72b50a2eff,657bb317c8798c6608bceb3f,657bb6af7edeab95b28ae919,0.0646,0.0646,0,72,72,117,1,seveneight,,,,,,,,,,,,,,,,,,,,,,,,,,,,,,,,,,,,,,,,,,,,,,,,,,,,,,,,,,,,,,,,,,,,,,,,,,,,,,,,,,,,,,,,,,,,,,,,,,,,,,,,,,,,,,,,,,,,,,,,,,,,,,,,,,,,,,,
,,6142a70e4c34ce72b50a2eff,2023-12-14_20h21.26.970,kallum_motion_pilot,2023.2.3,Win32,59.93407252,6142a70e4c34ce72b50a2eff,657bb317c8798c6608bceb3f,657bb6af7edeab95b28ae919,0.0649,0.0649,0,73,73,69,1,threefour,,,,,,,,,,,,,,,,,,,,,,,,,,,,,,,,,,,,,,,,,,,,,,,,,,,,,,,,,,,,,,,,,,,,,,,,,,,,,,,,,,,,,,,,,,,,,,,,,,,,,,,,,,,,,,,,,,,,,,,,,,,,,,,,,,,,,,,
,,6142a70e4c34ce72b50a2eff,2023-12-14_20h21.26.970,kallum_motion_pilot,2023.2.3,Win32,59.93407252,6142a70e4c34ce72b50a2eff,657bb317c8798c6608bceb3f,657bb6af7edeab95b28ae919,0.0651,0.0653,0,74,74,115,1,sixeight,,,,,,,,,,,,,,,,,,,,,,,,,,,,,,,,,,,,,,,,,,,,,,,,,,,,,,,,,,,,,,,,,,,,,,,,,,,,,,,,,,,,,,,,,,,,,,,,,,,,,,,,,,,,,,,,,,,,,,,,,,,,,,,,,,,,,,,
,,6142a70e4c34ce72b50a2eff,2023-12-14_20h21.26.970,kallum_motion_pilot,2023.2.3,Win32,59.93407252,6142a70e4c34ce72b50a2eff,657bb317c8798c6608bceb3f,657bb6af7edeab95b28ae919,0.0669,0.067,0,75,75,36,1,threeone,,,,,,,,,,,,,,,,,,,,,,,,,,,,,,,,,,,,,,,,,,,,,,,,,,,,,,,,,,,,,,,,,,,,,,,,,,,,,,,,,,,,,,,,,,,,,,,,,,,,,,,,,,,,,,,,,,,,,,,,,,,,,,,,,,,,,,,
,,6142a70e4c34ce72b50a2eff,2023-12-14_20h21.26.970,kallum_motion_pilot,2023.2.3,Win32,59.93407252,6142a70e4c34ce72b50a2eff,657bb317c8798c6608bceb3f,657bb6af7edeab95b28ae919,0.0673,0.0674,0,76,76,87,1,eightseven,,,,,,,,,,,,,,,,,,,,,,,,,,,,,,,,,,,,,,,,,,,,,,,,,,,,,,,,,,,,,,,,,,,,,,,,,,,,,,,,,,,,,,,,,,,,,,,,,,,,,,,,,,,,,,,,,,,,,,,,,,,,,,,,,,,,,,,
,,6142a70e4c34ce72b50a2eff,2023-12-14_20h21.26.970,kallum_motion_pilot,2023.2.3,Win32,59.93407252,6142a70e4c34ce72b50a2eff,657bb317c8798c6608bceb3f,657bb6af7edeab95b28ae919,0.0676,0.0677,0,77,77,123,1,sixeight,,,,,,,,,,,,,,,,,,,,,,,,,,,,,,,,,,,,,,,,,,,,,,,,,,,,,,,,,,,,,,,,,,,,,,,,,,,,,,,,,,,,,,,,,,,,,,,,,,,,,,,,,,,,,,,,,,,,,,,,,,,,,,,,,,,,,,,
,,6142a70e4c34ce72b50a2eff,2023-12-14_20h21.26.970,kallum_motion_pilot,2023.2.3,Win32,59.93407252,6142a70e4c34ce72b50a2eff,657bb317c8798c6608bceb3f,657bb6af7edeab95b28ae919,0.0679,0.068,0,78,78,109,1,seveneight,,,,,,,,,,,,,,,,,,,,,,,,,,,,,,,,,,,,,,,,,,,,,,,,,,,,,,,,,,,,,,,,,,,,,,,,,,,,,,,,,,,,,,,,,,,,,,,,,,,,,,,,,,,,,,,,,,,,,,,,,,,,,,,,,,,,,,,
,,6142a70e4c34ce72b50a2eff,2023-12-14_20h21.26.970,kallum_motion_pilot,2023.2.3,Win32,59.93407252,6142a70e4c34ce72b50a2eff,657bb317c8798c6608bceb3f,657bb6af7edeab95b28ae919,0.0682,0.0682,0,79,79,145,1,fiveseven,,,,,,,,,,,,,,,,,,,,,,,,,,,,,,,,,,,,,,,,,,,,,,,,,,,,,,,,,,,,,,,,,,,,,,,,,,,,,,,,,,,,,,,,,,,,,,,,,,,,,,,,,,,,,,,,,,,,,,,,,,,,,,,,,,,,,,,
,,6142a70e4c34ce72b50a2eff,2023-12-14_20h21.26.970,kallum_motion_pilot,2023.2.3,Win32,59.93407252,6142a70e4c34ce72b50a2eff,657bb317c8798c6608bceb3f,657bb6af7edeab95b28ae919,0.0685,0.0686,0,80,80,45,1,threefour,,,,,,,,,,,,,,,,,,,,,,,,,,,,,,,,,,,,,,,,,,,,,,,,,,,,,,,,,,,,,,,,,,,,,,,,,,,,,,,,,,,,,,,,,,,,,,,,,,,,,,,,,,,,,,,,,,,,,,,,,,,,,,,,,,,,,,,
,,6142a70e4c34ce72b50a2eff,2023-12-14_20h21.26.970,kallum_motion_pilot,2023.2.3,Win32,59.93407252,6142a70e4c34ce72b50a2eff,657bb317c8798c6608bceb3f,657bb6af7edeab95b28ae919,0.0688,0.0689,0,81,81,38,1,fourtwo,,,,,,,,,,,,,,,,,,,,,,,,,,,,,,,,,,,,,,,,,,,,,,,,,,,,,,,,,,,,,,,,,,,,,,,,,,,,,,,,,,,,,,,,,,,,,,,,,,,,,,,,,,,,,,,,,,,,,,,,,,,,,,,,,,,,,,,
,,6142a70e4c34ce72b50a2eff,2023-12-14_20h21.26.970,kallum_motion_pilot,2023.2.3,Win32,59.93407252,6142a70e4c34ce72b50a2eff,657bb317c8798c6608bceb3f,657bb6af7edeab95b28ae919,0.0691,0.0692,0,82,82,21,1,threefour,,,,,,,,,,,,,,,,,,,,,,,,,,,,,,,,,,,,,,,,,,,,,,,,,,,,,,,,,,,,,,,,,,,,,,,,,,,,,,,,,,,,,,,,,,,,,,,,,,,,,,,,,,,,,,,,,,,,,,,,,,,,,,,,,,,,,,,
,,6142a70e4c34ce72b50a2eff,2023-12-14_20h21.26.970,kallum_motion_pilot,2023.2.3,Win32,59.93407252,6142a70e4c34ce72b50a2eff,657bb317c8798c6608bceb3f,657bb6af7edeab95b28ae919,0.0694,0.0694,0,83,83,158,1,eightsix,,,,,,,,,,,,,,,,,,,,,,,,,,,,,,,,,,,,,,,,,,,,,,,,,,,,,,,,,,,,,,,,,,,,,,,,,,,,,,,,,,,,,,,,,,,,,,,,,,,,,,,,,,,,,,,,,,,,,,,,,,,,,,,,,,,,,,,
,,6142a70e4c34ce72b50a2eff,2023-12-14_20h21.26.970,kallum_motion_pilot,2023.2.3,Win32,59.93407252,6142a70e4c34ce72b50a2eff,657bb317c8798c6608bceb3f,657bb6af7edeab95b28ae919,0.0697,0.0699,0,84,84,72,1,onetwo,,,,,,,,,,,,,,,,,,,,,,,,,,,,,,,,,,,,,,,,,,,,,,,,,,,,,,,,,,,,,,,,,,,,,,,,,,,,,,,,,,,,,,,,,,,,,,,,,,,,,,,,,,,,,,,,,,,,,,,,,,,,,,,,,,,,,,,
,,6142a70e4c34ce72b50a2eff,2023-12-14_20h21.26.970,kallum_motion_pilot,2023.2.3,Win32,59.93407252,6142a70e4c34ce72b50a2eff,657bb317c8798c6608bceb3f,657bb6af7edeab95b28ae919,0.07,0.07,0,85,85,155,1,sixeight,,,,,,,,,,,,,,,,,,,,,,,,,,,,,,,,,,,,,,,,,,,,,,,,,,,,,,,,,,,,,,,,,,,,,,,,,,,,,,,,,,,,,,,,,,,,,,,,,,,,,,,,,,,,,,,,,,,,,,,,,,,,,,,,,,,,,,,
,,6142a70e4c34ce72b50a2eff,2023-12-14_20h21.26.970,kallum_motion_pilot,2023.2.3,Win32,59.93407252,6142a70e4c34ce72b50a2eff,657bb317c8798c6608bceb3f,657bb6af7edeab95b28ae919,0.0702,0.0703,0,86,86,121,1,fiveseven,,,,,,,,,,,,,,,,,,,,,,,,,,,,,,,,,,,,,,,,,,,,,,,,,,,,,,,,,,,,,,,,,,,,,,,,,,,,,,,,,,,,,,,,,,,,,,,,,,,,,,,,,,,,,,,,,,,,,,,,,,,,,,,,,,,,,,,
,,6142a70e4c34ce72b50a2eff,2023-12-14_20h21.26.970,kallum_motion_pilot,2023.2.3,Win32,59.93407252,6142a70e4c34ce72b50a2eff,657bb317c8798c6608bceb3f,657bb6af7edeab95b28ae919,0.0704,0.0705,0,87,87,44,1,threeone,,,,,,,,,,,,,,,,,,,,,,,,,,,,,,,,,,,,,,,,,,,,,,,,,,,,,,,,,,,,,,,,,,,,,,,,,,,,,,,,,,,,,,,,,,,,,,,,,,,,,,,,,,,,,,,,,,,,,,,,,,,,,,,,,,,,,,,
,,6142a70e4c34ce72b50a2eff,2023-12-14_20h21.26.970,kallum_motion_pilot,2023.2.3,Win32,59.93407252,6142a70e4c34ce72b50a2eff,657bb317c8798c6608bceb3f,657bb6af7edeab95b28ae919,0.0706,0.0707,0,88,88,125,1,seveneight,,,,,,,,,,,,,,,,,,,,,,,,,,,,,,,,,,,,,,,,,,,,,,,,,,,,,,,,,,,,,,,,,,,,,,,,,,,,,,,,,,,,,,,,,,,,,,,,,,,,,,,,,,,,,,,,,,,,,,,,,,,,,,,,,,,,,,,
,,6142a70e4c34ce72b50a2eff,2023-12-14_20h21.26.970,kallum_motion_pilot,2023.2.3,Win32,59.93407252,6142a70e4c34ce72b50a2eff,657bb317c8798c6608bceb3f,657bb6af7edeab95b28ae919,0.0709,0.071,0,89,89,19,1,twofour,,,,,,,,,,,,,,,,,,,,,,,,,,,,,,,,,,,,,,,,,,,,,,,,,,,,,,,,,,,,,,,,,,,,,,,,,,,,,,,,,,,,,,,,,,,,,,,,,,,,,,,,,,,,,,,,,,,,,,,,,,,,,,,,,,,,,,,
,,6142a70e4c34ce72b50a2eff,2023-12-14_20h21.26.970,kallum_motion_pilot,2023.2.3,Win32,59.93407252,6142a70e4c34ce72b50a2eff,657bb317c8798c6608bceb3f,657bb6af7edeab95b28ae919,0.0712,0.0714,0,90,90,144,1,fivesix,,,,,,,,,,,,,,,,,,,,,,,,,,,,,,,,,,,,,,,,,,,,,,,,,,,,,,,,,,,,,,,,,,,,,,,,,,,,,,,,,,,,,,,,,,,,,,,,,,,,,,,,,,,,,,,,,,,,,,,,,,,,,,,,,,,,,,,
,,6142a70e4c34ce72b50a2eff,2023-12-14_20h21.26.970,kallum_motion_pilot,2023.2.3,Win32,59.93407252,6142a70e4c34ce72b50a2eff,657bb317c8798c6608bceb3f,657bb6af7edeab95b28ae919,0.0715,0.0716,0,91,91,83,1,sixeight,,,,,,,,,,,,,,,,,,,,,,,,,,,,,,,,,,,,,,,,,,,,,,,,,,,,,,,,,,,,,,,,,,,,,,,,,,,,,,,,,,,,,,,,,,,,,,,,,,,,,,,,,,,,,,,,,,,,,,,,,,,,,,,,,,,,,,,
,,6142a70e4c34ce72b50a2eff,2023-12-14_20h21.26.970,kallum_motion_pilot,2023.2.3,Win32,59.93407252,6142a70e4c34ce72b50a2eff,657bb317c8798c6608bceb3f,657bb6af7edeab95b28ae919,0.0717,0.0718,0,92,92,80,1,fivesix,,,,,,,,,,,,,,,,,,,,,,,,,,,,,,,,,,,,,,,,,,,,,,,,,,,,,,,,,,,,,,,,,,,,,,,,,,,,,,,,,,,,,,,,,,,,,,,,,,,,,,,,,,,,,,,,,,,,,,,,,,,,,,,,,,,,,,,
,,6142a70e4c34ce72b50a2eff,2023-12-14_20h21.26.970,kallum_motion_pilot,2023.2.3,Win32,59.93407252,6142a70e4c34ce72b50a2eff,657bb317c8798c6608bceb3f,657bb6af7edeab95b28ae919,0.0719,0.0721,0,93,93,89,1,fiveseven,,,,,,,,,,,,,,,,,,,,,,,,,,,,,,,,,,,,,,,,,,,,,,,,,,,,,,,,,,,,,,,,,,,,,,,,,,,,,,,,,,,,,,,,,,,,,,,,,,,,,,,,,,,,,,,,,,,,,,,,,,,,,,,,,,,,,,,
,,6142a70e4c34ce72b50a2eff,2023-12-14_20h21.26.970,kallum_motion_pilot,2023.2.3,Win32,59.93407252,6142a70e4c34ce72b50a2eff,657bb317c8798c6608bceb3f,657bb6af7edeab95b28ae919,0.0722,0.0724,0,94,94,3,1,twofour,,,,,,,,,,,,,,,,,,,,,,,,,,,,,,,,,,,,,,,,,,,,,,,,,,,,,,,,,,,,,,,,,,,,,,,,,,,,,,,,,,,,,,,,,,,,,,,,,,,,,,,,,,,,,,,,,,,,,,,,,,,,,,,,,,,,,,,
,,6142a70e4c34ce72b50a2eff,2023-12-14_20h21.26.970,kallum_motion_pilot,2023.2.3,Win32,59.93407252,6142a70e4c34ce72b50a2eff,657bb317c8798c6608bceb3f,657bb6af7edeab95b28ae919,0.0725,0.0727,0,95,95,99,1,sixeight,,,,,,,,,,,,,,,,,,,,,,,,,,,,,,,,,,,,,,,,,,,,,,,,,,,,,,,,,,,,,,,,,,,,,,,,,,,,,,,,,,,,,,,,,,,,,,,,,,,,,,,,,,,,,,,,,,,,,,,,,,,,,,,,,,,,,,,
,,6142a70e4c34ce72b50a2eff,2023-12-14_20h21.26.970,kallum_motion_pilot,2023.2.3,Win32,59.93407252,6142a70e4c34ce72b50a2eff,657bb317c8798c6608bceb3f,657bb6af7edeab95b28ae919,0.073,0.0731,0,96,96,142,1,eightsix,,,,,,,,,,,,,,,,,,,,,,,,,,,,,,,,,,,,,,,,,,,,,,,,,,,,,,,,,,,,,,,,,,,,,,,,,,,,,,,,,,,,,,,,,,,,,,,,,,,,,,,,,,,,,,,,,,,,,,,,,,,,,,,,,,,,,,,
,,6142a70e4c34ce72b50a2eff,2023-12-14_20h21.26.970,kallum_motion_pilot,2023.2.3,Win32,59.93407252,6142a70e4c34ce72b50a2eff,657bb317c8798c6608bceb3f,657bb6af7edeab95b28ae919,0.0734,0.0734,0,97,97,31,1,fourthree,,,,,,,,,,,,,,,,,,,,,,,,,,,,,,,,,,,,,,,,,,,,,,,,,,,,,,,,,,,,,,,,,,,,,,,,,,,,,,,,,,,,,,,,,,,,,,,,,,,,,,,,,,,,,,,,,,,,,,,,,,,,,,,,,,,,,,,
,,6142a70e4c34ce72b50a2eff,2023-12-14_20h21.26.970,kallum_motion_pilot,2023.2.3,Win32,59.93407252,6142a70e4c34ce72b50a2eff,657bb317c8798c6608bceb3f,657bb6af7edeab95b28ae919,0.0736,0.0737,0,98,98,161,1,fiveseven,,,,,,,,,,,,,,,,,,,,,,,,,,,,,,,,,,,,,,,,,,,,,,,,,,,,,,,,,,,,,,,,,,,,,,,,,,,,,,,,,,,,,,,,,,,,,,,,,,,,,,,,,,,,,,,,,,,,,,,,,,,,,,,,,,,,,,,
,,6142a70e4c34ce72b50a2eff,2023-12-14_20h21.26.970,kallum_motion_pilot,2023.2.3,Win32,59.93407252,6142a70e4c34ce72b50a2eff,657bb317c8798c6608bceb3f,657bb6af7edeab95b28ae919,0.0739,0.074,0,99,99,118,1,eightsix,,,,,,,,,,,,,,,,,,,,,,,,,,,,,,,,,,,,,,,,,,,,,,,,,,,,,,,,,,,,,,,,,,,,,,,,,,,,,,,,,,,,,,,,,,,,,,,,,,,,,,,,,,,,,,,,,,,,,,,,,,,,,,,,,,,,,,,
,,6142a70e4c34ce72b50a2eff,2023-12-14_20h21.26.970,kallum_motion_pilot,2023.2.3,Win32,59.93407252,6142a70e4c34ce72b50a2eff,657bb317c8798c6608bceb3f,657bb6af7edeab95b28ae919,0.0741,0.0741,0,100,100,146,1,sixfive,,,,,,,,,,,,,,,,,,,,,,,,,,,,,,,,,,,,,,,,,,,,,,,,,,,,,,,,,,,,,,,,,,,,,,,,,,,,,,,,,,,,,,,,,,,,,,,,,,,,,,,,,,,,,,,,,,,,,,,,,,,,,,,,,,,,,,,
,,6142a70e4c34ce72b50a2eff,2023-12-14_20h21.26.970,kallum_motion_pilot,2023.2.3,Win32,59.93407252,6142a70e4c34ce72b50a2eff,657bb317c8798c6608bceb3f,657bb6af7edeab95b28ae919,0.0744,0.0744,0,101,101,63,1,fourthree,,,,,,,,,,,,,,,,,,,,,,,,,,,,,,,,,,,,,,,,,,,,,,,,,,,,,,,,,,,,,,,,,,,,,,,,,,,,,,,,,,,,,,,,,,,,,,,,,,,,,,,,,,,,,,,,,,,,,,,,,,,,,,,,,,,,,,,
,,6142a70e4c34ce72b50a2eff,2023-12-14_20h21.26.970,kallum_motion_pilot,2023.2.3,Win32,59.93407252,6142a70e4c34ce72b50a2eff,657bb317c8798c6608bceb3f,657bb6af7edeab95b28ae919,0.0746,0.0746,0,102,102,107,1,sixeight,,,,,,,,,,,,,,,,,,,,,,,,,,,,,,,,,,,,,,,,,,,,,,,,,,,,,,,,,,,,,,,,,,,,,,,,,,,,,,,,,,,,,,,,,,,,,,,,,,,,,,,,,,,,,,,,,,,,,,,,,,,,,,,,,,,,,,,
,,6142a70e4c34ce72b50a2eff,2023-12-14_20h21.26.970,kallum_motion_pilot,2023.2.3,Win32,59.93407252,6142a70e4c34ce72b50a2eff,657bb317c8798c6608bceb3f,657bb6af7edeab95b28ae919,0.0748,0.0749,0,103,103,159,1,eightseven,,,,,,,,,,,,,,,,,,,,,,,,,,,,,,,,,,,,,,,,,,,,,,,,,,,,,,,,,,,,,,,,,,,,,,,,,,,,,,,,,,,,,,,,,,,,,,,,,,,,,,,,,,,,,,,,,,,,,,,,,,,,,,,,,,,,,,,
,,6142a70e4c34ce72b50a2eff,2023-12-14_20h21.26.970,kallum_motion_pilot,2023.2.3,Win32,59.93407252,6142a70e4c34ce72b50a2eff,657bb317c8798c6608bceb3f,657bb6af7edeab95b28ae919,0.0751,0.0753,0,104,104,160,1,fivesix,,,,,,,,,,,,,,,,,,,,,,,,,,,,,,,,,,,,,,,,,,,,,,,,,,,,,,,,,,,,,,,,,,,,,,,,,,,,,,,,,,,,,,,,,,,,,,,,,,,,,,,,,,,,,,,,,,,,,,,,,,,,,,,,,,,,,,,
,,6142a70e4c34ce72b50a2eff,2023-12-14_20h21.26.970,kallum_motion_pilot,2023.2.3,Win32,59.93407252,6142a70e4c34ce72b50a2eff,657bb317c8798c6608bceb3f,657bb6af7edeab95b28ae919,0.0757,0.076,0,105,105,76,1,threeone,,,,,,,,,,,,,,,,,,,,,,,,,,,,,,,,,,,,,,,,,,,,,,,,,,,,,,,,,,,,,,,,,,,,,,,,,,,,,,,,,,,,,,,,,,,,,,,,,,,,,,,,,,,,,,,,,,,,,,,,,,,,,,,,,,,,,,,
,,6142a70e4c34ce72b50a2eff,2023-12-14_20h21.26.970,kallum_motion_pilot,2023.2.3,Win32,59.93407252,6142a70e4c34ce72b50a2eff,657bb317c8798c6608bceb3f,657bb6af7edeab95b28ae919,0.0764,0.0766,0,106,106,1,1,onethree,,,,,,,,,,,,,,,,,,,,,,,,,,,,,,,,,,,,,,,,,,,,,,,,,,,,,,,,,,,,,,,,,,,,,,,,,,,,,,,,,,,,,,,,,,,,,,,,,,,,,,,,,,,,,,,,,,,,,,,,,,,,,,,,,,,,,,,
,,6142a70e4c34ce72b50a2eff,2023-12-14_20h21.26.970,kallum_motion_pilot,2023.2.3,Win32,59.93407252,6142a70e4c34ce72b50a2eff,657bb317c8798c6608bceb3f,657bb6af7edeab95b28ae919,0.077,0.0771,0,107,107,73,1,onethree,,,,,,,,,,,,,,,,,,,,,,,,,,,,,,,,,,,,,,,,,,,,,,,,,,,,,,,,,,,,,,,,,,,,,,,,,,,,,,,,,,,,,,,,,,,,,,,,,,,,,,,,,,,,,,,,,,,,,,,,,,,,,,,,,,,,,,,
,,6142a70e4c34ce72b50a2eff,2023-12-14_20h21.26.970,kallum_motion_pilot,2023.2.3,Win32,59.93407252,6142a70e4c34ce72b50a2eff,657bb317c8798c6608bceb3f,657bb6af7edeab95b28ae919,0.0772,0.0773,0,108,108,116,1,sevenfive,,,,,,,,,,,,,,,,,,,,,,,,,,,,,,,,,,,,,,,,,,,,,,,,,,,,,,,,,,,,,,,,,,,,,,,,,,,,,,,,,,,,,,,,,,,,,,,,,,,,,,,,,,,,,,,,,,,,,,,,,,,,,,,,,,,,,,,
,,6142a70e4c34ce72b50a2eff,2023-12-14_20h21.26.970,kallum_motion_pilot,2023.2.3,Win32,59.93407252,6142a70e4c34ce72b50a2eff,657bb317c8798c6608bceb3f,657bb6af7edeab95b28ae919,0.0776,0.0777,0,109,109,152,1,fivesix,,,,,,,,,,,,,,,,,,,,,,,,,,,,,,,,,,,,,,,,,,,,,,,,,,,,,,,,,,,,,,,,,,,,,,,,,,,,,,,,,,,,,,,,,,,,,,,,,,,,,,,,,,,,,,,,,,,,,,,,,,,,,,,,,,,,,,,
,,6142a70e4c34ce72b50a2eff,2023-12-14_20h21.26.970,kallum_motion_pilot,2023.2.3,Win32,59.93407252,6142a70e4c34ce72b50a2eff,657bb317c8798c6608bceb3f,657bb6af7edeab95b28ae919,0.078,0.0781,0,110,110,66,1,twoone,,,,,,,,,,,,,,,,,,,,,,,,,,,,,,,,,,,,,,,,,,,,,,,,,,,,,,,,,,,,,,,,,,,,,,,,,,,,,,,,,,,,,,,,,,,,,,,,,,,,,,,,,,,,,,,,,,,,,,,,,,,,,,,,,,,,,,,
,,6142a70e4c34ce72b50a2eff,2023-12-14_20h21.26.970,kallum_motion_pilot,2023.2.3,Win32,59.93407252,6142a70e4c34ce72b50a2eff,657bb317c8798c6608bceb3f,657bb6af7edeab95b28ae919,0.0783,0.0784,0,111,111,77,1,threefour,,,,,,,,,,,,,,,,,,,,,,,,,,,,,,,,,,,,,,,,,,,,,,,,,,,,,,,,,,,,,,,,,,,,,,,,,,,,,,,,,,,,,,,,,,,,,,,,,,,,,,,,,,,,,,,,,,,,,,,,,,,,,,,,,,,,,,,
,,6142a70e4c34ce72b50a2eff,2023-12-14_20h21.26.970,kallum_motion_pilot,2023.2.3,Win32,59.93407252,6142a70e4c34ce72b50a2eff,657bb317c8798c6608bceb3f,657bb6af7edeab95b28ae919,0.0785,0.0786,0,112,112,12,1,threeone,,,,,,,,,,,,,,,,,,,,,,,,,,,,,,,,,,,,,,,,,,,,,,,,,,,,,,,,,,,,,,,,,,,,,,,,,,,,,,,,,,,,,,,,,,,,,,,,,,,,,,,,,,,,,,,,,,,,,,,,,,,,,,,,,,,,,,,
,,6142a70e4c34ce72b50a2eff,2023-12-14_20h21.26.970,kallum_motion_pilot,2023.2.3,Win32,59.93407252,6142a70e4c34ce72b50a2eff,657bb317c8798c6608bceb3f,657bb6af7edeab95b28ae919,0.0787,0.0789,0,113,113,23,1,fourthree,,,,,,,,,,,,,,,,,,,,,,,,,,,,,,,,,,,,,,,,,,,,,,,,,,,,,,,,,,,,,,,,,,,,,,,,,,,,,,,,,,,,,,,,,,,,,,,,,,,,,,,,,,,,,,,,,,,,,,,,,,,,,,,,,,,,,,,
,,6142a70e4c34ce72b50a2eff,2023-12-14_20h21.26.970,kallum_motion_pilot,2023.2.3,Win32,59.93407252,6142a70e4c34ce72b50a2eff,657bb317c8798c6608bceb3f,657bb6af7edeab95b28ae919,0.0789,0.0791,0,114,114,11,1,twofour,,,,,,,,,,,,,,,,,,,,,,,,,,,,,,,,,,,,,,,,,,,,,,,,,,,,,,,,,,,,,,,,,,,,,,,,,,,,,,,,,,,,,,,,,,,,,,,,,,,,,,,,,,,,,,,,,,,,,,,,,,,,,,,,,,,,,,,
,,6142a70e4c34ce72b50a2eff,2023-12-14_20h21.26.970,kallum_motion_pilot,2023.2.3,Win32,59.93407252,6142a70e4c34ce72b50a2eff,657bb317c8798c6608bceb3f,657bb6af7edeab95b28ae919,0.0792,0.0792,0,115,115,156,1,sevenfive,,,,,,,,,,,,,,,,,,,,,,,,,,,,,,,,,,,,,,,,,,,,,,,,,,,,,,,,,,,,,,,,,,,,,,,,,,,,,,,,,,,,,,,,,,,,,,,,,,,,,,,,,,,,,,,,,,,,,,,,,,,,,,,,,,,,,,,
,,6142a70e4c34ce72b50a2eff,2023-12-14_20h21.26.970,kallum_motion_pilot,2023.2.3,Win32,59.93407252,6142a70e4c34ce72b50a2eff,657bb317c8798c6608bceb3f,657bb6af7edeab95b28ae919,0.0794,0.0795,0,116,116,100,1,sevenfive,,,,,,,,,,,,,,,,,,,,,,,,,,,,,,,,,,,,,,,,,,,,,,,,,,,,,,,,,,,,,,,,,,,,,,,,,,,,,,,,,,,,,,,,,,,,,,,,,,,,,,,,,,,,,,,,,,,,,,,,,,,,,,,,,,,,,,,
,,6142a70e4c34ce72b50a2eff,2023-12-14_20h21.26.970,kallum_motion_pilot,2023.2.3,Win32,59.93407252,6142a70e4c34ce72b50a2eff,657bb317c8798c6608bceb3f,657bb6af7edeab95b28ae919,0.0796,0.0797,0,117,117,49,1,onethree,,,,,,,,,,,,,,,,,,,,,,,,,,,,,,,,,,,,,,,,,,,,,,,,,,,,,,,,,,,,,,,,,,,,,,,,,,,,,,,,,,,,,,,,,,,,,,,,,,,,,,,,,,,,,,,,,,,,,,,,,,,,,,,,,,,,,,,
,,6142a70e4c34ce72b50a2eff,2023-12-14_20h21.26.970,kallum_motion_pilot,2023.2.3,Win32,59.93407252,6142a70e4c34ce72b50a2eff,657bb317c8798c6608bceb3f,657bb6af7edeab95b28ae919,0.0798,0.0799,0,118,118,0,1,onetwo,,,,,,,,,,,,,,,,,,,,,,,,,,,,,,,,,,,,,,,,,,,,,,,,,,,,,,,,,,,,,,,,,,,,,,,,,,,,,,,,,,,,,,,,,,,,,,,,,,,,,,,,,,,,,,,,,,,,,,,,,,,,,,,,,,,,,,,
,,6142a70e4c34ce72b50a2eff,2023-12-14_20h21.26.970,kallum_motion_pilot,2023.2.3,Win32,59.93407252,6142a70e4c34ce72b50a2eff,657bb317c8798c6608bceb3f,657bb6af7edeab95b28ae919,0.0801,0.0801,0,119,119,143,1,eightseven,,,,,,,,,,,,,,,,,,,,,,,,,,,,,,,,,,,,,,,,,,,,,,,,,,,,,,,,,,,,,,,,,,,,,,,,,,,,,,,,,,,,,,,,,,,,,,,,,,,,,,,,,,,,,,,,,,,,,,,,,,,,,,,,,,,,,,,
,,6142a70e4c34ce72b50a2eff,2023-12-14_20h21.26.970,kallum_motion_pilot,2023.2.3,Win32,59.93407252,6142a70e4c34ce72b50a2eff,657bb317c8798c6608bceb3f,657bb6af7edeab95b28ae919,0.0803,0.0804,0,120,120,137,1,fiveseven,,,,,,,,,,,,,,,,,,,,,,,,,,,,,,,,,,,,,,,,,,,,,,,,,,,,,,,,,,,,,,,,,,,,,,,,,,,,,,,,,,,,,,,,,,,,,,,,,,,,,,,,,,,,,,,,,,,,,,,,,,,,,,,,,,,,,,,
,,6142a70e4c34ce72b50a2eff,2023-12-14_20h21.26.970,kallum_motion_pilot,2023.2.3,Win32,59.93407252,6142a70e4c34ce72b50a2eff,657bb317c8798c6608bceb3f,657bb6af7edeab95b28ae919,0.0805,0.0806,0,121,121,95,1,eightseven,,,,,,,,,,,,,,,,,,,,,,,,,,,,,,,,,,,,,,,,,,,,,,,,,,,,,,,,,,,,,,,,,,,,,,,,,,,,,,,,,,,,,,,,,,,,,,,,,,,,,,,,,,,,,,,,,,,,,,,,,,,,,,,,,,,,,,,
,,6142a70e4c34ce72b50a2eff,2023-12-14_20h21.26.970,kallum_motion_pilot,2023.2.3,Win32,59.93407252,6142a70e4c34ce72b50a2eff,657bb317c8798c6608bceb3f,657bb6af7edeab95b28ae919,0.0807,0.0808,0,122,122,113,1,fiveseven,,,,,,,,,,,,,,,,,,,,,,,,,,,,,,,,,,,,,,,,,,,,,,,,,,,,,,,,,,,,,,,,,,,,,,,,,,,,,,,,,,,,,,,,,,,,,,,,,,,,,,,,,,,,,,,,,,,,,,,,,,,,,,,,,,,,,,,
,,6142a70e4c34ce72b50a2eff,2023-12-14_20h21.26.970,kallum_motion_pilot,2023.2.3,Win32,59.93407252,6142a70e4c34ce72b50a2eff,657bb317c8798c6608bceb3f,657bb6af7edeab95b28ae919,0.0809,0.0811,0,123,123,101,1,seveneight,,,,,,,,,,,,,,,,,,,,,,,,,,,,,,,,,,,,,,,,,,,,,,,,,,,,,,,,,,,,,,,,,,,,,,,,,,,,,,,,,,,,,,,,,,,,,,,,,,,,,,,,,,,,,,,,,,,,,,,,,,,,,,,,,,,,,,,
,,6142a70e4c34ce72b50a2eff,2023-12-14_20h21.26.970,kallum_motion_pilot,2023.2.3,Win32,59.93407252,6142a70e4c34ce72b50a2eff,657bb317c8798c6608bceb3f,657bb6af7edeab95b28ae919,0.0813,0.0814,0,124,124,135,1,eightseven,,,,,,,,,,,,,,,,,,,,,,,,,,,,,,,,,,,,,,,,,,,,,,,,,,,,,,,,,,,,,,,,,,,,,,,,,,,,,,,,,,,,,,,,,,,,,,,,,,,,,,,,,,,,,,,,,,,,,,,,,,,,,,,,,,,,,,,
,,6142a70e4c34ce72b50a2eff,2023-12-14_20h21.26.970,kallum_motion_pilot,2023.2.3,Win32,59.93407252,6142a70e4c34ce72b50a2eff,657bb317c8798c6608bceb3f,657bb6af7edeab95b28ae919,0.0816,0.0818,0,125,125,39,1,fourthree,,,,,,,,,,,,,,,,,,,,,,,,,,,,,,,,,,,,,,,,,,,,,,,,,,,,,,,,,,,,,,,,,,,,,,,,,,,,,,,,,,,,,,,,,,,,,,,,,,,,,,,,,,,,,,,,,,,,,,,,,,,,,,,,,,,,,,,
,,6142a70e4c34ce72b50a2eff,2023-12-14_20h21.26.970,kallum_motion_pilot,2023.2.3,Win32,59.93407252,6142a70e4c34ce72b50a2eff,657bb317c8798c6608bceb3f,657bb6af7edeab95b28ae919,0.082,0.0821,0,126,126,37,1,threefour,,,,,,,,,,,,,,,,,,,,,,,,,,,,,,,,,,,,,,,,,,,,,,,,,,,,,,,,,,,,,,,,,,,,,,,,,,,,,,,,,,,,,,,,,,,,,,,,,,,,,,,,,,,,,,,,,,,,,,,,,,,,,,,,,,,,,,,
,,6142a70e4c34ce72b50a2eff,2023-12-14_20h21.26.970,kallum_motion_pilot,2023.2.3,Win32,59.93407252,6142a70e4c34ce72b50a2eff,657bb317c8798c6608bceb3f,657bb6af7edeab95b28ae919,0.0823,0.0823,0,127,127,32,1,onetwo,,,,,,,,,,,,,,,,,,,,,,,,,,,,,,,,,,,,,,,,,,,,,,,,,,,,,,,,,,,,,,,,,,,,,,,,,,,,,,,,,,,,,,,,,,,,,,,,,,,,,,,,,,,,,,,,,,,,,,,,,,,,,,,,,,,,,,,
,,6142a70e4c34ce72b50a2eff,2023-12-14_20h21.26.970,kallum_motion_pilot,2023.2.3,Win32,59.93407252,6142a70e4c34ce72b50a2eff,657bb317c8798c6608bceb3f,657bb6af7edeab95b28ae919,0.0826,0.0826,0,128,128,130,1,sixfive,,,,,,,,,,,,,,,,,,,,,,,,,,,,,,,,,,,,,,,,,,,,,,,,,,,,,,,,,,,,,,,,,,,,,,,,,,,,,,,,,,,,,,,,,,,,,,,,,,,,,,,,,,,,,,,,,,,,,,,,,,,,,,,,,,,,,,,
,,6142a70e4c34ce72b50a2eff,2023-12-14_20h21.26.970,kallum_motion_pilot,2023.2.3,Win32,59.93407252,6142a70e4c34ce72b50a2eff,657bb317c8798c6608bceb3f,657bb6af7edeab95b28ae919,0.0828,0.0828,0,129,129,131,1,sixeight,,,,,,,,,,,,,,,,,,,,,,,,,,,,,,,,,,,,,,,,,,,,,,,,,,,,,,,,,,,,,,,,,,,,,,,,,,,,,,,,,,,,,,,,,,,,,,,,,,,,,,,,,,,,,,,,,,,,,,,,,,,,,,,,,,,,,,,
,,6142a70e4c34ce72b50a2eff,2023-12-14_20h21.26.970,kallum_motion_pilot,2023.2.3,Win32,59.93407252,6142a70e4c34ce72b50a2eff,657bb317c8798c6608bceb3f,657bb6af7edeab95b28ae919,0.083,0.083,0,130,130,7,1,fourthree,,,,,,,,,,,,,,,,,,,,,,,,,,,,,,,,,,,,,,,,,,,,,,,,,,,,,,,,,,,,,,,,,,,,,,,,,,,,,,,,,,,,,,,,,,,,,,,,,,,,,,,,,,,,,,,,,,,,,,,,,,,,,,,,,,,,,,,
,,6142a70e4c34ce72b50a2eff,2023-12-14_20h21.26.970,kallum_motion_pilot,2023.2.3,Win32,59.93407252,6142a70e4c34ce72b50a2eff,657bb317c8798c6608bceb3f,657bb6af7edeab95b28ae919,0.0832,0.0833,0,131,131,114,1,sixfive,,,,,,,,,,,,,,,,,,,,,,,,,,,,,,,,,,,,,,,,,,,,,,,,,,,,,,,,,,,,,,,,,,,,,,,,,,,,,,,,,,,,,,,,,,,,,,,,,,,,,,,,,,,,,,,,,,,,,,,,,,,,,,,,,,,,,,,
,,6142a70e4c34ce72b50a2eff,2023-12-14_20h21.26.970,kallum_motion_pilot,2023.2.3,Win32,59.93407252,6142a70e4c34ce72b50a2eff,657bb317c8798c6608bceb3f,657bb6af7edeab95b28ae919,0.0834,0.0836,0,132,132,5,1,threefour,,,,,,,,,,,,,,,,,,,,,,,,,,,,,,,,,,,,,,,,,,,,,,,,,,,,,,,,,,,,,,,,,,,,,,,,,,,,,,,,,,,,,,,,,,,,,,,,,,,,,,,,,,,,,,,,,,,,,,,,,,,,,,,,,,,,,,,
,,6142a70e4c34ce72b50a2eff,2023-12-14_20h21.26.970,kallum_motion_pilot,2023.2.3,Win32,59.93407252,6142a70e4c34ce72b50a2eff,657bb317c8798c6608bceb3f,657bb6af7edeab95b28ae919,0.0837,0.0838,0,133,133,127,1,eightseven,,,,,,,,,,,,,,,,,,,,,,,,,,,,,,,,,,,,,,,,,,,,,,,,,,,,,,,,,,,,,,,,,,,,,,,,,,,,,,,,,,,,,,,,,,,,,,,,,,,,,,,,,,,,,,,,,,,,,,,,,,,,,,,,,,,,,,,
,,6142a70e4c34ce72b50a2eff,2023-12-14_20h21.26.970,kallum_motion_pilot,2023.2.3,Win32,59.93407252,6142a70e4c34ce72b50a2eff,657bb317c8798c6608bceb3f,657bb6af7edeab95b28ae919,0.084,0.084,0,134,134,22,1,fourtwo,,,,,,,,,,,,,,,,,,,,,,,,,,,,,,,,,,,,,,,,,,,,,,,,,,,,,,,,,,,,,,,,,,,,,,,,,,,,,,,,,,,,,,,,,,,,,,,,,,,,,,,,,,,,,,,,,,,,,,,,,,,,,,,,,,,,,,,
,,6142a70e4c34ce72b50a2eff,2023-12-14_20h21.26.970,kallum_motion_pilot,2023.2.3,Win32,59.93407252,6142a70e4c34ce72b50a2eff,657bb317c8798c6608bceb3f,657bb6af7edeab95b28ae919,0.0841,0.0843,0,135,135,35,1,twofour,,,,,,,,,,,,,,,,,,,,,,,,,,,,,,,,,,,,,,,,,,,,,,,,,,,,,,,,,,,,,,,,,,,,,,,,,,,,,,,,,,,,,,,,,,,,,,,,,,,,,,,,,,,,,,,,,,,,,,,,,,,,,,,,,,,,,,,
,,6142a70e4c34ce72b50a2eff,2023-12-14_20h21.26.970,kallum_motion_pilot,2023.2.3,Win32,59.93407252,6142a70e4c34ce72b50a2eff,657bb317c8798c6608bceb3f,657bb6af7edeab95b28ae919,0.0844,0.0845,0,136,136,148,1,sevenfive,,,,,,,,,,,,,,,,,,,,,,,,,,,,,,,,,,,,,,,,,,,,,,,,,,,,,,,,,,,,,,,,,,,,,,,,,,,,,,,,,,,,,,,,,,,,,,,,,,,,,,,,,,,,,,,,,,,,,,,,,,,,,,,,,,,,,,,
,,6142a70e4c34ce72b50a2eff,2023-12-14_20h21.26.970,kallum_motion_pilot,2023.2.3,Win32,59.93407252,6142a70e4c34ce72b50a2eff,657bb317c8798c6608bceb3f,657bb6af7edeab95b28ae919,0.0846,0.0846,0,137,137,25,1,onethree,,,,,,,,,,,,,,,,,,,,,,,,,,,,,,,,,,,,,,,,,,,,,,,,,,,,,,,,,,,,,,,,,,,,,,,,,,,,,,,,,,,,,,,,,,,,,,,,,,,,,,,,,,,,,,,,,,,,,,,,,,,,,,,,,,,,,,,
,,6142a70e4c34ce72b50a2eff,2023-12-14_20h21.26.970,kallum_motion_pilot,2023.2.3,Win32,59.93407252,6142a70e4c34ce72b50a2eff,657bb317c8798c6608bceb3f,657bb6af7edeab95b28ae919,0.0848,0.0849,0,138,138,78,1,fourtwo,,,,,,,,,,,,,,,,,,,,,,,,,,,,,,,,,,,,,,,,,,,,,,,,,,,,,,,,,,,,,,,,,,,,,,,,,,,,,,,,,,,,,,,,,,,,,,,,,,,,,,,,,,,,,,,,,,,,,,,,,,,,,,,,,,,,,,,
,,6142a70e4c34ce72b50a2eff,2023-12-14_20h21.26.970,kallum_motion_pilot,2023.2.3,Win32,59.93407252,6142a70e4c34ce72b50a2eff,657bb317c8798c6608bceb3f,657bb6af7edeab95b28ae919,0.085,0.0851,0,139,139,90,1,sixfive,,,,,,,,,,,,,,,,,,,,,,,,,,,,,,,,,,,,,,,,,,,,,,,,,,,,,,,,,,,,,,,,,,,,,,,,,,,,,,,,,,,,,,,,,,,,,,,,,,,,,,,,,,,,,,,,,,,,,,,,,,,,,,,,,,,,,,,
,,6142a70e4c34ce72b50a2eff,2023-12-14_20h21.26.970,kallum_motion_pilot,2023.2.3,Win32,59.93407252,6142a70e4c34ce72b50a2eff,657bb317c8798c6608bceb3f,657bb6af7edeab95b28ae919,0.0853,0.0853,0,140,140,71,1,fourthree,,,,,,,,,,,,,,,,,,,,,,,,,,,,,,,,,,,,,,,,,,,,,,,,,,,,,,,,,,,,,,,,,,,,,,,,,,,,,,,,,,,,,,,,,,,,,,,,,,,,,,,,,,,,,,,,,,,,,,,,,,,,,,,,,,,,,,,
,,6142a70e4c34ce72b50a2eff,2023-12-14_20h21.26.970,kallum_motion_pilot,2023.2.3,Win32,59.93407252,6142a70e4c34ce72b50a2eff,657bb317c8798c6608bceb3f,657bb6af7edeab95b28ae919,0.0855,0.0856,0,141,141,140,1,sevenfive,,,,,,,,,,,,,,,,,,,,,,,,,,,,,,,,,,,,,,,,,,,,,,,,,,,,,,,,,,,,,,,,,,,,,,,,,,,,,,,,,,,,,,,,,,,,,,,,,,,,,,,,,,,,,,,,,,,,,,,,,,,,,,,,,,,,,,,
,,6142a70e4c34ce72b50a2eff,2023-12-14_20h21.26.970,kallum_motion_pilot,2023.2.3,Win32,59.93407252,6142a70e4c34ce72b50a2eff,657bb317c8798c6608bceb3f,657bb6af7edeab95b28ae919,0.0857,0.0858,0,142,142,81,1,fiveseven,,,,,,,,,,,,,,,,,,,,,,,,,,,,,,,,,,,,,,,,,,,,,,,,,,,,,,,,,,,,,,,,,,,,,,,,,,,,,,,,,,,,,,,,,,,,,,,,,,,,,,,,,,,,,,,,,,,,,,,,,,,,,,,,,,,,,,,
,,6142a70e4c34ce72b50a2eff,2023-12-14_20h21.26.970,kallum_motion_pilot,2023.2.3,Win32,59.93407252,6142a70e4c34ce72b50a2eff,657bb317c8798c6608bceb3f,657bb6af7edeab95b28ae919,0.086,0.086,0,143,143,33,1,onethree,,,,,,,,,,,,,,,,,,,,,,,,,,,,,,,,,,,,,,,,,,,,,,,,,,,,,,,,,,,,,,,,,,,,,,,,,,,,,,,,,,,,,,,,,,,,,,,,,,,,,,,,,,,,,,,,,,,,,,,,,,,,,,,,,,,,,,,
,,6142a70e4c34ce72b50a2eff,2023-12-14_20h21.26.970,kallum_motion_pilot,2023.2.3,Win32,59.93407252,6142a70e4c34ce72b50a2eff,657bb317c8798c6608bceb3f,657bb6af7edeab95b28ae919,0.0861,0.0863,0,144,144,34,1,twoone,,,,,,,,,,,,,,,,,,,,,,,,,,,,,,,,,,,,,,,,,,,,,,,,,,,,,,,,,,,,,,,,,,,,,,,,,,,,,,,,,,,,,,,,,,,,,,,,,,,,,,,,,,,,,,,,,,,,,,,,,,,,,,,,,,,,,,,
,,6142a70e4c34ce72b50a2eff,2023-12-14_20h21.26.970,kallum_motion_pilot,2023.2.3,Win32,59.93407252,6142a70e4c34ce72b50a2eff,657bb317c8798c6608bceb3f,657bb6af7edeab95b28ae919,0.0864,0.0865,0,145,145,41,1,onethree,,,,,,,,,,,,,,,,,,,,,,,,,,,,,,,,,,,,,,,,,,,,,,,,,,,,,,,,,,,,,,,,,,,,,,,,,,,,,,,,,,,,,,,,,,,,,,,,,,,,,,,,,,,,,,,,,,,,,,,,,,,,,,,,,,,,,,,
,,6142a70e4c34ce72b50a2eff,2023-12-14_20h21.26.970,kallum_motion_pilot,2023.2.3,Win32,59.93407252,6142a70e4c34ce72b50a2eff,657bb317c8798c6608bceb3f,657bb6af7edeab95b28ae919,0.0867,0.0867,0,146,146,2,1,twoone,,,,,,,,,,,,,,,,,,,,,,,,,,,,,,,,,,,,,,,,,,,,,,,,,,,,,,,,,,,,,,,,,,,,,,,,,,,,,,,,,,,,,,,,,,,,,,,,,,,,,,,,,,,,,,,,,,,,,,,,,,,,,,,,,,,,,,,
,,6142a70e4c34ce72b50a2eff,2023-12-14_20h21.26.970,kallum_motion_pilot,2023.2.3,Win32,59.93407252,6142a70e4c34ce72b50a2eff,657bb317c8798c6608bceb3f,657bb6af7edeab95b28ae919,0.0869,0.087,0,147,147,17,1,onethree,,,,,,,,,,,,,,,,,,,,,,,,,,,,,,,,,,,,,,,,,,,,,,,,,,,,,,,,,,,,,,,,,,,,,,,,,,,,,,,,,,,,,,,,,,,,,,,,,,,,,,,,,,,,,,,,,,,,,,,,,,,,,,,,,,,,,,,
,,6142a70e4c34ce72b50a2eff,2023-12-14_20h21.26.970,kallum_motion_pilot,2023.2.3,Win32,59.93407252,6142a70e4c34ce72b50a2eff,657bb317c8798c6608bceb3f,657bb6af7edeab95b28ae919,0.0871,0.0872,0,148,148,61,1,threefour,,,,,,,,,,,,,,,,,,,,,,,,,,,,,,,,,,,,,,,,,,,,,,,,,,,,,,,,,,,,,,,,,,,,,,,,,,,,,,,,,,,,,,,,,,,,,,,,,,,,,,,,,,,,,,,,,,,,,,,,,,,,,,,,,,,,,,,
,,6142a70e4c34ce72b50a2eff,2023-12-14_20h21.26.970,kallum_motion_pilot,2023.2.3,Win32,59.93407252,6142a70e4c34ce72b50a2eff,657bb317c8798c6608bceb3f,657bb6af7edeab95b28ae919,0.0874,0.0875,0,149,149,111,1,eightseven,,,,,,,,,,,,,,,,,,,,,,,,,,,,,,,,,,,,,,,,,,,,,,,,,,,,,,,,,,,,,,,,,,,,,,,,,,,,,,,,,,,,,,,,,,,,,,,,,,,,,,,,,,,,,,,,,,,,,,,,,,,,,,,,,,,,,,,
,,6142a70e4c34ce72b50a2eff,2023-12-14_20h21.26.970,kallum_motion_pilot,2023.2.3,Win32,59.93407252,6142a70e4c34ce72b50a2eff,657bb317c8798c6608bceb3f,657bb6af7edeab95b28ae919,0.0876,0.0877,0,150,150,48,1,onetwo,,,,,,,,,,,,,,,,,,,,,,,,,,,,,,,,,,,,,,,,,,,,,,,,,,,,,,,,,,,,,,,,,,,,,,,,,,,,,,,,,,,,,,,,,,,,,,,,,,,,,,,,,,,,,,,,,,,,,,,,,,,,,,,,,,,,,,,
,,6142a70e4c34ce72b50a2eff,2023-12-14_20h21.26.970,kallum_motion_pilot,2023.2.3,Win32,59.93407252,6142a70e4c34ce72b50a2eff,657bb317c8798c6608bceb3f,657bb6af7edeab95b28ae919,0.0879,0.0881,0,151,151,52,1,threeone,,,,,,,,,,,,,,,,,,,,,,,,,,,,,,,,,,,,,,,,,,,,,,,,,,,,,,,,,,,,,,,,,,,,,,,,,,,,,,,,,,,,,,,,,,,,,,,,,,,,,,,,,,,,,,,,,,,,,,,,,,,,,,,,,,,,,,,
,,6142a70e4c34ce72b50a2eff,2023-12-14_20h21.26.970,kallum_motion_pilot,2023.2.3,Win32,59.93407252,6142a70e4c34ce72b50a2eff,657bb317c8798c6608bceb3f,657bb6af7edeab95b28ae919,0.0883,0.0884,0,152,152,51,1,twofour,,,,,,,,,,,,,,,,,,,,,,,,,,,,,,,,,,,,,,,,,,,,,,,,,,,,,,,,,,,,,,,,,,,,,,,,,,,,,,,,,,,,,,,,,,,,,,,,,,,,,,,,,,,,,,,,,,,,,,,,,,,,,,,,,,,,,,,
,,6142a70e4c34ce72b50a2eff,2023-12-14_20h21.26.970,kallum_motion_pilot,2023.2.3,Win32,59.93407252,6142a70e4c34ce72b50a2eff,657bb317c8798c6608bceb3f,657bb6af7edeab95b28ae919,0.0886,0.0886,0,153,153,105,1,fiveseven,,,,,,,,,,,,,,,,,,,,,,,,,,,,,,,,,,,,,,,,,,,,,,,,,,,,,,,,,,,,,,,,,,,,,,,,,,,,,,,,,,,,,,,,,,,,,,,,,,,,,,,,,,,,,,,,,,,,,,,,,,,,,,,,,,,,,,,
,,6142a70e4c34ce72b50a2eff,2023-12-14_20h21.26.970,kallum_motion_pilot,2023.2.3,Win32,59.93407252,6142a70e4c34ce72b50a2eff,657bb317c8798c6608bceb3f,657bb6af7edeab95b28ae919,0.0887,0.0889,0,154,154,68,1,threeone,,,,,,,,,,,,,,,,,,,,,,,,,,,,,,,,,,,,,,,,,,,,,,,,,,,,,,,,,,,,,,,,,,,,,,,,,,,,,,,,,,,,,,,,,,,,,,,,,,,,,,,,,,,,,,,,,,,,,,,,,,,,,,,,,,,,,,,
,,6142a70e4c34ce72b50a2eff,2023-12-14_20h21.26.970,kallum_motion_pilot,2023.2.3,Win32,59.93407252,6142a70e4c34ce72b50a2eff,657bb317c8798c6608bceb3f,657bb6af7edeab95b28ae919,0.089,0.089,0,155,155,97,1,fiveseven,,,,,,,,,,,,,,,,,,,,,,,,,,,,,,,,,,,,,,,,,,,,,,,,,,,,,,,,,,,,,,,,,,,,,,,,,,,,,,,,,,,,,,,,,,,,,,,,,,,,,,,,,,,,,,,,,,,,,,,,,,,,,,,,,,,,,,,
,,6142a70e4c34ce72b50a2eff,2023-12-14_20h21.26.970,kallum_motion_pilot,2023.2.3,Win32,59.93407252,6142a70e4c34ce72b50a2eff,657bb317c8798c6608bceb3f,657bb6af7edeab95b28ae919,0.0892,0.0893,0,156,156,153,1,fiveseven,,,,,,,,,,,,,,,,,,,,,,,,,,,,,,,,,,,,,,,,,,,,,,,,,,,,,,,,,,,,,,,,,,,,,,,,,,,,,,,,,,,,,,,,,,,,,,,,,,,,,,,,,,,,,,,,,,,,,,,,,,,,,,,,,,,,,,,
,,6142a70e4c34ce72b50a2eff,2023-12-14_20h21.26.970,kallum_motion_pilot,2023.2.3,Win32,59.93407252,6142a70e4c34ce72b50a2eff,657bb317c8798c6608bceb3f,657bb6af7edeab95b28ae919,0.0895,0.0895,0,157,157,150,1,eightsix,,,,,,,,,,,,,,,,,,,,,,,,,,,,,,,,,,,,,,,,,,,,,,,,,,,,,,,,,,,,,,,,,,,,,,,,,,,,,,,,,,,,,,,,,,,,,,,,,,,,,,,,,,,,,,,,,,,,,,,,,,,,,,,,,,,,,,,
,,6142a70e4c34ce72b50a2eff,2023-12-14_20h21.26.970,kallum_motion_pilot,2023.2.3,Win32,59.93407252,6142a70e4c34ce72b50a2eff,657bb317c8798c6608bceb3f,657bb6af7edeab95b28ae919,0.0896,0.0898,0,158,158,10,1,twoone,,,,,,,,,,,,,,,,,,,,,,,,,,,,,,,,,,,,,,,,,,,,,,,,,,,,,,,,,,,,,,,,,,,,,,,,,,,,,,,,,,,,,,,,,,,,,,,,,,,,,,,,,,,,,,,,,,,,,,,,,,,,,,,,,,,,,,,
,,6142a70e4c34ce72b50a2eff,2023-12-14_20h21.26.970,kallum_motion_pilot,2023.2.3,Win32,59.93407252,6142a70e4c34ce72b50a2eff,657bb317c8798c6608bceb3f,657bb6af7edeab95b28ae919,0.0899,0.09,0,159,159,67,1,twofour,,,,,,,,,,,,,,,,,,,,,,,,,,,,,,,,,,,,,,,,,,,,,,,,,,,,,,,,,,,,,,,,,,,,,,,,,,,,,,,,,,,,,,,,,,,,,,,,,,,,,,,,,,,,,,,,,,,,,,,,,,,,,,,,,,,,,,,
,,6142a70e4c34ce72b50a2eff,2023-12-14_20h21.26.970,kallum_motion_pilot,2023.2.3,Win32,59.93407252,6142a70e4c34ce72b50a2eff,657bb317c8798c6608bceb3f,657bb6af7edeab95b28ae919,0.0901,0.0903,0,160,160,30,1,fourtwo,,,,,,,,,,,,,,,,,,,,,,,,,,,,,,,,,,,,,,,,,,,,,,,,,,,,,,,,,,,,,,,,,,,,,,,,,,,,,,,,,,,,,,,,,,,,,,,,,,,,,,,,,,,,,,,,,,,,,,,,,,,,,,,,,,,,,,,
,,6142a70e4c34ce72b50a2eff,2023-12-14_20h21.26.970,kallum_motion_pilot,2023.2.3,Win32,59.93407252,6142a70e4c34ce72b50a2eff,657bb317c8798c6608bceb3f,657bb6af7edeab95b28ae919,0.0903,0.0905,0,161,161,120,1,fivesix,,,,,,,,,,,,,,,,,,,,,,,,,,,,,,,,,,,,,,,,,,,,,,,,,,,,,,,,,,,,,,,,,,,,,,,,,,,,,,,,,,,,,,,,,,,,,,,,,,,,,,,,,,,,,,,,,,,,,,,,,,,,,,,,,,,,,,,
,,6142a70e4c34ce72b50a2eff,2023-12-14_20h21.26.970,kallum_motion_pilot,2023.2.3,Win32,59.93407252,6142a70e4c34ce72b50a2eff,657bb317c8798c6608bceb3f,657bb6af7edeab95b28ae919,0.0906,0.0907,1,0,162,52,1,threeone,,,,,,,,,,,,,,,,,,,,,,,,,,,,,,,,,,,,,,,,,,,,,,,,,,,,,,,,,,,,,,,,,,,,,,,,,,,,,,,,,,,,,,,,,,,,,,,,,,,,,,,,,,,,,,,,,,,,,,,,,,,,,,,,,,,,,,,
,,6142a70e4c34ce72b50a2eff,2023-12-14_20h21.26.970,kallum_motion_pilot,2023.2.3,Win32,59.93407252,6142a70e4c34ce72b50a2eff,657bb317c8798c6608bceb3f,657bb6af7edeab95b28ae919,0.0908,0.0909,1,1,163,114,1,sixfive,,,,,,,,,,,,,,,,,,,,,,,,,,,,,,,,,,,,,,,,,,,,,,,,,,,,,,,,,,,,,,,,,,,,,,,,,,,,,,,,,,,,,,,,,,,,,,,,,,,,,,,,,,,,,,,,,,,,,,,,,,,,,,,,,,,,,,,
,,6142a70e4c34ce72b50a2eff,2023-12-14_20h21.26.970,kallum_motion_pilot,2023.2.3,Win32,59.93407252,6142a70e4c34ce72b50a2eff,657bb317c8798c6608bceb3f,657bb6af7edeab95b28ae919,0.091,0.0912,1,2,164,39,1,fourthree,,,,,,,,,,,,,,,,,,,,,,,,,,,,,,,,,,,,,,,,,,,,,,,,,,,,,,,,,,,,,,,,,,,,,,,,,,,,,,,,,,,,,,,,,,,,,,,,,,,,,,,,,,,,,,,,,,,,,,,,,,,,,,,,,,,,,,,
,,6142a70e4c34ce72b50a2eff,2023-12-14_20h21.26.970,kallum_motion_pilot,2023.2.3,Win32,59.93407252,6142a70e4c34ce72b50a2eff,657bb317c8798c6608bceb3f,657bb6af7edeab95b28ae919,0.0913,0.0914,1,3,165,140,1,sevenfive,,,,,,,,,,,,,,,,,,,,,,,,,,,,,,,,,,,,,,,,,,,,,,,,,,,,,,,,,,,,,,,,,,,,,,,,,,,,,,,,,,,,,,,,,,,,,,,,,,,,,,,,,,,,,,,,,,,,,,,,,,,,,,,,,,,,,,,
,,6142a70e4c34ce72b50a2eff,2023-12-14_20h21.26.970,kallum_motion_pilot,2023.2.3,Win32,59.93407252,6142a70e4c34ce72b50a2eff,657bb317c8798c6608bceb3f,657bb6af7edeab95b28ae919,0.0915,0.0916,1,4,166,102,1,eightsix,,,,,,,,,,,,,,,,,,,,,,,,,,,,,,,,,,,,,,,,,,,,,,,,,,,,,,,,,,,,,,,,,,,,,,,,,,,,,,,,,,,,,,,,,,,,,,,,,,,,,,,,,,,,,,,,,,,,,,,,,,,,,,,,,,,,,,,
,,6142a70e4c34ce72b50a2eff,2023-12-14_20h21.26.970,kallum_motion_pilot,2023.2.3,Win32,59.93407252,6142a70e4c34ce72b50a2eff,657bb317c8798c6608bceb3f,657bb6af7edeab95b28ae919,0.0918,0.0918,1,5,167,42,1,twoone,,,,,,,,,,,,,,,,,,,,,,,,,,,,,,,,,,,,,,,,,,,,,,,,,,,,,,,,,,,,,,,,,,,,,,,,,,,,,,,,,,,,,,,,,,,,,,,,,,,,,,,,,,,,,,,,,,,,,,,,,,,,,,,,,,,,,,,
,,6142a70e4c34ce72b50a2eff,2023-12-14_20h21.26.970,kallum_motion_pilot,2023.2.3,Win32,59.93407252,6142a70e4c34ce72b50a2eff,657bb317c8798c6608bceb3f,657bb6af7edeab95b28ae919,0.0923,0.0925,1,6,168,124,1,sevenfive,,,,,,,,,,,,,,,,,,,,,,,,,,,,,,,,,,,,,,,,,,,,,,,,,,,,,,,,,,,,,,,,,,,,,,,,,,,,,,,,,,,,,,,,,,,,,,,,,,,,,,,,,,,,,,,,,,,,,,,,,,,,,,,,,,,,,,,
,,6142a70e4c34ce72b50a2eff,2023-12-14_20h21.26.970,kallum_motion_pilot,2023.2.3,Win32,59.93407252,6142a70e4c34ce72b50a2eff,657bb317c8798c6608bceb3f,657bb6af7edeab95b28ae919,0.0928,0.093,1,7,169,66,1,twoone,,,,,,,,,,,,,,,,,,,,,,,,,,,,,,,,,,,,,,,,,,,,,,,,,,,,,,,,,,,,,,,,,,,,,,,,,,,,,,,,,,,,,,,,,,,,,,,,,,,,,,,,,,,,,,,,,,,,,,,,,,,,,,,,,,,,,,,
,,6142a70e4c34ce72b50a2eff,2023-12-14_20h21.26.970,kallum_motion_pilot,2023.2.3,Win32,59.93407252,6142a70e4c34ce72b50a2eff,657bb317c8798c6608bceb3f,657bb6af7edeab95b28ae919,0.0931,0.0932,1,8,170,44,1,threeone,,,,,,,,,,,,,,,,,,,,,,,,,,,,,,,,,,,,,,,,,,,,,,,,,,,,,,,,,,,,,,,,,,,,,,,,,,,,,,,,,,,,,,,,,,,,,,,,,,,,,,,,,,,,,,,,,,,,,,,,,,,,,,,,,,,,,,,
,,6142a70e4c34ce72b50a2eff,2023-12-14_20h21.26.970,kallum_motion_pilot,2023.2.3,Win32,59.93407252,6142a70e4c34ce72b50a2eff,657bb317c8798c6608bceb3f,657bb6af7edeab95b28ae919,0.0933,0.0935,1,9,171,69,1,threefour,,,,,,,,,,,,,,,,,,,,,,,,,,,,,,,,,,,,,,,,,,,,,,,,,,,,,,,,,,,,,,,,,,,,,,,,,,,,,,,,,,,,,,,,,,,,,,,,,,,,,,,,,,,,,,,,,,,,,,,,,,,,,,,,,,,,,,,
,,6142a70e4c34ce72b50a2eff,2023-12-14_20h21.26.970,kallum_motion_pilot,2023.2.3,Win32,59.93407252,6142a70e4c34ce72b50a2eff,657bb317c8798c6608bceb3f,657bb6af7edeab95b28ae919,0.0936,0.0937,1,10,172,141,1,seveneight,,,,,,,,,,,,,,,,,,,,,,,,,,,,,,,,,,,,,,,,,,,,,,,,,,,,,,,,,,,,,,,,,,,,,,,,,,,,,,,,,,,,,,,,,,,,,,,,,,,,,,,,,,,,,,,,,,,,,,,,,,,,,,,,,,,,,,,
,,6142a70e4c34ce72b50a2eff,2023-12-14_20h21.26.970,kallum_motion_pilot,2023.2.3,Win32,59.93407252,6142a70e4c34ce72b50a2eff,657bb317c8798c6608bceb3f,657bb6af7edeab95b28ae919,0.0939,0.0939,1,11,173,113,1,fiveseven,,,,,,,,,,,,,,,,,,,,,,,,,,,,,,,,,,,,,,,,,,,,,,,,,,,,,,,,,,,,,,,,,,,,,,,,,,,,,,,,,,,,,,,,,,,,,,,,,,,,,,,,,,,,,,,,,,,,,,,,,,,,,,,,,,,,,,,
,,6142a70e4c34ce72b50a2eff,2023-12-14_20h21.26.970,kallum_motion_pilot,2023.2.3,Win32,59.93407252,6142a70e4c34ce72b50a2eff,657bb317c8798c6608bceb3f,657bb6af7edeab95b28ae919,0.094,0.0941,1,12,174,63,1,fourthree,,,,,,,,,,,,,,,,,,,,,,,,,,,,,,,,,,,,,,,,,,,,,,,,,,,,,,,,,,,,,,,,,,,,,,,,,,,,,,,,,,,,,,,,,,,,,,,,,,,,,,,,,,,,,,,,,,,,,,,,,,,,,,,,,,,,,,,
,,6142a70e4c34ce72b50a2eff,2023-12-14_20h21.26.970,kallum_motion_pilot,2023.2.3,Win32,59.93407252,6142a70e4c34ce72b50a2eff,657bb317c8798c6608bceb3f,657bb6af7edeab95b28ae919,0.0943,0.0944,1,13,175,99,1,sixeight,,,,,,,,,,,,,,,,,,,,,,,,,,,,,,,,,,,,,,,,,,,,,,,,,,,,,,,,,,,,,,,,,,,,,,,,,,,,,,,,,,,,,,,,,,,,,,,,,,,,,,,,,,,,,,,,,,,,,,,,,,,,,,,,,,,,,,,
,,6142a70e4c34ce72b50a2eff,2023-12-14_20h21.26.970,kallum_motion_pilot,2023.2.3,Win32,59.93407252,6142a70e4c34ce72b50a2eff,657bb317c8798c6608bceb3f,657bb6af7edeab95b28ae919,0.0946,0.0946,1,14,176,18,1,twoone,,,,,,,,,,,,,,,,,,,,,,,,,,,,,,,,,,,,,,,,,,,,,,,,,,,,,,,,,,,,,,,,,,,,,,,,,,,,,,,,,,,,,,,,,,,,,,,,,,,,,,,,,,,,,,,,,,,,,,,,,,,,,,,,,,,,,,,
,,6142a70e4c34ce72b50a2eff,2023-12-14_20h21.26.970,kallum_motion_pilot,2023.2.3,Win32,59.93407252,6142a70e4c34ce72b50a2eff,657bb317c8798c6608bceb3f,657bb6af7edeab95b28ae919,0.0951,0.0952,1,15,177,154,1,sixfive,,,,,,,,,,,,,,,,,,,,,,,,,,,,,,,,,,,,,,,,,,,,,,,,,,,,,,,,,,,,,,,,,,,,,,,,,,,,,,,,,,,,,,,,,,,,,,,,,,,,,,,,,,,,,,,,,,,,,,,,,,,,,,,,,,,,,,,
,,6142a70e4c34ce72b50a2eff,2023-12-14_20h21.26.970,kallum_motion_pilot,2023.2.3,Win32,59.93407252,6142a70e4c34ce72b50a2eff,657bb317c8798c6608bceb3f,657bb6af7edeab95b28ae919,0.0953,0.0954,1,16,178,7,1,fourthree,,,,,,,,,,,,,,,,,,,,,,,,,,,,,,,,,,,,,,,,,,,,,,,,,,,,,,,,,,,,,,,,,,,,,,,,,,,,,,,,,,,,,,,,,,,,,,,,,,,,,,,,,,,,,,,,,,,,,,,,,,,,,,,,,,,,,,,
,,6142a70e4c34ce72b50a2eff,2023-12-14_20h21.26.970,kallum_motion_pilot,2023.2.3,Win32,59.93407252,6142a70e4c34ce72b50a2eff,657bb317c8798c6608bceb3f,657bb6af7edeab95b28ae919,0.0956,0.0957,1,17,179,37,1,threefour,,,,,,,,,,,,,,,,,,,,,,,,,,,,,,,,,,,,,,,,,,,,,,,,,,,,,,,,,,,,,,,,,,,,,,,,,,,,,,,,,,,,,,,,,,,,,,,,,,,,,,,,,,,,,,,,,,,,,,,,,,,,,,,,,,,,,,,
,,6142a70e4c34ce72b50a2eff,2023-12-14_20h21.26.970,kallum_motion_pilot,2023.2.3,Win32,59.93407252,6142a70e4c34ce72b50a2eff,657bb317c8798c6608bceb3f,657bb6af7edeab95b28ae919,0.0958,0.0959,1,18,180,1,1,onethree,,,,,,,,,,,,,,,,,,,,,,,,,,,,,,,,,,,,,,,,,,,,,,,,,,,,,,,,,,,,,,,,,,,,,,,,,,,,,,,,,,,,,,,,,,,,,,,,,,,,,,,,,,,,,,,,,,,,,,,,,,,,,,,,,,,,,,,
,,6142a70e4c34ce72b50a2eff,2023-12-14_20h21.26.970,kallum_motion_pilot,2023.2.3,Win32,59.93407252,6142a70e4c34ce72b50a2eff,657bb317c8798c6608bceb3f,657bb6af7edeab95b28ae919,0.096,0.0961,1,19,181,31,1,fourthree,,,,,,,,,,,,,,,,,,,,,,,,,,,,,,,,,,,,,,,,,,,,,,,,,,,,,,,,,,,,,,,,,,,,,,,,,,,,,,,,,,,,,,,,,,,,,,,,,,,,,,,,,,,,,,,,,,,,,,,,,,,,,,,,,,,,,,,
,,6142a70e4c34ce72b50a2eff,2023-12-14_20h21.26.970,kallum_motion_pilot,2023.2.3,Win32,59.93407252,6142a70e4c34ce72b50a2eff,657bb317c8798c6608bceb3f,657bb6af7edeab95b28ae919,0.0963,0.0964,1,20,182,13,1,threefour,,,,,,,,,,,,,,,,,,,,,,,,,,,,,,,,,,,,,,,,,,,,,,,,,,,,,,,,,,,,,,,,,,,,,,,,,,,,,,,,,,,,,,,,,,,,,,,,,,,,,,,,,,,,,,,,,,,,,,,,,,,,,,,,,,,,,,,
,,6142a70e4c34ce72b50a2eff,2023-12-14_20h21.26.970,kallum_motion_pilot,2023.2.3,Win32,59.93407252,6142a70e4c34ce72b50a2eff,657bb317c8798c6608bceb3f,657bb6af7edeab95b28ae919,0.0964,0.0966,1,21,183,131,1,sixeight,,,,,,,,,,,,,,,,,,,,,,,,,,,,,,,,,,,,,,,,,,,,,,,,,,,,,,,,,,,,,,,,,,,,,,,,,,,,,,,,,,,,,,,,,,,,,,,,,,,,,,,,,,,,,,,,,,,,,,,,,,,,,,,,,,,,,,,
,,6142a70e4c34ce72b50a2eff,2023-12-14_20h21.26.970,kallum_motion_pilot,2023.2.3,Win32,59.93407252,6142a70e4c34ce72b50a2eff,657bb317c8798c6608bceb3f,657bb6af7edeab95b28ae919,0.0968,0.097,1,22,184,24,1,onetwo,,,,,,,,,,,,,,,,,,,,,,,,,,,,,,,,,,,,,,,,,,,,,,,,,,,,,,,,,,,,,,,,,,,,,,,,,,,,,,,,,,,,,,,,,,,,,,,,,,,,,,,,,,,,,,,,,,,,,,,,,,,,,,,,,,,,,,,
,,6142a70e4c34ce72b50a2eff,2023-12-14_20h21.26.970,kallum_motion_pilot,2023.2.3,Win32,59.93407252,6142a70e4c34ce72b50a2eff,657bb317c8798c6608bceb3f,657bb6af7edeab95b28ae919,0.0971,0.0973,1,23,185,125,1,seveneight,,,,,,,,,,,,,,,,,,,,,,,,,,,,,,,,,,,,,,,,,,,,,,,,,,,,,,,,,,,,,,,,,,,,,,,,,,,,,,,,,,,,,,,,,,,,,,,,,,,,,,,,,,,,,,,,,,,,,,,,,,,,,,,,,,,,,,,
,,6142a70e4c34ce72b50a2eff,2023-12-14_20h21.26.970,kallum_motion_pilot,2023.2.3,Win32,59.93407252,6142a70e4c34ce72b50a2eff,657bb317c8798c6608bceb3f,657bb6af7edeab95b28ae919,0.0975,0.0976,1,24,186,148,1,sevenfive,,,,,,,,,,,,,,,,,,,,,,,,,,,,,,,,,,,,,,,,,,,,,,,,,,,,,,,,,,,,,,,,,,,,,,,,,,,,,,,,,,,,,,,,,,,,,,,,,,,,,,,,,,,,,,,,,,,,,,,,,,,,,,,,,,,,,,,
,,6142a70e4c34ce72b50a2eff,2023-12-14_20h21.26.970,kallum_motion_pilot,2023.2.3,Win32,59.93407252,6142a70e4c34ce72b50a2eff,657bb317c8798c6608bceb3f,657bb6af7edeab95b28ae919,0.0977,0.0978,1,25,187,48,1,onetwo,,,,,,,,,,,,,,,,,,,,,,,,,,,,,,,,,,,,,,,,,,,,,,,,,,,,,,,,,,,,,,,,,,,,,,,,,,,,,,,,,,,,,,,,,,,,,,,,,,,,,,,,,,,,,,,,,,,,,,,,,,,,,,,,,,,,,,,
,,6142a70e4c34ce72b50a2eff,2023-12-14_20h21.26.970,kallum_motion_pilot,2023.2.3,Win32,59.93407252,6142a70e4c34ce72b50a2eff,657bb317c8798c6608bceb3f,657bb6af7edeab95b28ae919,0.098,0.0983,1,26,188,19,1,twofour,,,,,,,,,,,,,,,,,,,,,,,,,,,,,,,,,,,,,,,,,,,,,,,,,,,,,,,,,,,,,,,,,,,,,,,,,,,,,,,,,,,,,,,,,,,,,,,,,,,,,,,,,,,,,,,,,,,,,,,,,,,,,,,,,,,,,,,
,,6142a70e4c34ce72b50a2eff,2023-12-14_20h21.26.970,kallum_motion_pilot,2023.2.3,Win32,59.93407252,6142a70e4c34ce72b50a2eff,657bb317c8798c6608bceb3f,657bb6af7edeab95b28ae919,0.0984,0.0985,1,27,189,71,1,fourthree,,,,,,,,,,,,,,,,,,,,,,,,,,,,,,,,,,,,,,,,,,,,,,,,,,,,,,,,,,,,,,,,,,,,,,,,,,,,,,,,,,,,,,,,,,,,,,,,,,,,,,,,,,,,,,,,,,,,,,,,,,,,,,,,,,,,,,,
,,6142a70e4c34ce72b50a2eff,2023-12-14_20h21.26.970,kallum_motion_pilot,2023.2.3,Win32,59.93407252,6142a70e4c34ce72b50a2eff,657bb317c8798c6608bceb3f,657bb6af7edeab95b28ae919,0.0989,0.0989,1,28,190,126,1,eightsix,,,,,,,,,,,,,,,,,,,,,,,,,,,,,,,,,,,,,,,,,,,,,,,,,,,,,,,,,,,,,,,,,,,,,,,,,,,,,,,,,,,,,,,,,,,,,,,,,,,,,,,,,,,,,,,,,,,,,,,,,,,,,,,,,,,,,,,
,,6142a70e4c34ce72b50a2eff,2023-12-14_20h21.26.970,kallum_motion_pilot,2023.2.3,Win32,59.93407252,6142a70e4c34ce72b50a2eff,657bb317c8798c6608bceb3f,657bb6af7edeab95b28ae919,0.0991,0.0991,1,29,191,33,1,onethree,,,,,,,,,,,,,,,,,,,,,,,,,,,,,,,,,,,,,,,,,,,,,,,,,,,,,,,,,,,,,,,,,,,,,,,,,,,,,,,,,,,,,,,,,,,,,,,,,,,,,,,,,,,,,,,,,,,,,,,,,,,,,,,,,,,,,,,
,,6142a70e4c34ce72b50a2eff,2023-12-14_20h21.26.970,kallum_motion_pilot,2023.2.3,Win32,59.93407252,6142a70e4c34ce72b50a2eff,657bb317c8798c6608bceb3f,657bb6af7edeab95b28ae919,0.0992,0.0994,1,30,192,75,1,twofour,,,,,,,,,,,,,,,,,,,,,,,,,,,,,,,,,,,,,,,,,,,,,,,,,,,,,,,,,,,,,,,,,,,,,,,,,,,,,,,,,,,,,,,,,,,,,,,,,,,,,,,,,,,,,,,,,,,,,,,,,,,,,,,,,,,,,,,
,,6142a70e4c34ce72b50a2eff,2023-12-14_20h21.26.970,kallum_motion_pilot,2023.2.3,Win32,59.93407252,6142a70e4c34ce72b50a2eff,657bb317c8798c6608bceb3f,657bb6af7edeab95b28ae919,0.0995,0.0996,1,31,193,110,1,eightsix,,,,,,,,,,,,,,,,,,,,,,,,,,,,,,,,,,,,,,,,,,,,,,,,,,,,,,,,,,,,,,,,,,,,,,,,,,,,,,,,,,,,,,,,,,,,,,,,,,,,,,,,,,,,,,,,,,,,,,,,,,,,,,,,,,,,,,,
,,6142a70e4c34ce72b50a2eff,2023-12-14_20h21.26.970,kallum_motion_pilot,2023.2.3,Win32,59.93407252,6142a70e4c34ce72b50a2eff,657bb317c8798c6608bceb3f,657bb6af7edeab95b28ae919,0.0998,0.0998,1,32,194,54,1,fourtwo,,,,,,,,,,,,,,,,,,,,,,,,,,,,,,,,,,,,,,,,,,,,,,,,,,,,,,,,,,,,,,,,,,,,,,,,,,,,,,,,,,,,,,,,,,,,,,,,,,,,,,,,,,,,,,,,,,,,,,,,,,,,,,,,,,,,,,,
,,6142a70e4c34ce72b50a2eff,2023-12-14_20h21.26.970,kallum_motion_pilot,2023.2.3,Win32,59.93407252,6142a70e4c34ce72b50a2eff,657bb317c8798c6608bceb3f,657bb6af7edeab95b28ae919,0.1,0.1,1,33,195,122,1,sixfive,,,,,,,,,,,,,,,,,,,,,,,,,,,,,,,,,,,,,,,,,,,,,,,,,,,,,,,,,,,,,,,,,,,,,,,,,,,,,,,,,,,,,,,,,,,,,,,,,,,,,,,,,,,,,,,,,,,,,,,,,,,,,,,,,,,,,,,
,,6142a70e4c34ce72b50a2eff,2023-12-14_20h21.26.970,kallum_motion_pilot,2023.2.3,Win32,59.93407252,6142a70e4c34ce72b50a2eff,657bb317c8798c6608bceb3f,657bb6af7edeab95b28ae919,0.1001,0.1003,1,34,196,6,1,fourtwo,,,,,,,,,,,,,,,,,,,,,,,,,,,,,,,,,,,,,,,,,,,,,,,,,,,,,,,,,,,,,,,,,,,,,,,,,,,,,,,,,,,,,,,,,,,,,,,,,,,,,,,,,,,,,,,,,,,,,,,,,,,,,,,,,,,,,,,
,,6142a70e4c34ce72b50a2eff,2023-12-14_20h21.26.970,kallum_motion_pilot,2023.2.3,Win32,59.93407252,6142a70e4c34ce72b50a2eff,657bb317c8798c6608bceb3f,657bb6af7edeab95b28ae919,0.1004,0.1006,1,35,197,73,1,onethree,,,,,,,,,,,,,,,,,,,,,,,,,,,,,,,,,,,,,,,,,,,,,,,,,,,,,,,,,,,,,,,,,,,,,,,,,,,,,,,,,,,,,,,,,,,,,,,,,,,,,,,,,,,,,,,,,,,,,,,,,,,,,,,,,,,,,,,
,,6142a70e4c34ce72b50a2eff,2023-12-14_20h21.26.970,kallum_motion_pilot,2023.2.3,Win32,59.93407252,6142a70e4c34ce72b50a2eff,657bb317c8798c6608bceb3f,657bb6af7edeab95b28ae919,0.1007,0.1008,1,36,198,27,1,twofour,,,,,,,,,,,,,,,,,,,,,,,,,,,,,,,,,,,,,,,,,,,,,,,,,,,,,,,,,,,,,,,,,,,,,,,,,,,,,,,,,,,,,,,,,,,,,,,,,,,,,,,,,,,,,,,,,,,,,,,,,,,,,,,,,,,,,,,
,,6142a70e4c34ce72b50a2eff,2023-12-14_20h21.26.970,kallum_motion_pilot,2023.2.3,Win32,59.93407252,6142a70e4c34ce72b50a2eff,657bb317c8798c6608bceb3f,657bb6af7edeab95b28ae919,0.101,0.101,1,37,199,84,1,sevenfive,,,,,,,,,,,,,,,,,,,,,,,,,,,,,,,,,,,,,,,,,,,,,,,,,,,,,,,,,,,,,,,,,,,,,,,,,,,,,,,,,,,,,,,,,,,,,,,,,,,,,,,,,,,,,,,,,,,,,,,,,,,,,,,,,,,,,,,
,,6142a70e4c34ce72b50a2eff,2023-12-14_20h21.26.970,kallum_motion_pilot,2023.2.3,Win32,59.93407252,6142a70e4c34ce72b50a2eff,657bb317c8798c6608bceb3f,657bb6af7edeab95b28ae919,0.1012,0.1013,1,38,200,21,1,threefour,,,,,,,,,,,,,,,,,,,,,,,,,,,,,,,,,,,,,,,,,,,,,,,,,,,,,,,,,,,,,,,,,,,,,,,,,,,,,,,,,,,,,,,,,,,,,,,,,,,,,,,,,,,,,,,,,,,,,,,,,,,,,,,,,,,,,,,
,,6142a70e4c34ce72b50a2eff,2023-12-14_20h21.26.970,kallum_motion_pilot,2023.2.3,Win32,59.93407252,6142a70e4c34ce72b50a2eff,657bb317c8798c6608bceb3f,657bb6af7edeab95b28ae919,0.1014,0.1015,1,39,201,136,1,fivesix,,,,,,,,,,,,,,,,,,,,,,,,,,,,,,,,,,,,,,,,,,,,,,,,,,,,,,,,,,,,,,,,,,,,,,,,,,,,,,,,,,,,,,,,,,,,,,,,,,,,,,,,,,,,,,,,,,,,,,,,,,,,,,,,,,,,,,,
,,6142a70e4c34ce72b50a2eff,2023-12-14_20h21.26.970,kallum_motion_pilot,2023.2.3,Win32,59.93407252,6142a70e4c34ce72b50a2eff,657bb317c8798c6608bceb3f,657bb6af7edeab95b28ae919,0.1016,0.1017,1,40,202,58,1,twoone,,,,,,,,,,,,,,,,,,,,,,,,,,,,,,,,,,,,,,,,,,,,,,,,,,,,,,,,,,,,,,,,,,,,,,,,,,,,,,,,,,,,,,,,,,,,,,,,,,,,,,,,,,,,,,,,,,,,,,,,,,,,,,,,,,,,,,,
,,6142a70e4c34ce72b50a2eff,2023-12-14_20h21.26.970,kallum_motion_pilot,2023.2.3,Win32,59.93407252,6142a70e4c34ce72b50a2eff,657bb317c8798c6608bceb3f,657bb6af7edeab95b28ae919,0.1018,0.1019,1,41,203,157,1,seveneight,,,,,,,,,,,,,,,,,,,,,,,,,,,,,,,,,,,,,,,,,,,,,,,,,,,,,,,,,,,,,,,,,,,,,,,,,,,,,,,,,,,,,,,,,,,,,,,,,,,,,,,,,,,,,,,,,,,,,,,,,,,,,,,,,,,,,,,
,,6142a70e4c34ce72b50a2eff,2023-12-14_20h21.26.970,kallum_motion_pilot,2023.2.3,Win32,59.93407252,6142a70e4c34ce72b50a2eff,657bb317c8798c6608bceb3f,657bb6af7edeab95b28ae919,0.1021,0.1021,1,42,204,12,1,threeone,,,,,,,,,,,,,,,,,,,,,,,,,,,,,,,,,,,,,,,,,,,,,,,,,,,,,,,,,,,,,,,,,,,,,,,,,,,,,,,,,,,,,,,,,,,,,,,,,,,,,,,,,,,,,,,,,,,,,,,,,,,,,,,,,,,,,,,
,,6142a70e4c34ce72b50a2eff,2023-12-14_20h21.26.970,kallum_motion_pilot,2023.2.3,Win32,59.93407252,6142a70e4c34ce72b50a2eff,657bb317c8798c6608bceb3f,657bb6af7edeab95b28ae919,0.1023,0.1024,1,43,205,135,1,eightseven,,,,,,,,,,,,,,,,,,,,,,,,,,,,,,,,,,,,,,,,,,,,,,,,,,,,,,,,,,,,,,,,,,,,,,,,,,,,,,,,,,,,,,,,,,,,,,,,,,,,,,,,,,,,,,,,,,,,,,,,,,,,,,,,,,,,,,,
,,6142a70e4c34ce72b50a2eff,2023-12-14_20h21.26.970,kallum_motion_pilot,2023.2.3,Win32,59.93407252,6142a70e4c34ce72b50a2eff,657bb317c8798c6608bceb3f,657bb6af7edeab95b28ae919,0.1025,0.1027,1,44,206,104,1,fivesix,,,,,,,,,,,,,,,,,,,,,,,,,,,,,,,,,,,,,,,,,,,,,,,,,,,,,,,,,,,,,,,,,,,,,,,,,,,,,,,,,,,,,,,,,,,,,,,,,,,,,,,,,,,,,,,,,,,,,,,,,,,,,,,,,,,,,,,
,,6142a70e4c34ce72b50a2eff,2023-12-14_20h21.26.970,kallum_motion_pilot,2023.2.3,Win32,59.93407252,6142a70e4c34ce72b50a2eff,657bb317c8798c6608bceb3f,657bb6af7edeab95b28ae919,0.1028,0.1028,1,45,207,93,1,seveneight,,,,,,,,,,,,,,,,,,,,,,,,,,,,,,,,,,,,,,,,,,,,,,,,,,,,,,,,,,,,,,,,,,,,,,,,,,,,,,,,,,,,,,,,,,,,,,,,,,,,,,,,,,,,,,,,,,,,,,,,,,,,,,,,,,,,,,,
,,6142a70e4c34ce72b50a2eff,2023-12-14_20h21.26.970,kallum_motion_pilot,2023.2.3,Win32,59.93407252,6142a70e4c34ce72b50a2eff,657bb317c8798c6608bceb3f,657bb6af7edeab95b28ae919,0.103,0.1031,1,46,208,130,1,sixfive,,,,,,,,,,,,,,,,,,,,,,,,,,,,,,,,,,,,,,,,,,,,,,,,,,,,,,,,,,,,,,,,,,,,,,,,,,,,,,,,,,,,,,,,,,,,,,,,,,,,,,,,,,,,,,,,,,,,,,,,,,,,,,,,,,,,,,,
,,6142a70e4c34ce72b50a2eff,2023-12-14_20h21.26.970,kallum_motion_pilot,2023.2.3,Win32,59.93407252,6142a70e4c34ce72b50a2eff,657bb317c8798c6608bceb3f,657bb6af7edeab95b28ae919,0.1032,0.1034,1,47,209,159,1,eightseven,,,,,,,,,,,,,,,,,,,,,,,,,,,,,,,,,,,,,,,,,,,,,,,,,,,,,,,,,,,,,,,,,,,,,,,,,,,,,,,,,,,,,,,,,,,,,,,,,,,,,,,,,,,,,,,,,,,,,,,,,,,,,,,,,,,,,,,
,,6142a70e4c34ce72b50a2eff,2023-12-14_20h21.26.970,kallum_motion_pilot,2023.2.3,Win32,59.93407252,6142a70e4c34ce72b50a2eff,657bb317c8798c6608bceb3f,657bb6af7edeab95b28ae919,0.1035,0.1037,1,48,210,156,1,sevenfive,,,,,,,,,,,,,,,,,,,,,,,,,,,,,,,,,,,,,,,,,,,,,,,,,,,,,,,,,,,,,,,,,,,,,,,,,,,,,,,,,,,,,,,,,,,,,,,,,,,,,,,,,,,,,,,,,,,,,,,,,,,,,,,,,,,,,,,
,,6142a70e4c34ce72b50a2eff,2023-12-14_20h21.26.970,kallum_motion_pilot,2023.2.3,Win32,59.93407252,6142a70e4c34ce72b50a2eff,657bb317c8798c6608bceb3f,657bb6af7edeab95b28ae919,0.1037,0.1039,1,49,211,76,1,threeone,,,,,,,,,,,,,,,,,,,,,,,,,,,,,,,,,,,,,,,,,,,,,,,,,,,,,,,,,,,,,,,,,,,,,,,,,,,,,,,,,,,,,,,,,,,,,,,,,,,,,,,,,,,,,,,,,,,,,,,,,,,,,,,,,,,,,,,
,,6142a70e4c34ce72b50a2eff,2023-12-14_20h21.26.970,kallum_motion_pilot,2023.2.3,Win32,59.93407252,6142a70e4c34ce72b50a2eff,657bb317c8798c6608bceb3f,657bb6af7edeab95b28ae919,0.1039,0.104,1,50,212,112,1,fivesix,,,,,,,,,,,,,,,,,,,,,,,,,,,,,,,,,,,,,,,,,,,,,,,,,,,,,,,,,,,,,,,,,,,,,,,,,,,,,,,,,,,,,,,,,,,,,,,,,,,,,,,,,,,,,,,,,,,,,,,,,,,,,,,,,,,,,,,
,,6142a70e4c34ce72b50a2eff,2023-12-14_20h21.26.970,kallum_motion_pilot,2023.2.3,Win32,59.93407252,6142a70e4c34ce72b50a2eff,657bb317c8798c6608bceb3f,657bb6af7edeab95b28ae919,0.1042,0.1043,1,51,213,65,1,onethree,,,,,,,,,,,,,,,,,,,,,,,,,,,,,,,,,,,,,,,,,,,,,,,,,,,,,,,,,,,,,,,,,,,,,,,,,,,,,,,,,,,,,,,,,,,,,,,,,,,,,,,,,,,,,,,,,,,,,,,,,,,,,,,,,,,,,,,
,,6142a70e4c34ce72b50a2eff,2023-12-14_20h21.26.970,kallum_motion_pilot,2023.2.3,Win32,59.93407252,6142a70e4c34ce72b50a2eff,657bb317c8798c6608bceb3f,657bb6af7edeab95b28ae919,0.1045,0.1046,1,52,214,82,1,sixfive,,,,,,,,,,,,,,,,,,,,,,,,,,,,,,,,,,,,,,,,,,,,,,,,,,,,,,,,,,,,,,,,,,,,,,,,,,,,,,,,,,,,,,,,,,,,,,,,,,,,,,,,,,,,,,,,,,,,,,,,,,,,,,,,,,,,,,,
,,6142a70e4c34ce72b50a2eff,2023-12-14_20h21.26.970,kallum_motion_pilot,2023.2.3,Win32,59.93407252,6142a70e4c34ce72b50a2eff,657bb317c8798c6608bceb3f,657bb6af7edeab95b28ae919,0.1047,0.1048,1,53,215,101,1,seveneight,,,,,,,,,,,,,,,,,,,,,,,,,,,,,,,,,,,,,,,,,,,,,,,,,,,,,,,,,,,,,,,,,,,,,,,,,,,,,,,,,,,,,,,,,,,,,,,,,,,,,,,,,,,,,,,,,,,,,,,,,,,,,,,,,,,,,,,
,,6142a70e4c34ce72b50a2eff,2023-12-14_20h21.26.970,kallum_motion_pilot,2023.2.3,Win32,59.93407252,6142a70e4c34ce72b50a2eff,657bb317c8798c6608bceb3f,657bb6af7edeab95b28ae919,0.1049,0.105,1,54,216,4,1,threeone,,,,,,,,,,,,,,,,,,,,,,,,,,,,,,,,,,,,,,,,,,,,,,,,,,,,,,,,,,,,,,,,,,,,,,,,,,,,,,,,,,,,,,,,,,,,,,,,,,,,,,,,,,,,,,,,,,,,,,,,,,,,,,,,,,,,,,,
,,6142a70e4c34ce72b50a2eff,2023-12-14_20h21.26.970,kallum_motion_pilot,2023.2.3,Win32,59.93407252,6142a70e4c34ce72b50a2eff,657bb317c8798c6608bceb3f,657bb6af7edeab95b28ae919,0.1052,0.1054,1,55,217,67,1,twofour,,,,,,,,,,,,,,,,,,,,,,,,,,,,,,,,,,,,,,,,,,,,,,,,,,,,,,,,,,,,,,,,,,,,,,,,,,,,,,,,,,,,,,,,,,,,,,,,,,,,,,,,,,,,,,,,,,,,,,,,,,,,,,,,,,,,,,,
,,6142a70e4c34ce72b50a2eff,2023-12-14_20h21.26.970,kallum_motion_pilot,2023.2.3,Win32,59.93407252,6142a70e4c34ce72b50a2eff,657bb317c8798c6608bceb3f,657bb6af7edeab95b28ae919,0.1054,0.1055,1,56,218,94,1,eightsix,,,,,,,,,,,,,,,,,,,,,,,,,,,,,,,,,,,,,,,,,,,,,,,,,,,,,,,,,,,,,,,,,,,,,,,,,,,,,,,,,,,,,,,,,,,,,,,,,,,,,,,,,,,,,,,,,,,,,,,,,,,,,,,,,,,,,,,
,,6142a70e4c34ce72b50a2eff,2023-12-14_20h21.26.970,kallum_motion_pilot,2023.2.3,Win32,59.93407252,6142a70e4c34ce72b50a2eff,657bb317c8798c6608bceb3f,657bb6af7edeab95b28ae919,0.1057,0.1058,1,57,219,41,1,onethree,,,,,,,,,,,,,,,,,,,,,,,,,,,,,,,,,,,,,,,,,,,,,,,,,,,,,,,,,,,,,,,,,,,,,,,,,,,,,,,,,,,,,,,,,,,,,,,,,,,,,,,,,,,,,,,,,,,,,,,,,,,,,,,,,,,,,,,
,,6142a70e4c34ce72b50a2eff,2023-12-14_20h21.26.970,kallum_motion_pilot,2023.2.3,Win32,59.93407252,6142a70e4c34ce72b50a2eff,657bb317c8798c6608bceb3f,657bb6af7edeab95b28ae919,0.106,0.1061,1,58,220,146,1,sixfive,,,,,,,,,,,,,,,,,,,,,,,,,,,,,,,,,,,,,,,,,,,,,,,,,,,,,,,,,,,,,,,,,,,,,,,,,,,,,,,,,,,,,,,,,,,,,,,,,,,,,,,,,,,,,,,,,,,,,,,,,,,,,,,,,,,,,,,
,,6142a70e4c34ce72b50a2eff,2023-12-14_20h21.26.970,kallum_motion_pilot,2023.2.3,Win32,59.93407252,6142a70e4c34ce72b50a2eff,657bb317c8798c6608bceb3f,657bb6af7edeab95b28ae919,0.1064,0.1066,1,59,221,22,1,fourtwo,,,,,,,,,,,,,,,,,,,,,,,,,,,,,,,,,,,,,,,,,,,,,,,,,,,,,,,,,,,,,,,,,,,,,,,,,,,,,,,,,,,,,,,,,,,,,,,,,,,,,,,,,,,,,,,,,,,,,,,,,,,,,,,,,,,,,,,
,,6142a70e4c34ce72b50a2eff,2023-12-14_20h21.26.970,kallum_motion_pilot,2023.2.3,Win32,59.93407252,6142a70e4c34ce72b50a2eff,657bb317c8798c6608bceb3f,657bb6af7edeab95b28ae919,0.1068,0.107,1,60,222,134,1,eightsix,,,,,,,,,,,,,,,,,,,,,,,,,,,,,,,,,,,,,,,,,,,,,,,,,,,,,,,,,,,,,,,,,,,,,,,,,,,,,,,,,,,,,,,,,,,,,,,,,,,,,,,,,,,,,,,,,,,,,,,,,,,,,,,,,,,,,,,
,,6142a70e4c34ce72b50a2eff,2023-12-14_20h21.26.970,kallum_motion_pilot,2023.2.3,Win32,59.93407252,6142a70e4c34ce72b50a2eff,657bb317c8798c6608bceb3f,657bb6af7edeab95b28ae919,0.1071,0.1073,1,61,223,88,1,fivesix,,,,,,,,,,,,,,,,,,,,,,,,,,,,,,,,,,,,,,,,,,,,,,,,,,,,,,,,,,,,,,,,,,,,,,,,,,,,,,,,,,,,,,,,,,,,,,,,,,,,,,,,,,,,,,,,,,,,,,,,,,,,,,,,,,,,,,,
,,6142a70e4c34ce72b50a2eff,2023-12-14_20h21.26.970,kallum_motion_pilot,2023.2.3,Win32,59.93407252,6142a70e4c34ce72b50a2eff,657bb317c8798c6608bceb3f,657bb6af7edeab95b28ae919,0.1075,0.1075,1,62,224,29,1,threefour,,,,,,,,,,,,,,,,,,,,,,,,,,,,,,,,,,,,,,,,,,,,,,,,,,,,,,,,,,,,,,,,,,,,,,,,,,,,,,,,,,,,,,,,,,,,,,,,,,,,,,,,,,,,,,,,,,,,,,,,,,,,,,,,,,,,,,,
,,6142a70e4c34ce72b50a2eff,2023-12-14_20h21.26.970,kallum_motion_pilot,2023.2.3,Win32,59.93407252,6142a70e4c34ce72b50a2eff,657bb317c8798c6608bceb3f,657bb6af7edeab95b28ae919,0.1077,0.1078,1,63,225,77,1,threefour,,,,,,,,,,,,,,,,,,,,,,,,,,,,,,,,,,,,,,,,,,,,,,,,,,,,,,,,,,,,,,,,,,,,,,,,,,,,,,,,,,,,,,,,,,,,,,,,,,,,,,,,,,,,,,,,,,,,,,,,,,,,,,,,,,,,,,,
,,6142a70e4c34ce72b50a2eff,2023-12-14_20h21.26.970,kallum_motion_pilot,2023.2.3,Win32,59.93407252,6142a70e4c34ce72b50a2eff,657bb317c8798c6608bceb3f,657bb6af7edeab95b28ae919,0.108,0.1082,1,64,226,133,1,seveneight,,,,,,,,,,,,,,,,,,,,,,,,,,,,,,,,,,,,,,,,,,,,,,,,,,,,,,,,,,,,,,,,,,,,,,,,,,,,,,,,,,,,,,,,,,,,,,,,,,,,,,,,,,,,,,,,,,,,,,,,,,,,,,,,,,,,,,,
,,6142a70e4c34ce72b50a2eff,2023-12-14_20h21.26.970,kallum_motion_pilot,2023.2.3,Win32,59.93407252,6142a70e4c34ce72b50a2eff,657bb317c8798c6608bceb3f,657bb6af7edeab95b28ae919,0.1084,0.1088,1,65,227,45,1,threefour,,,,,,,,,,,,,,,,,,,,,,,,,,,,,,,,,,,,,,,,,,,,,,,,,,,,,,,,,,,,,,,,,,,,,,,,,,,,,,,,,,,,,,,,,,,,,,,,,,,,,,,,,,,,,,,,,,,,,,,,,,,,,,,,,,,,,,,
,,6142a70e4c34ce72b50a2eff,2023-12-14_20h21.26.970,kallum_motion_pilot,2023.2.3,Win32,59.93407252,6142a70e4c34ce72b50a2eff,657bb317c8798c6608bceb3f,657bb6af7edeab95b28ae919,0.1091,0.1092,1,66,228,105,1,fiveseven,,,,,,,,,,,,,,,,,,,,,,,,,,,,,,,,,,,,,,,,,,,,,,,,,,,,,,,,,,,,,,,,,,,,,,,,,,,,,,,,,,,,,,,,,,,,,,,,,,,,,,,,,,,,,,,,,,,,,,,,,,,,,,,,,,,,,,,
,,6142a70e4c34ce72b50a2eff,2023-12-14_20h21.26.970,kallum_motion_pilot,2023.2.3,Win32,59.93407252,6142a70e4c34ce72b50a2eff,657bb317c8798c6608bceb3f,657bb6af7edeab95b28ae919,0.1094,0.1095,1,67,229,68,1,threeone,,,,,,,,,,,,,,,,,,,,,,,,,,,,,,,,,,,,,,,,,,,,,,,,,,,,,,,,,,,,,,,,,,,,,,,,,,,,,,,,,,,,,,,,,,,,,,,,,,,,,,,,,,,,,,,,,,,,,,,,,,,,,,,,,,,,,,,
,,6142a70e4c34ce72b50a2eff,2023-12-14_20h21.26.970,kallum_motion_pilot,2023.2.3,Win32,59.93407252,6142a70e4c34ce72b50a2eff,657bb317c8798c6608bceb3f,657bb6af7edeab95b28ae919,0.1095,0.1097,1,68,230,91,1,sixeight,,,,,,,,,,,,,,,,,,,,,,,,,,,,,,,,,,,,,,,,,,,,,,,,,,,,,,,,,,,,,,,,,,,,,,,,,,,,,,,,,,,,,,,,,,,,,,,,,,,,,,,,,,,,,,,,,,,,,,,,,,,,,,,,,,,,,,,
,,6142a70e4c34ce72b50a2eff,2023-12-14_20h21.26.970,kallum_motion_pilot,2023.2.3,Win32,59.93407252,6142a70e4c34ce72b50a2eff,657bb317c8798c6608bceb3f,657bb6af7edeab95b28ae919,0.1098,0.1099,1,69,231,8,1,onetwo,,,,,,,,,,,,,,,,,,,,,,,,,,,,,,,,,,,,,,,,,,,,,,,,,,,,,,,,,,,,,,,,,,,,,,,,,,,,,,,,,,,,,,,,,,,,,,,,,,,,,,,,,,,,,,,,,,,,,,,,,,,,,,,,,,,,,,,
,,6142a70e4c34ce72b50a2eff,2023-12-14_20h21.26.970,kallum_motion_pilot,2023.2.3,Win32,59.93407252,6142a70e4c34ce72b50a2eff,657bb317c8798c6608bceb3f,657bb6af7edeab95b28ae919,0.1101,0.1102,1,70,232,120,1,fivesix,,,,,,,,,,,,,,,,,,,,,,,,,,,,,,,,,,,,,,,,,,,,,,,,,,,,,,,,,,,,,,,,,,,,,,,,,,,,,,,,,,,,,,,,,,,,,,,,,,,,,,,,,,,,,,,,,,,,,,,,,,,,,,,,,,,,,,,
,,6142a70e4c34ce72b50a2eff,2023-12-14_20h21.26.970,kallum_motion_pilot,2023.2.3,Win32,59.93407252,6142a70e4c34ce72b50a2eff,657bb317c8798c6608bceb3f,657bb6af7edeab95b28ae919,0.1103,0.1104,1,71,233,128,1,fivesix,,,,,,,,,,,,,,,,,,,,,,,,,,,,,,,,,,,,,,,,,,,,,,,,,,,,,,,,,,,,,,,,,,,,,,,,,,,,,,,,,,,,,,,,,,,,,,,,,,,,,,,,,,,,,,,,,,,,,,,,,,,,,,,,,,,,,,,
,,6142a70e4c34ce72b50a2eff,2023-12-14_20h21.26.970,kallum_motion_pilot,2023.2.3,Win32,59.93407252,6142a70e4c34ce72b50a2eff,657bb317c8798c6608bceb3f,657bb6af7edeab95b28ae919,0.1105,0.1106,1,72,234,10,1,twoone,,,,,,,,,,,,,,,,,,,,,,,,,,,,,,,,,,,,,,,,,,,,,,,,,,,,,,,,,,,,,,,,,,,,,,,,,,,,,,,,,,,,,,,,,,,,,,,,,,,,,,,,,,,,,,,,,,,,,,,,,,,,,,,,,,,,,,,
,,6142a70e4c34ce72b50a2eff,2023-12-14_20h21.26.970,kallum_motion_pilot,2023.2.3,Win32,59.93407252,6142a70e4c34ce72b50a2eff,657bb317c8798c6608bceb3f,657bb6af7edeab95b28ae919,0.1107,0.1108,1,73,235,129,1,fiveseven,,,,,,,,,,,,,,,,,,,,,,,,,,,,,,,,,,,,,,,,,,,,,,,,,,,,,,,,,,,,,,,,,,,,,,,,,,,,,,,,,,,,,,,,,,,,,,,,,,,,,,,,,,,,,,,,,,,,,,,,,,,,,,,,,,,,,,,
,,6142a70e4c34ce72b50a2eff,2023-12-14_20h21.26.970,kallum_motion_pilot,2023.2.3,Win32,59.93407252,6142a70e4c34ce72b50a2eff,657bb317c8798c6608bceb3f,657bb6af7edeab95b28ae919,0.111,0.1111,1,74,236,95,1,eightseven,,,,,,,,,,,,,,,,,,,,,,,,,,,,,,,,,,,,,,,,,,,,,,,,,,,,,,,,,,,,,,,,,,,,,,,,,,,,,,,,,,,,,,,,,,,,,,,,,,,,,,,,,,,,,,,,,,,,,,,,,,,,,,,,,,,,,,,
,,6142a70e4c34ce72b50a2eff,2023-12-14_20h21.26.970,kallum_motion_pilot,2023.2.3,Win32,59.93407252,6142a70e4c34ce72b50a2eff,657bb317c8798c6608bceb3f,657bb6af7edeab95b28ae919,0.1113,0.1113,1,75,237,96,1,fivesix,,,,,,,,,,,,,,,,,,,,,,,,,,,,,,,,,,,,,,,,,,,,,,,,,,,,,,,,,,,,,,,,,,,,,,,,,,,,,,,,,,,,,,,,,,,,,,,,,,,,,,,,,,,,,,,,,,,,,,,,,,,,,,,,,,,,,,,
,,6142a70e4c34ce72b50a2eff,2023-12-14_20h21.26.970,kallum_motion_pilot,2023.2.3,Win32,59.93407252,6142a70e4c34ce72b50a2eff,657bb317c8798c6608bceb3f,657bb6af7edeab95b28ae919,0.1115,0.1116,1,76,238,151,1,eightseven,,,,,,,,,,,,,,,,,,,,,,,,,,,,,,,,,,,,,,,,,,,,,,,,,,,,,,,,,,,,,,,,,,,,,,,,,,,,,,,,,,,,,,,,,,,,,,,,,,,,,,,,,,,,,,,,,,,,,,,,,,,,,,,,,,,,,,,
,,6142a70e4c34ce72b50a2eff,2023-12-14_20h21.26.970,kallum_motion_pilot,2023.2.3,Win32,59.93407252,6142a70e4c34ce72b50a2eff,657bb317c8798c6608bceb3f,657bb6af7edeab95b28ae919,0.1117,0.1118,1,77,239,34,1,twoone,,,,,,,,,,,,,,,,,,,,,,,,,,,,,,,,,,,,,,,,,,,,,,,,,,,,,,,,,,,,,,,,,,,,,,,,,,,,,,,,,,,,,,,,,,,,,,,,,,,,,,,,,,,,,,,,,,,,,,,,,,,,,,,,,,,,,,,
,,6142a70e4c34ce72b50a2eff,2023-12-14_20h21.26.970,kallum_motion_pilot,2023.2.3,Win32,59.93407252,6142a70e4c34ce72b50a2eff,657bb317c8798c6608bceb3f,657bb6af7edeab95b28ae919,0.112,0.1121,1,78,240,132,1,sevenfive,,,,,,,,,,,,,,,,,,,,,,,,,,,,,,,,,,,,,,,,,,,,,,,,,,,,,,,,,,,,,,,,,,,,,,,,,,,,,,,,,,,,,,,,,,,,,,,,,,,,,,,,,,,,,,,,,,,,,,,,,,,,,,,,,,,,,,,
,,6142a70e4c34ce72b50a2eff,2023-12-14_20h21.26.970,kallum_motion_pilot,2023.2.3,Win32,59.93407252,6142a70e4c34ce72b50a2eff,657bb317c8798c6608bceb3f,657bb6af7edeab95b28ae919,0.1122,0.1123,1,79,241,118,1,eightsix,,,,,,,,,,,,,,,,,,,,,,,,,,,,,,,,,,,,,,,,,,,,,,,,,,,,,,,,,,,,,,,,,,,,,,,,,,,,,,,,,,,,,,,,,,,,,,,,,,,,,,,,,,,,,,,,,,,,,,,,,,,,,,,,,,,,,,,
,,6142a70e4c34ce72b50a2eff,2023-12-14_20h21.26.970,kallum_motion_pilot,2023.2.3,Win32,59.93407252,6142a70e4c34ce72b50a2eff,657bb317c8798c6608bceb3f,657bb6af7edeab95b28ae919,0.1125,0.1127,1,80,242,2,1,twoone,,,,,,,,,,,,,,,,,,,,,,,,,,,,,,,,,,,,,,,,,,,,,,,,,,,,,,,,,,,,,,,,,,,,,,,,,,,,,,,,,,,,,,,,,,,,,,,,,,,,,,,,,,,,,,,,,,,,,,,,,,,,,,,,,,,,,,,
,,6142a70e4c34ce72b50a2eff,2023-12-14_20h21.26.970,kallum_motion_pilot,2023.2.3,Win32,59.93407252,6142a70e4c34ce72b50a2eff,657bb317c8798c6608bceb3f,657bb6af7edeab95b28ae919,0.1128,0.1129,1,81,243,11,1,twofour,,,,,,,,,,,,,,,,,,,,,,,,,,,,,,,,,,,,,,,,,,,,,,,,,,,,,,,,,,,,,,,,,,,,,,,,,,,,,,,,,,,,,,,,,,,,,,,,,,,,,,,,,,,,,,,,,,,,,,,,,,,,,,,,,,,,,,,
,,6142a70e4c34ce72b50a2eff,2023-12-14_20h21.26.970,kallum_motion_pilot,2023.2.3,Win32,59.93407252,6142a70e4c34ce72b50a2eff,657bb317c8798c6608bceb3f,657bb6af7edeab95b28ae919,0.1131,0.1132,1,82,244,89,1,fiveseven,,,,,,,,,,,,,,,,,,,,,,,,,,,,,,,,,,,,,,,,,,,,,,,,,,,,,,,,,,,,,,,,,,,,,,,,,,,,,,,,,,,,,,,,,,,,,,,,,,,,,,,,,,,,,,,,,,,,,,,,,,,,,,,,,,,,,,,
,,6142a70e4c34ce72b50a2eff,2023-12-14_20h21.26.970,kallum_motion_pilot,2023.2.3,Win32,59.93407252,6142a70e4c34ce72b50a2eff,657bb317c8798c6608bceb3f,657bb6af7edeab95b28ae919,0.1133,0.1134,1,83,245,49,1,onethree,,,,,,,,,,,,,,,,,,,,,,,,,,,,,,,,,,,,,,,,,,,,,,,,,,,,,,,,,,,,,,,,,,,,,,,,,,,,,,,,,,,,,,,,,,,,,,,,,,,,,,,,,,,,,,,,,,,,,,,,,,,,,,,,,,,,,,,
,,6142a70e4c34ce72b50a2eff,2023-12-14_20h21.26.970,kallum_motion_pilot,2023.2.3,Win32,59.93407252,6142a70e4c34ce72b50a2eff,657bb317c8798c6608bceb3f,657bb6af7edeab95b28ae919,0.1135,0.1137,1,84,246,152,1,fivesix,,,,,,,,,,,,,,,,,,,,,,,,,,,,,,,,,,,,,,,,,,,,,,,,,,,,,,,,,,,,,,,,,,,,,,,,,,,,,,,,,,,,,,,,,,,,,,,,,,,,,,,,,,,,,,,,,,,,,,,,,,,,,,,,,,,,,,,
,,6142a70e4c34ce72b50a2eff,2023-12-14_20h21.26.970,kallum_motion_pilot,2023.2.3,Win32,59.93407252,6142a70e4c34ce72b50a2eff,657bb317c8798c6608bceb3f,657bb6af7edeab95b28ae919,0.1138,0.1139,1,85,247,56,1,onetwo,,,,,,,,,,,,,,,,,,,,,,,,,,,,,,,,,,,,,,,,,,,,,,,,,,,,,,,,,,,,,,,,,,,,,,,,,,,,,,,,,,,,,,,,,,,,,,,,,,,,,,,,,,,,,,,,,,,,,,,,,,,,,,,,,,,,,,,
,,6142a70e4c34ce72b50a2eff,2023-12-14_20h21.26.970,kallum_motion_pilot,2023.2.3,Win32,59.93407252,6142a70e4c34ce72b50a2eff,657bb317c8798c6608bceb3f,657bb6af7edeab95b28ae919,0.1141,0.1142,1,86,248,53,1,threefour,,,,,,,,,,,,,,,,,,,,,,,,,,,,,,,,,,,,,,,,,,,,,,,,,,,,,,,,,,,,,,,,,,,,,,,,,,,,,,,,,,,,,,,,,,,,,,,,,,,,,,,,,,,,,,,,,,,,,,,,,,,,,,,,,,,,,,,
,,6142a70e4c34ce72b50a2eff,2023-12-14_20h21.26.970,kallum_motion_pilot,2023.2.3,Win32,59.93407252,6142a70e4c34ce72b50a2eff,657bb317c8798c6608bceb3f,657bb6af7edeab95b28ae919,0.1143,0.1144,1,87,249,38,1,fourtwo,,,,,,,,,,,,,,,,,,,,,,,,,,,,,,,,,,,,,,,,,,,,,,,,,,,,,,,,,,,,,,,,,,,,,,,,,,,,,,,,,,,,,,,,,,,,,,,,,,,,,,,,,,,,,,,,,,,,,,,,,,,,,,,,,,,,,,,
,,6142a70e4c34ce72b50a2eff,2023-12-14_20h21.26.970,kallum_motion_pilot,2023.2.3,Win32,59.93407252,6142a70e4c34ce72b50a2eff,657bb317c8798c6608bceb3f,657bb6af7edeab95b28ae919,0.1145,0.1147,1,88,250,60,1,threeone,,,,,,,,,,,,,,,,,,,,,,,,,,,,,,,,,,,,,,,,,,,,,,,,,,,,,,,,,,,,,,,,,,,,,,,,,,,,,,,,,,,,,,,,,,,,,,,,,,,,,,,,,,,,,,,,,,,,,,,,,,,,,,,,,,,,,,,
,,6142a70e4c34ce72b50a2eff,2023-12-14_20h21.26.970,kallum_motion_pilot,2023.2.3,Win32,59.93407252,6142a70e4c34ce72b50a2eff,657bb317c8798c6608bceb3f,657bb6af7edeab95b28ae919,0.1148,0.1149,1,89,251,109,1,seveneight,,,,,,,,,,,,,,,,,,,,,,,,,,,,,,,,,,,,,,,,,,,,,,,,,,,,,,,,,,,,,,,,,,,,,,,,,,,,,,,,,,,,,,,,,,,,,,,,,,,,,,,,,,,,,,,,,,,,,,,,,,,,,,,,,,,,,,,
,,6142a70e4c34ce72b50a2eff,2023-12-14_20h21.26.970,kallum_motion_pilot,2023.2.3,Win32,59.93407252,6142a70e4c34ce72b50a2eff,657bb317c8798c6608bceb3f,657bb6af7edeab95b28ae919,0.1151,0.1152,1,90,252,116,1,sevenfive,,,,,,,,,,,,,,,,,,,,,,,,,,,,,,,,,,,,,,,,,,,,,,,,,,,,,,,,,,,,,,,,,,,,,,,,,,,,,,,,,,,,,,,,,,,,,,,,,,,,,,,,,,,,,,,,,,,,,,,,,,,,,,,,,,,,,,,
,,6142a70e4c34ce72b50a2eff,2023-12-14_20h21.26.970,kallum_motion_pilot,2023.2.3,Win32,59.93407252,6142a70e4c34ce72b50a2eff,657bb317c8798c6608bceb3f,657bb6af7edeab95b28ae919,0.1153,0.1154,1,91,253,142,1,eightsix,,,,,,,,,,,,,,,,,,,,,,,,,,,,,,,,,,,,,,,,,,,,,,,,,,,,,,,,,,,,,,,,,,,,,,,,,,,,,,,,,,,,,,,,,,,,,,,,,,,,,,,,,,,,,,,,,,,,,,,,,,,,,,,,,,,,,,,
,,6142a70e4c34ce72b50a2eff,2023-12-14_20h21.26.970,kallum_motion_pilot,2023.2.3,Win32,59.93407252,6142a70e4c34ce72b50a2eff,657bb317c8798c6608bceb3f,657bb6af7edeab95b28ae919,0.1155,0.1156,1,92,254,145,1,fiveseven,,,,,,,,,,,,,,,,,,,,,,,,,,,,,,,,,,,,,,,,,,,,,,,,,,,,,,,,,,,,,,,,,,,,,,,,,,,,,,,,,,,,,,,,,,,,,,,,,,,,,,,,,,,,,,,,,,,,,,,,,,,,,,,,,,,,,,,
,,6142a70e4c34ce72b50a2eff,2023-12-14_20h21.26.970,kallum_motion_pilot,2023.2.3,Win32,59.93407252,6142a70e4c34ce72b50a2eff,657bb317c8798c6608bceb3f,657bb6af7edeab95b28ae919,0.116,0.1161,1,93,255,15,1,fourthree,,,,,,,,,,,,,,,,,,,,,,,,,,,,,,,,,,,,,,,,,,,,,,,,,,,,,,,,,,,,,,,,,,,,,,,,,,,,,,,,,,,,,,,,,,,,,,,,,,,,,,,,,,,,,,,,,,,,,,,,,,,,,,,,,,,,,,,
,,6142a70e4c34ce72b50a2eff,2023-12-14_20h21.26.970,kallum_motion_pilot,2023.2.3,Win32,59.93407252,6142a70e4c34ce72b50a2eff,657bb317c8798c6608bceb3f,657bb6af7edeab95b28ae919,0.1164,0.1165,1,94,256,111,1,eightseven,,,,,,,,,,,,,,,,,,,,,,,,,,,,,,,,,,,,,,,,,,,,,,,,,,,,,,,,,,,,,,,,,,,,,,,,,,,,,,,,,,,,,,,,,,,,,,,,,,,,,,,,,,,,,,,,,,,,,,,,,,,,,,,,,,,,,,,
,,6142a70e4c34ce72b50a2eff,2023-12-14_20h21.26.970,kallum_motion_pilot,2023.2.3,Win32,59.93407252,6142a70e4c34ce72b50a2eff,657bb317c8798c6608bceb3f,657bb6af7edeab95b28ae919,0.1166,0.1167,1,95,257,150,1,eightsix,,,,,,,,,,,,,,,,,,,,,,,,,,,,,,,,,,,,,,,,,,,,,,,,,,,,,,,,,,,,,,,,,,,,,,,,,,,,,,,,,,,,,,,,,,,,,,,,,,,,,,,,,,,,,,,,,,,,,,,,,,,,,,,,,,,,,,,
,,6142a70e4c34ce72b50a2eff,2023-12-14_20h21.26.970,kallum_motion_pilot,2023.2.3,Win32,59.93407252,6142a70e4c34ce72b50a2eff,657bb317c8798c6608bceb3f,657bb6af7edeab95b28ae919,0.1169,0.117,1,96,258,86,1,eightsix,,,,,,,,,,,,,,,,,,,,,,,,,,,,,,,,,,,,,,,,,,,,,,,,,,,,,,,,,,,,,,,,,,,,,,,,,,,,,,,,,,,,,,,,,,,,,,,,,,,,,,,,,,,,,,,,,,,,,,,,,,,,,,,,,,,,,,,
,,6142a70e4c34ce72b50a2eff,2023-12-14_20h21.26.970,kallum_motion_pilot,2023.2.3,Win32,59.93407252,6142a70e4c34ce72b50a2eff,657bb317c8798c6608bceb3f,657bb6af7edeab95b28ae919,0.1171,0.1173,1,97,259,137,1,fiveseven,,,,,,,,,,,,,,,,,,,,,,,,,,,,,,,,,,,,,,,,,,,,,,,,,,,,,,,,,,,,,,,,,,,,,,,,,,,,,,,,,,,,,,,,,,,,,,,,,,,,,,,,,,,,,,,,,,,,,,,,,,,,,,,,,,,,,,,
,,6142a70e4c34ce72b50a2eff,2023-12-14_20h21.26.970,kallum_motion_pilot,2023.2.3,Win32,59.93407252,6142a70e4c34ce72b50a2eff,657bb317c8798c6608bceb3f,657bb6af7edeab95b28ae919,0.1173,0.1175,1,98,260,43,1,twofour,,,,,,,,,,,,,,,,,,,,,,,,,,,,,,,,,,,,,,,,,,,,,,,,,,,,,,,,,,,,,,,,,,,,,,,,,,,,,,,,,,,,,,,,,,,,,,,,,,,,,,,,,,,,,,,,,,,,,,,,,,,,,,,,,,,,,,,
,,6142a70e4c34ce72b50a2eff,2023-12-14_20h21.26.970,kallum_motion_pilot,2023.2.3,Win32,59.93407252,6142a70e4c34ce72b50a2eff,657bb317c8798c6608bceb3f,657bb6af7edeab95b28ae919,0.1176,0.1178,1,99,261,147,1,sixeight,,,,,,,,,,,,,,,,,,,,,,,,,,,,,,,,,,,,,,,,,,,,,,,,,,,,,,,,,,,,,,,,,,,,,,,,,,,,,,,,,,,,,,,,,,,,,,,,,,,,,,,,,,,,,,,,,,,,,,,,,,,,,,,,,,,,,,,
,,6142a70e4c34ce72b50a2eff,2023-12-14_20h21.26.970,kallum_motion_pilot,2023.2.3,Win32,59.93407252,6142a70e4c34ce72b50a2eff,657bb317c8798c6608bceb3f,657bb6af7edeab95b28ae919,0.1178,0.118,1,100,262,64,1,onetwo,,,,,,,,,,,,,,,,,,,,,,,,,,,,,,,,,,,,,,,,,,,,,,,,,,,,,,,,,,,,,,,,,,,,,,,,,,,,,,,,,,,,,,,,,,,,,,,,,,,,,,,,,,,,,,,,,,,,,,,,,,,,,,,,,,,,,,,
,,6142a70e4c34ce72b50a2eff,2023-12-14_20h21.26.970,kallum_motion_pilot,2023.2.3,Win32,59.93407252,6142a70e4c34ce72b50a2eff,657bb317c8798c6608bceb3f,657bb6af7edeab95b28ae919,0.1182,0.1184,1,101,263,57,1,onethree,,,,,,,,,,,,,,,,,,,,,,,,,,,,,,,,,,,,,,,,,,,,,,,,,,,,,,,,,,,,,,,,,,,,,,,,,,,,,,,,,,,,,,,,,,,,,,,,,,,,,,,,,,,,,,,,,,,,,,,,,,,,,,,,,,,,,,,
,,6142a70e4c34ce72b50a2eff,2023-12-14_20h21.26.970,kallum_motion_pilot,2023.2.3,Win32,59.93407252,6142a70e4c34ce72b50a2eff,657bb317c8798c6608bceb3f,657bb6af7edeab95b28ae919,0.1185,0.1187,1,102,264,90,1,sixfive,,,,,,,,,,,,,,,,,,,,,,,,,,,,,,,,,,,,,,,,,,,,,,,,,,,,,,,,,,,,,,,,,,,,,,,,,,,,,,,,,,,,,,,,,,,,,,,,,,,,,,,,,,,,,,,,,,,,,,,,,,,,,,,,,,,,,,,
,,6142a70e4c34ce72b50a2eff,2023-12-14_20h21.26.970,kallum_motion_pilot,2023.2.3,Win32,59.93407252,6142a70e4c34ce72b50a2eff,657bb317c8798c6608bceb3f,657bb6af7edeab95b28ae919,0.1188,0.1189,1,103,265,74,1,twoone,,,,,,,,,,,,,,,,,,,,,,,,,,,,,,,,,,,,,,,,,,,,,,,,,,,,,,,,,,,,,,,,,,,,,,,,,,,,,,,,,,,,,,,,,,,,,,,,,,,,,,,,,,,,,,,,,,,,,,,,,,,,,,,,,,,,,,,
,,6142a70e4c34ce72b50a2eff,2023-12-14_20h21.26.970,kallum_motion_pilot,2023.2.3,Win32,59.93407252,6142a70e4c34ce72b50a2eff,657bb317c8798c6608bceb3f,657bb6af7edeab95b28ae919,0.119,0.1191,1,104,266,30,1,fourtwo,,,,,,,,,,,,,,,,,,,,,,,,,,,,,,,,,,,,,,,,,,,,,,,,,,,,,,,,,,,,,,,,,,,,,,,,,,,,,,,,,,,,,,,,,,,,,,,,,,,,,,,,,,,,,,,,,,,,,,,,,,,,,,,,,,,,,,,
,,6142a70e4c34ce72b50a2eff,2023-12-14_20h21.26.970,kallum_motion_pilot,2023.2.3,Win32,59.93407252,6142a70e4c34ce72b50a2eff,657bb317c8798c6608bceb3f,657bb6af7edeab95b28ae919,0.1192,0.1194,1,105,267,35,1,twofour,,,,,,,,,,,,,,,,,,,,,,,,,,,,,,,,,,,,,,,,,,,,,,,,,,,,,,,,,,,,,,,,,,,,,,,,,,,,,,,,,,,,,,,,,,,,,,,,,,,,,,,,,,,,,,,,,,,,,,,,,,,,,,,,,,,,,,,
,,6142a70e4c34ce72b50a2eff,2023-12-14_20h21.26.970,kallum_motion_pilot,2023.2.3,Win32,59.93407252,6142a70e4c34ce72b50a2eff,657bb317c8798c6608bceb3f,657bb6af7edeab95b28ae919,0.1196,0.1197,1,106,268,107,1,sixeight,,,,,,,,,,,,,,,,,,,,,,,,,,,,,,,,,,,,,,,,,,,,,,,,,,,,,,,,,,,,,,,,,,,,,,,,,,,,,,,,,,,,,,,,,,,,,,,,,,,,,,,,,,,,,,,,,,,,,,,,,,,,,,,,,,,,,,,
,,6142a70e4c34ce72b50a2eff,2023-12-14_20h21.26.970,kallum_motion_pilot,2023.2.3,Win32,59.93407252,6142a70e4c34ce72b50a2eff,657bb317c8798c6608bceb3f,657bb6af7edeab95b28ae919,0.1198,0.1199,1,107,269,46,1,fourtwo,,,,,,,,,,,,,,,,,,,,,,,,,,,,,,,,,,,,,,,,,,,,,,,,,,,,,,,,,,,,,,,,,,,,,,,,,,,,,,,,,,,,,,,,,,,,,,,,,,,,,,,,,,,,,,,,,,,,,,,,,,,,,,,,,,,,,,,
,,6142a70e4c34ce72b50a2eff,2023-12-14_20h21.26.970,kallum_motion_pilot,2023.2.3,Win32,59.93407252,6142a70e4c34ce72b50a2eff,657bb317c8798c6608bceb3f,657bb6af7edeab95b28ae919,0.12,0.1201,1,108,270,160,1,fivesix,,,,,,,,,,,,,,,,,,,,,,,,,,,,,,,,,,,,,,,,,,,,,,,,,,,,,,,,,,,,,,,,,,,,,,,,,,,,,,,,,,,,,,,,,,,,,,,,,,,,,,,,,,,,,,,,,,,,,,,,,,,,,,,,,,,,,,,
,,6142a70e4c34ce72b50a2eff,2023-12-14_20h21.26.970,kallum_motion_pilot,2023.2.3,Win32,59.93407252,6142a70e4c34ce72b50a2eff,657bb317c8798c6608bceb3f,657bb6af7edeab95b28ae919,0.1203,0.1204,1,109,271,161,1,fiveseven,,,,,,,,,,,,,,,,,,,,,,,,,,,,,,,,,,,,,,,,,,,,,,,,,,,,,,,,,,,,,,,,,,,,,,,,,,,,,,,,,,,,,,,,,,,,,,,,,,,,,,,,,,,,,,,,,,,,,,,,,,,,,,,,,,,,,,,
,,6142a70e4c34ce72b50a2eff,2023-12-14_20h21.26.970,kallum_motion_pilot,2023.2.3,Win32,59.93407252,6142a70e4c34ce72b50a2eff,657bb317c8798c6608bceb3f,657bb6af7edeab95b28ae919,0.1205,0.1207,1,110,272,47,1,fourthree,,,,,,,,,,,,,,,,,,,,,,,,,,,,,,,,,,,,,,,,,,,,,,,,,,,,,,,,,,,,,,,,,,,,,,,,,,,,,,,,,,,,,,,,,,,,,,,,,,,,,,,,,,,,,,,,,,,,,,,,,,,,,,,,,,,,,,,
,,6142a70e4c34ce72b50a2eff,2023-12-14_20h21.26.970,kallum_motion_pilot,2023.2.3,Win32,59.93407252,6142a70e4c34ce72b50a2eff,657bb317c8798c6608bceb3f,657bb6af7edeab95b28ae919,0.1208,0.1209,1,111,273,138,1,sixfive,,,,,,,,,,,,,,,,,,,,,,,,,,,,,,,,,,,,,,,,,,,,,,,,,,,,,,,,,,,,,,,,,,,,,,,,,,,,,,,,,,,,,,,,,,,,,,,,,,,,,,,,,,,,,,,,,,,,,,,,,,,,,,,,,,,,,,,
,,6142a70e4c34ce72b50a2eff,2023-12-14_20h21.26.970,kallum_motion_pilot,2023.2.3,Win32,59.93407252,6142a70e4c34ce72b50a2eff,657bb317c8798c6608bceb3f,657bb6af7edeab95b28ae919,0.1211,0.1212,1,112,274,144,1,fivesix,,,,,,,,,,,,,,,,,,,,,,,,,,,,,,,,,,,,,,,,,,,,,,,,,,,,,,,,,,,,,,,,,,,,,,,,,,,,,,,,,,,,,,,,,,,,,,,,,,,,,,,,,,,,,,,,,,,,,,,,,,,,,,,,,,,,,,,
,,6142a70e4c34ce72b50a2eff,2023-12-14_20h21.26.970,kallum_motion_pilot,2023.2.3,Win32,59.93407252,6142a70e4c34ce72b50a2eff,657bb317c8798c6608bceb3f,657bb6af7edeab95b28ae919,0.1213,0.1214,1,113,275,155,1,sixeight,,,,,,,,,,,,,,,,,,,,,,,,,,,,,,,,,,,,,,,,,,,,,,,,,,,,,,,,,,,,,,,,,,,,,,,,,,,,,,,,,,,,,,,,,,,,,,,,,,,,,,,,,,,,,,,,,,,,,,,,,,,,,,,,,,,,,,,
,,6142a70e4c34ce72b50a2eff,2023-12-14_20h21.26.970,kallum_motion_pilot,2023.2.3,Win32,59.93407252,6142a70e4c34ce72b50a2eff,657bb317c8798c6608bceb3f,657bb6af7edeab95b28ae919,0.1216,0.1217,1,114,276,78,1,fourtwo,,,,,,,,,,,,,,,,,,,,,,,,,,,,,,,,,,,,,,,,,,,,,,,,,,,,,,,,,,,,,,,,,,,,,,,,,,,,,,,,,,,,,,,,,,,,,,,,,,,,,,,,,,,,,,,,,,,,,,,,,,,,,,,,,,,,,,,
,,6142a70e4c34ce72b50a2eff,2023-12-14_20h21.26.970,kallum_motion_pilot,2023.2.3,Win32,59.93407252,6142a70e4c34ce72b50a2eff,657bb317c8798c6608bceb3f,657bb6af7edeab95b28ae919,0.1218,0.1219,1,115,277,17,1,onethree,,,,,,,,,,,,,,,,,,,,,,,,,,,,,,,,,,,,,,,,,,,,,,,,,,,,,,,,,,,,,,,,,,,,,,,,,,,,,,,,,,,,,,,,,,,,,,,,,,,,,,,,,,,,,,,,,,,,,,,,,,,,,,,,,,,,,,,
,,6142a70e4c34ce72b50a2eff,2023-12-14_20h21.26.970,kallum_motion_pilot,2023.2.3,Win32,59.93407252,6142a70e4c34ce72b50a2eff,657bb317c8798c6608bceb3f,657bb6af7edeab95b28ae919,0.1221,0.1222,1,116,278,50,1,twoone,,,,,,,,,,,,,,,,,,,,,,,,,,,,,,,,,,,,,,,,,,,,,,,,,,,,,,,,,,,,,,,,,,,,,,,,,,,,,,,,,,,,,,,,,,,,,,,,,,,,,,,,,,,,,,,,,,,,,,,,,,,,,,,,,,,,,,,
,,6142a70e4c34ce72b50a2eff,2023-12-14_20h21.26.970,kallum_motion_pilot,2023.2.3,Win32,59.93407252,6142a70e4c34ce72b50a2eff,657bb317c8798c6608bceb3f,657bb6af7edeab95b28ae919,0.1223,0.1225,1,117,279,0,1,onetwo,,,,,,,,,,,,,,,,,,,,,,,,,,,,,,,,,,,,,,,,,,,,,,,,,,,,,,,,,,,,,,,,,,,,,,,,,,,,,,,,,,,,,,,,,,,,,,,,,,,,,,,,,,,,,,,,,,,,,,,,,,,,,,,,,,,,,,,
