startup.started,startup.stopped,Prolific ID*,date,expName,psychopyVersion,OS,frameRate,participant,study_id,session,stimpositions.started,stimpositions.stopped,hardcoded_stimulus_positions.thisRepN,hardcoded_stimulus_positions.thisTrialN,hardcoded_stimulus_positions.thisN,hardcoded_stimulus_positions.thisIndex,hardcoded_stimulus_positions.ran,StimulusPos,stimorientation.started,stimorientation.stopped,prac_stimorientation_import_loop.thisRepN,prac_stimorientation_import_loop.thisTrialN,prac_stimorientation_import_loop.thisN,prac_stimorientation_import_loop.thisIndex,prac_stimorientation_import_loop.ran,Stimorientation,welcome_instr.started,welcome_instr.stopped,key_resp.keys,key_resp.rt,key_resp.duration,response_steppedout_1.started,response_steppedout_1.stopped,key_resp_20.keys,key_resp_20.rt,key_resp_20.duration,response_steppedout_2.started,response_steppedout_2.stopped,key_resp_19.keys,key_resp_19.rt,key_resp_19.duration,stim_response_instr.started,stim_response_instr.stopped,key_resp_15.keys,key_resp_15.rt,key_resp_15.duration,direction_instr_2.started,direction_instr_2.stopped,key_resp_9.keys,key_resp_9.rt,key_resp_9.duration,instr_prac.started,instr_prac.stopped,key_resp_10.keys,key_resp_10.rt,key_resp_10.duration,Stim1_display_prac.started,Stim1_display_prac.stopped,Ecc,Circle1_ori,Circle2_ori,response_prac.started,similarity,response_time,response_prac.stopped,mouse_5.x,mouse_5.y,mouse_5.leftButton,mouse_5.midButton,mouse_5.rightButton,mouse_5.clicked_name,responseprac_feedback.started,responseprac_feedback.stopped,summary2_prac.started,summary2_prac.stopped,mouse_6.x,mouse_6.y,mouse_6.leftButton,mouse_6.midButton,mouse_6.rightButton,mouse_6.clicked_name,duringprac.thisRepN,duringprac.thisTrialN,duringprac.thisN,duringprac.thisIndex,duringprac.ran,begin.started,begin.stopped,key_resp_22.keys,key_resp_22.rt,key_resp_22.duration,Stim1_display.started,Stim1_display.stopped,circle1_ori,circle2_ori,blank.started,blank.stopped,response.started,response.stopped,mouse.x,mouse.y,mouse.leftButton,mouse.midButton,mouse.rightButton,mouse.clicked_name,response_2.started,response_2.stopped,mouse_2.x,mouse_2.y,mouse_2.leftButton,mouse_2.midButton,mouse_2.rightButton,mouse_2.clicked_name,special_trial.started,special_trial.stopped,catch_1.started,catch_1.stopped,mouse_3.x,mouse_3.y,mouse_3.leftButton,mouse_3.midButton,mouse_3.rightButton,catchresponse,catchnumber,response_time_catch,Catch,response_sum.started,response_sum.stopped,mouse_11.x,mouse_11.y,mouse_11.leftButton,mouse_11.midButton,mouse_11.rightButton,main_trial.thisRepN,main_trial.thisTrialN,main_trial.thisN,main_trial.thisIndex,main_trial.ran,Orientationtrialno,xcircle1_ori,xcircle2_ori,flip_presentation_sequence_for_double_pass.started,flip_presentation_sequence_for_double_pass.stopped,double_pass.thisRepN,double_pass.thisTrialN,double_pass.thisN,double_pass.thisIndex,double_pass.ran,goodbye.started,goodbye.stopped,key_resp_3.keys,key_resp_3.rt,key_resp_3.duration
0.0002,0.0003,614dfd96cdc9c1063b64c437,2023-12-14_20h04.56.364,kallum_motion_pilot,2023.2.3,Win32,163.9344262,614dfd96cdc9c1063b64c437,657bb317c8798c6608bceb3f,657bb3abd370c8d94ade1580,,,,,,,,,,,,,,,,,,,,,,,,,,,,,,,,,,,,,,,,,,,,,,,,,,,,,,,,,,,,,,,,,,,,,,,,,,,,,,,,,,,,,,,,,,,,,,,,,,,,,,,,,,,,,,,,,,,,,,,,,,,,,,,,,,,,,,,,,,,,,,,
,,614dfd96cdc9c1063b64c437,2023-12-14_20h04.56.364,kallum_motion_pilot,2023.2.3,Win32,163.9344262,614dfd96cdc9c1063b64c437,657bb317c8798c6608bceb3f,657bb3abd370c8d94ade1580,0.0134,0.0135,0,0,0,26,1,twoone,,,,,,,,,,,,,,,,,,,,,,,,,,,,,,,,,,,,,,,,,,,,,,,,,,,,,,,,,,,,,,,,,,,,,,,,,,,,,,,,,,,,,,,,,,,,,,,,,,,,,,,,,,,,,,,,,,,,,,,,,,,,,,,,,,,,,,,
,,614dfd96cdc9c1063b64c437,2023-12-14_20h04.56.364,kallum_motion_pilot,2023.2.3,Win32,163.9344262,614dfd96cdc9c1063b64c437,657bb317c8798c6608bceb3f,657bb3abd370c8d94ade1580,0.0136,0.0136,0,1,1,50,1,twoone,,,,,,,,,,,,,,,,,,,,,,,,,,,,,,,,,,,,,,,,,,,,,,,,,,,,,,,,,,,,,,,,,,,,,,,,,,,,,,,,,,,,,,,,,,,,,,,,,,,,,,,,,,,,,,,,,,,,,,,,,,,,,,,,,,,,,,,
,,614dfd96cdc9c1063b64c437,2023-12-14_20h04.56.364,kallum_motion_pilot,2023.2.3,Win32,163.9344262,614dfd96cdc9c1063b64c437,657bb317c8798c6608bceb3f,657bb3abd370c8d94ade1580,0.0137,0.0137,0,2,2,13,1,threefour,,,,,,,,,,,,,,,,,,,,,,,,,,,,,,,,,,,,,,,,,,,,,,,,,,,,,,,,,,,,,,,,,,,,,,,,,,,,,,,,,,,,,,,,,,,,,,,,,,,,,,,,,,,,,,,,,,,,,,,,,,,,,,,,,,,,,,,
,,614dfd96cdc9c1063b64c437,2023-12-14_20h04.56.364,kallum_motion_pilot,2023.2.3,Win32,163.9344262,614dfd96cdc9c1063b64c437,657bb317c8798c6608bceb3f,657bb3abd370c8d94ade1580,0.0138,0.0138,0,3,3,106,1,sixfive,,,,,,,,,,,,,,,,,,,,,,,,,,,,,,,,,,,,,,,,,,,,,,,,,,,,,,,,,,,,,,,,,,,,,,,,,,,,,,,,,,,,,,,,,,,,,,,,,,,,,,,,,,,,,,,,,,,,,,,,,,,,,,,,,,,,,,,
,,614dfd96cdc9c1063b64c437,2023-12-14_20h04.56.364,kallum_motion_pilot,2023.2.3,Win32,163.9344262,614dfd96cdc9c1063b64c437,657bb317c8798c6608bceb3f,657bb3abd370c8d94ade1580,0.0138,0.0138,0,4,4,99,1,sixeight,,,,,,,,,,,,,,,,,,,,,,,,,,,,,,,,,,,,,,,,,,,,,,,,,,,,,,,,,,,,,,,,,,,,,,,,,,,,,,,,,,,,,,,,,,,,,,,,,,,,,,,,,,,,,,,,,,,,,,,,,,,,,,,,,,,,,,,
,,614dfd96cdc9c1063b64c437,2023-12-14_20h04.56.364,kallum_motion_pilot,2023.2.3,Win32,163.9344262,614dfd96cdc9c1063b64c437,657bb317c8798c6608bceb3f,657bb3abd370c8d94ade1580,0.0139,0.0139,0,5,5,117,1,seveneight,,,,,,,,,,,,,,,,,,,,,,,,,,,,,,,,,,,,,,,,,,,,,,,,,,,,,,,,,,,,,,,,,,,,,,,,,,,,,,,,,,,,,,,,,,,,,,,,,,,,,,,,,,,,,,,,,,,,,,,,,,,,,,,,,,,,,,,
,,614dfd96cdc9c1063b64c437,2023-12-14_20h04.56.364,kallum_motion_pilot,2023.2.3,Win32,163.9344262,614dfd96cdc9c1063b64c437,657bb317c8798c6608bceb3f,657bb3abd370c8d94ade1580,0.014,0.014,0,6,6,100,1,sevenfive,,,,,,,,,,,,,,,,,,,,,,,,,,,,,,,,,,,,,,,,,,,,,,,,,,,,,,,,,,,,,,,,,,,,,,,,,,,,,,,,,,,,,,,,,,,,,,,,,,,,,,,,,,,,,,,,,,,,,,,,,,,,,,,,,,,,,,,
,,614dfd96cdc9c1063b64c437,2023-12-14_20h04.56.364,kallum_motion_pilot,2023.2.3,Win32,163.9344262,614dfd96cdc9c1063b64c437,657bb317c8798c6608bceb3f,657bb3abd370c8d94ade1580,0.014,0.014,0,7,7,137,1,fiveseven,,,,,,,,,,,,,,,,,,,,,,,,,,,,,,,,,,,,,,,,,,,,,,,,,,,,,,,,,,,,,,,,,,,,,,,,,,,,,,,,,,,,,,,,,,,,,,,,,,,,,,,,,,,,,,,,,,,,,,,,,,,,,,,,,,,,,,,
,,614dfd96cdc9c1063b64c437,2023-12-14_20h04.56.364,kallum_motion_pilot,2023.2.3,Win32,163.9344262,614dfd96cdc9c1063b64c437,657bb317c8798c6608bceb3f,657bb3abd370c8d94ade1580,0.014,0.014,0,8,8,114,1,sixfive,,,,,,,,,,,,,,,,,,,,,,,,,,,,,,,,,,,,,,,,,,,,,,,,,,,,,,,,,,,,,,,,,,,,,,,,,,,,,,,,,,,,,,,,,,,,,,,,,,,,,,,,,,,,,,,,,,,,,,,,,,,,,,,,,,,,,,,
,,614dfd96cdc9c1063b64c437,2023-12-14_20h04.56.364,kallum_motion_pilot,2023.2.3,Win32,163.9344262,614dfd96cdc9c1063b64c437,657bb317c8798c6608bceb3f,657bb3abd370c8d94ade1580,0.0141,0.0142,0,9,9,69,1,threefour,,,,,,,,,,,,,,,,,,,,,,,,,,,,,,,,,,,,,,,,,,,,,,,,,,,,,,,,,,,,,,,,,,,,,,,,,,,,,,,,,,,,,,,,,,,,,,,,,,,,,,,,,,,,,,,,,,,,,,,,,,,,,,,,,,,,,,,
,,614dfd96cdc9c1063b64c437,2023-12-14_20h04.56.364,kallum_motion_pilot,2023.2.3,Win32,163.9344262,614dfd96cdc9c1063b64c437,657bb317c8798c6608bceb3f,657bb3abd370c8d94ade1580,0.0142,0.0142,0,10,10,80,1,fivesix,,,,,,,,,,,,,,,,,,,,,,,,,,,,,,,,,,,,,,,,,,,,,,,,,,,,,,,,,,,,,,,,,,,,,,,,,,,,,,,,,,,,,,,,,,,,,,,,,,,,,,,,,,,,,,,,,,,,,,,,,,,,,,,,,,,,,,,
,,614dfd96cdc9c1063b64c437,2023-12-14_20h04.56.364,kallum_motion_pilot,2023.2.3,Win32,163.9344262,614dfd96cdc9c1063b64c437,657bb317c8798c6608bceb3f,657bb3abd370c8d94ade1580,0.0142,0.0142,0,11,11,12,1,threeone,,,,,,,,,,,,,,,,,,,,,,,,,,,,,,,,,,,,,,,,,,,,,,,,,,,,,,,,,,,,,,,,,,,,,,,,,,,,,,,,,,,,,,,,,,,,,,,,,,,,,,,,,,,,,,,,,,,,,,,,,,,,,,,,,,,,,,,
,,614dfd96cdc9c1063b64c437,2023-12-14_20h04.56.364,kallum_motion_pilot,2023.2.3,Win32,163.9344262,614dfd96cdc9c1063b64c437,657bb317c8798c6608bceb3f,657bb3abd370c8d94ade1580,0.0142,0.0142,0,12,12,91,1,sixeight,,,,,,,,,,,,,,,,,,,,,,,,,,,,,,,,,,,,,,,,,,,,,,,,,,,,,,,,,,,,,,,,,,,,,,,,,,,,,,,,,,,,,,,,,,,,,,,,,,,,,,,,,,,,,,,,,,,,,,,,,,,,,,,,,,,,,,,
,,614dfd96cdc9c1063b64c437,2023-12-14_20h04.56.364,kallum_motion_pilot,2023.2.3,Win32,163.9344262,614dfd96cdc9c1063b64c437,657bb317c8798c6608bceb3f,657bb3abd370c8d94ade1580,0.0142,0.0143,0,13,13,112,1,fivesix,,,,,,,,,,,,,,,,,,,,,,,,,,,,,,,,,,,,,,,,,,,,,,,,,,,,,,,,,,,,,,,,,,,,,,,,,,,,,,,,,,,,,,,,,,,,,,,,,,,,,,,,,,,,,,,,,,,,,,,,,,,,,,,,,,,,,,,
,,614dfd96cdc9c1063b64c437,2023-12-14_20h04.56.364,kallum_motion_pilot,2023.2.3,Win32,163.9344262,614dfd96cdc9c1063b64c437,657bb317c8798c6608bceb3f,657bb3abd370c8d94ade1580,0.0143,0.0143,0,14,14,94,1,eightsix,,,,,,,,,,,,,,,,,,,,,,,,,,,,,,,,,,,,,,,,,,,,,,,,,,,,,,,,,,,,,,,,,,,,,,,,,,,,,,,,,,,,,,,,,,,,,,,,,,,,,,,,,,,,,,,,,,,,,,,,,,,,,,,,,,,,,,,
,,614dfd96cdc9c1063b64c437,2023-12-14_20h04.56.364,kallum_motion_pilot,2023.2.3,Win32,163.9344262,614dfd96cdc9c1063b64c437,657bb317c8798c6608bceb3f,657bb3abd370c8d94ade1580,0.0143,0.0143,0,15,15,111,1,eightseven,,,,,,,,,,,,,,,,,,,,,,,,,,,,,,,,,,,,,,,,,,,,,,,,,,,,,,,,,,,,,,,,,,,,,,,,,,,,,,,,,,,,,,,,,,,,,,,,,,,,,,,,,,,,,,,,,,,,,,,,,,,,,,,,,,,,,,,
,,614dfd96cdc9c1063b64c437,2023-12-14_20h04.56.364,kallum_motion_pilot,2023.2.3,Win32,163.9344262,614dfd96cdc9c1063b64c437,657bb317c8798c6608bceb3f,657bb3abd370c8d94ade1580,0.0144,0.0144,0,16,16,27,1,twofour,,,,,,,,,,,,,,,,,,,,,,,,,,,,,,,,,,,,,,,,,,,,,,,,,,,,,,,,,,,,,,,,,,,,,,,,,,,,,,,,,,,,,,,,,,,,,,,,,,,,,,,,,,,,,,,,,,,,,,,,,,,,,,,,,,,,,,,
,,614dfd96cdc9c1063b64c437,2023-12-14_20h04.56.364,kallum_motion_pilot,2023.2.3,Win32,163.9344262,614dfd96cdc9c1063b64c437,657bb317c8798c6608bceb3f,657bb3abd370c8d94ade1580,0.0144,0.0144,0,17,17,116,1,sevenfive,,,,,,,,,,,,,,,,,,,,,,,,,,,,,,,,,,,,,,,,,,,,,,,,,,,,,,,,,,,,,,,,,,,,,,,,,,,,,,,,,,,,,,,,,,,,,,,,,,,,,,,,,,,,,,,,,,,,,,,,,,,,,,,,,,,,,,,
,,614dfd96cdc9c1063b64c437,2023-12-14_20h04.56.364,kallum_motion_pilot,2023.2.3,Win32,163.9344262,614dfd96cdc9c1063b64c437,657bb317c8798c6608bceb3f,657bb3abd370c8d94ade1580,0.0144,0.0144,0,18,18,19,1,twofour,,,,,,,,,,,,,,,,,,,,,,,,,,,,,,,,,,,,,,,,,,,,,,,,,,,,,,,,,,,,,,,,,,,,,,,,,,,,,,,,,,,,,,,,,,,,,,,,,,,,,,,,,,,,,,,,,,,,,,,,,,,,,,,,,,,,,,,
,,614dfd96cdc9c1063b64c437,2023-12-14_20h04.56.364,kallum_motion_pilot,2023.2.3,Win32,163.9344262,614dfd96cdc9c1063b64c437,657bb317c8798c6608bceb3f,657bb3abd370c8d94ade1580,0.0145,0.0145,0,19,19,32,1,onetwo,,,,,,,,,,,,,,,,,,,,,,,,,,,,,,,,,,,,,,,,,,,,,,,,,,,,,,,,,,,,,,,,,,,,,,,,,,,,,,,,,,,,,,,,,,,,,,,,,,,,,,,,,,,,,,,,,,,,,,,,,,,,,,,,,,,,,,,
,,614dfd96cdc9c1063b64c437,2023-12-14_20h04.56.364,kallum_motion_pilot,2023.2.3,Win32,163.9344262,614dfd96cdc9c1063b64c437,657bb317c8798c6608bceb3f,657bb3abd370c8d94ade1580,0.0145,0.0145,0,20,20,49,1,onethree,,,,,,,,,,,,,,,,,,,,,,,,,,,,,,,,,,,,,,,,,,,,,,,,,,,,,,,,,,,,,,,,,,,,,,,,,,,,,,,,,,,,,,,,,,,,,,,,,,,,,,,,,,,,,,,,,,,,,,,,,,,,,,,,,,,,,,,
,,614dfd96cdc9c1063b64c437,2023-12-14_20h04.56.364,kallum_motion_pilot,2023.2.3,Win32,163.9344262,614dfd96cdc9c1063b64c437,657bb317c8798c6608bceb3f,657bb3abd370c8d94ade1580,0.0146,0.0146,0,21,21,109,1,seveneight,,,,,,,,,,,,,,,,,,,,,,,,,,,,,,,,,,,,,,,,,,,,,,,,,,,,,,,,,,,,,,,,,,,,,,,,,,,,,,,,,,,,,,,,,,,,,,,,,,,,,,,,,,,,,,,,,,,,,,,,,,,,,,,,,,,,,,,
,,614dfd96cdc9c1063b64c437,2023-12-14_20h04.56.364,kallum_motion_pilot,2023.2.3,Win32,163.9344262,614dfd96cdc9c1063b64c437,657bb317c8798c6608bceb3f,657bb3abd370c8d94ade1580,0.0146,0.0146,0,22,22,22,1,fourtwo,,,,,,,,,,,,,,,,,,,,,,,,,,,,,,,,,,,,,,,,,,,,,,,,,,,,,,,,,,,,,,,,,,,,,,,,,,,,,,,,,,,,,,,,,,,,,,,,,,,,,,,,,,,,,,,,,,,,,,,,,,,,,,,,,,,,,,,
,,614dfd96cdc9c1063b64c437,2023-12-14_20h04.56.364,kallum_motion_pilot,2023.2.3,Win32,163.9344262,614dfd96cdc9c1063b64c437,657bb317c8798c6608bceb3f,657bb3abd370c8d94ade1580,0.0147,0.0147,0,23,23,159,1,eightseven,,,,,,,,,,,,,,,,,,,,,,,,,,,,,,,,,,,,,,,,,,,,,,,,,,,,,,,,,,,,,,,,,,,,,,,,,,,,,,,,,,,,,,,,,,,,,,,,,,,,,,,,,,,,,,,,,,,,,,,,,,,,,,,,,,,,,,,
,,614dfd96cdc9c1063b64c437,2023-12-14_20h04.56.364,kallum_motion_pilot,2023.2.3,Win32,163.9344262,614dfd96cdc9c1063b64c437,657bb317c8798c6608bceb3f,657bb3abd370c8d94ade1580,0.0147,0.0147,0,24,24,76,1,threeone,,,,,,,,,,,,,,,,,,,,,,,,,,,,,,,,,,,,,,,,,,,,,,,,,,,,,,,,,,,,,,,,,,,,,,,,,,,,,,,,,,,,,,,,,,,,,,,,,,,,,,,,,,,,,,,,,,,,,,,,,,,,,,,,,,,,,,,
,,614dfd96cdc9c1063b64c437,2023-12-14_20h04.56.364,kallum_motion_pilot,2023.2.3,Win32,163.9344262,614dfd96cdc9c1063b64c437,657bb317c8798c6608bceb3f,657bb3abd370c8d94ade1580,0.0147,0.0147,0,25,25,89,1,fiveseven,,,,,,,,,,,,,,,,,,,,,,,,,,,,,,,,,,,,,,,,,,,,,,,,,,,,,,,,,,,,,,,,,,,,,,,,,,,,,,,,,,,,,,,,,,,,,,,,,,,,,,,,,,,,,,,,,,,,,,,,,,,,,,,,,,,,,,,
,,614dfd96cdc9c1063b64c437,2023-12-14_20h04.56.364,kallum_motion_pilot,2023.2.3,Win32,163.9344262,614dfd96cdc9c1063b64c437,657bb317c8798c6608bceb3f,657bb3abd370c8d94ade1580,0.0147,0.0147,0,26,26,64,1,onetwo,,,,,,,,,,,,,,,,,,,,,,,,,,,,,,,,,,,,,,,,,,,,,,,,,,,,,,,,,,,,,,,,,,,,,,,,,,,,,,,,,,,,,,,,,,,,,,,,,,,,,,,,,,,,,,,,,,,,,,,,,,,,,,,,,,,,,,,
,,614dfd96cdc9c1063b64c437,2023-12-14_20h04.56.364,kallum_motion_pilot,2023.2.3,Win32,163.9344262,614dfd96cdc9c1063b64c437,657bb317c8798c6608bceb3f,657bb3abd370c8d94ade1580,0.0148,0.0148,0,27,27,123,1,sixeight,,,,,,,,,,,,,,,,,,,,,,,,,,,,,,,,,,,,,,,,,,,,,,,,,,,,,,,,,,,,,,,,,,,,,,,,,,,,,,,,,,,,,,,,,,,,,,,,,,,,,,,,,,,,,,,,,,,,,,,,,,,,,,,,,,,,,,,
,,614dfd96cdc9c1063b64c437,2023-12-14_20h04.56.364,kallum_motion_pilot,2023.2.3,Win32,163.9344262,614dfd96cdc9c1063b64c437,657bb317c8798c6608bceb3f,657bb3abd370c8d94ade1580,0.0149,0.0149,0,28,28,102,1,eightsix,,,,,,,,,,,,,,,,,,,,,,,,,,,,,,,,,,,,,,,,,,,,,,,,,,,,,,,,,,,,,,,,,,,,,,,,,,,,,,,,,,,,,,,,,,,,,,,,,,,,,,,,,,,,,,,,,,,,,,,,,,,,,,,,,,,,,,,
,,614dfd96cdc9c1063b64c437,2023-12-14_20h04.56.364,kallum_motion_pilot,2023.2.3,Win32,163.9344262,614dfd96cdc9c1063b64c437,657bb317c8798c6608bceb3f,657bb3abd370c8d94ade1580,0.0149,0.0149,0,29,29,98,1,sixfive,,,,,,,,,,,,,,,,,,,,,,,,,,,,,,,,,,,,,,,,,,,,,,,,,,,,,,,,,,,,,,,,,,,,,,,,,,,,,,,,,,,,,,,,,,,,,,,,,,,,,,,,,,,,,,,,,,,,,,,,,,,,,,,,,,,,,,,
,,614dfd96cdc9c1063b64c437,2023-12-14_20h04.56.364,kallum_motion_pilot,2023.2.3,Win32,163.9344262,614dfd96cdc9c1063b64c437,657bb317c8798c6608bceb3f,657bb3abd370c8d94ade1580,0.0149,0.0149,0,30,30,21,1,threefour,,,,,,,,,,,,,,,,,,,,,,,,,,,,,,,,,,,,,,,,,,,,,,,,,,,,,,,,,,,,,,,,,,,,,,,,,,,,,,,,,,,,,,,,,,,,,,,,,,,,,,,,,,,,,,,,,,,,,,,,,,,,,,,,,,,,,,,
,,614dfd96cdc9c1063b64c437,2023-12-14_20h04.56.364,kallum_motion_pilot,2023.2.3,Win32,163.9344262,614dfd96cdc9c1063b64c437,657bb317c8798c6608bceb3f,657bb3abd370c8d94ade1580,0.015,0.015,0,31,31,93,1,seveneight,,,,,,,,,,,,,,,,,,,,,,,,,,,,,,,,,,,,,,,,,,,,,,,,,,,,,,,,,,,,,,,,,,,,,,,,,,,,,,,,,,,,,,,,,,,,,,,,,,,,,,,,,,,,,,,,,,,,,,,,,,,,,,,,,,,,,,,
,,614dfd96cdc9c1063b64c437,2023-12-14_20h04.56.364,kallum_motion_pilot,2023.2.3,Win32,163.9344262,614dfd96cdc9c1063b64c437,657bb317c8798c6608bceb3f,657bb3abd370c8d94ade1580,0.015,0.015,0,32,32,17,1,onethree,,,,,,,,,,,,,,,,,,,,,,,,,,,,,,,,,,,,,,,,,,,,,,,,,,,,,,,,,,,,,,,,,,,,,,,,,,,,,,,,,,,,,,,,,,,,,,,,,,,,,,,,,,,,,,,,,,,,,,,,,,,,,,,,,,,,,,,
,,614dfd96cdc9c1063b64c437,2023-12-14_20h04.56.364,kallum_motion_pilot,2023.2.3,Win32,163.9344262,614dfd96cdc9c1063b64c437,657bb317c8798c6608bceb3f,657bb3abd370c8d94ade1580,0.015,0.015,0,33,33,104,1,fivesix,,,,,,,,,,,,,,,,,,,,,,,,,,,,,,,,,,,,,,,,,,,,,,,,,,,,,,,,,,,,,,,,,,,,,,,,,,,,,,,,,,,,,,,,,,,,,,,,,,,,,,,,,,,,,,,,,,,,,,,,,,,,,,,,,,,,,,,
,,614dfd96cdc9c1063b64c437,2023-12-14_20h04.56.364,kallum_motion_pilot,2023.2.3,Win32,163.9344262,614dfd96cdc9c1063b64c437,657bb317c8798c6608bceb3f,657bb3abd370c8d94ade1580,0.0151,0.0151,0,34,34,65,1,onethree,,,,,,,,,,,,,,,,,,,,,,,,,,,,,,,,,,,,,,,,,,,,,,,,,,,,,,,,,,,,,,,,,,,,,,,,,,,,,,,,,,,,,,,,,,,,,,,,,,,,,,,,,,,,,,,,,,,,,,,,,,,,,,,,,,,,,,,
,,614dfd96cdc9c1063b64c437,2023-12-14_20h04.56.364,kallum_motion_pilot,2023.2.3,Win32,163.9344262,614dfd96cdc9c1063b64c437,657bb317c8798c6608bceb3f,657bb3abd370c8d94ade1580,0.0151,0.0152,0,35,35,30,1,fourtwo,,,,,,,,,,,,,,,,,,,,,,,,,,,,,,,,,,,,,,,,,,,,,,,,,,,,,,,,,,,,,,,,,,,,,,,,,,,,,,,,,,,,,,,,,,,,,,,,,,,,,,,,,,,,,,,,,,,,,,,,,,,,,,,,,,,,,,,
,,614dfd96cdc9c1063b64c437,2023-12-14_20h04.56.364,kallum_motion_pilot,2023.2.3,Win32,163.9344262,614dfd96cdc9c1063b64c437,657bb317c8798c6608bceb3f,657bb3abd370c8d94ade1580,0.0152,0.0153,0,36,36,122,1,sixfive,,,,,,,,,,,,,,,,,,,,,,,,,,,,,,,,,,,,,,,,,,,,,,,,,,,,,,,,,,,,,,,,,,,,,,,,,,,,,,,,,,,,,,,,,,,,,,,,,,,,,,,,,,,,,,,,,,,,,,,,,,,,,,,,,,,,,,,
,,614dfd96cdc9c1063b64c437,2023-12-14_20h04.56.364,kallum_motion_pilot,2023.2.3,Win32,163.9344262,614dfd96cdc9c1063b64c437,657bb317c8798c6608bceb3f,657bb3abd370c8d94ade1580,0.0153,0.0153,0,37,37,150,1,eightsix,,,,,,,,,,,,,,,,,,,,,,,,,,,,,,,,,,,,,,,,,,,,,,,,,,,,,,,,,,,,,,,,,,,,,,,,,,,,,,,,,,,,,,,,,,,,,,,,,,,,,,,,,,,,,,,,,,,,,,,,,,,,,,,,,,,,,,,
,,614dfd96cdc9c1063b64c437,2023-12-14_20h04.56.364,kallum_motion_pilot,2023.2.3,Win32,163.9344262,614dfd96cdc9c1063b64c437,657bb317c8798c6608bceb3f,657bb3abd370c8d94ade1580,0.0153,0.0153,0,38,38,18,1,twoone,,,,,,,,,,,,,,,,,,,,,,,,,,,,,,,,,,,,,,,,,,,,,,,,,,,,,,,,,,,,,,,,,,,,,,,,,,,,,,,,,,,,,,,,,,,,,,,,,,,,,,,,,,,,,,,,,,,,,,,,,,,,,,,,,,,,,,,
,,614dfd96cdc9c1063b64c437,2023-12-14_20h04.56.364,kallum_motion_pilot,2023.2.3,Win32,163.9344262,614dfd96cdc9c1063b64c437,657bb317c8798c6608bceb3f,657bb3abd370c8d94ade1580,0.0154,0.0154,0,39,39,125,1,seveneight,,,,,,,,,,,,,,,,,,,,,,,,,,,,,,,,,,,,,,,,,,,,,,,,,,,,,,,,,,,,,,,,,,,,,,,,,,,,,,,,,,,,,,,,,,,,,,,,,,,,,,,,,,,,,,,,,,,,,,,,,,,,,,,,,,,,,,,
,,614dfd96cdc9c1063b64c437,2023-12-14_20h04.56.364,kallum_motion_pilot,2023.2.3,Win32,163.9344262,614dfd96cdc9c1063b64c437,657bb317c8798c6608bceb3f,657bb3abd370c8d94ade1580,0.0154,0.0154,0,40,40,23,1,fourthree,,,,,,,,,,,,,,,,,,,,,,,,,,,,,,,,,,,,,,,,,,,,,,,,,,,,,,,,,,,,,,,,,,,,,,,,,,,,,,,,,,,,,,,,,,,,,,,,,,,,,,,,,,,,,,,,,,,,,,,,,,,,,,,,,,,,,,,
,,614dfd96cdc9c1063b64c437,2023-12-14_20h04.56.364,kallum_motion_pilot,2023.2.3,Win32,163.9344262,614dfd96cdc9c1063b64c437,657bb317c8798c6608bceb3f,657bb3abd370c8d94ade1580,0.0155,0.0155,0,41,41,46,1,fourtwo,,,,,,,,,,,,,,,,,,,,,,,,,,,,,,,,,,,,,,,,,,,,,,,,,,,,,,,,,,,,,,,,,,,,,,,,,,,,,,,,,,,,,,,,,,,,,,,,,,,,,,,,,,,,,,,,,,,,,,,,,,,,,,,,,,,,,,,
,,614dfd96cdc9c1063b64c437,2023-12-14_20h04.56.364,kallum_motion_pilot,2023.2.3,Win32,163.9344262,614dfd96cdc9c1063b64c437,657bb317c8798c6608bceb3f,657bb3abd370c8d94ade1580,0.0155,0.0155,0,42,42,1,1,onethree,,,,,,,,,,,,,,,,,,,,,,,,,,,,,,,,,,,,,,,,,,,,,,,,,,,,,,,,,,,,,,,,,,,,,,,,,,,,,,,,,,,,,,,,,,,,,,,,,,,,,,,,,,,,,,,,,,,,,,,,,,,,,,,,,,,,,,,
,,614dfd96cdc9c1063b64c437,2023-12-14_20h04.56.364,kallum_motion_pilot,2023.2.3,Win32,163.9344262,614dfd96cdc9c1063b64c437,657bb317c8798c6608bceb3f,657bb3abd370c8d94ade1580,0.0156,0.0156,0,43,43,124,1,sevenfive,,,,,,,,,,,,,,,,,,,,,,,,,,,,,,,,,,,,,,,,,,,,,,,,,,,,,,,,,,,,,,,,,,,,,,,,,,,,,,,,,,,,,,,,,,,,,,,,,,,,,,,,,,,,,,,,,,,,,,,,,,,,,,,,,,,,,,,
,,614dfd96cdc9c1063b64c437,2023-12-14_20h04.56.364,kallum_motion_pilot,2023.2.3,Win32,163.9344262,614dfd96cdc9c1063b64c437,657bb317c8798c6608bceb3f,657bb3abd370c8d94ade1580,0.0156,0.0156,0,44,44,128,1,fivesix,,,,,,,,,,,,,,,,,,,,,,,,,,,,,,,,,,,,,,,,,,,,,,,,,,,,,,,,,,,,,,,,,,,,,,,,,,,,,,,,,,,,,,,,,,,,,,,,,,,,,,,,,,,,,,,,,,,,,,,,,,,,,,,,,,,,,,,
,,614dfd96cdc9c1063b64c437,2023-12-14_20h04.56.364,kallum_motion_pilot,2023.2.3,Win32,163.9344262,614dfd96cdc9c1063b64c437,657bb317c8798c6608bceb3f,657bb3abd370c8d94ade1580,0.0156,0.0156,0,45,45,25,1,onethree,,,,,,,,,,,,,,,,,,,,,,,,,,,,,,,,,,,,,,,,,,,,,,,,,,,,,,,,,,,,,,,,,,,,,,,,,,,,,,,,,,,,,,,,,,,,,,,,,,,,,,,,,,,,,,,,,,,,,,,,,,,,,,,,,,,,,,,
,,614dfd96cdc9c1063b64c437,2023-12-14_20h04.56.364,kallum_motion_pilot,2023.2.3,Win32,163.9344262,614dfd96cdc9c1063b64c437,657bb317c8798c6608bceb3f,657bb3abd370c8d94ade1580,0.0157,0.0157,0,46,46,43,1,twofour,,,,,,,,,,,,,,,,,,,,,,,,,,,,,,,,,,,,,,,,,,,,,,,,,,,,,,,,,,,,,,,,,,,,,,,,,,,,,,,,,,,,,,,,,,,,,,,,,,,,,,,,,,,,,,,,,,,,,,,,,,,,,,,,,,,,,,,
,,614dfd96cdc9c1063b64c437,2023-12-14_20h04.56.364,kallum_motion_pilot,2023.2.3,Win32,163.9344262,614dfd96cdc9c1063b64c437,657bb317c8798c6608bceb3f,657bb3abd370c8d94ade1580,0.0157,0.0157,0,47,47,9,1,onethree,,,,,,,,,,,,,,,,,,,,,,,,,,,,,,,,,,,,,,,,,,,,,,,,,,,,,,,,,,,,,,,,,,,,,,,,,,,,,,,,,,,,,,,,,,,,,,,,,,,,,,,,,,,,,,,,,,,,,,,,,,,,,,,,,,,,,,,
,,614dfd96cdc9c1063b64c437,2023-12-14_20h04.56.364,kallum_motion_pilot,2023.2.3,Win32,163.9344262,614dfd96cdc9c1063b64c437,657bb317c8798c6608bceb3f,657bb3abd370c8d94ade1580,0.0158,0.0158,0,48,48,153,1,fiveseven,,,,,,,,,,,,,,,,,,,,,,,,,,,,,,,,,,,,,,,,,,,,,,,,,,,,,,,,,,,,,,,,,,,,,,,,,,,,,,,,,,,,,,,,,,,,,,,,,,,,,,,,,,,,,,,,,,,,,,,,,,,,,,,,,,,,,,,
,,614dfd96cdc9c1063b64c437,2023-12-14_20h04.56.364,kallum_motion_pilot,2023.2.3,Win32,163.9344262,614dfd96cdc9c1063b64c437,657bb317c8798c6608bceb3f,657bb3abd370c8d94ade1580,0.0158,0.0158,0,49,49,141,1,seveneight,,,,,,,,,,,,,,,,,,,,,,,,,,,,,,,,,,,,,,,,,,,,,,,,,,,,,,,,,,,,,,,,,,,,,,,,,,,,,,,,,,,,,,,,,,,,,,,,,,,,,,,,,,,,,,,,,,,,,,,,,,,,,,,,,,,,,,,
,,614dfd96cdc9c1063b64c437,2023-12-14_20h04.56.364,kallum_motion_pilot,2023.2.3,Win32,163.9344262,614dfd96cdc9c1063b64c437,657bb317c8798c6608bceb3f,657bb3abd370c8d94ade1580,0.0158,0.0158,0,50,50,2,1,twoone,,,,,,,,,,,,,,,,,,,,,,,,,,,,,,,,,,,,,,,,,,,,,,,,,,,,,,,,,,,,,,,,,,,,,,,,,,,,,,,,,,,,,,,,,,,,,,,,,,,,,,,,,,,,,,,,,,,,,,,,,,,,,,,,,,,,,,,
,,614dfd96cdc9c1063b64c437,2023-12-14_20h04.56.364,kallum_motion_pilot,2023.2.3,Win32,163.9344262,614dfd96cdc9c1063b64c437,657bb317c8798c6608bceb3f,657bb3abd370c8d94ade1580,0.0158,0.0159,0,51,51,31,1,fourthree,,,,,,,,,,,,,,,,,,,,,,,,,,,,,,,,,,,,,,,,,,,,,,,,,,,,,,,,,,,,,,,,,,,,,,,,,,,,,,,,,,,,,,,,,,,,,,,,,,,,,,,,,,,,,,,,,,,,,,,,,,,,,,,,,,,,,,,
,,614dfd96cdc9c1063b64c437,2023-12-14_20h04.56.364,kallum_motion_pilot,2023.2.3,Win32,163.9344262,614dfd96cdc9c1063b64c437,657bb317c8798c6608bceb3f,657bb3abd370c8d94ade1580,0.016,0.016,0,52,52,75,1,twofour,,,,,,,,,,,,,,,,,,,,,,,,,,,,,,,,,,,,,,,,,,,,,,,,,,,,,,,,,,,,,,,,,,,,,,,,,,,,,,,,,,,,,,,,,,,,,,,,,,,,,,,,,,,,,,,,,,,,,,,,,,,,,,,,,,,,,,,
,,614dfd96cdc9c1063b64c437,2023-12-14_20h04.56.364,kallum_motion_pilot,2023.2.3,Win32,163.9344262,614dfd96cdc9c1063b64c437,657bb317c8798c6608bceb3f,657bb3abd370c8d94ade1580,0.016,0.016,0,53,53,68,1,threeone,,,,,,,,,,,,,,,,,,,,,,,,,,,,,,,,,,,,,,,,,,,,,,,,,,,,,,,,,,,,,,,,,,,,,,,,,,,,,,,,,,,,,,,,,,,,,,,,,,,,,,,,,,,,,,,,,,,,,,,,,,,,,,,,,,,,,,,
,,614dfd96cdc9c1063b64c437,2023-12-14_20h04.56.364,kallum_motion_pilot,2023.2.3,Win32,163.9344262,614dfd96cdc9c1063b64c437,657bb317c8798c6608bceb3f,657bb3abd370c8d94ade1580,0.016,0.0161,0,54,54,56,1,onetwo,,,,,,,,,,,,,,,,,,,,,,,,,,,,,,,,,,,,,,,,,,,,,,,,,,,,,,,,,,,,,,,,,,,,,,,,,,,,,,,,,,,,,,,,,,,,,,,,,,,,,,,,,,,,,,,,,,,,,,,,,,,,,,,,,,,,,,,
,,614dfd96cdc9c1063b64c437,2023-12-14_20h04.56.364,kallum_motion_pilot,2023.2.3,Win32,163.9344262,614dfd96cdc9c1063b64c437,657bb317c8798c6608bceb3f,657bb3abd370c8d94ade1580,0.0161,0.0161,0,55,55,92,1,sevenfive,,,,,,,,,,,,,,,,,,,,,,,,,,,,,,,,,,,,,,,,,,,,,,,,,,,,,,,,,,,,,,,,,,,,,,,,,,,,,,,,,,,,,,,,,,,,,,,,,,,,,,,,,,,,,,,,,,,,,,,,,,,,,,,,,,,,,,,
,,614dfd96cdc9c1063b64c437,2023-12-14_20h04.56.364,kallum_motion_pilot,2023.2.3,Win32,163.9344262,614dfd96cdc9c1063b64c437,657bb317c8798c6608bceb3f,657bb3abd370c8d94ade1580,0.0161,0.0161,0,56,56,126,1,eightsix,,,,,,,,,,,,,,,,,,,,,,,,,,,,,,,,,,,,,,,,,,,,,,,,,,,,,,,,,,,,,,,,,,,,,,,,,,,,,,,,,,,,,,,,,,,,,,,,,,,,,,,,,,,,,,,,,,,,,,,,,,,,,,,,,,,,,,,
,,614dfd96cdc9c1063b64c437,2023-12-14_20h04.56.364,kallum_motion_pilot,2023.2.3,Win32,163.9344262,614dfd96cdc9c1063b64c437,657bb317c8798c6608bceb3f,657bb3abd370c8d94ade1580,0.0162,0.0162,0,57,57,139,1,sixeight,,,,,,,,,,,,,,,,,,,,,,,,,,,,,,,,,,,,,,,,,,,,,,,,,,,,,,,,,,,,,,,,,,,,,,,,,,,,,,,,,,,,,,,,,,,,,,,,,,,,,,,,,,,,,,,,,,,,,,,,,,,,,,,,,,,,,,,
,,614dfd96cdc9c1063b64c437,2023-12-14_20h04.56.364,kallum_motion_pilot,2023.2.3,Win32,163.9344262,614dfd96cdc9c1063b64c437,657bb317c8798c6608bceb3f,657bb3abd370c8d94ade1580,0.0162,0.0162,0,58,58,54,1,fourtwo,,,,,,,,,,,,,,,,,,,,,,,,,,,,,,,,,,,,,,,,,,,,,,,,,,,,,,,,,,,,,,,,,,,,,,,,,,,,,,,,,,,,,,,,,,,,,,,,,,,,,,,,,,,,,,,,,,,,,,,,,,,,,,,,,,,,,,,
,,614dfd96cdc9c1063b64c437,2023-12-14_20h04.56.364,kallum_motion_pilot,2023.2.3,Win32,163.9344262,614dfd96cdc9c1063b64c437,657bb317c8798c6608bceb3f,657bb3abd370c8d94ade1580,0.0162,0.0162,0,59,59,83,1,sixeight,,,,,,,,,,,,,,,,,,,,,,,,,,,,,,,,,,,,,,,,,,,,,,,,,,,,,,,,,,,,,,,,,,,,,,,,,,,,,,,,,,,,,,,,,,,,,,,,,,,,,,,,,,,,,,,,,,,,,,,,,,,,,,,,,,,,,,,
,,614dfd96cdc9c1063b64c437,2023-12-14_20h04.56.364,kallum_motion_pilot,2023.2.3,Win32,163.9344262,614dfd96cdc9c1063b64c437,657bb317c8798c6608bceb3f,657bb3abd370c8d94ade1580,0.0162,0.0163,0,60,60,35,1,twofour,,,,,,,,,,,,,,,,,,,,,,,,,,,,,,,,,,,,,,,,,,,,,,,,,,,,,,,,,,,,,,,,,,,,,,,,,,,,,,,,,,,,,,,,,,,,,,,,,,,,,,,,,,,,,,,,,,,,,,,,,,,,,,,,,,,,,,,
,,614dfd96cdc9c1063b64c437,2023-12-14_20h04.56.364,kallum_motion_pilot,2023.2.3,Win32,163.9344262,614dfd96cdc9c1063b64c437,657bb317c8798c6608bceb3f,657bb3abd370c8d94ade1580,0.0163,0.0163,0,61,61,60,1,threeone,,,,,,,,,,,,,,,,,,,,,,,,,,,,,,,,,,,,,,,,,,,,,,,,,,,,,,,,,,,,,,,,,,,,,,,,,,,,,,,,,,,,,,,,,,,,,,,,,,,,,,,,,,,,,,,,,,,,,,,,,,,,,,,,,,,,,,,
,,614dfd96cdc9c1063b64c437,2023-12-14_20h04.56.364,kallum_motion_pilot,2023.2.3,Win32,163.9344262,614dfd96cdc9c1063b64c437,657bb317c8798c6608bceb3f,657bb3abd370c8d94ade1580,0.0163,0.0164,0,62,62,103,1,eightseven,,,,,,,,,,,,,,,,,,,,,,,,,,,,,,,,,,,,,,,,,,,,,,,,,,,,,,,,,,,,,,,,,,,,,,,,,,,,,,,,,,,,,,,,,,,,,,,,,,,,,,,,,,,,,,,,,,,,,,,,,,,,,,,,,,,,,,,
,,614dfd96cdc9c1063b64c437,2023-12-14_20h04.56.364,kallum_motion_pilot,2023.2.3,Win32,163.9344262,614dfd96cdc9c1063b64c437,657bb317c8798c6608bceb3f,657bb3abd370c8d94ade1580,0.0164,0.0164,0,63,63,8,1,onetwo,,,,,,,,,,,,,,,,,,,,,,,,,,,,,,,,,,,,,,,,,,,,,,,,,,,,,,,,,,,,,,,,,,,,,,,,,,,,,,,,,,,,,,,,,,,,,,,,,,,,,,,,,,,,,,,,,,,,,,,,,,,,,,,,,,,,,,,
,,614dfd96cdc9c1063b64c437,2023-12-14_20h04.56.364,kallum_motion_pilot,2023.2.3,Win32,163.9344262,614dfd96cdc9c1063b64c437,657bb317c8798c6608bceb3f,657bb3abd370c8d94ade1580,0.0164,0.0164,0,64,64,149,1,seveneight,,,,,,,,,,,,,,,,,,,,,,,,,,,,,,,,,,,,,,,,,,,,,,,,,,,,,,,,,,,,,,,,,,,,,,,,,,,,,,,,,,,,,,,,,,,,,,,,,,,,,,,,,,,,,,,,,,,,,,,,,,,,,,,,,,,,,,,
,,614dfd96cdc9c1063b64c437,2023-12-14_20h04.56.364,kallum_motion_pilot,2023.2.3,Win32,163.9344262,614dfd96cdc9c1063b64c437,657bb317c8798c6608bceb3f,657bb3abd370c8d94ade1580,0.0165,0.0166,0,65,65,5,1,threefour,,,,,,,,,,,,,,,,,,,,,,,,,,,,,,,,,,,,,,,,,,,,,,,,,,,,,,,,,,,,,,,,,,,,,,,,,,,,,,,,,,,,,,,,,,,,,,,,,,,,,,,,,,,,,,,,,,,,,,,,,,,,,,,,,,,,,,,
,,614dfd96cdc9c1063b64c437,2023-12-14_20h04.56.364,kallum_motion_pilot,2023.2.3,Win32,163.9344262,614dfd96cdc9c1063b64c437,657bb317c8798c6608bceb3f,657bb3abd370c8d94ade1580,0.0166,0.0166,0,66,66,38,1,fourtwo,,,,,,,,,,,,,,,,,,,,,,,,,,,,,,,,,,,,,,,,,,,,,,,,,,,,,,,,,,,,,,,,,,,,,,,,,,,,,,,,,,,,,,,,,,,,,,,,,,,,,,,,,,,,,,,,,,,,,,,,,,,,,,,,,,,,,,,
,,614dfd96cdc9c1063b64c437,2023-12-14_20h04.56.364,kallum_motion_pilot,2023.2.3,Win32,163.9344262,614dfd96cdc9c1063b64c437,657bb317c8798c6608bceb3f,657bb3abd370c8d94ade1580,0.0166,0.0166,0,67,67,78,1,fourtwo,,,,,,,,,,,,,,,,,,,,,,,,,,,,,,,,,,,,,,,,,,,,,,,,,,,,,,,,,,,,,,,,,,,,,,,,,,,,,,,,,,,,,,,,,,,,,,,,,,,,,,,,,,,,,,,,,,,,,,,,,,,,,,,,,,,,,,,
,,614dfd96cdc9c1063b64c437,2023-12-14_20h04.56.364,kallum_motion_pilot,2023.2.3,Win32,163.9344262,614dfd96cdc9c1063b64c437,657bb317c8798c6608bceb3f,657bb3abd370c8d94ade1580,0.0166,0.0166,0,68,68,45,1,threefour,,,,,,,,,,,,,,,,,,,,,,,,,,,,,,,,,,,,,,,,,,,,,,,,,,,,,,,,,,,,,,,,,,,,,,,,,,,,,,,,,,,,,,,,,,,,,,,,,,,,,,,,,,,,,,,,,,,,,,,,,,,,,,,,,,,,,,,
,,614dfd96cdc9c1063b64c437,2023-12-14_20h04.56.364,kallum_motion_pilot,2023.2.3,Win32,163.9344262,614dfd96cdc9c1063b64c437,657bb317c8798c6608bceb3f,657bb3abd370c8d94ade1580,0.0167,0.0167,0,69,69,42,1,twoone,,,,,,,,,,,,,,,,,,,,,,,,,,,,,,,,,,,,,,,,,,,,,,,,,,,,,,,,,,,,,,,,,,,,,,,,,,,,,,,,,,,,,,,,,,,,,,,,,,,,,,,,,,,,,,,,,,,,,,,,,,,,,,,,,,,,,,,
,,614dfd96cdc9c1063b64c437,2023-12-14_20h04.56.364,kallum_motion_pilot,2023.2.3,Win32,163.9344262,614dfd96cdc9c1063b64c437,657bb317c8798c6608bceb3f,657bb3abd370c8d94ade1580,0.0167,0.0167,0,70,70,135,1,eightseven,,,,,,,,,,,,,,,,,,,,,,,,,,,,,,,,,,,,,,,,,,,,,,,,,,,,,,,,,,,,,,,,,,,,,,,,,,,,,,,,,,,,,,,,,,,,,,,,,,,,,,,,,,,,,,,,,,,,,,,,,,,,,,,,,,,,,,,
,,614dfd96cdc9c1063b64c437,2023-12-14_20h04.56.364,kallum_motion_pilot,2023.2.3,Win32,163.9344262,614dfd96cdc9c1063b64c437,657bb317c8798c6608bceb3f,657bb3abd370c8d94ade1580,0.0168,0.0168,0,71,71,61,1,threefour,,,,,,,,,,,,,,,,,,,,,,,,,,,,,,,,,,,,,,,,,,,,,,,,,,,,,,,,,,,,,,,,,,,,,,,,,,,,,,,,,,,,,,,,,,,,,,,,,,,,,,,,,,,,,,,,,,,,,,,,,,,,,,,,,,,,,,,
,,614dfd96cdc9c1063b64c437,2023-12-14_20h04.56.364,kallum_motion_pilot,2023.2.3,Win32,163.9344262,614dfd96cdc9c1063b64c437,657bb317c8798c6608bceb3f,657bb3abd370c8d94ade1580,0.0169,0.0169,0,72,72,48,1,onetwo,,,,,,,,,,,,,,,,,,,,,,,,,,,,,,,,,,,,,,,,,,,,,,,,,,,,,,,,,,,,,,,,,,,,,,,,,,,,,,,,,,,,,,,,,,,,,,,,,,,,,,,,,,,,,,,,,,,,,,,,,,,,,,,,,,,,,,,
,,614dfd96cdc9c1063b64c437,2023-12-14_20h04.56.364,kallum_motion_pilot,2023.2.3,Win32,163.9344262,614dfd96cdc9c1063b64c437,657bb317c8798c6608bceb3f,657bb3abd370c8d94ade1580,0.0169,0.0169,0,73,73,118,1,eightsix,,,,,,,,,,,,,,,,,,,,,,,,,,,,,,,,,,,,,,,,,,,,,,,,,,,,,,,,,,,,,,,,,,,,,,,,,,,,,,,,,,,,,,,,,,,,,,,,,,,,,,,,,,,,,,,,,,,,,,,,,,,,,,,,,,,,,,,
,,614dfd96cdc9c1063b64c437,2023-12-14_20h04.56.364,kallum_motion_pilot,2023.2.3,Win32,163.9344262,614dfd96cdc9c1063b64c437,657bb317c8798c6608bceb3f,657bb3abd370c8d94ade1580,0.0169,0.0169,0,74,74,59,1,twofour,,,,,,,,,,,,,,,,,,,,,,,,,,,,,,,,,,,,,,,,,,,,,,,,,,,,,,,,,,,,,,,,,,,,,,,,,,,,,,,,,,,,,,,,,,,,,,,,,,,,,,,,,,,,,,,,,,,,,,,,,,,,,,,,,,,,,,,
,,614dfd96cdc9c1063b64c437,2023-12-14_20h04.56.364,kallum_motion_pilot,2023.2.3,Win32,163.9344262,614dfd96cdc9c1063b64c437,657bb317c8798c6608bceb3f,657bb3abd370c8d94ade1580,0.0169,0.017,0,75,75,132,1,sevenfive,,,,,,,,,,,,,,,,,,,,,,,,,,,,,,,,,,,,,,,,,,,,,,,,,,,,,,,,,,,,,,,,,,,,,,,,,,,,,,,,,,,,,,,,,,,,,,,,,,,,,,,,,,,,,,,,,,,,,,,,,,,,,,,,,,,,,,,
,,614dfd96cdc9c1063b64c437,2023-12-14_20h04.56.364,kallum_motion_pilot,2023.2.3,Win32,163.9344262,614dfd96cdc9c1063b64c437,657bb317c8798c6608bceb3f,657bb3abd370c8d94ade1580,0.017,0.0171,0,76,76,107,1,sixeight,,,,,,,,,,,,,,,,,,,,,,,,,,,,,,,,,,,,,,,,,,,,,,,,,,,,,,,,,,,,,,,,,,,,,,,,,,,,,,,,,,,,,,,,,,,,,,,,,,,,,,,,,,,,,,,,,,,,,,,,,,,,,,,,,,,,,,,
,,614dfd96cdc9c1063b64c437,2023-12-14_20h04.56.364,kallum_motion_pilot,2023.2.3,Win32,163.9344262,614dfd96cdc9c1063b64c437,657bb317c8798c6608bceb3f,657bb3abd370c8d94ade1580,0.0171,0.0171,0,77,77,158,1,eightsix,,,,,,,,,,,,,,,,,,,,,,,,,,,,,,,,,,,,,,,,,,,,,,,,,,,,,,,,,,,,,,,,,,,,,,,,,,,,,,,,,,,,,,,,,,,,,,,,,,,,,,,,,,,,,,,,,,,,,,,,,,,,,,,,,,,,,,,
,,614dfd96cdc9c1063b64c437,2023-12-14_20h04.56.364,kallum_motion_pilot,2023.2.3,Win32,163.9344262,614dfd96cdc9c1063b64c437,657bb317c8798c6608bceb3f,657bb3abd370c8d94ade1580,0.0171,0.0172,0,78,78,148,1,sevenfive,,,,,,,,,,,,,,,,,,,,,,,,,,,,,,,,,,,,,,,,,,,,,,,,,,,,,,,,,,,,,,,,,,,,,,,,,,,,,,,,,,,,,,,,,,,,,,,,,,,,,,,,,,,,,,,,,,,,,,,,,,,,,,,,,,,,,,,
,,614dfd96cdc9c1063b64c437,2023-12-14_20h04.56.364,kallum_motion_pilot,2023.2.3,Win32,163.9344262,614dfd96cdc9c1063b64c437,657bb317c8798c6608bceb3f,657bb3abd370c8d94ade1580,0.0172,0.0172,0,79,79,85,1,seveneight,,,,,,,,,,,,,,,,,,,,,,,,,,,,,,,,,,,,,,,,,,,,,,,,,,,,,,,,,,,,,,,,,,,,,,,,,,,,,,,,,,,,,,,,,,,,,,,,,,,,,,,,,,,,,,,,,,,,,,,,,,,,,,,,,,,,,,,
,,614dfd96cdc9c1063b64c437,2023-12-14_20h04.56.364,kallum_motion_pilot,2023.2.3,Win32,163.9344262,614dfd96cdc9c1063b64c437,657bb317c8798c6608bceb3f,657bb3abd370c8d94ade1580,0.0172,0.0172,0,80,80,34,1,twoone,,,,,,,,,,,,,,,,,,,,,,,,,,,,,,,,,,,,,,,,,,,,,,,,,,,,,,,,,,,,,,,,,,,,,,,,,,,,,,,,,,,,,,,,,,,,,,,,,,,,,,,,,,,,,,,,,,,,,,,,,,,,,,,,,,,,,,,
,,614dfd96cdc9c1063b64c437,2023-12-14_20h04.56.364,kallum_motion_pilot,2023.2.3,Win32,163.9344262,614dfd96cdc9c1063b64c437,657bb317c8798c6608bceb3f,657bb3abd370c8d94ade1580,0.0173,0.0173,0,81,81,130,1,sixfive,,,,,,,,,,,,,,,,,,,,,,,,,,,,,,,,,,,,,,,,,,,,,,,,,,,,,,,,,,,,,,,,,,,,,,,,,,,,,,,,,,,,,,,,,,,,,,,,,,,,,,,,,,,,,,,,,,,,,,,,,,,,,,,,,,,,,,,
,,614dfd96cdc9c1063b64c437,2023-12-14_20h04.56.364,kallum_motion_pilot,2023.2.3,Win32,163.9344262,614dfd96cdc9c1063b64c437,657bb317c8798c6608bceb3f,657bb3abd370c8d94ade1580,0.0173,0.0173,0,82,82,138,1,sixfive,,,,,,,,,,,,,,,,,,,,,,,,,,,,,,,,,,,,,,,,,,,,,,,,,,,,,,,,,,,,,,,,,,,,,,,,,,,,,,,,,,,,,,,,,,,,,,,,,,,,,,,,,,,,,,,,,,,,,,,,,,,,,,,,,,,,,,,
,,614dfd96cdc9c1063b64c437,2023-12-14_20h04.56.364,kallum_motion_pilot,2023.2.3,Win32,163.9344262,614dfd96cdc9c1063b64c437,657bb317c8798c6608bceb3f,657bb3abd370c8d94ade1580,0.0173,0.0174,0,83,83,133,1,seveneight,,,,,,,,,,,,,,,,,,,,,,,,,,,,,,,,,,,,,,,,,,,,,,,,,,,,,,,,,,,,,,,,,,,,,,,,,,,,,,,,,,,,,,,,,,,,,,,,,,,,,,,,,,,,,,,,,,,,,,,,,,,,,,,,,,,,,,,
,,614dfd96cdc9c1063b64c437,2023-12-14_20h04.56.364,kallum_motion_pilot,2023.2.3,Win32,163.9344262,614dfd96cdc9c1063b64c437,657bb317c8798c6608bceb3f,657bb3abd370c8d94ade1580,0.0174,0.0174,0,84,84,11,1,twofour,,,,,,,,,,,,,,,,,,,,,,,,,,,,,,,,,,,,,,,,,,,,,,,,,,,,,,,,,,,,,,,,,,,,,,,,,,,,,,,,,,,,,,,,,,,,,,,,,,,,,,,,,,,,,,,,,,,,,,,,,,,,,,,,,,,,,,,
,,614dfd96cdc9c1063b64c437,2023-12-14_20h04.56.364,kallum_motion_pilot,2023.2.3,Win32,163.9344262,614dfd96cdc9c1063b64c437,657bb317c8798c6608bceb3f,657bb3abd370c8d94ade1580,0.0174,0.0174,0,85,85,154,1,sixfive,,,,,,,,,,,,,,,,,,,,,,,,,,,,,,,,,,,,,,,,,,,,,,,,,,,,,,,,,,,,,,,,,,,,,,,,,,,,,,,,,,,,,,,,,,,,,,,,,,,,,,,,,,,,,,,,,,,,,,,,,,,,,,,,,,,,,,,
,,614dfd96cdc9c1063b64c437,2023-12-14_20h04.56.364,kallum_motion_pilot,2023.2.3,Win32,163.9344262,614dfd96cdc9c1063b64c437,657bb317c8798c6608bceb3f,657bb3abd370c8d94ade1580,0.0174,0.0175,0,86,86,160,1,fivesix,,,,,,,,,,,,,,,,,,,,,,,,,,,,,,,,,,,,,,,,,,,,,,,,,,,,,,,,,,,,,,,,,,,,,,,,,,,,,,,,,,,,,,,,,,,,,,,,,,,,,,,,,,,,,,,,,,,,,,,,,,,,,,,,,,,,,,,
,,614dfd96cdc9c1063b64c437,2023-12-14_20h04.56.364,kallum_motion_pilot,2023.2.3,Win32,163.9344262,614dfd96cdc9c1063b64c437,657bb317c8798c6608bceb3f,657bb3abd370c8d94ade1580,0.0175,0.0175,0,87,87,129,1,fiveseven,,,,,,,,,,,,,,,,,,,,,,,,,,,,,,,,,,,,,,,,,,,,,,,,,,,,,,,,,,,,,,,,,,,,,,,,,,,,,,,,,,,,,,,,,,,,,,,,,,,,,,,,,,,,,,,,,,,,,,,,,,,,,,,,,,,,,,,
,,614dfd96cdc9c1063b64c437,2023-12-14_20h04.56.364,kallum_motion_pilot,2023.2.3,Win32,163.9344262,614dfd96cdc9c1063b64c437,657bb317c8798c6608bceb3f,657bb3abd370c8d94ade1580,0.0175,0.0176,0,88,88,58,1,twoone,,,,,,,,,,,,,,,,,,,,,,,,,,,,,,,,,,,,,,,,,,,,,,,,,,,,,,,,,,,,,,,,,,,,,,,,,,,,,,,,,,,,,,,,,,,,,,,,,,,,,,,,,,,,,,,,,,,,,,,,,,,,,,,,,,,,,,,
,,614dfd96cdc9c1063b64c437,2023-12-14_20h04.56.364,kallum_motion_pilot,2023.2.3,Win32,163.9344262,614dfd96cdc9c1063b64c437,657bb317c8798c6608bceb3f,657bb3abd370c8d94ade1580,0.0177,0.0177,0,89,89,115,1,sixeight,,,,,,,,,,,,,,,,,,,,,,,,,,,,,,,,,,,,,,,,,,,,,,,,,,,,,,,,,,,,,,,,,,,,,,,,,,,,,,,,,,,,,,,,,,,,,,,,,,,,,,,,,,,,,,,,,,,,,,,,,,,,,,,,,,,,,,,
,,614dfd96cdc9c1063b64c437,2023-12-14_20h04.56.364,kallum_motion_pilot,2023.2.3,Win32,163.9344262,614dfd96cdc9c1063b64c437,657bb317c8798c6608bceb3f,657bb3abd370c8d94ade1580,0.0177,0.0177,0,90,90,96,1,fivesix,,,,,,,,,,,,,,,,,,,,,,,,,,,,,,,,,,,,,,,,,,,,,,,,,,,,,,,,,,,,,,,,,,,,,,,,,,,,,,,,,,,,,,,,,,,,,,,,,,,,,,,,,,,,,,,,,,,,,,,,,,,,,,,,,,,,,,,
,,614dfd96cdc9c1063b64c437,2023-12-14_20h04.56.364,kallum_motion_pilot,2023.2.3,Win32,163.9344262,614dfd96cdc9c1063b64c437,657bb317c8798c6608bceb3f,657bb3abd370c8d94ade1580,0.0178,0.0178,0,91,91,6,1,fourtwo,,,,,,,,,,,,,,,,,,,,,,,,,,,,,,,,,,,,,,,,,,,,,,,,,,,,,,,,,,,,,,,,,,,,,,,,,,,,,,,,,,,,,,,,,,,,,,,,,,,,,,,,,,,,,,,,,,,,,,,,,,,,,,,,,,,,,,,
,,614dfd96cdc9c1063b64c437,2023-12-14_20h04.56.364,kallum_motion_pilot,2023.2.3,Win32,163.9344262,614dfd96cdc9c1063b64c437,657bb317c8798c6608bceb3f,657bb3abd370c8d94ade1580,0.0178,0.0178,0,92,92,36,1,threeone,,,,,,,,,,,,,,,,,,,,,,,,,,,,,,,,,,,,,,,,,,,,,,,,,,,,,,,,,,,,,,,,,,,,,,,,,,,,,,,,,,,,,,,,,,,,,,,,,,,,,,,,,,,,,,,,,,,,,,,,,,,,,,,,,,,,,,,
,,614dfd96cdc9c1063b64c437,2023-12-14_20h04.56.364,kallum_motion_pilot,2023.2.3,Win32,163.9344262,614dfd96cdc9c1063b64c437,657bb317c8798c6608bceb3f,657bb3abd370c8d94ade1580,0.0178,0.0178,0,93,93,95,1,eightseven,,,,,,,,,,,,,,,,,,,,,,,,,,,,,,,,,,,,,,,,,,,,,,,,,,,,,,,,,,,,,,,,,,,,,,,,,,,,,,,,,,,,,,,,,,,,,,,,,,,,,,,,,,,,,,,,,,,,,,,,,,,,,,,,,,,,,,,
,,614dfd96cdc9c1063b64c437,2023-12-14_20h04.56.364,kallum_motion_pilot,2023.2.3,Win32,163.9344262,614dfd96cdc9c1063b64c437,657bb317c8798c6608bceb3f,657bb3abd370c8d94ade1580,0.0178,0.0179,0,94,94,14,1,fourtwo,,,,,,,,,,,,,,,,,,,,,,,,,,,,,,,,,,,,,,,,,,,,,,,,,,,,,,,,,,,,,,,,,,,,,,,,,,,,,,,,,,,,,,,,,,,,,,,,,,,,,,,,,,,,,,,,,,,,,,,,,,,,,,,,,,,,,,,
,,614dfd96cdc9c1063b64c437,2023-12-14_20h04.56.364,kallum_motion_pilot,2023.2.3,Win32,163.9344262,614dfd96cdc9c1063b64c437,657bb317c8798c6608bceb3f,657bb3abd370c8d94ade1580,0.0179,0.0179,0,95,95,72,1,onetwo,,,,,,,,,,,,,,,,,,,,,,,,,,,,,,,,,,,,,,,,,,,,,,,,,,,,,,,,,,,,,,,,,,,,,,,,,,,,,,,,,,,,,,,,,,,,,,,,,,,,,,,,,,,,,,,,,,,,,,,,,,,,,,,,,,,,,,,
,,614dfd96cdc9c1063b64c437,2023-12-14_20h04.56.364,kallum_motion_pilot,2023.2.3,Win32,163.9344262,614dfd96cdc9c1063b64c437,657bb317c8798c6608bceb3f,657bb3abd370c8d94ade1580,0.0185,0.0186,0,96,96,145,1,fiveseven,,,,,,,,,,,,,,,,,,,,,,,,,,,,,,,,,,,,,,,,,,,,,,,,,,,,,,,,,,,,,,,,,,,,,,,,,,,,,,,,,,,,,,,,,,,,,,,,,,,,,,,,,,,,,,,,,,,,,,,,,,,,,,,,,,,,,,,
,,614dfd96cdc9c1063b64c437,2023-12-14_20h04.56.364,kallum_motion_pilot,2023.2.3,Win32,163.9344262,614dfd96cdc9c1063b64c437,657bb317c8798c6608bceb3f,657bb3abd370c8d94ade1580,0.0186,0.0186,0,97,97,51,1,twofour,,,,,,,,,,,,,,,,,,,,,,,,,,,,,,,,,,,,,,,,,,,,,,,,,,,,,,,,,,,,,,,,,,,,,,,,,,,,,,,,,,,,,,,,,,,,,,,,,,,,,,,,,,,,,,,,,,,,,,,,,,,,,,,,,,,,,,,
,,614dfd96cdc9c1063b64c437,2023-12-14_20h04.56.364,kallum_motion_pilot,2023.2.3,Win32,163.9344262,614dfd96cdc9c1063b64c437,657bb317c8798c6608bceb3f,657bb3abd370c8d94ade1580,0.0186,0.0187,0,98,98,127,1,eightseven,,,,,,,,,,,,,,,,,,,,,,,,,,,,,,,,,,,,,,,,,,,,,,,,,,,,,,,,,,,,,,,,,,,,,,,,,,,,,,,,,,,,,,,,,,,,,,,,,,,,,,,,,,,,,,,,,,,,,,,,,,,,,,,,,,,,,,,
,,614dfd96cdc9c1063b64c437,2023-12-14_20h04.56.364,kallum_motion_pilot,2023.2.3,Win32,163.9344262,614dfd96cdc9c1063b64c437,657bb317c8798c6608bceb3f,657bb3abd370c8d94ade1580,0.0187,0.0187,0,99,99,86,1,eightsix,,,,,,,,,,,,,,,,,,,,,,,,,,,,,,,,,,,,,,,,,,,,,,,,,,,,,,,,,,,,,,,,,,,,,,,,,,,,,,,,,,,,,,,,,,,,,,,,,,,,,,,,,,,,,,,,,,,,,,,,,,,,,,,,,,,,,,,
,,614dfd96cdc9c1063b64c437,2023-12-14_20h04.56.364,kallum_motion_pilot,2023.2.3,Win32,163.9344262,614dfd96cdc9c1063b64c437,657bb317c8798c6608bceb3f,657bb3abd370c8d94ade1580,0.0188,0.0188,0,100,100,121,1,fiveseven,,,,,,,,,,,,,,,,,,,,,,,,,,,,,,,,,,,,,,,,,,,,,,,,,,,,,,,,,,,,,,,,,,,,,,,,,,,,,,,,,,,,,,,,,,,,,,,,,,,,,,,,,,,,,,,,,,,,,,,,,,,,,,,,,,,,,,,
,,614dfd96cdc9c1063b64c437,2023-12-14_20h04.56.364,kallum_motion_pilot,2023.2.3,Win32,163.9344262,614dfd96cdc9c1063b64c437,657bb317c8798c6608bceb3f,657bb3abd370c8d94ade1580,0.0188,0.0188,0,101,101,120,1,fivesix,,,,,,,,,,,,,,,,,,,,,,,,,,,,,,,,,,,,,,,,,,,,,,,,,,,,,,,,,,,,,,,,,,,,,,,,,,,,,,,,,,,,,,,,,,,,,,,,,,,,,,,,,,,,,,,,,,,,,,,,,,,,,,,,,,,,,,,
,,614dfd96cdc9c1063b64c437,2023-12-14_20h04.56.364,kallum_motion_pilot,2023.2.3,Win32,163.9344262,614dfd96cdc9c1063b64c437,657bb317c8798c6608bceb3f,657bb3abd370c8d94ade1580,0.0188,0.0189,0,102,102,143,1,eightseven,,,,,,,,,,,,,,,,,,,,,,,,,,,,,,,,,,,,,,,,,,,,,,,,,,,,,,,,,,,,,,,,,,,,,,,,,,,,,,,,,,,,,,,,,,,,,,,,,,,,,,,,,,,,,,,,,,,,,,,,,,,,,,,,,,,,,,,
,,614dfd96cdc9c1063b64c437,2023-12-14_20h04.56.364,kallum_motion_pilot,2023.2.3,Win32,163.9344262,614dfd96cdc9c1063b64c437,657bb317c8798c6608bceb3f,657bb3abd370c8d94ade1580,0.0189,0.0189,0,103,103,33,1,onethree,,,,,,,,,,,,,,,,,,,,,,,,,,,,,,,,,,,,,,,,,,,,,,,,,,,,,,,,,,,,,,,,,,,,,,,,,,,,,,,,,,,,,,,,,,,,,,,,,,,,,,,,,,,,,,,,,,,,,,,,,,,,,,,,,,,,,,,
,,614dfd96cdc9c1063b64c437,2023-12-14_20h04.56.364,kallum_motion_pilot,2023.2.3,Win32,163.9344262,614dfd96cdc9c1063b64c437,657bb317c8798c6608bceb3f,657bb3abd370c8d94ade1580,0.0189,0.0189,0,104,104,147,1,sixeight,,,,,,,,,,,,,,,,,,,,,,,,,,,,,,,,,,,,,,,,,,,,,,,,,,,,,,,,,,,,,,,,,,,,,,,,,,,,,,,,,,,,,,,,,,,,,,,,,,,,,,,,,,,,,,,,,,,,,,,,,,,,,,,,,,,,,,,
,,614dfd96cdc9c1063b64c437,2023-12-14_20h04.56.364,kallum_motion_pilot,2023.2.3,Win32,163.9344262,614dfd96cdc9c1063b64c437,657bb317c8798c6608bceb3f,657bb3abd370c8d94ade1580,0.019,0.019,0,105,105,140,1,sevenfive,,,,,,,,,,,,,,,,,,,,,,,,,,,,,,,,,,,,,,,,,,,,,,,,,,,,,,,,,,,,,,,,,,,,,,,,,,,,,,,,,,,,,,,,,,,,,,,,,,,,,,,,,,,,,,,,,,,,,,,,,,,,,,,,,,,,,,,
,,614dfd96cdc9c1063b64c437,2023-12-14_20h04.56.364,kallum_motion_pilot,2023.2.3,Win32,163.9344262,614dfd96cdc9c1063b64c437,657bb317c8798c6608bceb3f,657bb3abd370c8d94ade1580,0.019,0.019,0,106,106,142,1,eightsix,,,,,,,,,,,,,,,,,,,,,,,,,,,,,,,,,,,,,,,,,,,,,,,,,,,,,,,,,,,,,,,,,,,,,,,,,,,,,,,,,,,,,,,,,,,,,,,,,,,,,,,,,,,,,,,,,,,,,,,,,,,,,,,,,,,,,,,
,,614dfd96cdc9c1063b64c437,2023-12-14_20h04.56.364,kallum_motion_pilot,2023.2.3,Win32,163.9344262,614dfd96cdc9c1063b64c437,657bb317c8798c6608bceb3f,657bb3abd370c8d94ade1580,0.019,0.0191,0,107,107,57,1,onethree,,,,,,,,,,,,,,,,,,,,,,,,,,,,,,,,,,,,,,,,,,,,,,,,,,,,,,,,,,,,,,,,,,,,,,,,,,,,,,,,,,,,,,,,,,,,,,,,,,,,,,,,,,,,,,,,,,,,,,,,,,,,,,,,,,,,,,,
,,614dfd96cdc9c1063b64c437,2023-12-14_20h04.56.364,kallum_motion_pilot,2023.2.3,Win32,163.9344262,614dfd96cdc9c1063b64c437,657bb317c8798c6608bceb3f,657bb3abd370c8d94ade1580,0.0191,0.0191,0,108,108,0,1,onetwo,,,,,,,,,,,,,,,,,,,,,,,,,,,,,,,,,,,,,,,,,,,,,,,,,,,,,,,,,,,,,,,,,,,,,,,,,,,,,,,,,,,,,,,,,,,,,,,,,,,,,,,,,,,,,,,,,,,,,,,,,,,,,,,,,,,,,,,
,,614dfd96cdc9c1063b64c437,2023-12-14_20h04.56.364,kallum_motion_pilot,2023.2.3,Win32,163.9344262,614dfd96cdc9c1063b64c437,657bb317c8798c6608bceb3f,657bb3abd370c8d94ade1580,0.0191,0.0192,0,109,109,136,1,fivesix,,,,,,,,,,,,,,,,,,,,,,,,,,,,,,,,,,,,,,,,,,,,,,,,,,,,,,,,,,,,,,,,,,,,,,,,,,,,,,,,,,,,,,,,,,,,,,,,,,,,,,,,,,,,,,,,,,,,,,,,,,,,,,,,,,,,,,,
,,614dfd96cdc9c1063b64c437,2023-12-14_20h04.56.364,kallum_motion_pilot,2023.2.3,Win32,163.9344262,614dfd96cdc9c1063b64c437,657bb317c8798c6608bceb3f,657bb3abd370c8d94ade1580,0.0192,0.0192,0,110,110,16,1,onetwo,,,,,,,,,,,,,,,,,,,,,,,,,,,,,,,,,,,,,,,,,,,,,,,,,,,,,,,,,,,,,,,,,,,,,,,,,,,,,,,,,,,,,,,,,,,,,,,,,,,,,,,,,,,,,,,,,,,,,,,,,,,,,,,,,,,,,,,
,,614dfd96cdc9c1063b64c437,2023-12-14_20h04.56.364,kallum_motion_pilot,2023.2.3,Win32,163.9344262,614dfd96cdc9c1063b64c437,657bb317c8798c6608bceb3f,657bb3abd370c8d94ade1580,0.0192,0.0193,0,111,111,39,1,fourthree,,,,,,,,,,,,,,,,,,,,,,,,,,,,,,,,,,,,,,,,,,,,,,,,,,,,,,,,,,,,,,,,,,,,,,,,,,,,,,,,,,,,,,,,,,,,,,,,,,,,,,,,,,,,,,,,,,,,,,,,,,,,,,,,,,,,,,,
,,614dfd96cdc9c1063b64c437,2023-12-14_20h04.56.364,kallum_motion_pilot,2023.2.3,Win32,163.9344262,614dfd96cdc9c1063b64c437,657bb317c8798c6608bceb3f,657bb3abd370c8d94ade1580,0.0193,0.0193,0,112,112,77,1,threefour,,,,,,,,,,,,,,,,,,,,,,,,,,,,,,,,,,,,,,,,,,,,,,,,,,,,,,,,,,,,,,,,,,,,,,,,,,,,,,,,,,,,,,,,,,,,,,,,,,,,,,,,,,,,,,,,,,,,,,,,,,,,,,,,,,,,,,,
,,614dfd96cdc9c1063b64c437,2023-12-14_20h04.56.364,kallum_motion_pilot,2023.2.3,Win32,163.9344262,614dfd96cdc9c1063b64c437,657bb317c8798c6608bceb3f,657bb3abd370c8d94ade1580,0.0193,0.0193,0,113,113,152,1,fivesix,,,,,,,,,,,,,,,,,,,,,,,,,,,,,,,,,,,,,,,,,,,,,,,,,,,,,,,,,,,,,,,,,,,,,,,,,,,,,,,,,,,,,,,,,,,,,,,,,,,,,,,,,,,,,,,,,,,,,,,,,,,,,,,,,,,,,,,
,,614dfd96cdc9c1063b64c437,2023-12-14_20h04.56.364,kallum_motion_pilot,2023.2.3,Win32,163.9344262,614dfd96cdc9c1063b64c437,657bb317c8798c6608bceb3f,657bb3abd370c8d94ade1580,0.0194,0.0194,0,114,114,84,1,sevenfive,,,,,,,,,,,,,,,,,,,,,,,,,,,,,,,,,,,,,,,,,,,,,,,,,,,,,,,,,,,,,,,,,,,,,,,,,,,,,,,,,,,,,,,,,,,,,,,,,,,,,,,,,,,,,,,,,,,,,,,,,,,,,,,,,,,,,,,
,,614dfd96cdc9c1063b64c437,2023-12-14_20h04.56.364,kallum_motion_pilot,2023.2.3,Win32,163.9344262,614dfd96cdc9c1063b64c437,657bb317c8798c6608bceb3f,657bb3abd370c8d94ade1580,0.0194,0.0194,0,115,115,88,1,fivesix,,,,,,,,,,,,,,,,,,,,,,,,,,,,,,,,,,,,,,,,,,,,,,,,,,,,,,,,,,,,,,,,,,,,,,,,,,,,,,,,,,,,,,,,,,,,,,,,,,,,,,,,,,,,,,,,,,,,,,,,,,,,,,,,,,,,,,,
,,614dfd96cdc9c1063b64c437,2023-12-14_20h04.56.364,kallum_motion_pilot,2023.2.3,Win32,163.9344262,614dfd96cdc9c1063b64c437,657bb317c8798c6608bceb3f,657bb3abd370c8d94ade1580,0.0195,0.0195,0,116,116,63,1,fourthree,,,,,,,,,,,,,,,,,,,,,,,,,,,,,,,,,,,,,,,,,,,,,,,,,,,,,,,,,,,,,,,,,,,,,,,,,,,,,,,,,,,,,,,,,,,,,,,,,,,,,,,,,,,,,,,,,,,,,,,,,,,,,,,,,,,,,,,
,,614dfd96cdc9c1063b64c437,2023-12-14_20h04.56.364,kallum_motion_pilot,2023.2.3,Win32,163.9344262,614dfd96cdc9c1063b64c437,657bb317c8798c6608bceb3f,657bb3abd370c8d94ade1580,0.0196,0.0196,0,117,117,24,1,onetwo,,,,,,,,,,,,,,,,,,,,,,,,,,,,,,,,,,,,,,,,,,,,,,,,,,,,,,,,,,,,,,,,,,,,,,,,,,,,,,,,,,,,,,,,,,,,,,,,,,,,,,,,,,,,,,,,,,,,,,,,,,,,,,,,,,,,,,,
,,614dfd96cdc9c1063b64c437,2023-12-14_20h04.56.364,kallum_motion_pilot,2023.2.3,Win32,163.9344262,614dfd96cdc9c1063b64c437,657bb317c8798c6608bceb3f,657bb3abd370c8d94ade1580,0.0196,0.0196,0,118,118,155,1,sixeight,,,,,,,,,,,,,,,,,,,,,,,,,,,,,,,,,,,,,,,,,,,,,,,,,,,,,,,,,,,,,,,,,,,,,,,,,,,,,,,,,,,,,,,,,,,,,,,,,,,,,,,,,,,,,,,,,,,,,,,,,,,,,,,,,,,,,,,
,,614dfd96cdc9c1063b64c437,2023-12-14_20h04.56.364,kallum_motion_pilot,2023.2.3,Win32,163.9344262,614dfd96cdc9c1063b64c437,657bb317c8798c6608bceb3f,657bb3abd370c8d94ade1580,0.0196,0.0196,0,119,119,52,1,threeone,,,,,,,,,,,,,,,,,,,,,,,,,,,,,,,,,,,,,,,,,,,,,,,,,,,,,,,,,,,,,,,,,,,,,,,,,,,,,,,,,,,,,,,,,,,,,,,,,,,,,,,,,,,,,,,,,,,,,,,,,,,,,,,,,,,,,,,
,,614dfd96cdc9c1063b64c437,2023-12-14_20h04.56.364,kallum_motion_pilot,2023.2.3,Win32,163.9344262,614dfd96cdc9c1063b64c437,657bb317c8798c6608bceb3f,657bb3abd370c8d94ade1580,0.0197,0.0197,0,120,120,55,1,fourthree,,,,,,,,,,,,,,,,,,,,,,,,,,,,,,,,,,,,,,,,,,,,,,,,,,,,,,,,,,,,,,,,,,,,,,,,,,,,,,,,,,,,,,,,,,,,,,,,,,,,,,,,,,,,,,,,,,,,,,,,,,,,,,,,,,,,,,,
,,614dfd96cdc9c1063b64c437,2023-12-14_20h04.56.364,kallum_motion_pilot,2023.2.3,Win32,163.9344262,614dfd96cdc9c1063b64c437,657bb317c8798c6608bceb3f,657bb3abd370c8d94ade1580,0.0198,0.0198,0,121,121,151,1,eightseven,,,,,,,,,,,,,,,,,,,,,,,,,,,,,,,,,,,,,,,,,,,,,,,,,,,,,,,,,,,,,,,,,,,,,,,,,,,,,,,,,,,,,,,,,,,,,,,,,,,,,,,,,,,,,,,,,,,,,,,,,,,,,,,,,,,,,,,
,,614dfd96cdc9c1063b64c437,2023-12-14_20h04.56.364,kallum_motion_pilot,2023.2.3,Win32,163.9344262,614dfd96cdc9c1063b64c437,657bb317c8798c6608bceb3f,657bb3abd370c8d94ade1580,0.0198,0.0198,0,122,122,62,1,fourtwo,,,,,,,,,,,,,,,,,,,,,,,,,,,,,,,,,,,,,,,,,,,,,,,,,,,,,,,,,,,,,,,,,,,,,,,,,,,,,,,,,,,,,,,,,,,,,,,,,,,,,,,,,,,,,,,,,,,,,,,,,,,,,,,,,,,,,,,
,,614dfd96cdc9c1063b64c437,2023-12-14_20h04.56.364,kallum_motion_pilot,2023.2.3,Win32,163.9344262,614dfd96cdc9c1063b64c437,657bb317c8798c6608bceb3f,657bb3abd370c8d94ade1580,0.0198,0.0198,0,123,123,15,1,fourthree,,,,,,,,,,,,,,,,,,,,,,,,,,,,,,,,,,,,,,,,,,,,,,,,,,,,,,,,,,,,,,,,,,,,,,,,,,,,,,,,,,,,,,,,,,,,,,,,,,,,,,,,,,,,,,,,,,,,,,,,,,,,,,,,,,,,,,,
,,614dfd96cdc9c1063b64c437,2023-12-14_20h04.56.364,kallum_motion_pilot,2023.2.3,Win32,163.9344262,614dfd96cdc9c1063b64c437,657bb317c8798c6608bceb3f,657bb3abd370c8d94ade1580,0.0199,0.0199,0,124,124,81,1,fiveseven,,,,,,,,,,,,,,,,,,,,,,,,,,,,,,,,,,,,,,,,,,,,,,,,,,,,,,,,,,,,,,,,,,,,,,,,,,,,,,,,,,,,,,,,,,,,,,,,,,,,,,,,,,,,,,,,,,,,,,,,,,,,,,,,,,,,,,,
,,614dfd96cdc9c1063b64c437,2023-12-14_20h04.56.364,kallum_motion_pilot,2023.2.3,Win32,163.9344262,614dfd96cdc9c1063b64c437,657bb317c8798c6608bceb3f,657bb3abd370c8d94ade1580,0.0199,0.0199,0,125,125,10,1,twoone,,,,,,,,,,,,,,,,,,,,,,,,,,,,,,,,,,,,,,,,,,,,,,,,,,,,,,,,,,,,,,,,,,,,,,,,,,,,,,,,,,,,,,,,,,,,,,,,,,,,,,,,,,,,,,,,,,,,,,,,,,,,,,,,,,,,,,,
,,614dfd96cdc9c1063b64c437,2023-12-14_20h04.56.364,kallum_motion_pilot,2023.2.3,Win32,163.9344262,614dfd96cdc9c1063b64c437,657bb317c8798c6608bceb3f,657bb3abd370c8d94ade1580,0.0199,0.02,0,126,126,134,1,eightsix,,,,,,,,,,,,,,,,,,,,,,,,,,,,,,,,,,,,,,,,,,,,,,,,,,,,,,,,,,,,,,,,,,,,,,,,,,,,,,,,,,,,,,,,,,,,,,,,,,,,,,,,,,,,,,,,,,,,,,,,,,,,,,,,,,,,,,,
,,614dfd96cdc9c1063b64c437,2023-12-14_20h04.56.364,kallum_motion_pilot,2023.2.3,Win32,163.9344262,614dfd96cdc9c1063b64c437,657bb317c8798c6608bceb3f,657bb3abd370c8d94ade1580,0.02,0.0201,0,127,127,156,1,sevenfive,,,,,,,,,,,,,,,,,,,,,,,,,,,,,,,,,,,,,,,,,,,,,,,,,,,,,,,,,,,,,,,,,,,,,,,,,,,,,,,,,,,,,,,,,,,,,,,,,,,,,,,,,,,,,,,,,,,,,,,,,,,,,,,,,,,,,,,
,,614dfd96cdc9c1063b64c437,2023-12-14_20h04.56.364,kallum_motion_pilot,2023.2.3,Win32,163.9344262,614dfd96cdc9c1063b64c437,657bb317c8798c6608bceb3f,657bb3abd370c8d94ade1580,0.0201,0.0201,0,128,128,44,1,threeone,,,,,,,,,,,,,,,,,,,,,,,,,,,,,,,,,,,,,,,,,,,,,,,,,,,,,,,,,,,,,,,,,,,,,,,,,,,,,,,,,,,,,,,,,,,,,,,,,,,,,,,,,,,,,,,,,,,,,,,,,,,,,,,,,,,,,,,
,,614dfd96cdc9c1063b64c437,2023-12-14_20h04.56.364,kallum_motion_pilot,2023.2.3,Win32,163.9344262,614dfd96cdc9c1063b64c437,657bb317c8798c6608bceb3f,657bb3abd370c8d94ade1580,0.0202,0.0202,0,129,129,47,1,fourthree,,,,,,,,,,,,,,,,,,,,,,,,,,,,,,,,,,,,,,,,,,,,,,,,,,,,,,,,,,,,,,,,,,,,,,,,,,,,,,,,,,,,,,,,,,,,,,,,,,,,,,,,,,,,,,,,,,,,,,,,,,,,,,,,,,,,,,,
,,614dfd96cdc9c1063b64c437,2023-12-14_20h04.56.364,kallum_motion_pilot,2023.2.3,Win32,163.9344262,614dfd96cdc9c1063b64c437,657bb317c8798c6608bceb3f,657bb3abd370c8d94ade1580,0.0202,0.0202,0,130,130,4,1,threeone,,,,,,,,,,,,,,,,,,,,,,,,,,,,,,,,,,,,,,,,,,,,,,,,,,,,,,,,,,,,,,,,,,,,,,,,,,,,,,,,,,,,,,,,,,,,,,,,,,,,,,,,,,,,,,,,,,,,,,,,,,,,,,,,,,,,,,,
,,614dfd96cdc9c1063b64c437,2023-12-14_20h04.56.364,kallum_motion_pilot,2023.2.3,Win32,163.9344262,614dfd96cdc9c1063b64c437,657bb317c8798c6608bceb3f,657bb3abd370c8d94ade1580,0.0202,0.0202,0,131,131,146,1,sixfive,,,,,,,,,,,,,,,,,,,,,,,,,,,,,,,,,,,,,,,,,,,,,,,,,,,,,,,,,,,,,,,,,,,,,,,,,,,,,,,,,,,,,,,,,,,,,,,,,,,,,,,,,,,,,,,,,,,,,,,,,,,,,,,,,,,,,,,
,,614dfd96cdc9c1063b64c437,2023-12-14_20h04.56.364,kallum_motion_pilot,2023.2.3,Win32,163.9344262,614dfd96cdc9c1063b64c437,657bb317c8798c6608bceb3f,657bb3abd370c8d94ade1580,0.0202,0.0203,0,132,132,28,1,threeone,,,,,,,,,,,,,,,,,,,,,,,,,,,,,,,,,,,,,,,,,,,,,,,,,,,,,,,,,,,,,,,,,,,,,,,,,,,,,,,,,,,,,,,,,,,,,,,,,,,,,,,,,,,,,,,,,,,,,,,,,,,,,,,,,,,,,,,
,,614dfd96cdc9c1063b64c437,2023-12-14_20h04.56.364,kallum_motion_pilot,2023.2.3,Win32,163.9344262,614dfd96cdc9c1063b64c437,657bb317c8798c6608bceb3f,657bb3abd370c8d94ade1580,0.0203,0.0203,0,133,133,71,1,fourthree,,,,,,,,,,,,,,,,,,,,,,,,,,,,,,,,,,,,,,,,,,,,,,,,,,,,,,,,,,,,,,,,,,,,,,,,,,,,,,,,,,,,,,,,,,,,,,,,,,,,,,,,,,,,,,,,,,,,,,,,,,,,,,,,,,,,,,,
,,614dfd96cdc9c1063b64c437,2023-12-14_20h04.56.364,kallum_motion_pilot,2023.2.3,Win32,163.9344262,614dfd96cdc9c1063b64c437,657bb317c8798c6608bceb3f,657bb3abd370c8d94ade1580,0.0203,0.0204,0,134,134,67,1,twofour,,,,,,,,,,,,,,,,,,,,,,,,,,,,,,,,,,,,,,,,,,,,,,,,,,,,,,,,,,,,,,,,,,,,,,,,,,,,,,,,,,,,,,,,,,,,,,,,,,,,,,,,,,,,,,,,,,,,,,,,,,,,,,,,,,,,,,,
,,614dfd96cdc9c1063b64c437,2023-12-14_20h04.56.364,kallum_motion_pilot,2023.2.3,Win32,163.9344262,614dfd96cdc9c1063b64c437,657bb317c8798c6608bceb3f,657bb3abd370c8d94ade1580,0.0204,0.0204,0,135,135,105,1,fiveseven,,,,,,,,,,,,,,,,,,,,,,,,,,,,,,,,,,,,,,,,,,,,,,,,,,,,,,,,,,,,,,,,,,,,,,,,,,,,,,,,,,,,,,,,,,,,,,,,,,,,,,,,,,,,,,,,,,,,,,,,,,,,,,,,,,,,,,,
,,614dfd96cdc9c1063b64c437,2023-12-14_20h04.56.364,kallum_motion_pilot,2023.2.3,Win32,163.9344262,614dfd96cdc9c1063b64c437,657bb317c8798c6608bceb3f,657bb3abd370c8d94ade1580,0.0205,0.0205,0,136,136,101,1,seveneight,,,,,,,,,,,,,,,,,,,,,,,,,,,,,,,,,,,,,,,,,,,,,,,,,,,,,,,,,,,,,,,,,,,,,,,,,,,,,,,,,,,,,,,,,,,,,,,,,,,,,,,,,,,,,,,,,,,,,,,,,,,,,,,,,,,,,,,
,,614dfd96cdc9c1063b64c437,2023-12-14_20h04.56.364,kallum_motion_pilot,2023.2.3,Win32,163.9344262,614dfd96cdc9c1063b64c437,657bb317c8798c6608bceb3f,657bb3abd370c8d94ade1580,0.0205,0.0206,0,137,137,110,1,eightsix,,,,,,,,,,,,,,,,,,,,,,,,,,,,,,,,,,,,,,,,,,,,,,,,,,,,,,,,,,,,,,,,,,,,,,,,,,,,,,,,,,,,,,,,,,,,,,,,,,,,,,,,,,,,,,,,,,,,,,,,,,,,,,,,,,,,,,,
,,614dfd96cdc9c1063b64c437,2023-12-14_20h04.56.364,kallum_motion_pilot,2023.2.3,Win32,163.9344262,614dfd96cdc9c1063b64c437,657bb317c8798c6608bceb3f,657bb3abd370c8d94ade1580,0.0206,0.0206,0,138,138,74,1,twoone,,,,,,,,,,,,,,,,,,,,,,,,,,,,,,,,,,,,,,,,,,,,,,,,,,,,,,,,,,,,,,,,,,,,,,,,,,,,,,,,,,,,,,,,,,,,,,,,,,,,,,,,,,,,,,,,,,,,,,,,,,,,,,,,,,,,,,,
,,614dfd96cdc9c1063b64c437,2023-12-14_20h04.56.364,kallum_motion_pilot,2023.2.3,Win32,163.9344262,614dfd96cdc9c1063b64c437,657bb317c8798c6608bceb3f,657bb3abd370c8d94ade1580,0.0207,0.0207,0,139,139,161,1,fiveseven,,,,,,,,,,,,,,,,,,,,,,,,,,,,,,,,,,,,,,,,,,,,,,,,,,,,,,,,,,,,,,,,,,,,,,,,,,,,,,,,,,,,,,,,,,,,,,,,,,,,,,,,,,,,,,,,,,,,,,,,,,,,,,,,,,,,,,,
,,614dfd96cdc9c1063b64c437,2023-12-14_20h04.56.364,kallum_motion_pilot,2023.2.3,Win32,163.9344262,614dfd96cdc9c1063b64c437,657bb317c8798c6608bceb3f,657bb3abd370c8d94ade1580,0.0207,0.0207,0,140,140,70,1,fourtwo,,,,,,,,,,,,,,,,,,,,,,,,,,,,,,,,,,,,,,,,,,,,,,,,,,,,,,,,,,,,,,,,,,,,,,,,,,,,,,,,,,,,,,,,,,,,,,,,,,,,,,,,,,,,,,,,,,,,,,,,,,,,,,,,,,,,,,,
,,614dfd96cdc9c1063b64c437,2023-12-14_20h04.56.364,kallum_motion_pilot,2023.2.3,Win32,163.9344262,614dfd96cdc9c1063b64c437,657bb317c8798c6608bceb3f,657bb3abd370c8d94ade1580,0.0207,0.0207,0,141,141,40,1,onetwo,,,,,,,,,,,,,,,,,,,,,,,,,,,,,,,,,,,,,,,,,,,,,,,,,,,,,,,,,,,,,,,,,,,,,,,,,,,,,,,,,,,,,,,,,,,,,,,,,,,,,,,,,,,,,,,,,,,,,,,,,,,,,,,,,,,,,,,
,,614dfd96cdc9c1063b64c437,2023-12-14_20h04.56.364,kallum_motion_pilot,2023.2.3,Win32,163.9344262,614dfd96cdc9c1063b64c437,657bb317c8798c6608bceb3f,657bb3abd370c8d94ade1580,0.0208,0.0208,0,142,142,29,1,threefour,,,,,,,,,,,,,,,,,,,,,,,,,,,,,,,,,,,,,,,,,,,,,,,,,,,,,,,,,,,,,,,,,,,,,,,,,,,,,,,,,,,,,,,,,,,,,,,,,,,,,,,,,,,,,,,,,,,,,,,,,,,,,,,,,,,,,,,
,,614dfd96cdc9c1063b64c437,2023-12-14_20h04.56.364,kallum_motion_pilot,2023.2.3,Win32,163.9344262,614dfd96cdc9c1063b64c437,657bb317c8798c6608bceb3f,657bb3abd370c8d94ade1580,0.0208,0.0208,0,143,143,131,1,sixeight,,,,,,,,,,,,,,,,,,,,,,,,,,,,,,,,,,,,,,,,,,,,,,,,,,,,,,,,,,,,,,,,,,,,,,,,,,,,,,,,,,,,,,,,,,,,,,,,,,,,,,,,,,,,,,,,,,,,,,,,,,,,,,,,,,,,,,,
,,614dfd96cdc9c1063b64c437,2023-12-14_20h04.56.364,kallum_motion_pilot,2023.2.3,Win32,163.9344262,614dfd96cdc9c1063b64c437,657bb317c8798c6608bceb3f,657bb3abd370c8d94ade1580,0.0208,0.0209,0,144,144,7,1,fourthree,,,,,,,,,,,,,,,,,,,,,,,,,,,,,,,,,,,,,,,,,,,,,,,,,,,,,,,,,,,,,,,,,,,,,,,,,,,,,,,,,,,,,,,,,,,,,,,,,,,,,,,,,,,,,,,,,,,,,,,,,,,,,,,,,,,,,,,
,,614dfd96cdc9c1063b64c437,2023-12-14_20h04.56.364,kallum_motion_pilot,2023.2.3,Win32,163.9344262,614dfd96cdc9c1063b64c437,657bb317c8798c6608bceb3f,657bb3abd370c8d94ade1580,0.0209,0.021,0,145,145,53,1,threefour,,,,,,,,,,,,,,,,,,,,,,,,,,,,,,,,,,,,,,,,,,,,,,,,,,,,,,,,,,,,,,,,,,,,,,,,,,,,,,,,,,,,,,,,,,,,,,,,,,,,,,,,,,,,,,,,,,,,,,,,,,,,,,,,,,,,,,,
,,614dfd96cdc9c1063b64c437,2023-12-14_20h04.56.364,kallum_motion_pilot,2023.2.3,Win32,163.9344262,614dfd96cdc9c1063b64c437,657bb317c8798c6608bceb3f,657bb3abd370c8d94ade1580,0.021,0.021,0,146,146,113,1,fiveseven,,,,,,,,,,,,,,,,,,,,,,,,,,,,,,,,,,,,,,,,,,,,,,,,,,,,,,,,,,,,,,,,,,,,,,,,,,,,,,,,,,,,,,,,,,,,,,,,,,,,,,,,,,,,,,,,,,,,,,,,,,,,,,,,,,,,,,,
,,614dfd96cdc9c1063b64c437,2023-12-14_20h04.56.364,kallum_motion_pilot,2023.2.3,Win32,163.9344262,614dfd96cdc9c1063b64c437,657bb317c8798c6608bceb3f,657bb3abd370c8d94ade1580,0.021,0.021,0,147,147,79,1,eightseven,,,,,,,,,,,,,,,,,,,,,,,,,,,,,,,,,,,,,,,,,,,,,,,,,,,,,,,,,,,,,,,,,,,,,,,,,,,,,,,,,,,,,,,,,,,,,,,,,,,,,,,,,,,,,,,,,,,,,,,,,,,,,,,,,,,,,,,
,,614dfd96cdc9c1063b64c437,2023-12-14_20h04.56.364,kallum_motion_pilot,2023.2.3,Win32,163.9344262,614dfd96cdc9c1063b64c437,657bb317c8798c6608bceb3f,657bb3abd370c8d94ade1580,0.0211,0.0211,0,148,148,66,1,twoone,,,,,,,,,,,,,,,,,,,,,,,,,,,,,,,,,,,,,,,,,,,,,,,,,,,,,,,,,,,,,,,,,,,,,,,,,,,,,,,,,,,,,,,,,,,,,,,,,,,,,,,,,,,,,,,,,,,,,,,,,,,,,,,,,,,,,,,
,,614dfd96cdc9c1063b64c437,2023-12-14_20h04.56.364,kallum_motion_pilot,2023.2.3,Win32,163.9344262,614dfd96cdc9c1063b64c437,657bb317c8798c6608bceb3f,657bb3abd370c8d94ade1580,0.0211,0.0212,0,149,149,90,1,sixfive,,,,,,,,,,,,,,,,,,,,,,,,,,,,,,,,,,,,,,,,,,,,,,,,,,,,,,,,,,,,,,,,,,,,,,,,,,,,,,,,,,,,,,,,,,,,,,,,,,,,,,,,,,,,,,,,,,,,,,,,,,,,,,,,,,,,,,,
,,614dfd96cdc9c1063b64c437,2023-12-14_20h04.56.364,kallum_motion_pilot,2023.2.3,Win32,163.9344262,614dfd96cdc9c1063b64c437,657bb317c8798c6608bceb3f,657bb3abd370c8d94ade1580,0.0212,0.0212,0,150,150,3,1,twofour,,,,,,,,,,,,,,,,,,,,,,,,,,,,,,,,,,,,,,,,,,,,,,,,,,,,,,,,,,,,,,,,,,,,,,,,,,,,,,,,,,,,,,,,,,,,,,,,,,,,,,,,,,,,,,,,,,,,,,,,,,,,,,,,,,,,,,,
,,614dfd96cdc9c1063b64c437,2023-12-14_20h04.56.364,kallum_motion_pilot,2023.2.3,Win32,163.9344262,614dfd96cdc9c1063b64c437,657bb317c8798c6608bceb3f,657bb3abd370c8d94ade1580,0.0213,0.0213,0,151,151,20,1,threeone,,,,,,,,,,,,,,,,,,,,,,,,,,,,,,,,,,,,,,,,,,,,,,,,,,,,,,,,,,,,,,,,,,,,,,,,,,,,,,,,,,,,,,,,,,,,,,,,,,,,,,,,,,,,,,,,,,,,,,,,,,,,,,,,,,,,,,,
,,614dfd96cdc9c1063b64c437,2023-12-14_20h04.56.364,kallum_motion_pilot,2023.2.3,Win32,163.9344262,614dfd96cdc9c1063b64c437,657bb317c8798c6608bceb3f,657bb3abd370c8d94ade1580,0.0213,0.0213,0,152,152,108,1,sevenfive,,,,,,,,,,,,,,,,,,,,,,,,,,,,,,,,,,,,,,,,,,,,,,,,,,,,,,,,,,,,,,,,,,,,,,,,,,,,,,,,,,,,,,,,,,,,,,,,,,,,,,,,,,,,,,,,,,,,,,,,,,,,,,,,,,,,,,,
,,614dfd96cdc9c1063b64c437,2023-12-14_20h04.56.364,kallum_motion_pilot,2023.2.3,Win32,163.9344262,614dfd96cdc9c1063b64c437,657bb317c8798c6608bceb3f,657bb3abd370c8d94ade1580,0.0213,0.0214,0,153,153,37,1,threefour,,,,,,,,,,,,,,,,,,,,,,,,,,,,,,,,,,,,,,,,,,,,,,,,,,,,,,,,,,,,,,,,,,,,,,,,,,,,,,,,,,,,,,,,,,,,,,,,,,,,,,,,,,,,,,,,,,,,,,,,,,,,,,,,,,,,,,,
,,614dfd96cdc9c1063b64c437,2023-12-14_20h04.56.364,kallum_motion_pilot,2023.2.3,Win32,163.9344262,614dfd96cdc9c1063b64c437,657bb317c8798c6608bceb3f,657bb3abd370c8d94ade1580,0.0214,0.0214,0,154,154,82,1,sixfive,,,,,,,,,,,,,,,,,,,,,,,,,,,,,,,,,,,,,,,,,,,,,,,,,,,,,,,,,,,,,,,,,,,,,,,,,,,,,,,,,,,,,,,,,,,,,,,,,,,,,,,,,,,,,,,,,,,,,,,,,,,,,,,,,,,,,,,
,,614dfd96cdc9c1063b64c437,2023-12-14_20h04.56.364,kallum_motion_pilot,2023.2.3,Win32,163.9344262,614dfd96cdc9c1063b64c437,657bb317c8798c6608bceb3f,657bb3abd370c8d94ade1580,0.0214,0.0215,0,155,155,73,1,onethree,,,,,,,,,,,,,,,,,,,,,,,,,,,,,,,,,,,,,,,,,,,,,,,,,,,,,,,,,,,,,,,,,,,,,,,,,,,,,,,,,,,,,,,,,,,,,,,,,,,,,,,,,,,,,,,,,,,,,,,,,,,,,,,,,,,,,,,
,,614dfd96cdc9c1063b64c437,2023-12-14_20h04.56.364,kallum_motion_pilot,2023.2.3,Win32,163.9344262,614dfd96cdc9c1063b64c437,657bb317c8798c6608bceb3f,657bb3abd370c8d94ade1580,0.0215,0.0215,0,156,156,157,1,seveneight,,,,,,,,,,,,,,,,,,,,,,,,,,,,,,,,,,,,,,,,,,,,,,,,,,,,,,,,,,,,,,,,,,,,,,,,,,,,,,,,,,,,,,,,,,,,,,,,,,,,,,,,,,,,,,,,,,,,,,,,,,,,,,,,,,,,,,,
,,614dfd96cdc9c1063b64c437,2023-12-14_20h04.56.364,kallum_motion_pilot,2023.2.3,Win32,163.9344262,614dfd96cdc9c1063b64c437,657bb317c8798c6608bceb3f,657bb3abd370c8d94ade1580,0.0215,0.0216,0,157,157,119,1,eightseven,,,,,,,,,,,,,,,,,,,,,,,,,,,,,,,,,,,,,,,,,,,,,,,,,,,,,,,,,,,,,,,,,,,,,,,,,,,,,,,,,,,,,,,,,,,,,,,,,,,,,,,,,,,,,,,,,,,,,,,,,,,,,,,,,,,,,,,
,,614dfd96cdc9c1063b64c437,2023-12-14_20h04.56.364,kallum_motion_pilot,2023.2.3,Win32,163.9344262,614dfd96cdc9c1063b64c437,657bb317c8798c6608bceb3f,657bb3abd370c8d94ade1580,0.0216,0.0217,0,158,158,87,1,eightseven,,,,,,,,,,,,,,,,,,,,,,,,,,,,,,,,,,,,,,,,,,,,,,,,,,,,,,,,,,,,,,,,,,,,,,,,,,,,,,,,,,,,,,,,,,,,,,,,,,,,,,,,,,,,,,,,,,,,,,,,,,,,,,,,,,,,,,,
,,614dfd96cdc9c1063b64c437,2023-12-14_20h04.56.364,kallum_motion_pilot,2023.2.3,Win32,163.9344262,614dfd96cdc9c1063b64c437,657bb317c8798c6608bceb3f,657bb3abd370c8d94ade1580,0.0217,0.0217,0,159,159,97,1,fiveseven,,,,,,,,,,,,,,,,,,,,,,,,,,,,,,,,,,,,,,,,,,,,,,,,,,,,,,,,,,,,,,,,,,,,,,,,,,,,,,,,,,,,,,,,,,,,,,,,,,,,,,,,,,,,,,,,,,,,,,,,,,,,,,,,,,,,,,,
,,614dfd96cdc9c1063b64c437,2023-12-14_20h04.56.364,kallum_motion_pilot,2023.2.3,Win32,163.9344262,614dfd96cdc9c1063b64c437,657bb317c8798c6608bceb3f,657bb3abd370c8d94ade1580,0.0218,0.0218,0,160,160,41,1,onethree,,,,,,,,,,,,,,,,,,,,,,,,,,,,,,,,,,,,,,,,,,,,,,,,,,,,,,,,,,,,,,,,,,,,,,,,,,,,,,,,,,,,,,,,,,,,,,,,,,,,,,,,,,,,,,,,,,,,,,,,,,,,,,,,,,,,,,,
,,614dfd96cdc9c1063b64c437,2023-12-14_20h04.56.364,kallum_motion_pilot,2023.2.3,Win32,163.9344262,614dfd96cdc9c1063b64c437,657bb317c8798c6608bceb3f,657bb3abd370c8d94ade1580,0.0218,0.0218,0,161,161,144,1,fivesix,,,,,,,,,,,,,,,,,,,,,,,,,,,,,,,,,,,,,,,,,,,,,,,,,,,,,,,,,,,,,,,,,,,,,,,,,,,,,,,,,,,,,,,,,,,,,,,,,,,,,,,,,,,,,,,,,,,,,,,,,,,,,,,,,,,,,,,
,,614dfd96cdc9c1063b64c437,2023-12-14_20h04.56.364,kallum_motion_pilot,2023.2.3,Win32,163.9344262,614dfd96cdc9c1063b64c437,657bb317c8798c6608bceb3f,657bb3abd370c8d94ade1580,0.0218,0.0218,1,0,162,33,1,onethree,,,,,,,,,,,,,,,,,,,,,,,,,,,,,,,,,,,,,,,,,,,,,,,,,,,,,,,,,,,,,,,,,,,,,,,,,,,,,,,,,,,,,,,,,,,,,,,,,,,,,,,,,,,,,,,,,,,,,,,,,,,,,,,,,,,,,,,
,,614dfd96cdc9c1063b64c437,2023-12-14_20h04.56.364,kallum_motion_pilot,2023.2.3,Win32,163.9344262,614dfd96cdc9c1063b64c437,657bb317c8798c6608bceb3f,657bb3abd370c8d94ade1580,0.0219,0.022,1,1,163,5,1,threefour,,,,,,,,,,,,,,,,,,,,,,,,,,,,,,,,,,,,,,,,,,,,,,,,,,,,,,,,,,,,,,,,,,,,,,,,,,,,,,,,,,,,,,,,,,,,,,,,,,,,,,,,,,,,,,,,,,,,,,,,,,,,,,,,,,,,,,,
,,614dfd96cdc9c1063b64c437,2023-12-14_20h04.56.364,kallum_motion_pilot,2023.2.3,Win32,163.9344262,614dfd96cdc9c1063b64c437,657bb317c8798c6608bceb3f,657bb3abd370c8d94ade1580,0.022,0.022,1,2,164,141,1,seveneight,,,,,,,,,,,,,,,,,,,,,,,,,,,,,,,,,,,,,,,,,,,,,,,,,,,,,,,,,,,,,,,,,,,,,,,,,,,,,,,,,,,,,,,,,,,,,,,,,,,,,,,,,,,,,,,,,,,,,,,,,,,,,,,,,,,,,,,
,,614dfd96cdc9c1063b64c437,2023-12-14_20h04.56.364,kallum_motion_pilot,2023.2.3,Win32,163.9344262,614dfd96cdc9c1063b64c437,657bb317c8798c6608bceb3f,657bb3abd370c8d94ade1580,0.022,0.022,1,3,165,114,1,sixfive,,,,,,,,,,,,,,,,,,,,,,,,,,,,,,,,,,,,,,,,,,,,,,,,,,,,,,,,,,,,,,,,,,,,,,,,,,,,,,,,,,,,,,,,,,,,,,,,,,,,,,,,,,,,,,,,,,,,,,,,,,,,,,,,,,,,,,,
,,614dfd96cdc9c1063b64c437,2023-12-14_20h04.56.364,kallum_motion_pilot,2023.2.3,Win32,163.9344262,614dfd96cdc9c1063b64c437,657bb317c8798c6608bceb3f,657bb3abd370c8d94ade1580,0.0221,0.0221,1,4,166,108,1,sevenfive,,,,,,,,,,,,,,,,,,,,,,,,,,,,,,,,,,,,,,,,,,,,,,,,,,,,,,,,,,,,,,,,,,,,,,,,,,,,,,,,,,,,,,,,,,,,,,,,,,,,,,,,,,,,,,,,,,,,,,,,,,,,,,,,,,,,,,,
,,614dfd96cdc9c1063b64c437,2023-12-14_20h04.56.364,kallum_motion_pilot,2023.2.3,Win32,163.9344262,614dfd96cdc9c1063b64c437,657bb317c8798c6608bceb3f,657bb3abd370c8d94ade1580,0.0221,0.0222,1,5,167,69,1,threefour,,,,,,,,,,,,,,,,,,,,,,,,,,,,,,,,,,,,,,,,,,,,,,,,,,,,,,,,,,,,,,,,,,,,,,,,,,,,,,,,,,,,,,,,,,,,,,,,,,,,,,,,,,,,,,,,,,,,,,,,,,,,,,,,,,,,,,,
,,614dfd96cdc9c1063b64c437,2023-12-14_20h04.56.364,kallum_motion_pilot,2023.2.3,Win32,163.9344262,614dfd96cdc9c1063b64c437,657bb317c8798c6608bceb3f,657bb3abd370c8d94ade1580,0.0222,0.0222,1,6,168,52,1,threeone,,,,,,,,,,,,,,,,,,,,,,,,,,,,,,,,,,,,,,,,,,,,,,,,,,,,,,,,,,,,,,,,,,,,,,,,,,,,,,,,,,,,,,,,,,,,,,,,,,,,,,,,,,,,,,,,,,,,,,,,,,,,,,,,,,,,,,,
,,614dfd96cdc9c1063b64c437,2023-12-14_20h04.56.364,kallum_motion_pilot,2023.2.3,Win32,163.9344262,614dfd96cdc9c1063b64c437,657bb317c8798c6608bceb3f,657bb3abd370c8d94ade1580,0.0222,0.0223,1,7,169,75,1,twofour,,,,,,,,,,,,,,,,,,,,,,,,,,,,,,,,,,,,,,,,,,,,,,,,,,,,,,,,,,,,,,,,,,,,,,,,,,,,,,,,,,,,,,,,,,,,,,,,,,,,,,,,,,,,,,,,,,,,,,,,,,,,,,,,,,,,,,,
,,614dfd96cdc9c1063b64c437,2023-12-14_20h04.56.364,kallum_motion_pilot,2023.2.3,Win32,163.9344262,614dfd96cdc9c1063b64c437,657bb317c8798c6608bceb3f,657bb3abd370c8d94ade1580,0.0223,0.0223,1,8,170,135,1,eightseven,,,,,,,,,,,,,,,,,,,,,,,,,,,,,,,,,,,,,,,,,,,,,,,,,,,,,,,,,,,,,,,,,,,,,,,,,,,,,,,,,,,,,,,,,,,,,,,,,,,,,,,,,,,,,,,,,,,,,,,,,,,,,,,,,,,,,,,
,,614dfd96cdc9c1063b64c437,2023-12-14_20h04.56.364,kallum_motion_pilot,2023.2.3,Win32,163.9344262,614dfd96cdc9c1063b64c437,657bb317c8798c6608bceb3f,657bb3abd370c8d94ade1580,0.0223,0.0223,1,9,171,11,1,twofour,,,,,,,,,,,,,,,,,,,,,,,,,,,,,,,,,,,,,,,,,,,,,,,,,,,,,,,,,,,,,,,,,,,,,,,,,,,,,,,,,,,,,,,,,,,,,,,,,,,,,,,,,,,,,,,,,,,,,,,,,,,,,,,,,,,,,,,
,,614dfd96cdc9c1063b64c437,2023-12-14_20h04.56.364,kallum_motion_pilot,2023.2.3,Win32,163.9344262,614dfd96cdc9c1063b64c437,657bb317c8798c6608bceb3f,657bb3abd370c8d94ade1580,0.0223,0.0224,1,10,172,146,1,sixfive,,,,,,,,,,,,,,,,,,,,,,,,,,,,,,,,,,,,,,,,,,,,,,,,,,,,,,,,,,,,,,,,,,,,,,,,,,,,,,,,,,,,,,,,,,,,,,,,,,,,,,,,,,,,,,,,,,,,,,,,,,,,,,,,,,,,,,,
,,614dfd96cdc9c1063b64c437,2023-12-14_20h04.56.364,kallum_motion_pilot,2023.2.3,Win32,163.9344262,614dfd96cdc9c1063b64c437,657bb317c8798c6608bceb3f,657bb3abd370c8d94ade1580,0.0224,0.0225,1,11,173,90,1,sixfive,,,,,,,,,,,,,,,,,,,,,,,,,,,,,,,,,,,,,,,,,,,,,,,,,,,,,,,,,,,,,,,,,,,,,,,,,,,,,,,,,,,,,,,,,,,,,,,,,,,,,,,,,,,,,,,,,,,,,,,,,,,,,,,,,,,,,,,
,,614dfd96cdc9c1063b64c437,2023-12-14_20h04.56.364,kallum_motion_pilot,2023.2.3,Win32,163.9344262,614dfd96cdc9c1063b64c437,657bb317c8798c6608bceb3f,657bb3abd370c8d94ade1580,0.0225,0.0225,1,12,174,89,1,fiveseven,,,,,,,,,,,,,,,,,,,,,,,,,,,,,,,,,,,,,,,,,,,,,,,,,,,,,,,,,,,,,,,,,,,,,,,,,,,,,,,,,,,,,,,,,,,,,,,,,,,,,,,,,,,,,,,,,,,,,,,,,,,,,,,,,,,,,,,
,,614dfd96cdc9c1063b64c437,2023-12-14_20h04.56.364,kallum_motion_pilot,2023.2.3,Win32,163.9344262,614dfd96cdc9c1063b64c437,657bb317c8798c6608bceb3f,657bb3abd370c8d94ade1580,0.0226,0.0226,1,13,175,137,1,fiveseven,,,,,,,,,,,,,,,,,,,,,,,,,,,,,,,,,,,,,,,,,,,,,,,,,,,,,,,,,,,,,,,,,,,,,,,,,,,,,,,,,,,,,,,,,,,,,,,,,,,,,,,,,,,,,,,,,,,,,,,,,,,,,,,,,,,,,,,
,,614dfd96cdc9c1063b64c437,2023-12-14_20h04.56.364,kallum_motion_pilot,2023.2.3,Win32,163.9344262,614dfd96cdc9c1063b64c437,657bb317c8798c6608bceb3f,657bb3abd370c8d94ade1580,0.0226,0.0226,1,14,176,55,1,fourthree,,,,,,,,,,,,,,,,,,,,,,,,,,,,,,,,,,,,,,,,,,,,,,,,,,,,,,,,,,,,,,,,,,,,,,,,,,,,,,,,,,,,,,,,,,,,,,,,,,,,,,,,,,,,,,,,,,,,,,,,,,,,,,,,,,,,,,,
,,614dfd96cdc9c1063b64c437,2023-12-14_20h04.56.364,kallum_motion_pilot,2023.2.3,Win32,163.9344262,614dfd96cdc9c1063b64c437,657bb317c8798c6608bceb3f,657bb3abd370c8d94ade1580,0.0226,0.0228,1,15,177,84,1,sevenfive,,,,,,,,,,,,,,,,,,,,,,,,,,,,,,,,,,,,,,,,,,,,,,,,,,,,,,,,,,,,,,,,,,,,,,,,,,,,,,,,,,,,,,,,,,,,,,,,,,,,,,,,,,,,,,,,,,,,,,,,,,,,,,,,,,,,,,,
,,614dfd96cdc9c1063b64c437,2023-12-14_20h04.56.364,kallum_motion_pilot,2023.2.3,Win32,163.9344262,614dfd96cdc9c1063b64c437,657bb317c8798c6608bceb3f,657bb3abd370c8d94ade1580,0.0228,0.0228,1,16,178,128,1,fivesix,,,,,,,,,,,,,,,,,,,,,,,,,,,,,,,,,,,,,,,,,,,,,,,,,,,,,,,,,,,,,,,,,,,,,,,,,,,,,,,,,,,,,,,,,,,,,,,,,,,,,,,,,,,,,,,,,,,,,,,,,,,,,,,,,,,,,,,
,,614dfd96cdc9c1063b64c437,2023-12-14_20h04.56.364,kallum_motion_pilot,2023.2.3,Win32,163.9344262,614dfd96cdc9c1063b64c437,657bb317c8798c6608bceb3f,657bb3abd370c8d94ade1580,0.0228,0.0229,1,17,179,87,1,eightseven,,,,,,,,,,,,,,,,,,,,,,,,,,,,,,,,,,,,,,,,,,,,,,,,,,,,,,,,,,,,,,,,,,,,,,,,,,,,,,,,,,,,,,,,,,,,,,,,,,,,,,,,,,,,,,,,,,,,,,,,,,,,,,,,,,,,,,,
,,614dfd96cdc9c1063b64c437,2023-12-14_20h04.56.364,kallum_motion_pilot,2023.2.3,Win32,163.9344262,614dfd96cdc9c1063b64c437,657bb317c8798c6608bceb3f,657bb3abd370c8d94ade1580,0.0229,0.0229,1,18,180,115,1,sixeight,,,,,,,,,,,,,,,,,,,,,,,,,,,,,,,,,,,,,,,,,,,,,,,,,,,,,,,,,,,,,,,,,,,,,,,,,,,,,,,,,,,,,,,,,,,,,,,,,,,,,,,,,,,,,,,,,,,,,,,,,,,,,,,,,,,,,,,
,,614dfd96cdc9c1063b64c437,2023-12-14_20h04.56.364,kallum_motion_pilot,2023.2.3,Win32,163.9344262,614dfd96cdc9c1063b64c437,657bb317c8798c6608bceb3f,657bb3abd370c8d94ade1580,0.0229,0.0229,1,19,181,96,1,fivesix,,,,,,,,,,,,,,,,,,,,,,,,,,,,,,,,,,,,,,,,,,,,,,,,,,,,,,,,,,,,,,,,,,,,,,,,,,,,,,,,,,,,,,,,,,,,,,,,,,,,,,,,,,,,,,,,,,,,,,,,,,,,,,,,,,,,,,,
,,614dfd96cdc9c1063b64c437,2023-12-14_20h04.56.364,kallum_motion_pilot,2023.2.3,Win32,163.9344262,614dfd96cdc9c1063b64c437,657bb317c8798c6608bceb3f,657bb3abd370c8d94ade1580,0.023,0.023,1,20,182,60,1,threeone,,,,,,,,,,,,,,,,,,,,,,,,,,,,,,,,,,,,,,,,,,,,,,,,,,,,,,,,,,,,,,,,,,,,,,,,,,,,,,,,,,,,,,,,,,,,,,,,,,,,,,,,,,,,,,,,,,,,,,,,,,,,,,,,,,,,,,,
,,614dfd96cdc9c1063b64c437,2023-12-14_20h04.56.364,kallum_motion_pilot,2023.2.3,Win32,163.9344262,614dfd96cdc9c1063b64c437,657bb317c8798c6608bceb3f,657bb3abd370c8d94ade1580,0.0231,0.0231,1,21,183,0,1,onetwo,,,,,,,,,,,,,,,,,,,,,,,,,,,,,,,,,,,,,,,,,,,,,,,,,,,,,,,,,,,,,,,,,,,,,,,,,,,,,,,,,,,,,,,,,,,,,,,,,,,,,,,,,,,,,,,,,,,,,,,,,,,,,,,,,,,,,,,
,,614dfd96cdc9c1063b64c437,2023-12-14_20h04.56.364,kallum_motion_pilot,2023.2.3,Win32,163.9344262,614dfd96cdc9c1063b64c437,657bb317c8798c6608bceb3f,657bb3abd370c8d94ade1580,0.0231,0.0231,1,22,184,81,1,fiveseven,,,,,,,,,,,,,,,,,,,,,,,,,,,,,,,,,,,,,,,,,,,,,,,,,,,,,,,,,,,,,,,,,,,,,,,,,,,,,,,,,,,,,,,,,,,,,,,,,,,,,,,,,,,,,,,,,,,,,,,,,,,,,,,,,,,,,,,
,,614dfd96cdc9c1063b64c437,2023-12-14_20h04.56.364,kallum_motion_pilot,2023.2.3,Win32,163.9344262,614dfd96cdc9c1063b64c437,657bb317c8798c6608bceb3f,657bb3abd370c8d94ade1580,0.0232,0.0232,1,23,185,26,1,twoone,,,,,,,,,,,,,,,,,,,,,,,,,,,,,,,,,,,,,,,,,,,,,,,,,,,,,,,,,,,,,,,,,,,,,,,,,,,,,,,,,,,,,,,,,,,,,,,,,,,,,,,,,,,,,,,,,,,,,,,,,,,,,,,,,,,,,,,
,,614dfd96cdc9c1063b64c437,2023-12-14_20h04.56.364,kallum_motion_pilot,2023.2.3,Win32,163.9344262,614dfd96cdc9c1063b64c437,657bb317c8798c6608bceb3f,657bb3abd370c8d94ade1580,0.0232,0.0232,1,24,186,110,1,eightsix,,,,,,,,,,,,,,,,,,,,,,,,,,,,,,,,,,,,,,,,,,,,,,,,,,,,,,,,,,,,,,,,,,,,,,,,,,,,,,,,,,,,,,,,,,,,,,,,,,,,,,,,,,,,,,,,,,,,,,,,,,,,,,,,,,,,,,,
,,614dfd96cdc9c1063b64c437,2023-12-14_20h04.56.364,kallum_motion_pilot,2023.2.3,Win32,163.9344262,614dfd96cdc9c1063b64c437,657bb317c8798c6608bceb3f,657bb3abd370c8d94ade1580,0.0233,0.0233,1,25,187,20,1,threeone,,,,,,,,,,,,,,,,,,,,,,,,,,,,,,,,,,,,,,,,,,,,,,,,,,,,,,,,,,,,,,,,,,,,,,,,,,,,,,,,,,,,,,,,,,,,,,,,,,,,,,,,,,,,,,,,,,,,,,,,,,,,,,,,,,,,,,,
,,614dfd96cdc9c1063b64c437,2023-12-14_20h04.56.364,kallum_motion_pilot,2023.2.3,Win32,163.9344262,614dfd96cdc9c1063b64c437,657bb317c8798c6608bceb3f,657bb3abd370c8d94ade1580,0.0234,0.0234,1,26,188,134,1,eightsix,,,,,,,,,,,,,,,,,,,,,,,,,,,,,,,,,,,,,,,,,,,,,,,,,,,,,,,,,,,,,,,,,,,,,,,,,,,,,,,,,,,,,,,,,,,,,,,,,,,,,,,,,,,,,,,,,,,,,,,,,,,,,,,,,,,,,,,
,,614dfd96cdc9c1063b64c437,2023-12-14_20h04.56.364,kallum_motion_pilot,2023.2.3,Win32,163.9344262,614dfd96cdc9c1063b64c437,657bb317c8798c6608bceb3f,657bb3abd370c8d94ade1580,0.0235,0.0235,1,27,189,92,1,sevenfive,,,,,,,,,,,,,,,,,,,,,,,,,,,,,,,,,,,,,,,,,,,,,,,,,,,,,,,,,,,,,,,,,,,,,,,,,,,,,,,,,,,,,,,,,,,,,,,,,,,,,,,,,,,,,,,,,,,,,,,,,,,,,,,,,,,,,,,
,,614dfd96cdc9c1063b64c437,2023-12-14_20h04.56.364,kallum_motion_pilot,2023.2.3,Win32,163.9344262,614dfd96cdc9c1063b64c437,657bb317c8798c6608bceb3f,657bb3abd370c8d94ade1580,0.0235,0.0235,1,28,190,66,1,twoone,,,,,,,,,,,,,,,,,,,,,,,,,,,,,,,,,,,,,,,,,,,,,,,,,,,,,,,,,,,,,,,,,,,,,,,,,,,,,,,,,,,,,,,,,,,,,,,,,,,,,,,,,,,,,,,,,,,,,,,,,,,,,,,,,,,,,,,
,,614dfd96cdc9c1063b64c437,2023-12-14_20h04.56.364,kallum_motion_pilot,2023.2.3,Win32,163.9344262,614dfd96cdc9c1063b64c437,657bb317c8798c6608bceb3f,657bb3abd370c8d94ade1580,0.0235,0.0235,1,29,191,64,1,onetwo,,,,,,,,,,,,,,,,,,,,,,,,,,,,,,,,,,,,,,,,,,,,,,,,,,,,,,,,,,,,,,,,,,,,,,,,,,,,,,,,,,,,,,,,,,,,,,,,,,,,,,,,,,,,,,,,,,,,,,,,,,,,,,,,,,,,,,,
,,614dfd96cdc9c1063b64c437,2023-12-14_20h04.56.364,kallum_motion_pilot,2023.2.3,Win32,163.9344262,614dfd96cdc9c1063b64c437,657bb317c8798c6608bceb3f,657bb3abd370c8d94ade1580,0.0236,0.0237,1,30,192,48,1,onetwo,,,,,,,,,,,,,,,,,,,,,,,,,,,,,,,,,,,,,,,,,,,,,,,,,,,,,,,,,,,,,,,,,,,,,,,,,,,,,,,,,,,,,,,,,,,,,,,,,,,,,,,,,,,,,,,,,,,,,,,,,,,,,,,,,,,,,,,
,,614dfd96cdc9c1063b64c437,2023-12-14_20h04.56.364,kallum_motion_pilot,2023.2.3,Win32,163.9344262,614dfd96cdc9c1063b64c437,657bb317c8798c6608bceb3f,657bb3abd370c8d94ade1580,0.0237,0.0237,1,31,193,53,1,threefour,,,,,,,,,,,,,,,,,,,,,,,,,,,,,,,,,,,,,,,,,,,,,,,,,,,,,,,,,,,,,,,,,,,,,,,,,,,,,,,,,,,,,,,,,,,,,,,,,,,,,,,,,,,,,,,,,,,,,,,,,,,,,,,,,,,,,,,
,,614dfd96cdc9c1063b64c437,2023-12-14_20h04.56.364,kallum_motion_pilot,2023.2.3,Win32,163.9344262,614dfd96cdc9c1063b64c437,657bb317c8798c6608bceb3f,657bb3abd370c8d94ade1580,0.0237,0.0238,1,32,194,143,1,eightseven,,,,,,,,,,,,,,,,,,,,,,,,,,,,,,,,,,,,,,,,,,,,,,,,,,,,,,,,,,,,,,,,,,,,,,,,,,,,,,,,,,,,,,,,,,,,,,,,,,,,,,,,,,,,,,,,,,,,,,,,,,,,,,,,,,,,,,,
,,614dfd96cdc9c1063b64c437,2023-12-14_20h04.56.364,kallum_motion_pilot,2023.2.3,Win32,163.9344262,614dfd96cdc9c1063b64c437,657bb317c8798c6608bceb3f,657bb3abd370c8d94ade1580,0.0238,0.0238,1,33,195,62,1,fourtwo,,,,,,,,,,,,,,,,,,,,,,,,,,,,,,,,,,,,,,,,,,,,,,,,,,,,,,,,,,,,,,,,,,,,,,,,,,,,,,,,,,,,,,,,,,,,,,,,,,,,,,,,,,,,,,,,,,,,,,,,,,,,,,,,,,,,,,,
,,614dfd96cdc9c1063b64c437,2023-12-14_20h04.56.364,kallum_motion_pilot,2023.2.3,Win32,163.9344262,614dfd96cdc9c1063b64c437,657bb317c8798c6608bceb3f,657bb3abd370c8d94ade1580,0.0239,0.0239,1,34,196,126,1,eightsix,,,,,,,,,,,,,,,,,,,,,,,,,,,,,,,,,,,,,,,,,,,,,,,,,,,,,,,,,,,,,,,,,,,,,,,,,,,,,,,,,,,,,,,,,,,,,,,,,,,,,,,,,,,,,,,,,,,,,,,,,,,,,,,,,,,,,,,
,,614dfd96cdc9c1063b64c437,2023-12-14_20h04.56.364,kallum_motion_pilot,2023.2.3,Win32,163.9344262,614dfd96cdc9c1063b64c437,657bb317c8798c6608bceb3f,657bb3abd370c8d94ade1580,0.0239,0.0239,1,35,197,155,1,sixeight,,,,,,,,,,,,,,,,,,,,,,,,,,,,,,,,,,,,,,,,,,,,,,,,,,,,,,,,,,,,,,,,,,,,,,,,,,,,,,,,,,,,,,,,,,,,,,,,,,,,,,,,,,,,,,,,,,,,,,,,,,,,,,,,,,,,,,,
,,614dfd96cdc9c1063b64c437,2023-12-14_20h04.56.364,kallum_motion_pilot,2023.2.3,Win32,163.9344262,614dfd96cdc9c1063b64c437,657bb317c8798c6608bceb3f,657bb3abd370c8d94ade1580,0.0239,0.024,1,36,198,78,1,fourtwo,,,,,,,,,,,,,,,,,,,,,,,,,,,,,,,,,,,,,,,,,,,,,,,,,,,,,,,,,,,,,,,,,,,,,,,,,,,,,,,,,,,,,,,,,,,,,,,,,,,,,,,,,,,,,,,,,,,,,,,,,,,,,,,,,,,,,,,
,,614dfd96cdc9c1063b64c437,2023-12-14_20h04.56.364,kallum_motion_pilot,2023.2.3,Win32,163.9344262,614dfd96cdc9c1063b64c437,657bb317c8798c6608bceb3f,657bb3abd370c8d94ade1580,0.024,0.0241,1,37,199,107,1,sixeight,,,,,,,,,,,,,,,,,,,,,,,,,,,,,,,,,,,,,,,,,,,,,,,,,,,,,,,,,,,,,,,,,,,,,,,,,,,,,,,,,,,,,,,,,,,,,,,,,,,,,,,,,,,,,,,,,,,,,,,,,,,,,,,,,,,,,,,
,,614dfd96cdc9c1063b64c437,2023-12-14_20h04.56.364,kallum_motion_pilot,2023.2.3,Win32,163.9344262,614dfd96cdc9c1063b64c437,657bb317c8798c6608bceb3f,657bb3abd370c8d94ade1580,0.0241,0.0241,1,38,200,123,1,sixeight,,,,,,,,,,,,,,,,,,,,,,,,,,,,,,,,,,,,,,,,,,,,,,,,,,,,,,,,,,,,,,,,,,,,,,,,,,,,,,,,,,,,,,,,,,,,,,,,,,,,,,,,,,,,,,,,,,,,,,,,,,,,,,,,,,,,,,,
,,614dfd96cdc9c1063b64c437,2023-12-14_20h04.56.364,kallum_motion_pilot,2023.2.3,Win32,163.9344262,614dfd96cdc9c1063b64c437,657bb317c8798c6608bceb3f,657bb3abd370c8d94ade1580,0.0241,0.0241,1,39,201,23,1,fourthree,,,,,,,,,,,,,,,,,,,,,,,,,,,,,,,,,,,,,,,,,,,,,,,,,,,,,,,,,,,,,,,,,,,,,,,,,,,,,,,,,,,,,,,,,,,,,,,,,,,,,,,,,,,,,,,,,,,,,,,,,,,,,,,,,,,,,,,
,,614dfd96cdc9c1063b64c437,2023-12-14_20h04.56.364,kallum_motion_pilot,2023.2.3,Win32,163.9344262,614dfd96cdc9c1063b64c437,657bb317c8798c6608bceb3f,657bb3abd370c8d94ade1580,0.0241,0.0242,1,40,202,133,1,seveneight,,,,,,,,,,,,,,,,,,,,,,,,,,,,,,,,,,,,,,,,,,,,,,,,,,,,,,,,,,,,,,,,,,,,,,,,,,,,,,,,,,,,,,,,,,,,,,,,,,,,,,,,,,,,,,,,,,,,,,,,,,,,,,,,,,,,,,,
,,614dfd96cdc9c1063b64c437,2023-12-14_20h04.56.364,kallum_motion_pilot,2023.2.3,Win32,163.9344262,614dfd96cdc9c1063b64c437,657bb317c8798c6608bceb3f,657bb3abd370c8d94ade1580,0.0243,0.0243,1,41,203,129,1,fiveseven,,,,,,,,,,,,,,,,,,,,,,,,,,,,,,,,,,,,,,,,,,,,,,,,,,,,,,,,,,,,,,,,,,,,,,,,,,,,,,,,,,,,,,,,,,,,,,,,,,,,,,,,,,,,,,,,,,,,,,,,,,,,,,,,,,,,,,,
,,614dfd96cdc9c1063b64c437,2023-12-14_20h04.56.364,kallum_motion_pilot,2023.2.3,Win32,163.9344262,614dfd96cdc9c1063b64c437,657bb317c8798c6608bceb3f,657bb3abd370c8d94ade1580,0.0243,0.0243,1,42,204,121,1,fiveseven,,,,,,,,,,,,,,,,,,,,,,,,,,,,,,,,,,,,,,,,,,,,,,,,,,,,,,,,,,,,,,,,,,,,,,,,,,,,,,,,,,,,,,,,,,,,,,,,,,,,,,,,,,,,,,,,,,,,,,,,,,,,,,,,,,,,,,,
,,614dfd96cdc9c1063b64c437,2023-12-14_20h04.56.364,kallum_motion_pilot,2023.2.3,Win32,163.9344262,614dfd96cdc9c1063b64c437,657bb317c8798c6608bceb3f,657bb3abd370c8d94ade1580,0.0243,0.0243,1,43,205,76,1,threeone,,,,,,,,,,,,,,,,,,,,,,,,,,,,,,,,,,,,,,,,,,,,,,,,,,,,,,,,,,,,,,,,,,,,,,,,,,,,,,,,,,,,,,,,,,,,,,,,,,,,,,,,,,,,,,,,,,,,,,,,,,,,,,,,,,,,,,,
,,614dfd96cdc9c1063b64c437,2023-12-14_20h04.56.364,kallum_motion_pilot,2023.2.3,Win32,163.9344262,614dfd96cdc9c1063b64c437,657bb317c8798c6608bceb3f,657bb3abd370c8d94ade1580,0.0244,0.0244,1,44,206,18,1,twoone,,,,,,,,,,,,,,,,,,,,,,,,,,,,,,,,,,,,,,,,,,,,,,,,,,,,,,,,,,,,,,,,,,,,,,,,,,,,,,,,,,,,,,,,,,,,,,,,,,,,,,,,,,,,,,,,,,,,,,,,,,,,,,,,,,,,,,,
,,614dfd96cdc9c1063b64c437,2023-12-14_20h04.56.364,kallum_motion_pilot,2023.2.3,Win32,163.9344262,614dfd96cdc9c1063b64c437,657bb317c8798c6608bceb3f,657bb3abd370c8d94ade1580,0.0245,0.0245,1,45,207,140,1,sevenfive,,,,,,,,,,,,,,,,,,,,,,,,,,,,,,,,,,,,,,,,,,,,,,,,,,,,,,,,,,,,,,,,,,,,,,,,,,,,,,,,,,,,,,,,,,,,,,,,,,,,,,,,,,,,,,,,,,,,,,,,,,,,,,,,,,,,,,,
,,614dfd96cdc9c1063b64c437,2023-12-14_20h04.56.364,kallum_motion_pilot,2023.2.3,Win32,163.9344262,614dfd96cdc9c1063b64c437,657bb317c8798c6608bceb3f,657bb3abd370c8d94ade1580,0.0245,0.0245,1,46,208,120,1,fivesix,,,,,,,,,,,,,,,,,,,,,,,,,,,,,,,,,,,,,,,,,,,,,,,,,,,,,,,,,,,,,,,,,,,,,,,,,,,,,,,,,,,,,,,,,,,,,,,,,,,,,,,,,,,,,,,,,,,,,,,,,,,,,,,,,,,,,,,
,,614dfd96cdc9c1063b64c437,2023-12-14_20h04.56.364,kallum_motion_pilot,2023.2.3,Win32,163.9344262,614dfd96cdc9c1063b64c437,657bb317c8798c6608bceb3f,657bb3abd370c8d94ade1580,0.0245,0.0246,1,47,209,9,1,onethree,,,,,,,,,,,,,,,,,,,,,,,,,,,,,,,,,,,,,,,,,,,,,,,,,,,,,,,,,,,,,,,,,,,,,,,,,,,,,,,,,,,,,,,,,,,,,,,,,,,,,,,,,,,,,,,,,,,,,,,,,,,,,,,,,,,,,,,
,,614dfd96cdc9c1063b64c437,2023-12-14_20h04.56.364,kallum_motion_pilot,2023.2.3,Win32,163.9344262,614dfd96cdc9c1063b64c437,657bb317c8798c6608bceb3f,657bb3abd370c8d94ade1580,0.0246,0.0247,1,48,210,83,1,sixeight,,,,,,,,,,,,,,,,,,,,,,,,,,,,,,,,,,,,,,,,,,,,,,,,,,,,,,,,,,,,,,,,,,,,,,,,,,,,,,,,,,,,,,,,,,,,,,,,,,,,,,,,,,,,,,,,,,,,,,,,,,,,,,,,,,,,,,,
,,614dfd96cdc9c1063b64c437,2023-12-14_20h04.56.364,kallum_motion_pilot,2023.2.3,Win32,163.9344262,614dfd96cdc9c1063b64c437,657bb317c8798c6608bceb3f,657bb3abd370c8d94ade1580,0.0247,0.0247,1,49,211,127,1,eightseven,,,,,,,,,,,,,,,,,,,,,,,,,,,,,,,,,,,,,,,,,,,,,,,,,,,,,,,,,,,,,,,,,,,,,,,,,,,,,,,,,,,,,,,,,,,,,,,,,,,,,,,,,,,,,,,,,,,,,,,,,,,,,,,,,,,,,,,
,,614dfd96cdc9c1063b64c437,2023-12-14_20h04.56.364,kallum_motion_pilot,2023.2.3,Win32,163.9344262,614dfd96cdc9c1063b64c437,657bb317c8798c6608bceb3f,657bb3abd370c8d94ade1580,0.0247,0.0247,1,50,212,103,1,eightseven,,,,,,,,,,,,,,,,,,,,,,,,,,,,,,,,,,,,,,,,,,,,,,,,,,,,,,,,,,,,,,,,,,,,,,,,,,,,,,,,,,,,,,,,,,,,,,,,,,,,,,,,,,,,,,,,,,,,,,,,,,,,,,,,,,,,,,,
,,614dfd96cdc9c1063b64c437,2023-12-14_20h04.56.364,kallum_motion_pilot,2023.2.3,Win32,163.9344262,614dfd96cdc9c1063b64c437,657bb317c8798c6608bceb3f,657bb3abd370c8d94ade1580,0.0248,0.0248,1,51,213,77,1,threefour,,,,,,,,,,,,,,,,,,,,,,,,,,,,,,,,,,,,,,,,,,,,,,,,,,,,,,,,,,,,,,,,,,,,,,,,,,,,,,,,,,,,,,,,,,,,,,,,,,,,,,,,,,,,,,,,,,,,,,,,,,,,,,,,,,,,,,,
,,614dfd96cdc9c1063b64c437,2023-12-14_20h04.56.364,kallum_motion_pilot,2023.2.3,Win32,163.9344262,614dfd96cdc9c1063b64c437,657bb317c8798c6608bceb3f,657bb3abd370c8d94ade1580,0.0248,0.0248,1,52,214,58,1,twoone,,,,,,,,,,,,,,,,,,,,,,,,,,,,,,,,,,,,,,,,,,,,,,,,,,,,,,,,,,,,,,,,,,,,,,,,,,,,,,,,,,,,,,,,,,,,,,,,,,,,,,,,,,,,,,,,,,,,,,,,,,,,,,,,,,,,,,,
,,614dfd96cdc9c1063b64c437,2023-12-14_20h04.56.364,kallum_motion_pilot,2023.2.3,Win32,163.9344262,614dfd96cdc9c1063b64c437,657bb317c8798c6608bceb3f,657bb3abd370c8d94ade1580,0.0249,0.025,1,53,215,19,1,twofour,,,,,,,,,,,,,,,,,,,,,,,,,,,,,,,,,,,,,,,,,,,,,,,,,,,,,,,,,,,,,,,,,,,,,,,,,,,,,,,,,,,,,,,,,,,,,,,,,,,,,,,,,,,,,,,,,,,,,,,,,,,,,,,,,,,,,,,
,,614dfd96cdc9c1063b64c437,2023-12-14_20h04.56.364,kallum_motion_pilot,2023.2.3,Win32,163.9344262,614dfd96cdc9c1063b64c437,657bb317c8798c6608bceb3f,657bb3abd370c8d94ade1580,0.025,0.025,1,54,216,95,1,eightseven,,,,,,,,,,,,,,,,,,,,,,,,,,,,,,,,,,,,,,,,,,,,,,,,,,,,,,,,,,,,,,,,,,,,,,,,,,,,,,,,,,,,,,,,,,,,,,,,,,,,,,,,,,,,,,,,,,,,,,,,,,,,,,,,,,,,,,,
,,614dfd96cdc9c1063b64c437,2023-12-14_20h04.56.364,kallum_motion_pilot,2023.2.3,Win32,163.9344262,614dfd96cdc9c1063b64c437,657bb317c8798c6608bceb3f,657bb3abd370c8d94ade1580,0.025,0.0251,1,55,217,102,1,eightsix,,,,,,,,,,,,,,,,,,,,,,,,,,,,,,,,,,,,,,,,,,,,,,,,,,,,,,,,,,,,,,,,,,,,,,,,,,,,,,,,,,,,,,,,,,,,,,,,,,,,,,,,,,,,,,,,,,,,,,,,,,,,,,,,,,,,,,,
,,614dfd96cdc9c1063b64c437,2023-12-14_20h04.56.364,kallum_motion_pilot,2023.2.3,Win32,163.9344262,614dfd96cdc9c1063b64c437,657bb317c8798c6608bceb3f,657bb3abd370c8d94ade1580,0.0251,0.0251,1,56,218,61,1,threefour,,,,,,,,,,,,,,,,,,,,,,,,,,,,,,,,,,,,,,,,,,,,,,,,,,,,,,,,,,,,,,,,,,,,,,,,,,,,,,,,,,,,,,,,,,,,,,,,,,,,,,,,,,,,,,,,,,,,,,,,,,,,,,,,,,,,,,,
,,614dfd96cdc9c1063b64c437,2023-12-14_20h04.56.364,kallum_motion_pilot,2023.2.3,Win32,163.9344262,614dfd96cdc9c1063b64c437,657bb317c8798c6608bceb3f,657bb3abd370c8d94ade1580,0.0251,0.0252,1,57,219,46,1,fourtwo,,,,,,,,,,,,,,,,,,,,,,,,,,,,,,,,,,,,,,,,,,,,,,,,,,,,,,,,,,,,,,,,,,,,,,,,,,,,,,,,,,,,,,,,,,,,,,,,,,,,,,,,,,,,,,,,,,,,,,,,,,,,,,,,,,,,,,,
,,614dfd96cdc9c1063b64c437,2023-12-14_20h04.56.364,kallum_motion_pilot,2023.2.3,Win32,163.9344262,614dfd96cdc9c1063b64c437,657bb317c8798c6608bceb3f,657bb3abd370c8d94ade1580,0.0252,0.0253,1,58,220,88,1,fivesix,,,,,,,,,,,,,,,,,,,,,,,,,,,,,,,,,,,,,,,,,,,,,,,,,,,,,,,,,,,,,,,,,,,,,,,,,,,,,,,,,,,,,,,,,,,,,,,,,,,,,,,,,,,,,,,,,,,,,,,,,,,,,,,,,,,,,,,
,,614dfd96cdc9c1063b64c437,2023-12-14_20h04.56.364,kallum_motion_pilot,2023.2.3,Win32,163.9344262,614dfd96cdc9c1063b64c437,657bb317c8798c6608bceb3f,657bb3abd370c8d94ade1580,0.0253,0.0253,1,59,221,10,1,twoone,,,,,,,,,,,,,,,,,,,,,,,,,,,,,,,,,,,,,,,,,,,,,,,,,,,,,,,,,,,,,,,,,,,,,,,,,,,,,,,,,,,,,,,,,,,,,,,,,,,,,,,,,,,,,,,,,,,,,,,,,,,,,,,,,,,,,,,
,,614dfd96cdc9c1063b64c437,2023-12-14_20h04.56.364,kallum_motion_pilot,2023.2.3,Win32,163.9344262,614dfd96cdc9c1063b64c437,657bb317c8798c6608bceb3f,657bb3abd370c8d94ade1580,0.0254,0.0254,1,60,222,74,1,twoone,,,,,,,,,,,,,,,,,,,,,,,,,,,,,,,,,,,,,,,,,,,,,,,,,,,,,,,,,,,,,,,,,,,,,,,,,,,,,,,,,,,,,,,,,,,,,,,,,,,,,,,,,,,,,,,,,,,,,,,,,,,,,,,,,,,,,,,
,,614dfd96cdc9c1063b64c437,2023-12-14_20h04.56.364,kallum_motion_pilot,2023.2.3,Win32,163.9344262,614dfd96cdc9c1063b64c437,657bb317c8798c6608bceb3f,657bb3abd370c8d94ade1580,0.0254,0.0254,1,61,223,2,1,twoone,,,,,,,,,,,,,,,,,,,,,,,,,,,,,,,,,,,,,,,,,,,,,,,,,,,,,,,,,,,,,,,,,,,,,,,,,,,,,,,,,,,,,,,,,,,,,,,,,,,,,,,,,,,,,,,,,,,,,,,,,,,,,,,,,,,,,,,
,,614dfd96cdc9c1063b64c437,2023-12-14_20h04.56.364,kallum_motion_pilot,2023.2.3,Win32,163.9344262,614dfd96cdc9c1063b64c437,657bb317c8798c6608bceb3f,657bb3abd370c8d94ade1580,0.0254,0.0255,1,62,224,49,1,onethree,,,,,,,,,,,,,,,,,,,,,,,,,,,,,,,,,,,,,,,,,,,,,,,,,,,,,,,,,,,,,,,,,,,,,,,,,,,,,,,,,,,,,,,,,,,,,,,,,,,,,,,,,,,,,,,,,,,,,,,,,,,,,,,,,,,,,,,
,,614dfd96cdc9c1063b64c437,2023-12-14_20h04.56.364,kallum_motion_pilot,2023.2.3,Win32,163.9344262,614dfd96cdc9c1063b64c437,657bb317c8798c6608bceb3f,657bb3abd370c8d94ade1580,0.0256,0.0256,1,63,225,122,1,sixfive,,,,,,,,,,,,,,,,,,,,,,,,,,,,,,,,,,,,,,,,,,,,,,,,,,,,,,,,,,,,,,,,,,,,,,,,,,,,,,,,,,,,,,,,,,,,,,,,,,,,,,,,,,,,,,,,,,,,,,,,,,,,,,,,,,,,,,,
,,614dfd96cdc9c1063b64c437,2023-12-14_20h04.56.364,kallum_motion_pilot,2023.2.3,Win32,163.9344262,614dfd96cdc9c1063b64c437,657bb317c8798c6608bceb3f,657bb3abd370c8d94ade1580,0.0256,0.0256,1,64,226,70,1,fourtwo,,,,,,,,,,,,,,,,,,,,,,,,,,,,,,,,,,,,,,,,,,,,,,,,,,,,,,,,,,,,,,,,,,,,,,,,,,,,,,,,,,,,,,,,,,,,,,,,,,,,,,,,,,,,,,,,,,,,,,,,,,,,,,,,,,,,,,,
,,614dfd96cdc9c1063b64c437,2023-12-14_20h04.56.364,kallum_motion_pilot,2023.2.3,Win32,163.9344262,614dfd96cdc9c1063b64c437,657bb317c8798c6608bceb3f,657bb3abd370c8d94ade1580,0.0256,0.0257,1,65,227,85,1,seveneight,,,,,,,,,,,,,,,,,,,,,,,,,,,,,,,,,,,,,,,,,,,,,,,,,,,,,,,,,,,,,,,,,,,,,,,,,,,,,,,,,,,,,,,,,,,,,,,,,,,,,,,,,,,,,,,,,,,,,,,,,,,,,,,,,,,,,,,
,,614dfd96cdc9c1063b64c437,2023-12-14_20h04.56.364,kallum_motion_pilot,2023.2.3,Win32,163.9344262,614dfd96cdc9c1063b64c437,657bb317c8798c6608bceb3f,657bb3abd370c8d94ade1580,0.0257,0.0257,1,66,228,99,1,sixeight,,,,,,,,,,,,,,,,,,,,,,,,,,,,,,,,,,,,,,,,,,,,,,,,,,,,,,,,,,,,,,,,,,,,,,,,,,,,,,,,,,,,,,,,,,,,,,,,,,,,,,,,,,,,,,,,,,,,,,,,,,,,,,,,,,,,,,,
,,614dfd96cdc9c1063b64c437,2023-12-14_20h04.56.364,kallum_motion_pilot,2023.2.3,Win32,163.9344262,614dfd96cdc9c1063b64c437,657bb317c8798c6608bceb3f,657bb3abd370c8d94ade1580,0.0258,0.0258,1,67,229,113,1,fiveseven,,,,,,,,,,,,,,,,,,,,,,,,,,,,,,,,,,,,,,,,,,,,,,,,,,,,,,,,,,,,,,,,,,,,,,,,,,,,,,,,,,,,,,,,,,,,,,,,,,,,,,,,,,,,,,,,,,,,,,,,,,,,,,,,,,,,,,,
,,614dfd96cdc9c1063b64c437,2023-12-14_20h04.56.364,kallum_motion_pilot,2023.2.3,Win32,163.9344262,614dfd96cdc9c1063b64c437,657bb317c8798c6608bceb3f,657bb3abd370c8d94ade1580,0.0258,0.0259,1,68,230,138,1,sixfive,,,,,,,,,,,,,,,,,,,,,,,,,,,,,,,,,,,,,,,,,,,,,,,,,,,,,,,,,,,,,,,,,,,,,,,,,,,,,,,,,,,,,,,,,,,,,,,,,,,,,,,,,,,,,,,,,,,,,,,,,,,,,,,,,,,,,,,
,,614dfd96cdc9c1063b64c437,2023-12-14_20h04.56.364,kallum_motion_pilot,2023.2.3,Win32,163.9344262,614dfd96cdc9c1063b64c437,657bb317c8798c6608bceb3f,657bb3abd370c8d94ade1580,0.0259,0.026,1,69,231,97,1,fiveseven,,,,,,,,,,,,,,,,,,,,,,,,,,,,,,,,,,,,,,,,,,,,,,,,,,,,,,,,,,,,,,,,,,,,,,,,,,,,,,,,,,,,,,,,,,,,,,,,,,,,,,,,,,,,,,,,,,,,,,,,,,,,,,,,,,,,,,,
,,614dfd96cdc9c1063b64c437,2023-12-14_20h04.56.364,kallum_motion_pilot,2023.2.3,Win32,163.9344262,614dfd96cdc9c1063b64c437,657bb317c8798c6608bceb3f,657bb3abd370c8d94ade1580,0.026,0.026,1,70,232,25,1,onethree,,,,,,,,,,,,,,,,,,,,,,,,,,,,,,,,,,,,,,,,,,,,,,,,,,,,,,,,,,,,,,,,,,,,,,,,,,,,,,,,,,,,,,,,,,,,,,,,,,,,,,,,,,,,,,,,,,,,,,,,,,,,,,,,,,,,,,,
,,614dfd96cdc9c1063b64c437,2023-12-14_20h04.56.364,kallum_motion_pilot,2023.2.3,Win32,163.9344262,614dfd96cdc9c1063b64c437,657bb317c8798c6608bceb3f,657bb3abd370c8d94ade1580,0.026,0.026,1,71,233,144,1,fivesix,,,,,,,,,,,,,,,,,,,,,,,,,,,,,,,,,,,,,,,,,,,,,,,,,,,,,,,,,,,,,,,,,,,,,,,,,,,,,,,,,,,,,,,,,,,,,,,,,,,,,,,,,,,,,,,,,,,,,,,,,,,,,,,,,,,,,,,
,,614dfd96cdc9c1063b64c437,2023-12-14_20h04.56.364,kallum_motion_pilot,2023.2.3,Win32,163.9344262,614dfd96cdc9c1063b64c437,657bb317c8798c6608bceb3f,657bb3abd370c8d94ade1580,0.0261,0.0261,1,72,234,39,1,fourthree,,,,,,,,,,,,,,,,,,,,,,,,,,,,,,,,,,,,,,,,,,,,,,,,,,,,,,,,,,,,,,,,,,,,,,,,,,,,,,,,,,,,,,,,,,,,,,,,,,,,,,,,,,,,,,,,,,,,,,,,,,,,,,,,,,,,,,,
,,614dfd96cdc9c1063b64c437,2023-12-14_20h04.56.364,kallum_motion_pilot,2023.2.3,Win32,163.9344262,614dfd96cdc9c1063b64c437,657bb317c8798c6608bceb3f,657bb3abd370c8d94ade1580,0.0262,0.0262,1,73,235,153,1,fiveseven,,,,,,,,,,,,,,,,,,,,,,,,,,,,,,,,,,,,,,,,,,,,,,,,,,,,,,,,,,,,,,,,,,,,,,,,,,,,,,,,,,,,,,,,,,,,,,,,,,,,,,,,,,,,,,,,,,,,,,,,,,,,,,,,,,,,,,,
,,614dfd96cdc9c1063b64c437,2023-12-14_20h04.56.364,kallum_motion_pilot,2023.2.3,Win32,163.9344262,614dfd96cdc9c1063b64c437,657bb317c8798c6608bceb3f,657bb3abd370c8d94ade1580,0.0262,0.0262,1,74,236,56,1,onetwo,,,,,,,,,,,,,,,,,,,,,,,,,,,,,,,,,,,,,,,,,,,,,,,,,,,,,,,,,,,,,,,,,,,,,,,,,,,,,,,,,,,,,,,,,,,,,,,,,,,,,,,,,,,,,,,,,,,,,,,,,,,,,,,,,,,,,,,
,,614dfd96cdc9c1063b64c437,2023-12-14_20h04.56.364,kallum_motion_pilot,2023.2.3,Win32,163.9344262,614dfd96cdc9c1063b64c437,657bb317c8798c6608bceb3f,657bb3abd370c8d94ade1580,0.0262,0.0263,1,75,237,22,1,fourtwo,,,,,,,,,,,,,,,,,,,,,,,,,,,,,,,,,,,,,,,,,,,,,,,,,,,,,,,,,,,,,,,,,,,,,,,,,,,,,,,,,,,,,,,,,,,,,,,,,,,,,,,,,,,,,,,,,,,,,,,,,,,,,,,,,,,,,,,
,,614dfd96cdc9c1063b64c437,2023-12-14_20h04.56.364,kallum_motion_pilot,2023.2.3,Win32,163.9344262,614dfd96cdc9c1063b64c437,657bb317c8798c6608bceb3f,657bb3abd370c8d94ade1580,0.0264,0.0264,1,76,238,34,1,twoone,,,,,,,,,,,,,,,,,,,,,,,,,,,,,,,,,,,,,,,,,,,,,,,,,,,,,,,,,,,,,,,,,,,,,,,,,,,,,,,,,,,,,,,,,,,,,,,,,,,,,,,,,,,,,,,,,,,,,,,,,,,,,,,,,,,,,,,
,,614dfd96cdc9c1063b64c437,2023-12-14_20h04.56.364,kallum_motion_pilot,2023.2.3,Win32,163.9344262,614dfd96cdc9c1063b64c437,657bb317c8798c6608bceb3f,657bb3abd370c8d94ade1580,0.0264,0.0264,1,77,239,65,1,onethree,,,,,,,,,,,,,,,,,,,,,,,,,,,,,,,,,,,,,,,,,,,,,,,,,,,,,,,,,,,,,,,,,,,,,,,,,,,,,,,,,,,,,,,,,,,,,,,,,,,,,,,,,,,,,,,,,,,,,,,,,,,,,,,,,,,,,,,
,,614dfd96cdc9c1063b64c437,2023-12-14_20h04.56.364,kallum_motion_pilot,2023.2.3,Win32,163.9344262,614dfd96cdc9c1063b64c437,657bb317c8798c6608bceb3f,657bb3abd370c8d94ade1580,0.0265,0.0265,1,78,240,131,1,sixeight,,,,,,,,,,,,,,,,,,,,,,,,,,,,,,,,,,,,,,,,,,,,,,,,,,,,,,,,,,,,,,,,,,,,,,,,,,,,,,,,,,,,,,,,,,,,,,,,,,,,,,,,,,,,,,,,,,,,,,,,,,,,,,,,,,,,,,,
,,614dfd96cdc9c1063b64c437,2023-12-14_20h04.56.364,kallum_motion_pilot,2023.2.3,Win32,163.9344262,614dfd96cdc9c1063b64c437,657bb317c8798c6608bceb3f,657bb3abd370c8d94ade1580,0.0265,0.0265,1,79,241,27,1,twofour,,,,,,,,,,,,,,,,,,,,,,,,,,,,,,,,,,,,,,,,,,,,,,,,,,,,,,,,,,,,,,,,,,,,,,,,,,,,,,,,,,,,,,,,,,,,,,,,,,,,,,,,,,,,,,,,,,,,,,,,,,,,,,,,,,,,,,,
,,614dfd96cdc9c1063b64c437,2023-12-14_20h04.56.364,kallum_motion_pilot,2023.2.3,Win32,163.9344262,614dfd96cdc9c1063b64c437,657bb317c8798c6608bceb3f,657bb3abd370c8d94ade1580,0.0266,0.0266,1,80,242,111,1,eightseven,,,,,,,,,,,,,,,,,,,,,,,,,,,,,,,,,,,,,,,,,,,,,,,,,,,,,,,,,,,,,,,,,,,,,,,,,,,,,,,,,,,,,,,,,,,,,,,,,,,,,,,,,,,,,,,,,,,,,,,,,,,,,,,,,,,,,,,
,,614dfd96cdc9c1063b64c437,2023-12-14_20h04.56.364,kallum_motion_pilot,2023.2.3,Win32,163.9344262,614dfd96cdc9c1063b64c437,657bb317c8798c6608bceb3f,657bb3abd370c8d94ade1580,0.0266,0.0266,1,81,243,142,1,eightsix,,,,,,,,,,,,,,,,,,,,,,,,,,,,,,,,,,,,,,,,,,,,,,,,,,,,,,,,,,,,,,,,,,,,,,,,,,,,,,,,,,,,,,,,,,,,,,,,,,,,,,,,,,,,,,,,,,,,,,,,,,,,,,,,,,,,,,,
,,614dfd96cdc9c1063b64c437,2023-12-14_20h04.56.364,kallum_motion_pilot,2023.2.3,Win32,163.9344262,614dfd96cdc9c1063b64c437,657bb317c8798c6608bceb3f,657bb3abd370c8d94ade1580,0.0267,0.0267,1,82,244,63,1,fourthree,,,,,,,,,,,,,,,,,,,,,,,,,,,,,,,,,,,,,,,,,,,,,,,,,,,,,,,,,,,,,,,,,,,,,,,,,,,,,,,,,,,,,,,,,,,,,,,,,,,,,,,,,,,,,,,,,,,,,,,,,,,,,,,,,,,,,,,
,,614dfd96cdc9c1063b64c437,2023-12-14_20h04.56.364,kallum_motion_pilot,2023.2.3,Win32,163.9344262,614dfd96cdc9c1063b64c437,657bb317c8798c6608bceb3f,657bb3abd370c8d94ade1580,0.0268,0.0268,1,83,245,44,1,threeone,,,,,,,,,,,,,,,,,,,,,,,,,,,,,,,,,,,,,,,,,,,,,,,,,,,,,,,,,,,,,,,,,,,,,,,,,,,,,,,,,,,,,,,,,,,,,,,,,,,,,,,,,,,,,,,,,,,,,,,,,,,,,,,,,,,,,,,
,,614dfd96cdc9c1063b64c437,2023-12-14_20h04.56.364,kallum_motion_pilot,2023.2.3,Win32,163.9344262,614dfd96cdc9c1063b64c437,657bb317c8798c6608bceb3f,657bb3abd370c8d94ade1580,0.0268,0.0268,1,84,246,158,1,eightsix,,,,,,,,,,,,,,,,,,,,,,,,,,,,,,,,,,,,,,,,,,,,,,,,,,,,,,,,,,,,,,,,,,,,,,,,,,,,,,,,,,,,,,,,,,,,,,,,,,,,,,,,,,,,,,,,,,,,,,,,,,,,,,,,,,,,,,,
,,614dfd96cdc9c1063b64c437,2023-12-14_20h04.56.364,kallum_motion_pilot,2023.2.3,Win32,163.9344262,614dfd96cdc9c1063b64c437,657bb317c8798c6608bceb3f,657bb3abd370c8d94ade1580,0.0269,0.027,1,85,247,36,1,threeone,,,,,,,,,,,,,,,,,,,,,,,,,,,,,,,,,,,,,,,,,,,,,,,,,,,,,,,,,,,,,,,,,,,,,,,,,,,,,,,,,,,,,,,,,,,,,,,,,,,,,,,,,,,,,,,,,,,,,,,,,,,,,,,,,,,,,,,
,,614dfd96cdc9c1063b64c437,2023-12-14_20h04.56.364,kallum_motion_pilot,2023.2.3,Win32,163.9344262,614dfd96cdc9c1063b64c437,657bb317c8798c6608bceb3f,657bb3abd370c8d94ade1580,0.027,0.027,1,86,248,132,1,sevenfive,,,,,,,,,,,,,,,,,,,,,,,,,,,,,,,,,,,,,,,,,,,,,,,,,,,,,,,,,,,,,,,,,,,,,,,,,,,,,,,,,,,,,,,,,,,,,,,,,,,,,,,,,,,,,,,,,,,,,,,,,,,,,,,,,,,,,,,
,,614dfd96cdc9c1063b64c437,2023-12-14_20h04.56.364,kallum_motion_pilot,2023.2.3,Win32,163.9344262,614dfd96cdc9c1063b64c437,657bb317c8798c6608bceb3f,657bb3abd370c8d94ade1580,0.027,0.027,1,87,249,94,1,eightsix,,,,,,,,,,,,,,,,,,,,,,,,,,,,,,,,,,,,,,,,,,,,,,,,,,,,,,,,,,,,,,,,,,,,,,,,,,,,,,,,,,,,,,,,,,,,,,,,,,,,,,,,,,,,,,,,,,,,,,,,,,,,,,,,,,,,,,,
,,614dfd96cdc9c1063b64c437,2023-12-14_20h04.56.364,kallum_motion_pilot,2023.2.3,Win32,163.9344262,614dfd96cdc9c1063b64c437,657bb317c8798c6608bceb3f,657bb3abd370c8d94ade1580,0.0271,0.0272,1,88,250,32,1,onetwo,,,,,,,,,,,,,,,,,,,,,,,,,,,,,,,,,,,,,,,,,,,,,,,,,,,,,,,,,,,,,,,,,,,,,,,,,,,,,,,,,,,,,,,,,,,,,,,,,,,,,,,,,,,,,,,,,,,,,,,,,,,,,,,,,,,,,,,
,,614dfd96cdc9c1063b64c437,2023-12-14_20h04.56.364,kallum_motion_pilot,2023.2.3,Win32,163.9344262,614dfd96cdc9c1063b64c437,657bb317c8798c6608bceb3f,657bb3abd370c8d94ade1580,0.0272,0.0272,1,89,251,93,1,seveneight,,,,,,,,,,,,,,,,,,,,,,,,,,,,,,,,,,,,,,,,,,,,,,,,,,,,,,,,,,,,,,,,,,,,,,,,,,,,,,,,,,,,,,,,,,,,,,,,,,,,,,,,,,,,,,,,,,,,,,,,,,,,,,,,,,,,,,,
,,614dfd96cdc9c1063b64c437,2023-12-14_20h04.56.364,kallum_motion_pilot,2023.2.3,Win32,163.9344262,614dfd96cdc9c1063b64c437,657bb317c8798c6608bceb3f,657bb3abd370c8d94ade1580,0.0272,0.0272,1,90,252,16,1,onetwo,,,,,,,,,,,,,,,,,,,,,,,,,,,,,,,,,,,,,,,,,,,,,,,,,,,,,,,,,,,,,,,,,,,,,,,,,,,,,,,,,,,,,,,,,,,,,,,,,,,,,,,,,,,,,,,,,,,,,,,,,,,,,,,,,,,,,,,
,,614dfd96cdc9c1063b64c437,2023-12-14_20h04.56.364,kallum_motion_pilot,2023.2.3,Win32,163.9344262,614dfd96cdc9c1063b64c437,657bb317c8798c6608bceb3f,657bb3abd370c8d94ade1580,0.0272,0.0274,1,91,253,37,1,threefour,,,,,,,,,,,,,,,,,,,,,,,,,,,,,,,,,,,,,,,,,,,,,,,,,,,,,,,,,,,,,,,,,,,,,,,,,,,,,,,,,,,,,,,,,,,,,,,,,,,,,,,,,,,,,,,,,,,,,,,,,,,,,,,,,,,,,,,
,,614dfd96cdc9c1063b64c437,2023-12-14_20h04.56.364,kallum_motion_pilot,2023.2.3,Win32,163.9344262,614dfd96cdc9c1063b64c437,657bb317c8798c6608bceb3f,657bb3abd370c8d94ade1580,0.0274,0.0274,1,92,254,124,1,sevenfive,,,,,,,,,,,,,,,,,,,,,,,,,,,,,,,,,,,,,,,,,,,,,,,,,,,,,,,,,,,,,,,,,,,,,,,,,,,,,,,,,,,,,,,,,,,,,,,,,,,,,,,,,,,,,,,,,,,,,,,,,,,,,,,,,,,,,,,
,,614dfd96cdc9c1063b64c437,2023-12-14_20h04.56.364,kallum_motion_pilot,2023.2.3,Win32,163.9344262,614dfd96cdc9c1063b64c437,657bb317c8798c6608bceb3f,657bb3abd370c8d94ade1580,0.0275,0.0276,1,93,255,43,1,twofour,,,,,,,,,,,,,,,,,,,,,,,,,,,,,,,,,,,,,,,,,,,,,,,,,,,,,,,,,,,,,,,,,,,,,,,,,,,,,,,,,,,,,,,,,,,,,,,,,,,,,,,,,,,,,,,,,,,,,,,,,,,,,,,,,,,,,,,
,,614dfd96cdc9c1063b64c437,2023-12-14_20h04.56.364,kallum_motion_pilot,2023.2.3,Win32,163.9344262,614dfd96cdc9c1063b64c437,657bb317c8798c6608bceb3f,657bb3abd370c8d94ade1580,0.0276,0.0277,1,94,256,14,1,fourtwo,,,,,,,,,,,,,,,,,,,,,,,,,,,,,,,,,,,,,,,,,,,,,,,,,,,,,,,,,,,,,,,,,,,,,,,,,,,,,,,,,,,,,,,,,,,,,,,,,,,,,,,,,,,,,,,,,,,,,,,,,,,,,,,,,,,,,,,
,,614dfd96cdc9c1063b64c437,2023-12-14_20h04.56.364,kallum_motion_pilot,2023.2.3,Win32,163.9344262,614dfd96cdc9c1063b64c437,657bb317c8798c6608bceb3f,657bb3abd370c8d94ade1580,0.0277,0.0277,1,95,257,42,1,twoone,,,,,,,,,,,,,,,,,,,,,,,,,,,,,,,,,,,,,,,,,,,,,,,,,,,,,,,,,,,,,,,,,,,,,,,,,,,,,,,,,,,,,,,,,,,,,,,,,,,,,,,,,,,,,,,,,,,,,,,,,,,,,,,,,,,,,,,
,,614dfd96cdc9c1063b64c437,2023-12-14_20h04.56.364,kallum_motion_pilot,2023.2.3,Win32,163.9344262,614dfd96cdc9c1063b64c437,657bb317c8798c6608bceb3f,657bb3abd370c8d94ade1580,0.0278,0.0278,1,96,258,7,1,fourthree,,,,,,,,,,,,,,,,,,,,,,,,,,,,,,,,,,,,,,,,,,,,,,,,,,,,,,,,,,,,,,,,,,,,,,,,,,,,,,,,,,,,,,,,,,,,,,,,,,,,,,,,,,,,,,,,,,,,,,,,,,,,,,,,,,,,,,,
,,614dfd96cdc9c1063b64c437,2023-12-14_20h04.56.364,kallum_motion_pilot,2023.2.3,Win32,163.9344262,614dfd96cdc9c1063b64c437,657bb317c8798c6608bceb3f,657bb3abd370c8d94ade1580,0.0279,0.0279,1,97,259,67,1,twofour,,,,,,,,,,,,,,,,,,,,,,,,,,,,,,,,,,,,,,,,,,,,,,,,,,,,,,,,,,,,,,,,,,,,,,,,,,,,,,,,,,,,,,,,,,,,,,,,,,,,,,,,,,,,,,,,,,,,,,,,,,,,,,,,,,,,,,,
,,614dfd96cdc9c1063b64c437,2023-12-14_20h04.56.364,kallum_motion_pilot,2023.2.3,Win32,163.9344262,614dfd96cdc9c1063b64c437,657bb317c8798c6608bceb3f,657bb3abd370c8d94ade1580,0.028,0.028,1,98,260,4,1,threeone,,,,,,,,,,,,,,,,,,,,,,,,,,,,,,,,,,,,,,,,,,,,,,,,,,,,,,,,,,,,,,,,,,,,,,,,,,,,,,,,,,,,,,,,,,,,,,,,,,,,,,,,,,,,,,,,,,,,,,,,,,,,,,,,,,,,,,,
,,614dfd96cdc9c1063b64c437,2023-12-14_20h04.56.364,kallum_motion_pilot,2023.2.3,Win32,163.9344262,614dfd96cdc9c1063b64c437,657bb317c8798c6608bceb3f,657bb3abd370c8d94ade1580,0.028,0.028,1,99,261,147,1,sixeight,,,,,,,,,,,,,,,,,,,,,,,,,,,,,,,,,,,,,,,,,,,,,,,,,,,,,,,,,,,,,,,,,,,,,,,,,,,,,,,,,,,,,,,,,,,,,,,,,,,,,,,,,,,,,,,,,,,,,,,,,,,,,,,,,,,,,,,
,,614dfd96cdc9c1063b64c437,2023-12-14_20h04.56.364,kallum_motion_pilot,2023.2.3,Win32,163.9344262,614dfd96cdc9c1063b64c437,657bb317c8798c6608bceb3f,657bb3abd370c8d94ade1580,0.0281,0.0281,1,100,262,29,1,threefour,,,,,,,,,,,,,,,,,,,,,,,,,,,,,,,,,,,,,,,,,,,,,,,,,,,,,,,,,,,,,,,,,,,,,,,,,,,,,,,,,,,,,,,,,,,,,,,,,,,,,,,,,,,,,,,,,,,,,,,,,,,,,,,,,,,,,,,
,,614dfd96cdc9c1063b64c437,2023-12-14_20h04.56.364,kallum_motion_pilot,2023.2.3,Win32,163.9344262,614dfd96cdc9c1063b64c437,657bb317c8798c6608bceb3f,657bb3abd370c8d94ade1580,0.0281,0.0282,1,101,263,59,1,twofour,,,,,,,,,,,,,,,,,,,,,,,,,,,,,,,,,,,,,,,,,,,,,,,,,,,,,,,,,,,,,,,,,,,,,,,,,,,,,,,,,,,,,,,,,,,,,,,,,,,,,,,,,,,,,,,,,,,,,,,,,,,,,,,,,,,,,,,
,,614dfd96cdc9c1063b64c437,2023-12-14_20h04.56.364,kallum_motion_pilot,2023.2.3,Win32,163.9344262,614dfd96cdc9c1063b64c437,657bb317c8798c6608bceb3f,657bb3abd370c8d94ade1580,0.0283,0.0283,1,102,264,150,1,eightsix,,,,,,,,,,,,,,,,,,,,,,,,,,,,,,,,,,,,,,,,,,,,,,,,,,,,,,,,,,,,,,,,,,,,,,,,,,,,,,,,,,,,,,,,,,,,,,,,,,,,,,,,,,,,,,,,,,,,,,,,,,,,,,,,,,,,,,,
,,614dfd96cdc9c1063b64c437,2023-12-14_20h04.56.364,kallum_motion_pilot,2023.2.3,Win32,163.9344262,614dfd96cdc9c1063b64c437,657bb317c8798c6608bceb3f,657bb3abd370c8d94ade1580,0.0283,0.0283,1,103,265,109,1,seveneight,,,,,,,,,,,,,,,,,,,,,,,,,,,,,,,,,,,,,,,,,,,,,,,,,,,,,,,,,,,,,,,,,,,,,,,,,,,,,,,,,,,,,,,,,,,,,,,,,,,,,,,,,,,,,,,,,,,,,,,,,,,,,,,,,,,,,,,
,,614dfd96cdc9c1063b64c437,2023-12-14_20h04.56.364,kallum_motion_pilot,2023.2.3,Win32,163.9344262,614dfd96cdc9c1063b64c437,657bb317c8798c6608bceb3f,657bb3abd370c8d94ade1580,0.0283,0.0284,1,104,266,15,1,fourthree,,,,,,,,,,,,,,,,,,,,,,,,,,,,,,,,,,,,,,,,,,,,,,,,,,,,,,,,,,,,,,,,,,,,,,,,,,,,,,,,,,,,,,,,,,,,,,,,,,,,,,,,,,,,,,,,,,,,,,,,,,,,,,,,,,,,,,,
,,614dfd96cdc9c1063b64c437,2023-12-14_20h04.56.364,kallum_motion_pilot,2023.2.3,Win32,163.9344262,614dfd96cdc9c1063b64c437,657bb317c8798c6608bceb3f,657bb3abd370c8d94ade1580,0.0284,0.0284,1,105,267,8,1,onetwo,,,,,,,,,,,,,,,,,,,,,,,,,,,,,,,,,,,,,,,,,,,,,,,,,,,,,,,,,,,,,,,,,,,,,,,,,,,,,,,,,,,,,,,,,,,,,,,,,,,,,,,,,,,,,,,,,,,,,,,,,,,,,,,,,,,,,,,
,,614dfd96cdc9c1063b64c437,2023-12-14_20h04.56.364,kallum_motion_pilot,2023.2.3,Win32,163.9344262,614dfd96cdc9c1063b64c437,657bb317c8798c6608bceb3f,657bb3abd370c8d94ade1580,0.0284,0.0285,1,106,268,156,1,sevenfive,,,,,,,,,,,,,,,,,,,,,,,,,,,,,,,,,,,,,,,,,,,,,,,,,,,,,,,,,,,,,,,,,,,,,,,,,,,,,,,,,,,,,,,,,,,,,,,,,,,,,,,,,,,,,,,,,,,,,,,,,,,,,,,,,,,,,,,
,,614dfd96cdc9c1063b64c437,2023-12-14_20h04.56.364,kallum_motion_pilot,2023.2.3,Win32,163.9344262,614dfd96cdc9c1063b64c437,657bb317c8798c6608bceb3f,657bb3abd370c8d94ade1580,0.0285,0.0285,1,107,269,119,1,eightseven,,,,,,,,,,,,,,,,,,,,,,,,,,,,,,,,,,,,,,,,,,,,,,,,,,,,,,,,,,,,,,,,,,,,,,,,,,,,,,,,,,,,,,,,,,,,,,,,,,,,,,,,,,,,,,,,,,,,,,,,,,,,,,,,,,,,,,,
,,614dfd96cdc9c1063b64c437,2023-12-14_20h04.56.364,kallum_motion_pilot,2023.2.3,Win32,163.9344262,614dfd96cdc9c1063b64c437,657bb317c8798c6608bceb3f,657bb3abd370c8d94ade1580,0.0289,0.0289,1,108,270,160,1,fivesix,,,,,,,,,,,,,,,,,,,,,,,,,,,,,,,,,,,,,,,,,,,,,,,,,,,,,,,,,,,,,,,,,,,,,,,,,,,,,,,,,,,,,,,,,,,,,,,,,,,,,,,,,,,,,,,,,,,,,,,,,,,,,,,,,,,,,,,
,,614dfd96cdc9c1063b64c437,2023-12-14_20h04.56.364,kallum_motion_pilot,2023.2.3,Win32,163.9344262,614dfd96cdc9c1063b64c437,657bb317c8798c6608bceb3f,657bb3abd370c8d94ade1580,0.0291,0.0291,1,109,271,47,1,fourthree,,,,,,,,,,,,,,,,,,,,,,,,,,,,,,,,,,,,,,,,,,,,,,,,,,,,,,,,,,,,,,,,,,,,,,,,,,,,,,,,,,,,,,,,,,,,,,,,,,,,,,,,,,,,,,,,,,,,,,,,,,,,,,,,,,,,,,,
,,614dfd96cdc9c1063b64c437,2023-12-14_20h04.56.364,kallum_motion_pilot,2023.2.3,Win32,163.9344262,614dfd96cdc9c1063b64c437,657bb317c8798c6608bceb3f,657bb3abd370c8d94ade1580,0.0291,0.0292,1,110,272,1,1,onethree,,,,,,,,,,,,,,,,,,,,,,,,,,,,,,,,,,,,,,,,,,,,,,,,,,,,,,,,,,,,,,,,,,,,,,,,,,,,,,,,,,,,,,,,,,,,,,,,,,,,,,,,,,,,,,,,,,,,,,,,,,,,,,,,,,,,,,,
,,614dfd96cdc9c1063b64c437,2023-12-14_20h04.56.364,kallum_motion_pilot,2023.2.3,Win32,163.9344262,614dfd96cdc9c1063b64c437,657bb317c8798c6608bceb3f,657bb3abd370c8d94ade1580,0.0292,0.0292,1,111,273,6,1,fourtwo,,,,,,,,,,,,,,,,,,,,,,,,,,,,,,,,,,,,,,,,,,,,,,,,,,,,,,,,,,,,,,,,,,,,,,,,,,,,,,,,,,,,,,,,,,,,,,,,,,,,,,,,,,,,,,,,,,,,,,,,,,,,,,,,,,,,,,,
,,614dfd96cdc9c1063b64c437,2023-12-14_20h04.56.364,kallum_motion_pilot,2023.2.3,Win32,163.9344262,614dfd96cdc9c1063b64c437,657bb317c8798c6608bceb3f,657bb3abd370c8d94ade1580,0.0292,0.0292,1,112,274,41,1,onethree,,,,,,,,,,,,,,,,,,,,,,,,,,,,,,,,,,,,,,,,,,,,,,,,,,,,,,,,,,,,,,,,,,,,,,,,,,,,,,,,,,,,,,,,,,,,,,,,,,,,,,,,,,,,,,,,,,,,,,,,,,,,,,,,,,,,,,,
,,614dfd96cdc9c1063b64c437,2023-12-14_20h04.56.364,kallum_motion_pilot,2023.2.3,Win32,163.9344262,614dfd96cdc9c1063b64c437,657bb317c8798c6608bceb3f,657bb3abd370c8d94ade1580,0.0292,0.0293,1,113,275,28,1,threeone,,,,,,,,,,,,,,,,,,,,,,,,,,,,,,,,,,,,,,,,,,,,,,,,,,,,,,,,,,,,,,,,,,,,,,,,,,,,,,,,,,,,,,,,,,,,,,,,,,,,,,,,,,,,,,,,,,,,,,,,,,,,,,,,,,,,,,,
,,614dfd96cdc9c1063b64c437,2023-12-14_20h04.56.364,kallum_motion_pilot,2023.2.3,Win32,163.9344262,614dfd96cdc9c1063b64c437,657bb317c8798c6608bceb3f,657bb3abd370c8d94ade1580,0.0293,0.0294,1,114,276,148,1,sevenfive,,,,,,,,,,,,,,,,,,,,,,,,,,,,,,,,,,,,,,,,,,,,,,,,,,,,,,,,,,,,,,,,,,,,,,,,,,,,,,,,,,,,,,,,,,,,,,,,,,,,,,,,,,,,,,,,,,,,,,,,,,,,,,,,,,,,,,,
,,614dfd96cdc9c1063b64c437,2023-12-14_20h04.56.364,kallum_motion_pilot,2023.2.3,Win32,163.9344262,614dfd96cdc9c1063b64c437,657bb317c8798c6608bceb3f,657bb3abd370c8d94ade1580,0.0294,0.0294,1,115,277,98,1,sixfive,,,,,,,,,,,,,,,,,,,,,,,,,,,,,,,,,,,,,,,,,,,,,,,,,,,,,,,,,,,,,,,,,,,,,,,,,,,,,,,,,,,,,,,,,,,,,,,,,,,,,,,,,,,,,,,,,,,,,,,,,,,,,,,,,,,,,,,
,,614dfd96cdc9c1063b64c437,2023-12-14_20h04.56.364,kallum_motion_pilot,2023.2.3,Win32,163.9344262,614dfd96cdc9c1063b64c437,657bb317c8798c6608bceb3f,657bb3abd370c8d94ade1580,0.0294,0.0294,1,116,278,68,1,threeone,,,,,,,,,,,,,,,,,,,,,,,,,,,,,,,,,,,,,,,,,,,,,,,,,,,,,,,,,,,,,,,,,,,,,,,,,,,,,,,,,,,,,,,,,,,,,,,,,,,,,,,,,,,,,,,,,,,,,,,,,,,,,,,,,,,,,,,
,,614dfd96cdc9c1063b64c437,2023-12-14_20h04.56.364,kallum_motion_pilot,2023.2.3,Win32,163.9344262,614dfd96cdc9c1063b64c437,657bb317c8798c6608bceb3f,657bb3abd370c8d94ade1580,0.0295,0.0295,1,117,279,159,1,eightseven,,,,,,,,,,,,,,,,,,,,,,,,,,,,,,,,,,,,,,,,,,,,,,,,,,,,,,,,,,,,,,,,,,,,,,,,,,,,,,,,,,,,,,,,,,,,,,,,,,,,,,,,,,,,,,,,,,,,,,,,,,,,,,,,,,,,,,,
