startup.started,startup.stopped,Prolific ID*,date,expName,psychopyVersion,OS,frameRate,participant,study_id,session,stimpositions.started,stimpositions.stopped,hardcoded_stimulus_positions.thisRepN,hardcoded_stimulus_positions.thisTrialN,hardcoded_stimulus_positions.thisN,hardcoded_stimulus_positions.thisIndex,hardcoded_stimulus_positions.ran,StimulusPos,stimorientation.started,stimorientation.stopped,prac_stimorientation_import_loop.thisRepN,prac_stimorientation_import_loop.thisTrialN,prac_stimorientation_import_loop.thisN,prac_stimorientation_import_loop.thisIndex,prac_stimorientation_import_loop.ran,Stimorientation,welcome_instr.started,welcome_instr.stopped,key_resp.keys,key_resp.rt,key_resp.duration,response_steppedout_1.started,response_steppedout_1.stopped,key_resp_20.keys,key_resp_20.rt,key_resp_20.duration,response_steppedout_2.started,response_steppedout_2.stopped,key_resp_19.keys,key_resp_19.rt,key_resp_19.duration,stim_response_instr.started,stim_response_instr.stopped,key_resp_15.keys,key_resp_15.rt,key_resp_15.duration,direction_instr_2.started,direction_instr_2.stopped,key_resp_9.keys,key_resp_9.rt,key_resp_9.duration,instr_prac.started,instr_prac.stopped,key_resp_10.keys,key_resp_10.rt,key_resp_10.duration,Stim1_display_prac.started,Stim1_display_prac.stopped,Ecc,Circle1_ori,Circle2_ori,response_prac.started,similarity,response_time,response_prac.stopped,mouse_5.x,mouse_5.y,mouse_5.leftButton,mouse_5.midButton,mouse_5.rightButton,mouse_5.clicked_name,responseprac_feedback.started,responseprac_feedback.stopped,summary2_prac.started,summary2_prac.stopped,mouse_6.x,mouse_6.y,mouse_6.leftButton,mouse_6.midButton,mouse_6.rightButton,mouse_6.clicked_name,duringprac.thisRepN,duringprac.thisTrialN,duringprac.thisN,duringprac.thisIndex,duringprac.ran,begin.started,begin.stopped,key_resp_22.keys,key_resp_22.rt,key_resp_22.duration,Stim1_display.started,Stim1_display.stopped,circle1_ori,circle2_ori,blank.started,blank.stopped,response.started,response.stopped,mouse.x,mouse.y,mouse.leftButton,mouse.midButton,mouse.rightButton,mouse.clicked_name,response_2.started,response_2.stopped,mouse_2.x,mouse_2.y,mouse_2.leftButton,mouse_2.midButton,mouse_2.rightButton,mouse_2.clicked_name,special_trial.started,special_trial.stopped,catch_1.started,catch_1.stopped,mouse_3.x,mouse_3.y,mouse_3.leftButton,mouse_3.midButton,mouse_3.rightButton,catchresponse,catchnumber,response_time_catch,Catch,response_sum.started,response_sum.stopped,mouse_11.x,mouse_11.y,mouse_11.leftButton,mouse_11.midButton,mouse_11.rightButton,main_trial.thisRepN,main_trial.thisTrialN,main_trial.thisN,main_trial.thisIndex,main_trial.ran,Orientationtrialno,xcircle1_ori,xcircle2_ori,flip_presentation_sequence_for_double_pass.started,flip_presentation_sequence_for_double_pass.stopped,double_pass.thisRepN,double_pass.thisTrialN,double_pass.thisN,double_pass.thisIndex,double_pass.ran,goodbye.started,goodbye.stopped,key_resp_3.keys,key_resp_3.rt,key_resp_3.duration
0.002,0.002,616f94cd9cd003d37c9db38c,2023-12-14_23h22.31.081,kallum_motion_pilot,2023.2.3,Win32,60.0240096,616f94cd9cd003d37c9db38c,657bb317c8798c6608bceb3f,657bb40d245848c8fef0ab5f,,,,,,,,,,,,,,,,,,,,,,,,,,,,,,,,,,,,,,,,,,,,,,,,,,,,,,,,,,,,,,,,,,,,,,,,,,,,,,,,,,,,,,,,,,,,,,,,,,,,,,,,,,,,,,,,,,,,,,,,,,,,,,,,,,,,,,,,,,,,,,,
,,616f94cd9cd003d37c9db38c,2023-12-14_23h22.31.081,kallum_motion_pilot,2023.2.3,Win32,60.0240096,616f94cd9cd003d37c9db38c,657bb317c8798c6608bceb3f,657bb40d245848c8fef0ab5f,0.045,0.045,0,0,0,156,1,sevenfive,,,,,,,,,,,,,,,,,,,,,,,,,,,,,,,,,,,,,,,,,,,,,,,,,,,,,,,,,,,,,,,,,,,,,,,,,,,,,,,,,,,,,,,,,,,,,,,,,,,,,,,,,,,,,,,,,,,,,,,,,,,,,,,,,,,,,,,
,,616f94cd9cd003d37c9db38c,2023-12-14_23h22.31.081,kallum_motion_pilot,2023.2.3,Win32,60.0240096,616f94cd9cd003d37c9db38c,657bb317c8798c6608bceb3f,657bb40d245848c8fef0ab5f,0.045,0.045,0,1,1,69,1,threefour,,,,,,,,,,,,,,,,,,,,,,,,,,,,,,,,,,,,,,,,,,,,,,,,,,,,,,,,,,,,,,,,,,,,,,,,,,,,,,,,,,,,,,,,,,,,,,,,,,,,,,,,,,,,,,,,,,,,,,,,,,,,,,,,,,,,,,,
,,616f94cd9cd003d37c9db38c,2023-12-14_23h22.31.081,kallum_motion_pilot,2023.2.3,Win32,60.0240096,616f94cd9cd003d37c9db38c,657bb317c8798c6608bceb3f,657bb40d245848c8fef0ab5f,0.046,0.047,0,2,2,157,1,seveneight,,,,,,,,,,,,,,,,,,,,,,,,,,,,,,,,,,,,,,,,,,,,,,,,,,,,,,,,,,,,,,,,,,,,,,,,,,,,,,,,,,,,,,,,,,,,,,,,,,,,,,,,,,,,,,,,,,,,,,,,,,,,,,,,,,,,,,,
,,616f94cd9cd003d37c9db38c,2023-12-14_23h22.31.081,kallum_motion_pilot,2023.2.3,Win32,60.0240096,616f94cd9cd003d37c9db38c,657bb317c8798c6608bceb3f,657bb40d245848c8fef0ab5f,0.047,0.047,0,3,3,100,1,sevenfive,,,,,,,,,,,,,,,,,,,,,,,,,,,,,,,,,,,,,,,,,,,,,,,,,,,,,,,,,,,,,,,,,,,,,,,,,,,,,,,,,,,,,,,,,,,,,,,,,,,,,,,,,,,,,,,,,,,,,,,,,,,,,,,,,,,,,,,
,,616f94cd9cd003d37c9db38c,2023-12-14_23h22.31.081,kallum_motion_pilot,2023.2.3,Win32,60.0240096,616f94cd9cd003d37c9db38c,657bb317c8798c6608bceb3f,657bb40d245848c8fef0ab5f,0.047,0.047,0,4,4,79,1,eightseven,,,,,,,,,,,,,,,,,,,,,,,,,,,,,,,,,,,,,,,,,,,,,,,,,,,,,,,,,,,,,,,,,,,,,,,,,,,,,,,,,,,,,,,,,,,,,,,,,,,,,,,,,,,,,,,,,,,,,,,,,,,,,,,,,,,,,,,
,,616f94cd9cd003d37c9db38c,2023-12-14_23h22.31.081,kallum_motion_pilot,2023.2.3,Win32,60.0240096,616f94cd9cd003d37c9db38c,657bb317c8798c6608bceb3f,657bb40d245848c8fef0ab5f,0.048,0.048,0,5,5,131,1,sixeight,,,,,,,,,,,,,,,,,,,,,,,,,,,,,,,,,,,,,,,,,,,,,,,,,,,,,,,,,,,,,,,,,,,,,,,,,,,,,,,,,,,,,,,,,,,,,,,,,,,,,,,,,,,,,,,,,,,,,,,,,,,,,,,,,,,,,,,
,,616f94cd9cd003d37c9db38c,2023-12-14_23h22.31.081,kallum_motion_pilot,2023.2.3,Win32,60.0240096,616f94cd9cd003d37c9db38c,657bb317c8798c6608bceb3f,657bb40d245848c8fef0ab5f,0.049,0.049,0,6,6,61,1,threefour,,,,,,,,,,,,,,,,,,,,,,,,,,,,,,,,,,,,,,,,,,,,,,,,,,,,,,,,,,,,,,,,,,,,,,,,,,,,,,,,,,,,,,,,,,,,,,,,,,,,,,,,,,,,,,,,,,,,,,,,,,,,,,,,,,,,,,,
,,616f94cd9cd003d37c9db38c,2023-12-14_23h22.31.081,kallum_motion_pilot,2023.2.3,Win32,60.0240096,616f94cd9cd003d37c9db38c,657bb317c8798c6608bceb3f,657bb40d245848c8fef0ab5f,0.049,0.049,0,7,7,123,1,sixeight,,,,,,,,,,,,,,,,,,,,,,,,,,,,,,,,,,,,,,,,,,,,,,,,,,,,,,,,,,,,,,,,,,,,,,,,,,,,,,,,,,,,,,,,,,,,,,,,,,,,,,,,,,,,,,,,,,,,,,,,,,,,,,,,,,,,,,,
,,616f94cd9cd003d37c9db38c,2023-12-14_23h22.31.081,kallum_motion_pilot,2023.2.3,Win32,60.0240096,616f94cd9cd003d37c9db38c,657bb317c8798c6608bceb3f,657bb40d245848c8fef0ab5f,0.052,0.052,0,8,8,105,1,fiveseven,,,,,,,,,,,,,,,,,,,,,,,,,,,,,,,,,,,,,,,,,,,,,,,,,,,,,,,,,,,,,,,,,,,,,,,,,,,,,,,,,,,,,,,,,,,,,,,,,,,,,,,,,,,,,,,,,,,,,,,,,,,,,,,,,,,,,,,
,,616f94cd9cd003d37c9db38c,2023-12-14_23h22.31.081,kallum_motion_pilot,2023.2.3,Win32,60.0240096,616f94cd9cd003d37c9db38c,657bb317c8798c6608bceb3f,657bb40d245848c8fef0ab5f,0.052,0.052,0,9,9,122,1,sixfive,,,,,,,,,,,,,,,,,,,,,,,,,,,,,,,,,,,,,,,,,,,,,,,,,,,,,,,,,,,,,,,,,,,,,,,,,,,,,,,,,,,,,,,,,,,,,,,,,,,,,,,,,,,,,,,,,,,,,,,,,,,,,,,,,,,,,,,
,,616f94cd9cd003d37c9db38c,2023-12-14_23h22.31.081,kallum_motion_pilot,2023.2.3,Win32,60.0240096,616f94cd9cd003d37c9db38c,657bb317c8798c6608bceb3f,657bb40d245848c8fef0ab5f,0.052,0.052,0,10,10,4,1,threeone,,,,,,,,,,,,,,,,,,,,,,,,,,,,,,,,,,,,,,,,,,,,,,,,,,,,,,,,,,,,,,,,,,,,,,,,,,,,,,,,,,,,,,,,,,,,,,,,,,,,,,,,,,,,,,,,,,,,,,,,,,,,,,,,,,,,,,,
,,616f94cd9cd003d37c9db38c,2023-12-14_23h22.31.081,kallum_motion_pilot,2023.2.3,Win32,60.0240096,616f94cd9cd003d37c9db38c,657bb317c8798c6608bceb3f,657bb40d245848c8fef0ab5f,0.052,0.052,0,11,11,86,1,eightsix,,,,,,,,,,,,,,,,,,,,,,,,,,,,,,,,,,,,,,,,,,,,,,,,,,,,,,,,,,,,,,,,,,,,,,,,,,,,,,,,,,,,,,,,,,,,,,,,,,,,,,,,,,,,,,,,,,,,,,,,,,,,,,,,,,,,,,,
,,616f94cd9cd003d37c9db38c,2023-12-14_23h22.31.081,kallum_motion_pilot,2023.2.3,Win32,60.0240096,616f94cd9cd003d37c9db38c,657bb317c8798c6608bceb3f,657bb40d245848c8fef0ab5f,0.052,0.052,0,12,12,53,1,threefour,,,,,,,,,,,,,,,,,,,,,,,,,,,,,,,,,,,,,,,,,,,,,,,,,,,,,,,,,,,,,,,,,,,,,,,,,,,,,,,,,,,,,,,,,,,,,,,,,,,,,,,,,,,,,,,,,,,,,,,,,,,,,,,,,,,,,,,
,,616f94cd9cd003d37c9db38c,2023-12-14_23h22.31.081,kallum_motion_pilot,2023.2.3,Win32,60.0240096,616f94cd9cd003d37c9db38c,657bb317c8798c6608bceb3f,657bb40d245848c8fef0ab5f,0.052,0.052,0,13,13,150,1,eightsix,,,,,,,,,,,,,,,,,,,,,,,,,,,,,,,,,,,,,,,,,,,,,,,,,,,,,,,,,,,,,,,,,,,,,,,,,,,,,,,,,,,,,,,,,,,,,,,,,,,,,,,,,,,,,,,,,,,,,,,,,,,,,,,,,,,,,,,
,,616f94cd9cd003d37c9db38c,2023-12-14_23h22.31.081,kallum_motion_pilot,2023.2.3,Win32,60.0240096,616f94cd9cd003d37c9db38c,657bb317c8798c6608bceb3f,657bb40d245848c8fef0ab5f,0.052,0.052,0,14,14,151,1,eightseven,,,,,,,,,,,,,,,,,,,,,,,,,,,,,,,,,,,,,,,,,,,,,,,,,,,,,,,,,,,,,,,,,,,,,,,,,,,,,,,,,,,,,,,,,,,,,,,,,,,,,,,,,,,,,,,,,,,,,,,,,,,,,,,,,,,,,,,
,,616f94cd9cd003d37c9db38c,2023-12-14_23h22.31.081,kallum_motion_pilot,2023.2.3,Win32,60.0240096,616f94cd9cd003d37c9db38c,657bb317c8798c6608bceb3f,657bb40d245848c8fef0ab5f,0.052,0.052,0,15,15,6,1,fourtwo,,,,,,,,,,,,,,,,,,,,,,,,,,,,,,,,,,,,,,,,,,,,,,,,,,,,,,,,,,,,,,,,,,,,,,,,,,,,,,,,,,,,,,,,,,,,,,,,,,,,,,,,,,,,,,,,,,,,,,,,,,,,,,,,,,,,,,,
,,616f94cd9cd003d37c9db38c,2023-12-14_23h22.31.081,kallum_motion_pilot,2023.2.3,Win32,60.0240096,616f94cd9cd003d37c9db38c,657bb317c8798c6608bceb3f,657bb40d245848c8fef0ab5f,0.052,0.052,0,16,16,19,1,twofour,,,,,,,,,,,,,,,,,,,,,,,,,,,,,,,,,,,,,,,,,,,,,,,,,,,,,,,,,,,,,,,,,,,,,,,,,,,,,,,,,,,,,,,,,,,,,,,,,,,,,,,,,,,,,,,,,,,,,,,,,,,,,,,,,,,,,,,
,,616f94cd9cd003d37c9db38c,2023-12-14_23h22.31.081,kallum_motion_pilot,2023.2.3,Win32,60.0240096,616f94cd9cd003d37c9db38c,657bb317c8798c6608bceb3f,657bb40d245848c8fef0ab5f,0.052,0.052,0,17,17,153,1,fiveseven,,,,,,,,,,,,,,,,,,,,,,,,,,,,,,,,,,,,,,,,,,,,,,,,,,,,,,,,,,,,,,,,,,,,,,,,,,,,,,,,,,,,,,,,,,,,,,,,,,,,,,,,,,,,,,,,,,,,,,,,,,,,,,,,,,,,,,,
,,616f94cd9cd003d37c9db38c,2023-12-14_23h22.31.081,kallum_motion_pilot,2023.2.3,Win32,60.0240096,616f94cd9cd003d37c9db38c,657bb317c8798c6608bceb3f,657bb40d245848c8fef0ab5f,0.052,0.052,0,18,18,83,1,sixeight,,,,,,,,,,,,,,,,,,,,,,,,,,,,,,,,,,,,,,,,,,,,,,,,,,,,,,,,,,,,,,,,,,,,,,,,,,,,,,,,,,,,,,,,,,,,,,,,,,,,,,,,,,,,,,,,,,,,,,,,,,,,,,,,,,,,,,,
,,616f94cd9cd003d37c9db38c,2023-12-14_23h22.31.081,kallum_motion_pilot,2023.2.3,Win32,60.0240096,616f94cd9cd003d37c9db38c,657bb317c8798c6608bceb3f,657bb40d245848c8fef0ab5f,0.052,0.052,0,19,19,148,1,sevenfive,,,,,,,,,,,,,,,,,,,,,,,,,,,,,,,,,,,,,,,,,,,,,,,,,,,,,,,,,,,,,,,,,,,,,,,,,,,,,,,,,,,,,,,,,,,,,,,,,,,,,,,,,,,,,,,,,,,,,,,,,,,,,,,,,,,,,,,
,,616f94cd9cd003d37c9db38c,2023-12-14_23h22.31.081,kallum_motion_pilot,2023.2.3,Win32,60.0240096,616f94cd9cd003d37c9db38c,657bb317c8798c6608bceb3f,657bb40d245848c8fef0ab5f,0.052,0.052,0,20,20,104,1,fivesix,,,,,,,,,,,,,,,,,,,,,,,,,,,,,,,,,,,,,,,,,,,,,,,,,,,,,,,,,,,,,,,,,,,,,,,,,,,,,,,,,,,,,,,,,,,,,,,,,,,,,,,,,,,,,,,,,,,,,,,,,,,,,,,,,,,,,,,
,,616f94cd9cd003d37c9db38c,2023-12-14_23h22.31.081,kallum_motion_pilot,2023.2.3,Win32,60.0240096,616f94cd9cd003d37c9db38c,657bb317c8798c6608bceb3f,657bb40d245848c8fef0ab5f,0.053,0.053,0,21,21,102,1,eightsix,,,,,,,,,,,,,,,,,,,,,,,,,,,,,,,,,,,,,,,,,,,,,,,,,,,,,,,,,,,,,,,,,,,,,,,,,,,,,,,,,,,,,,,,,,,,,,,,,,,,,,,,,,,,,,,,,,,,,,,,,,,,,,,,,,,,,,,
,,616f94cd9cd003d37c9db38c,2023-12-14_23h22.31.081,kallum_motion_pilot,2023.2.3,Win32,60.0240096,616f94cd9cd003d37c9db38c,657bb317c8798c6608bceb3f,657bb40d245848c8fef0ab5f,0.053,0.053,0,22,22,149,1,seveneight,,,,,,,,,,,,,,,,,,,,,,,,,,,,,,,,,,,,,,,,,,,,,,,,,,,,,,,,,,,,,,,,,,,,,,,,,,,,,,,,,,,,,,,,,,,,,,,,,,,,,,,,,,,,,,,,,,,,,,,,,,,,,,,,,,,,,,,
,,616f94cd9cd003d37c9db38c,2023-12-14_23h22.31.081,kallum_motion_pilot,2023.2.3,Win32,60.0240096,616f94cd9cd003d37c9db38c,657bb317c8798c6608bceb3f,657bb40d245848c8fef0ab5f,0.053,0.053,0,23,23,7,1,fourthree,,,,,,,,,,,,,,,,,,,,,,,,,,,,,,,,,,,,,,,,,,,,,,,,,,,,,,,,,,,,,,,,,,,,,,,,,,,,,,,,,,,,,,,,,,,,,,,,,,,,,,,,,,,,,,,,,,,,,,,,,,,,,,,,,,,,,,,
,,616f94cd9cd003d37c9db38c,2023-12-14_23h22.31.081,kallum_motion_pilot,2023.2.3,Win32,60.0240096,616f94cd9cd003d37c9db38c,657bb317c8798c6608bceb3f,657bb40d245848c8fef0ab5f,0.053,0.054,0,24,24,11,1,twofour,,,,,,,,,,,,,,,,,,,,,,,,,,,,,,,,,,,,,,,,,,,,,,,,,,,,,,,,,,,,,,,,,,,,,,,,,,,,,,,,,,,,,,,,,,,,,,,,,,,,,,,,,,,,,,,,,,,,,,,,,,,,,,,,,,,,,,,
,,616f94cd9cd003d37c9db38c,2023-12-14_23h22.31.081,kallum_motion_pilot,2023.2.3,Win32,60.0240096,616f94cd9cd003d37c9db38c,657bb317c8798c6608bceb3f,657bb40d245848c8fef0ab5f,0.055,0.055,0,25,25,84,1,sevenfive,,,,,,,,,,,,,,,,,,,,,,,,,,,,,,,,,,,,,,,,,,,,,,,,,,,,,,,,,,,,,,,,,,,,,,,,,,,,,,,,,,,,,,,,,,,,,,,,,,,,,,,,,,,,,,,,,,,,,,,,,,,,,,,,,,,,,,,
,,616f94cd9cd003d37c9db38c,2023-12-14_23h22.31.081,kallum_motion_pilot,2023.2.3,Win32,60.0240096,616f94cd9cd003d37c9db38c,657bb317c8798c6608bceb3f,657bb40d245848c8fef0ab5f,0.055,0.055,0,26,26,88,1,fivesix,,,,,,,,,,,,,,,,,,,,,,,,,,,,,,,,,,,,,,,,,,,,,,,,,,,,,,,,,,,,,,,,,,,,,,,,,,,,,,,,,,,,,,,,,,,,,,,,,,,,,,,,,,,,,,,,,,,,,,,,,,,,,,,,,,,,,,,
,,616f94cd9cd003d37c9db38c,2023-12-14_23h22.31.081,kallum_motion_pilot,2023.2.3,Win32,60.0240096,616f94cd9cd003d37c9db38c,657bb317c8798c6608bceb3f,657bb40d245848c8fef0ab5f,0.055,0.055,0,27,27,142,1,eightsix,,,,,,,,,,,,,,,,,,,,,,,,,,,,,,,,,,,,,,,,,,,,,,,,,,,,,,,,,,,,,,,,,,,,,,,,,,,,,,,,,,,,,,,,,,,,,,,,,,,,,,,,,,,,,,,,,,,,,,,,,,,,,,,,,,,,,,,
,,616f94cd9cd003d37c9db38c,2023-12-14_23h22.31.081,kallum_motion_pilot,2023.2.3,Win32,60.0240096,616f94cd9cd003d37c9db38c,657bb317c8798c6608bceb3f,657bb40d245848c8fef0ab5f,0.055,0.055,0,28,28,71,1,fourthree,,,,,,,,,,,,,,,,,,,,,,,,,,,,,,,,,,,,,,,,,,,,,,,,,,,,,,,,,,,,,,,,,,,,,,,,,,,,,,,,,,,,,,,,,,,,,,,,,,,,,,,,,,,,,,,,,,,,,,,,,,,,,,,,,,,,,,,
,,616f94cd9cd003d37c9db38c,2023-12-14_23h22.31.081,kallum_motion_pilot,2023.2.3,Win32,60.0240096,616f94cd9cd003d37c9db38c,657bb317c8798c6608bceb3f,657bb40d245848c8fef0ab5f,0.055,0.055,0,29,29,67,1,twofour,,,,,,,,,,,,,,,,,,,,,,,,,,,,,,,,,,,,,,,,,,,,,,,,,,,,,,,,,,,,,,,,,,,,,,,,,,,,,,,,,,,,,,,,,,,,,,,,,,,,,,,,,,,,,,,,,,,,,,,,,,,,,,,,,,,,,,,
,,616f94cd9cd003d37c9db38c,2023-12-14_23h22.31.081,kallum_motion_pilot,2023.2.3,Win32,60.0240096,616f94cd9cd003d37c9db38c,657bb317c8798c6608bceb3f,657bb40d245848c8fef0ab5f,0.055,0.056,0,30,30,1,1,onethree,,,,,,,,,,,,,,,,,,,,,,,,,,,,,,,,,,,,,,,,,,,,,,,,,,,,,,,,,,,,,,,,,,,,,,,,,,,,,,,,,,,,,,,,,,,,,,,,,,,,,,,,,,,,,,,,,,,,,,,,,,,,,,,,,,,,,,,
,,616f94cd9cd003d37c9db38c,2023-12-14_23h22.31.081,kallum_motion_pilot,2023.2.3,Win32,60.0240096,616f94cd9cd003d37c9db38c,657bb317c8798c6608bceb3f,657bb40d245848c8fef0ab5f,0.056,0.056,0,31,31,68,1,threeone,,,,,,,,,,,,,,,,,,,,,,,,,,,,,,,,,,,,,,,,,,,,,,,,,,,,,,,,,,,,,,,,,,,,,,,,,,,,,,,,,,,,,,,,,,,,,,,,,,,,,,,,,,,,,,,,,,,,,,,,,,,,,,,,,,,,,,,
,,616f94cd9cd003d37c9db38c,2023-12-14_23h22.31.081,kallum_motion_pilot,2023.2.3,Win32,60.0240096,616f94cd9cd003d37c9db38c,657bb317c8798c6608bceb3f,657bb40d245848c8fef0ab5f,0.056,0.056,0,32,32,140,1,sevenfive,,,,,,,,,,,,,,,,,,,,,,,,,,,,,,,,,,,,,,,,,,,,,,,,,,,,,,,,,,,,,,,,,,,,,,,,,,,,,,,,,,,,,,,,,,,,,,,,,,,,,,,,,,,,,,,,,,,,,,,,,,,,,,,,,,,,,,,
,,616f94cd9cd003d37c9db38c,2023-12-14_23h22.31.081,kallum_motion_pilot,2023.2.3,Win32,60.0240096,616f94cd9cd003d37c9db38c,657bb317c8798c6608bceb3f,657bb40d245848c8fef0ab5f,0.056,0.056,0,33,33,45,1,threefour,,,,,,,,,,,,,,,,,,,,,,,,,,,,,,,,,,,,,,,,,,,,,,,,,,,,,,,,,,,,,,,,,,,,,,,,,,,,,,,,,,,,,,,,,,,,,,,,,,,,,,,,,,,,,,,,,,,,,,,,,,,,,,,,,,,,,,,
,,616f94cd9cd003d37c9db38c,2023-12-14_23h22.31.081,kallum_motion_pilot,2023.2.3,Win32,60.0240096,616f94cd9cd003d37c9db38c,657bb317c8798c6608bceb3f,657bb40d245848c8fef0ab5f,0.056,0.056,0,34,34,143,1,eightseven,,,,,,,,,,,,,,,,,,,,,,,,,,,,,,,,,,,,,,,,,,,,,,,,,,,,,,,,,,,,,,,,,,,,,,,,,,,,,,,,,,,,,,,,,,,,,,,,,,,,,,,,,,,,,,,,,,,,,,,,,,,,,,,,,,,,,,,
,,616f94cd9cd003d37c9db38c,2023-12-14_23h22.31.081,kallum_motion_pilot,2023.2.3,Win32,60.0240096,616f94cd9cd003d37c9db38c,657bb317c8798c6608bceb3f,657bb40d245848c8fef0ab5f,0.057,0.057,0,35,35,117,1,seveneight,,,,,,,,,,,,,,,,,,,,,,,,,,,,,,,,,,,,,,,,,,,,,,,,,,,,,,,,,,,,,,,,,,,,,,,,,,,,,,,,,,,,,,,,,,,,,,,,,,,,,,,,,,,,,,,,,,,,,,,,,,,,,,,,,,,,,,,
,,616f94cd9cd003d37c9db38c,2023-12-14_23h22.31.081,kallum_motion_pilot,2023.2.3,Win32,60.0240096,616f94cd9cd003d37c9db38c,657bb317c8798c6608bceb3f,657bb40d245848c8fef0ab5f,0.057,0.057,0,36,36,15,1,fourthree,,,,,,,,,,,,,,,,,,,,,,,,,,,,,,,,,,,,,,,,,,,,,,,,,,,,,,,,,,,,,,,,,,,,,,,,,,,,,,,,,,,,,,,,,,,,,,,,,,,,,,,,,,,,,,,,,,,,,,,,,,,,,,,,,,,,,,,
,,616f94cd9cd003d37c9db38c,2023-12-14_23h22.31.081,kallum_motion_pilot,2023.2.3,Win32,60.0240096,616f94cd9cd003d37c9db38c,657bb317c8798c6608bceb3f,657bb40d245848c8fef0ab5f,0.057,0.057,0,37,37,89,1,fiveseven,,,,,,,,,,,,,,,,,,,,,,,,,,,,,,,,,,,,,,,,,,,,,,,,,,,,,,,,,,,,,,,,,,,,,,,,,,,,,,,,,,,,,,,,,,,,,,,,,,,,,,,,,,,,,,,,,,,,,,,,,,,,,,,,,,,,,,,
,,616f94cd9cd003d37c9db38c,2023-12-14_23h22.31.081,kallum_motion_pilot,2023.2.3,Win32,60.0240096,616f94cd9cd003d37c9db38c,657bb317c8798c6608bceb3f,657bb40d245848c8fef0ab5f,0.057,0.057,0,38,38,18,1,twoone,,,,,,,,,,,,,,,,,,,,,,,,,,,,,,,,,,,,,,,,,,,,,,,,,,,,,,,,,,,,,,,,,,,,,,,,,,,,,,,,,,,,,,,,,,,,,,,,,,,,,,,,,,,,,,,,,,,,,,,,,,,,,,,,,,,,,,,
,,616f94cd9cd003d37c9db38c,2023-12-14_23h22.31.081,kallum_motion_pilot,2023.2.3,Win32,60.0240096,616f94cd9cd003d37c9db38c,657bb317c8798c6608bceb3f,657bb40d245848c8fef0ab5f,0.057,0.057,0,39,39,74,1,twoone,,,,,,,,,,,,,,,,,,,,,,,,,,,,,,,,,,,,,,,,,,,,,,,,,,,,,,,,,,,,,,,,,,,,,,,,,,,,,,,,,,,,,,,,,,,,,,,,,,,,,,,,,,,,,,,,,,,,,,,,,,,,,,,,,,,,,,,
,,616f94cd9cd003d37c9db38c,2023-12-14_23h22.31.081,kallum_motion_pilot,2023.2.3,Win32,60.0240096,616f94cd9cd003d37c9db38c,657bb317c8798c6608bceb3f,657bb40d245848c8fef0ab5f,0.058,0.058,0,40,40,81,1,fiveseven,,,,,,,,,,,,,,,,,,,,,,,,,,,,,,,,,,,,,,,,,,,,,,,,,,,,,,,,,,,,,,,,,,,,,,,,,,,,,,,,,,,,,,,,,,,,,,,,,,,,,,,,,,,,,,,,,,,,,,,,,,,,,,,,,,,,,,,
,,616f94cd9cd003d37c9db38c,2023-12-14_23h22.31.081,kallum_motion_pilot,2023.2.3,Win32,60.0240096,616f94cd9cd003d37c9db38c,657bb317c8798c6608bceb3f,657bb40d245848c8fef0ab5f,0.058,0.058,0,41,41,137,1,fiveseven,,,,,,,,,,,,,,,,,,,,,,,,,,,,,,,,,,,,,,,,,,,,,,,,,,,,,,,,,,,,,,,,,,,,,,,,,,,,,,,,,,,,,,,,,,,,,,,,,,,,,,,,,,,,,,,,,,,,,,,,,,,,,,,,,,,,,,,
,,616f94cd9cd003d37c9db38c,2023-12-14_23h22.31.081,kallum_motion_pilot,2023.2.3,Win32,60.0240096,616f94cd9cd003d37c9db38c,657bb317c8798c6608bceb3f,657bb40d245848c8fef0ab5f,0.058,0.058,0,42,42,103,1,eightseven,,,,,,,,,,,,,,,,,,,,,,,,,,,,,,,,,,,,,,,,,,,,,,,,,,,,,,,,,,,,,,,,,,,,,,,,,,,,,,,,,,,,,,,,,,,,,,,,,,,,,,,,,,,,,,,,,,,,,,,,,,,,,,,,,,,,,,,
,,616f94cd9cd003d37c9db38c,2023-12-14_23h22.31.081,kallum_motion_pilot,2023.2.3,Win32,60.0240096,616f94cd9cd003d37c9db38c,657bb317c8798c6608bceb3f,657bb40d245848c8fef0ab5f,0.059,0.059,0,43,43,154,1,sixfive,,,,,,,,,,,,,,,,,,,,,,,,,,,,,,,,,,,,,,,,,,,,,,,,,,,,,,,,,,,,,,,,,,,,,,,,,,,,,,,,,,,,,,,,,,,,,,,,,,,,,,,,,,,,,,,,,,,,,,,,,,,,,,,,,,,,,,,
,,616f94cd9cd003d37c9db38c,2023-12-14_23h22.31.081,kallum_motion_pilot,2023.2.3,Win32,60.0240096,616f94cd9cd003d37c9db38c,657bb317c8798c6608bceb3f,657bb40d245848c8fef0ab5f,0.059,0.059,0,44,44,159,1,eightseven,,,,,,,,,,,,,,,,,,,,,,,,,,,,,,,,,,,,,,,,,,,,,,,,,,,,,,,,,,,,,,,,,,,,,,,,,,,,,,,,,,,,,,,,,,,,,,,,,,,,,,,,,,,,,,,,,,,,,,,,,,,,,,,,,,,,,,,
,,616f94cd9cd003d37c9db38c,2023-12-14_23h22.31.081,kallum_motion_pilot,2023.2.3,Win32,60.0240096,616f94cd9cd003d37c9db38c,657bb317c8798c6608bceb3f,657bb40d245848c8fef0ab5f,0.06,0.06,0,45,45,42,1,twoone,,,,,,,,,,,,,,,,,,,,,,,,,,,,,,,,,,,,,,,,,,,,,,,,,,,,,,,,,,,,,,,,,,,,,,,,,,,,,,,,,,,,,,,,,,,,,,,,,,,,,,,,,,,,,,,,,,,,,,,,,,,,,,,,,,,,,,,
,,616f94cd9cd003d37c9db38c,2023-12-14_23h22.31.081,kallum_motion_pilot,2023.2.3,Win32,60.0240096,616f94cd9cd003d37c9db38c,657bb317c8798c6608bceb3f,657bb40d245848c8fef0ab5f,0.06,0.06,0,46,46,32,1,onetwo,,,,,,,,,,,,,,,,,,,,,,,,,,,,,,,,,,,,,,,,,,,,,,,,,,,,,,,,,,,,,,,,,,,,,,,,,,,,,,,,,,,,,,,,,,,,,,,,,,,,,,,,,,,,,,,,,,,,,,,,,,,,,,,,,,,,,,,
,,616f94cd9cd003d37c9db38c,2023-12-14_23h22.31.081,kallum_motion_pilot,2023.2.3,Win32,60.0240096,616f94cd9cd003d37c9db38c,657bb317c8798c6608bceb3f,657bb40d245848c8fef0ab5f,0.06,0.06,0,47,47,124,1,sevenfive,,,,,,,,,,,,,,,,,,,,,,,,,,,,,,,,,,,,,,,,,,,,,,,,,,,,,,,,,,,,,,,,,,,,,,,,,,,,,,,,,,,,,,,,,,,,,,,,,,,,,,,,,,,,,,,,,,,,,,,,,,,,,,,,,,,,,,,
,,616f94cd9cd003d37c9db38c,2023-12-14_23h22.31.081,kallum_motion_pilot,2023.2.3,Win32,60.0240096,616f94cd9cd003d37c9db38c,657bb317c8798c6608bceb3f,657bb40d245848c8fef0ab5f,0.061,0.061,0,48,48,72,1,onetwo,,,,,,,,,,,,,,,,,,,,,,,,,,,,,,,,,,,,,,,,,,,,,,,,,,,,,,,,,,,,,,,,,,,,,,,,,,,,,,,,,,,,,,,,,,,,,,,,,,,,,,,,,,,,,,,,,,,,,,,,,,,,,,,,,,,,,,,
,,616f94cd9cd003d37c9db38c,2023-12-14_23h22.31.081,kallum_motion_pilot,2023.2.3,Win32,60.0240096,616f94cd9cd003d37c9db38c,657bb317c8798c6608bceb3f,657bb40d245848c8fef0ab5f,0.061,0.061,0,49,49,44,1,threeone,,,,,,,,,,,,,,,,,,,,,,,,,,,,,,,,,,,,,,,,,,,,,,,,,,,,,,,,,,,,,,,,,,,,,,,,,,,,,,,,,,,,,,,,,,,,,,,,,,,,,,,,,,,,,,,,,,,,,,,,,,,,,,,,,,,,,,,
,,616f94cd9cd003d37c9db38c,2023-12-14_23h22.31.081,kallum_motion_pilot,2023.2.3,Win32,60.0240096,616f94cd9cd003d37c9db38c,657bb317c8798c6608bceb3f,657bb40d245848c8fef0ab5f,0.061,0.061,0,50,50,39,1,fourthree,,,,,,,,,,,,,,,,,,,,,,,,,,,,,,,,,,,,,,,,,,,,,,,,,,,,,,,,,,,,,,,,,,,,,,,,,,,,,,,,,,,,,,,,,,,,,,,,,,,,,,,,,,,,,,,,,,,,,,,,,,,,,,,,,,,,,,,
,,616f94cd9cd003d37c9db38c,2023-12-14_23h22.31.081,kallum_motion_pilot,2023.2.3,Win32,60.0240096,616f94cd9cd003d37c9db38c,657bb317c8798c6608bceb3f,657bb40d245848c8fef0ab5f,0.062,0.062,0,51,51,130,1,sixfive,,,,,,,,,,,,,,,,,,,,,,,,,,,,,,,,,,,,,,,,,,,,,,,,,,,,,,,,,,,,,,,,,,,,,,,,,,,,,,,,,,,,,,,,,,,,,,,,,,,,,,,,,,,,,,,,,,,,,,,,,,,,,,,,,,,,,,,
,,616f94cd9cd003d37c9db38c,2023-12-14_23h22.31.081,kallum_motion_pilot,2023.2.3,Win32,60.0240096,616f94cd9cd003d37c9db38c,657bb317c8798c6608bceb3f,657bb40d245848c8fef0ab5f,0.062,0.062,0,52,52,113,1,fiveseven,,,,,,,,,,,,,,,,,,,,,,,,,,,,,,,,,,,,,,,,,,,,,,,,,,,,,,,,,,,,,,,,,,,,,,,,,,,,,,,,,,,,,,,,,,,,,,,,,,,,,,,,,,,,,,,,,,,,,,,,,,,,,,,,,,,,,,,
,,616f94cd9cd003d37c9db38c,2023-12-14_23h22.31.081,kallum_motion_pilot,2023.2.3,Win32,60.0240096,616f94cd9cd003d37c9db38c,657bb317c8798c6608bceb3f,657bb40d245848c8fef0ab5f,0.063,0.063,0,53,53,5,1,threefour,,,,,,,,,,,,,,,,,,,,,,,,,,,,,,,,,,,,,,,,,,,,,,,,,,,,,,,,,,,,,,,,,,,,,,,,,,,,,,,,,,,,,,,,,,,,,,,,,,,,,,,,,,,,,,,,,,,,,,,,,,,,,,,,,,,,,,,
,,616f94cd9cd003d37c9db38c,2023-12-14_23h22.31.081,kallum_motion_pilot,2023.2.3,Win32,60.0240096,616f94cd9cd003d37c9db38c,657bb317c8798c6608bceb3f,657bb40d245848c8fef0ab5f,0.064,0.064,0,54,54,25,1,onethree,,,,,,,,,,,,,,,,,,,,,,,,,,,,,,,,,,,,,,,,,,,,,,,,,,,,,,,,,,,,,,,,,,,,,,,,,,,,,,,,,,,,,,,,,,,,,,,,,,,,,,,,,,,,,,,,,,,,,,,,,,,,,,,,,,,,,,,
,,616f94cd9cd003d37c9db38c,2023-12-14_23h22.31.081,kallum_motion_pilot,2023.2.3,Win32,60.0240096,616f94cd9cd003d37c9db38c,657bb317c8798c6608bceb3f,657bb40d245848c8fef0ab5f,0.066,0.066,0,55,55,66,1,twoone,,,,,,,,,,,,,,,,,,,,,,,,,,,,,,,,,,,,,,,,,,,,,,,,,,,,,,,,,,,,,,,,,,,,,,,,,,,,,,,,,,,,,,,,,,,,,,,,,,,,,,,,,,,,,,,,,,,,,,,,,,,,,,,,,,,,,,,
,,616f94cd9cd003d37c9db38c,2023-12-14_23h22.31.081,kallum_motion_pilot,2023.2.3,Win32,60.0240096,616f94cd9cd003d37c9db38c,657bb317c8798c6608bceb3f,657bb40d245848c8fef0ab5f,0.067,0.067,0,56,56,17,1,onethree,,,,,,,,,,,,,,,,,,,,,,,,,,,,,,,,,,,,,,,,,,,,,,,,,,,,,,,,,,,,,,,,,,,,,,,,,,,,,,,,,,,,,,,,,,,,,,,,,,,,,,,,,,,,,,,,,,,,,,,,,,,,,,,,,,,,,,,
,,616f94cd9cd003d37c9db38c,2023-12-14_23h22.31.081,kallum_motion_pilot,2023.2.3,Win32,60.0240096,616f94cd9cd003d37c9db38c,657bb317c8798c6608bceb3f,657bb40d245848c8fef0ab5f,0.067,0.067,0,57,57,24,1,onetwo,,,,,,,,,,,,,,,,,,,,,,,,,,,,,,,,,,,,,,,,,,,,,,,,,,,,,,,,,,,,,,,,,,,,,,,,,,,,,,,,,,,,,,,,,,,,,,,,,,,,,,,,,,,,,,,,,,,,,,,,,,,,,,,,,,,,,,,
,,616f94cd9cd003d37c9db38c,2023-12-14_23h22.31.081,kallum_motion_pilot,2023.2.3,Win32,60.0240096,616f94cd9cd003d37c9db38c,657bb317c8798c6608bceb3f,657bb40d245848c8fef0ab5f,0.067,0.067,0,58,58,30,1,fourtwo,,,,,,,,,,,,,,,,,,,,,,,,,,,,,,,,,,,,,,,,,,,,,,,,,,,,,,,,,,,,,,,,,,,,,,,,,,,,,,,,,,,,,,,,,,,,,,,,,,,,,,,,,,,,,,,,,,,,,,,,,,,,,,,,,,,,,,,
,,616f94cd9cd003d37c9db38c,2023-12-14_23h22.31.081,kallum_motion_pilot,2023.2.3,Win32,60.0240096,616f94cd9cd003d37c9db38c,657bb317c8798c6608bceb3f,657bb40d245848c8fef0ab5f,0.067,0.067,0,59,59,37,1,threefour,,,,,,,,,,,,,,,,,,,,,,,,,,,,,,,,,,,,,,,,,,,,,,,,,,,,,,,,,,,,,,,,,,,,,,,,,,,,,,,,,,,,,,,,,,,,,,,,,,,,,,,,,,,,,,,,,,,,,,,,,,,,,,,,,,,,,,,
,,616f94cd9cd003d37c9db38c,2023-12-14_23h22.31.081,kallum_motion_pilot,2023.2.3,Win32,60.0240096,616f94cd9cd003d37c9db38c,657bb317c8798c6608bceb3f,657bb40d245848c8fef0ab5f,0.068,0.068,0,60,60,52,1,threeone,,,,,,,,,,,,,,,,,,,,,,,,,,,,,,,,,,,,,,,,,,,,,,,,,,,,,,,,,,,,,,,,,,,,,,,,,,,,,,,,,,,,,,,,,,,,,,,,,,,,,,,,,,,,,,,,,,,,,,,,,,,,,,,,,,,,,,,
,,616f94cd9cd003d37c9db38c,2023-12-14_23h22.31.081,kallum_motion_pilot,2023.2.3,Win32,60.0240096,616f94cd9cd003d37c9db38c,657bb317c8798c6608bceb3f,657bb40d245848c8fef0ab5f,0.068,0.068,0,61,61,28,1,threeone,,,,,,,,,,,,,,,,,,,,,,,,,,,,,,,,,,,,,,,,,,,,,,,,,,,,,,,,,,,,,,,,,,,,,,,,,,,,,,,,,,,,,,,,,,,,,,,,,,,,,,,,,,,,,,,,,,,,,,,,,,,,,,,,,,,,,,,
,,616f94cd9cd003d37c9db38c,2023-12-14_23h22.31.081,kallum_motion_pilot,2023.2.3,Win32,60.0240096,616f94cd9cd003d37c9db38c,657bb317c8798c6608bceb3f,657bb40d245848c8fef0ab5f,0.068,0.068,0,62,62,95,1,eightseven,,,,,,,,,,,,,,,,,,,,,,,,,,,,,,,,,,,,,,,,,,,,,,,,,,,,,,,,,,,,,,,,,,,,,,,,,,,,,,,,,,,,,,,,,,,,,,,,,,,,,,,,,,,,,,,,,,,,,,,,,,,,,,,,,,,,,,,
,,616f94cd9cd003d37c9db38c,2023-12-14_23h22.31.081,kallum_motion_pilot,2023.2.3,Win32,60.0240096,616f94cd9cd003d37c9db38c,657bb317c8798c6608bceb3f,657bb40d245848c8fef0ab5f,0.068,0.068,0,63,63,64,1,onetwo,,,,,,,,,,,,,,,,,,,,,,,,,,,,,,,,,,,,,,,,,,,,,,,,,,,,,,,,,,,,,,,,,,,,,,,,,,,,,,,,,,,,,,,,,,,,,,,,,,,,,,,,,,,,,,,,,,,,,,,,,,,,,,,,,,,,,,,
,,616f94cd9cd003d37c9db38c,2023-12-14_23h22.31.081,kallum_motion_pilot,2023.2.3,Win32,60.0240096,616f94cd9cd003d37c9db38c,657bb317c8798c6608bceb3f,657bb40d245848c8fef0ab5f,0.068,0.068,0,64,64,136,1,fivesix,,,,,,,,,,,,,,,,,,,,,,,,,,,,,,,,,,,,,,,,,,,,,,,,,,,,,,,,,,,,,,,,,,,,,,,,,,,,,,,,,,,,,,,,,,,,,,,,,,,,,,,,,,,,,,,,,,,,,,,,,,,,,,,,,,,,,,,
,,616f94cd9cd003d37c9db38c,2023-12-14_23h22.31.081,kallum_motion_pilot,2023.2.3,Win32,60.0240096,616f94cd9cd003d37c9db38c,657bb317c8798c6608bceb3f,657bb40d245848c8fef0ab5f,0.068,0.068,0,65,65,109,1,seveneight,,,,,,,,,,,,,,,,,,,,,,,,,,,,,,,,,,,,,,,,,,,,,,,,,,,,,,,,,,,,,,,,,,,,,,,,,,,,,,,,,,,,,,,,,,,,,,,,,,,,,,,,,,,,,,,,,,,,,,,,,,,,,,,,,,,,,,,
,,616f94cd9cd003d37c9db38c,2023-12-14_23h22.31.081,kallum_motion_pilot,2023.2.3,Win32,60.0240096,616f94cd9cd003d37c9db38c,657bb317c8798c6608bceb3f,657bb40d245848c8fef0ab5f,0.068,0.068,0,66,66,152,1,fivesix,,,,,,,,,,,,,,,,,,,,,,,,,,,,,,,,,,,,,,,,,,,,,,,,,,,,,,,,,,,,,,,,,,,,,,,,,,,,,,,,,,,,,,,,,,,,,,,,,,,,,,,,,,,,,,,,,,,,,,,,,,,,,,,,,,,,,,,
,,616f94cd9cd003d37c9db38c,2023-12-14_23h22.31.081,kallum_motion_pilot,2023.2.3,Win32,60.0240096,616f94cd9cd003d37c9db38c,657bb317c8798c6608bceb3f,657bb40d245848c8fef0ab5f,0.068,0.068,0,67,67,134,1,eightsix,,,,,,,,,,,,,,,,,,,,,,,,,,,,,,,,,,,,,,,,,,,,,,,,,,,,,,,,,,,,,,,,,,,,,,,,,,,,,,,,,,,,,,,,,,,,,,,,,,,,,,,,,,,,,,,,,,,,,,,,,,,,,,,,,,,,,,,
,,616f94cd9cd003d37c9db38c,2023-12-14_23h22.31.081,kallum_motion_pilot,2023.2.3,Win32,60.0240096,616f94cd9cd003d37c9db38c,657bb317c8798c6608bceb3f,657bb40d245848c8fef0ab5f,0.068,0.068,0,68,68,75,1,twofour,,,,,,,,,,,,,,,,,,,,,,,,,,,,,,,,,,,,,,,,,,,,,,,,,,,,,,,,,,,,,,,,,,,,,,,,,,,,,,,,,,,,,,,,,,,,,,,,,,,,,,,,,,,,,,,,,,,,,,,,,,,,,,,,,,,,,,,
,,616f94cd9cd003d37c9db38c,2023-12-14_23h22.31.081,kallum_motion_pilot,2023.2.3,Win32,60.0240096,616f94cd9cd003d37c9db38c,657bb317c8798c6608bceb3f,657bb40d245848c8fef0ab5f,0.068,0.068,0,69,69,56,1,onetwo,,,,,,,,,,,,,,,,,,,,,,,,,,,,,,,,,,,,,,,,,,,,,,,,,,,,,,,,,,,,,,,,,,,,,,,,,,,,,,,,,,,,,,,,,,,,,,,,,,,,,,,,,,,,,,,,,,,,,,,,,,,,,,,,,,,,,,,
,,616f94cd9cd003d37c9db38c,2023-12-14_23h22.31.081,kallum_motion_pilot,2023.2.3,Win32,60.0240096,616f94cd9cd003d37c9db38c,657bb317c8798c6608bceb3f,657bb40d245848c8fef0ab5f,0.069,0.069,0,70,70,97,1,fiveseven,,,,,,,,,,,,,,,,,,,,,,,,,,,,,,,,,,,,,,,,,,,,,,,,,,,,,,,,,,,,,,,,,,,,,,,,,,,,,,,,,,,,,,,,,,,,,,,,,,,,,,,,,,,,,,,,,,,,,,,,,,,,,,,,,,,,,,,
,,616f94cd9cd003d37c9db38c,2023-12-14_23h22.31.081,kallum_motion_pilot,2023.2.3,Win32,60.0240096,616f94cd9cd003d37c9db38c,657bb317c8798c6608bceb3f,657bb40d245848c8fef0ab5f,0.069,0.069,0,71,71,94,1,eightsix,,,,,,,,,,,,,,,,,,,,,,,,,,,,,,,,,,,,,,,,,,,,,,,,,,,,,,,,,,,,,,,,,,,,,,,,,,,,,,,,,,,,,,,,,,,,,,,,,,,,,,,,,,,,,,,,,,,,,,,,,,,,,,,,,,,,,,,
,,616f94cd9cd003d37c9db38c,2023-12-14_23h22.31.081,kallum_motion_pilot,2023.2.3,Win32,60.0240096,616f94cd9cd003d37c9db38c,657bb317c8798c6608bceb3f,657bb40d245848c8fef0ab5f,0.069,0.069,0,72,72,135,1,eightseven,,,,,,,,,,,,,,,,,,,,,,,,,,,,,,,,,,,,,,,,,,,,,,,,,,,,,,,,,,,,,,,,,,,,,,,,,,,,,,,,,,,,,,,,,,,,,,,,,,,,,,,,,,,,,,,,,,,,,,,,,,,,,,,,,,,,,,,
,,616f94cd9cd003d37c9db38c,2023-12-14_23h22.31.081,kallum_motion_pilot,2023.2.3,Win32,60.0240096,616f94cd9cd003d37c9db38c,657bb317c8798c6608bceb3f,657bb40d245848c8fef0ab5f,0.069,0.069,0,73,73,16,1,onetwo,,,,,,,,,,,,,,,,,,,,,,,,,,,,,,,,,,,,,,,,,,,,,,,,,,,,,,,,,,,,,,,,,,,,,,,,,,,,,,,,,,,,,,,,,,,,,,,,,,,,,,,,,,,,,,,,,,,,,,,,,,,,,,,,,,,,,,,
,,616f94cd9cd003d37c9db38c,2023-12-14_23h22.31.081,kallum_motion_pilot,2023.2.3,Win32,60.0240096,616f94cd9cd003d37c9db38c,657bb317c8798c6608bceb3f,657bb40d245848c8fef0ab5f,0.069,0.069,0,74,74,145,1,fiveseven,,,,,,,,,,,,,,,,,,,,,,,,,,,,,,,,,,,,,,,,,,,,,,,,,,,,,,,,,,,,,,,,,,,,,,,,,,,,,,,,,,,,,,,,,,,,,,,,,,,,,,,,,,,,,,,,,,,,,,,,,,,,,,,,,,,,,,,
,,616f94cd9cd003d37c9db38c,2023-12-14_23h22.31.081,kallum_motion_pilot,2023.2.3,Win32,60.0240096,616f94cd9cd003d37c9db38c,657bb317c8798c6608bceb3f,657bb40d245848c8fef0ab5f,0.069,0.069,0,75,75,73,1,onethree,,,,,,,,,,,,,,,,,,,,,,,,,,,,,,,,,,,,,,,,,,,,,,,,,,,,,,,,,,,,,,,,,,,,,,,,,,,,,,,,,,,,,,,,,,,,,,,,,,,,,,,,,,,,,,,,,,,,,,,,,,,,,,,,,,,,,,,
,,616f94cd9cd003d37c9db38c,2023-12-14_23h22.31.081,kallum_motion_pilot,2023.2.3,Win32,60.0240096,616f94cd9cd003d37c9db38c,657bb317c8798c6608bceb3f,657bb40d245848c8fef0ab5f,0.069,0.069,0,76,76,50,1,twoone,,,,,,,,,,,,,,,,,,,,,,,,,,,,,,,,,,,,,,,,,,,,,,,,,,,,,,,,,,,,,,,,,,,,,,,,,,,,,,,,,,,,,,,,,,,,,,,,,,,,,,,,,,,,,,,,,,,,,,,,,,,,,,,,,,,,,,,
,,616f94cd9cd003d37c9db38c,2023-12-14_23h22.31.081,kallum_motion_pilot,2023.2.3,Win32,60.0240096,616f94cd9cd003d37c9db38c,657bb317c8798c6608bceb3f,657bb40d245848c8fef0ab5f,0.069,0.069,0,77,77,80,1,fivesix,,,,,,,,,,,,,,,,,,,,,,,,,,,,,,,,,,,,,,,,,,,,,,,,,,,,,,,,,,,,,,,,,,,,,,,,,,,,,,,,,,,,,,,,,,,,,,,,,,,,,,,,,,,,,,,,,,,,,,,,,,,,,,,,,,,,,,,
,,616f94cd9cd003d37c9db38c,2023-12-14_23h22.31.081,kallum_motion_pilot,2023.2.3,Win32,60.0240096,616f94cd9cd003d37c9db38c,657bb317c8798c6608bceb3f,657bb40d245848c8fef0ab5f,0.069,0.069,0,78,78,158,1,eightsix,,,,,,,,,,,,,,,,,,,,,,,,,,,,,,,,,,,,,,,,,,,,,,,,,,,,,,,,,,,,,,,,,,,,,,,,,,,,,,,,,,,,,,,,,,,,,,,,,,,,,,,,,,,,,,,,,,,,,,,,,,,,,,,,,,,,,,,
,,616f94cd9cd003d37c9db38c,2023-12-14_23h22.31.081,kallum_motion_pilot,2023.2.3,Win32,60.0240096,616f94cd9cd003d37c9db38c,657bb317c8798c6608bceb3f,657bb40d245848c8fef0ab5f,0.07,0.07,0,79,79,21,1,threefour,,,,,,,,,,,,,,,,,,,,,,,,,,,,,,,,,,,,,,,,,,,,,,,,,,,,,,,,,,,,,,,,,,,,,,,,,,,,,,,,,,,,,,,,,,,,,,,,,,,,,,,,,,,,,,,,,,,,,,,,,,,,,,,,,,,,,,,
,,616f94cd9cd003d37c9db38c,2023-12-14_23h22.31.081,kallum_motion_pilot,2023.2.3,Win32,60.0240096,616f94cd9cd003d37c9db38c,657bb317c8798c6608bceb3f,657bb40d245848c8fef0ab5f,0.07,0.07,0,80,80,93,1,seveneight,,,,,,,,,,,,,,,,,,,,,,,,,,,,,,,,,,,,,,,,,,,,,,,,,,,,,,,,,,,,,,,,,,,,,,,,,,,,,,,,,,,,,,,,,,,,,,,,,,,,,,,,,,,,,,,,,,,,,,,,,,,,,,,,,,,,,,,
,,616f94cd9cd003d37c9db38c,2023-12-14_23h22.31.081,kallum_motion_pilot,2023.2.3,Win32,60.0240096,616f94cd9cd003d37c9db38c,657bb317c8798c6608bceb3f,657bb40d245848c8fef0ab5f,0.071,0.071,0,81,81,129,1,fiveseven,,,,,,,,,,,,,,,,,,,,,,,,,,,,,,,,,,,,,,,,,,,,,,,,,,,,,,,,,,,,,,,,,,,,,,,,,,,,,,,,,,,,,,,,,,,,,,,,,,,,,,,,,,,,,,,,,,,,,,,,,,,,,,,,,,,,,,,
,,616f94cd9cd003d37c9db38c,2023-12-14_23h22.31.081,kallum_motion_pilot,2023.2.3,Win32,60.0240096,616f94cd9cd003d37c9db38c,657bb317c8798c6608bceb3f,657bb40d245848c8fef0ab5f,0.071,0.071,0,82,82,55,1,fourthree,,,,,,,,,,,,,,,,,,,,,,,,,,,,,,,,,,,,,,,,,,,,,,,,,,,,,,,,,,,,,,,,,,,,,,,,,,,,,,,,,,,,,,,,,,,,,,,,,,,,,,,,,,,,,,,,,,,,,,,,,,,,,,,,,,,,,,,
,,616f94cd9cd003d37c9db38c,2023-12-14_23h22.31.081,kallum_motion_pilot,2023.2.3,Win32,60.0240096,616f94cd9cd003d37c9db38c,657bb317c8798c6608bceb3f,657bb40d245848c8fef0ab5f,0.071,0.071,0,83,83,2,1,twoone,,,,,,,,,,,,,,,,,,,,,,,,,,,,,,,,,,,,,,,,,,,,,,,,,,,,,,,,,,,,,,,,,,,,,,,,,,,,,,,,,,,,,,,,,,,,,,,,,,,,,,,,,,,,,,,,,,,,,,,,,,,,,,,,,,,,,,,
,,616f94cd9cd003d37c9db38c,2023-12-14_23h22.31.081,kallum_motion_pilot,2023.2.3,Win32,60.0240096,616f94cd9cd003d37c9db38c,657bb317c8798c6608bceb3f,657bb40d245848c8fef0ab5f,0.071,0.071,0,84,84,96,1,fivesix,,,,,,,,,,,,,,,,,,,,,,,,,,,,,,,,,,,,,,,,,,,,,,,,,,,,,,,,,,,,,,,,,,,,,,,,,,,,,,,,,,,,,,,,,,,,,,,,,,,,,,,,,,,,,,,,,,,,,,,,,,,,,,,,,,,,,,,
,,616f94cd9cd003d37c9db38c,2023-12-14_23h22.31.081,kallum_motion_pilot,2023.2.3,Win32,60.0240096,616f94cd9cd003d37c9db38c,657bb317c8798c6608bceb3f,657bb40d245848c8fef0ab5f,0.071,0.071,0,85,85,36,1,threeone,,,,,,,,,,,,,,,,,,,,,,,,,,,,,,,,,,,,,,,,,,,,,,,,,,,,,,,,,,,,,,,,,,,,,,,,,,,,,,,,,,,,,,,,,,,,,,,,,,,,,,,,,,,,,,,,,,,,,,,,,,,,,,,,,,,,,,,
,,616f94cd9cd003d37c9db38c,2023-12-14_23h22.31.081,kallum_motion_pilot,2023.2.3,Win32,60.0240096,616f94cd9cd003d37c9db38c,657bb317c8798c6608bceb3f,657bb40d245848c8fef0ab5f,0.071,0.071,0,86,86,82,1,sixfive,,,,,,,,,,,,,,,,,,,,,,,,,,,,,,,,,,,,,,,,,,,,,,,,,,,,,,,,,,,,,,,,,,,,,,,,,,,,,,,,,,,,,,,,,,,,,,,,,,,,,,,,,,,,,,,,,,,,,,,,,,,,,,,,,,,,,,,
,,616f94cd9cd003d37c9db38c,2023-12-14_23h22.31.081,kallum_motion_pilot,2023.2.3,Win32,60.0240096,616f94cd9cd003d37c9db38c,657bb317c8798c6608bceb3f,657bb40d245848c8fef0ab5f,0.071,0.071,0,87,87,147,1,sixeight,,,,,,,,,,,,,,,,,,,,,,,,,,,,,,,,,,,,,,,,,,,,,,,,,,,,,,,,,,,,,,,,,,,,,,,,,,,,,,,,,,,,,,,,,,,,,,,,,,,,,,,,,,,,,,,,,,,,,,,,,,,,,,,,,,,,,,,
,,616f94cd9cd003d37c9db38c,2023-12-14_23h22.31.081,kallum_motion_pilot,2023.2.3,Win32,60.0240096,616f94cd9cd003d37c9db38c,657bb317c8798c6608bceb3f,657bb40d245848c8fef0ab5f,0.071,0.071,0,88,88,46,1,fourtwo,,,,,,,,,,,,,,,,,,,,,,,,,,,,,,,,,,,,,,,,,,,,,,,,,,,,,,,,,,,,,,,,,,,,,,,,,,,,,,,,,,,,,,,,,,,,,,,,,,,,,,,,,,,,,,,,,,,,,,,,,,,,,,,,,,,,,,,
,,616f94cd9cd003d37c9db38c,2023-12-14_23h22.31.081,kallum_motion_pilot,2023.2.3,Win32,60.0240096,616f94cd9cd003d37c9db38c,657bb317c8798c6608bceb3f,657bb40d245848c8fef0ab5f,0.071,0.072,0,89,89,114,1,sixfive,,,,,,,,,,,,,,,,,,,,,,,,,,,,,,,,,,,,,,,,,,,,,,,,,,,,,,,,,,,,,,,,,,,,,,,,,,,,,,,,,,,,,,,,,,,,,,,,,,,,,,,,,,,,,,,,,,,,,,,,,,,,,,,,,,,,,,,
,,616f94cd9cd003d37c9db38c,2023-12-14_23h22.31.081,kallum_motion_pilot,2023.2.3,Win32,60.0240096,616f94cd9cd003d37c9db38c,657bb317c8798c6608bceb3f,657bb40d245848c8fef0ab5f,0.072,0.072,0,90,90,13,1,threefour,,,,,,,,,,,,,,,,,,,,,,,,,,,,,,,,,,,,,,,,,,,,,,,,,,,,,,,,,,,,,,,,,,,,,,,,,,,,,,,,,,,,,,,,,,,,,,,,,,,,,,,,,,,,,,,,,,,,,,,,,,,,,,,,,,,,,,,
,,616f94cd9cd003d37c9db38c,2023-12-14_23h22.31.081,kallum_motion_pilot,2023.2.3,Win32,60.0240096,616f94cd9cd003d37c9db38c,657bb317c8798c6608bceb3f,657bb40d245848c8fef0ab5f,0.072,0.072,0,91,91,119,1,eightseven,,,,,,,,,,,,,,,,,,,,,,,,,,,,,,,,,,,,,,,,,,,,,,,,,,,,,,,,,,,,,,,,,,,,,,,,,,,,,,,,,,,,,,,,,,,,,,,,,,,,,,,,,,,,,,,,,,,,,,,,,,,,,,,,,,,,,,,
,,616f94cd9cd003d37c9db38c,2023-12-14_23h22.31.081,kallum_motion_pilot,2023.2.3,Win32,60.0240096,616f94cd9cd003d37c9db38c,657bb317c8798c6608bceb3f,657bb40d245848c8fef0ab5f,0.072,0.072,0,92,92,115,1,sixeight,,,,,,,,,,,,,,,,,,,,,,,,,,,,,,,,,,,,,,,,,,,,,,,,,,,,,,,,,,,,,,,,,,,,,,,,,,,,,,,,,,,,,,,,,,,,,,,,,,,,,,,,,,,,,,,,,,,,,,,,,,,,,,,,,,,,,,,
,,616f94cd9cd003d37c9db38c,2023-12-14_23h22.31.081,kallum_motion_pilot,2023.2.3,Win32,60.0240096,616f94cd9cd003d37c9db38c,657bb317c8798c6608bceb3f,657bb40d245848c8fef0ab5f,0.072,0.072,0,93,93,112,1,fivesix,,,,,,,,,,,,,,,,,,,,,,,,,,,,,,,,,,,,,,,,,,,,,,,,,,,,,,,,,,,,,,,,,,,,,,,,,,,,,,,,,,,,,,,,,,,,,,,,,,,,,,,,,,,,,,,,,,,,,,,,,,,,,,,,,,,,,,,
,,616f94cd9cd003d37c9db38c,2023-12-14_23h22.31.081,kallum_motion_pilot,2023.2.3,Win32,60.0240096,616f94cd9cd003d37c9db38c,657bb317c8798c6608bceb3f,657bb40d245848c8fef0ab5f,0.072,0.072,0,94,94,120,1,fivesix,,,,,,,,,,,,,,,,,,,,,,,,,,,,,,,,,,,,,,,,,,,,,,,,,,,,,,,,,,,,,,,,,,,,,,,,,,,,,,,,,,,,,,,,,,,,,,,,,,,,,,,,,,,,,,,,,,,,,,,,,,,,,,,,,,,,,,,
,,616f94cd9cd003d37c9db38c,2023-12-14_23h22.31.081,kallum_motion_pilot,2023.2.3,Win32,60.0240096,616f94cd9cd003d37c9db38c,657bb317c8798c6608bceb3f,657bb40d245848c8fef0ab5f,0.072,0.072,0,95,95,78,1,fourtwo,,,,,,,,,,,,,,,,,,,,,,,,,,,,,,,,,,,,,,,,,,,,,,,,,,,,,,,,,,,,,,,,,,,,,,,,,,,,,,,,,,,,,,,,,,,,,,,,,,,,,,,,,,,,,,,,,,,,,,,,,,,,,,,,,,,,,,,
,,616f94cd9cd003d37c9db38c,2023-12-14_23h22.31.081,kallum_motion_pilot,2023.2.3,Win32,60.0240096,616f94cd9cd003d37c9db38c,657bb317c8798c6608bceb3f,657bb40d245848c8fef0ab5f,0.072,0.072,0,96,96,23,1,fourthree,,,,,,,,,,,,,,,,,,,,,,,,,,,,,,,,,,,,,,,,,,,,,,,,,,,,,,,,,,,,,,,,,,,,,,,,,,,,,,,,,,,,,,,,,,,,,,,,,,,,,,,,,,,,,,,,,,,,,,,,,,,,,,,,,,,,,,,
,,616f94cd9cd003d37c9db38c,2023-12-14_23h22.31.081,kallum_motion_pilot,2023.2.3,Win32,60.0240096,616f94cd9cd003d37c9db38c,657bb317c8798c6608bceb3f,657bb40d245848c8fef0ab5f,0.072,0.072,0,97,97,138,1,sixfive,,,,,,,,,,,,,,,,,,,,,,,,,,,,,,,,,,,,,,,,,,,,,,,,,,,,,,,,,,,,,,,,,,,,,,,,,,,,,,,,,,,,,,,,,,,,,,,,,,,,,,,,,,,,,,,,,,,,,,,,,,,,,,,,,,,,,,,
,,616f94cd9cd003d37c9db38c,2023-12-14_23h22.31.081,kallum_motion_pilot,2023.2.3,Win32,60.0240096,616f94cd9cd003d37c9db38c,657bb317c8798c6608bceb3f,657bb40d245848c8fef0ab5f,0.073,0.073,0,98,98,60,1,threeone,,,,,,,,,,,,,,,,,,,,,,,,,,,,,,,,,,,,,,,,,,,,,,,,,,,,,,,,,,,,,,,,,,,,,,,,,,,,,,,,,,,,,,,,,,,,,,,,,,,,,,,,,,,,,,,,,,,,,,,,,,,,,,,,,,,,,,,
,,616f94cd9cd003d37c9db38c,2023-12-14_23h22.31.081,kallum_motion_pilot,2023.2.3,Win32,60.0240096,616f94cd9cd003d37c9db38c,657bb317c8798c6608bceb3f,657bb40d245848c8fef0ab5f,0.073,0.073,0,99,99,62,1,fourtwo,,,,,,,,,,,,,,,,,,,,,,,,,,,,,,,,,,,,,,,,,,,,,,,,,,,,,,,,,,,,,,,,,,,,,,,,,,,,,,,,,,,,,,,,,,,,,,,,,,,,,,,,,,,,,,,,,,,,,,,,,,,,,,,,,,,,,,,
,,616f94cd9cd003d37c9db38c,2023-12-14_23h22.31.081,kallum_motion_pilot,2023.2.3,Win32,60.0240096,616f94cd9cd003d37c9db38c,657bb317c8798c6608bceb3f,657bb40d245848c8fef0ab5f,0.073,0.073,0,100,100,99,1,sixeight,,,,,,,,,,,,,,,,,,,,,,,,,,,,,,,,,,,,,,,,,,,,,,,,,,,,,,,,,,,,,,,,,,,,,,,,,,,,,,,,,,,,,,,,,,,,,,,,,,,,,,,,,,,,,,,,,,,,,,,,,,,,,,,,,,,,,,,
,,616f94cd9cd003d37c9db38c,2023-12-14_23h22.31.081,kallum_motion_pilot,2023.2.3,Win32,60.0240096,616f94cd9cd003d37c9db38c,657bb317c8798c6608bceb3f,657bb40d245848c8fef0ab5f,0.073,0.073,0,101,101,108,1,sevenfive,,,,,,,,,,,,,,,,,,,,,,,,,,,,,,,,,,,,,,,,,,,,,,,,,,,,,,,,,,,,,,,,,,,,,,,,,,,,,,,,,,,,,,,,,,,,,,,,,,,,,,,,,,,,,,,,,,,,,,,,,,,,,,,,,,,,,,,
,,616f94cd9cd003d37c9db38c,2023-12-14_23h22.31.081,kallum_motion_pilot,2023.2.3,Win32,60.0240096,616f94cd9cd003d37c9db38c,657bb317c8798c6608bceb3f,657bb40d245848c8fef0ab5f,0.073,0.073,0,102,102,22,1,fourtwo,,,,,,,,,,,,,,,,,,,,,,,,,,,,,,,,,,,,,,,,,,,,,,,,,,,,,,,,,,,,,,,,,,,,,,,,,,,,,,,,,,,,,,,,,,,,,,,,,,,,,,,,,,,,,,,,,,,,,,,,,,,,,,,,,,,,,,,
,,616f94cd9cd003d37c9db38c,2023-12-14_23h22.31.081,kallum_motion_pilot,2023.2.3,Win32,60.0240096,616f94cd9cd003d37c9db38c,657bb317c8798c6608bceb3f,657bb40d245848c8fef0ab5f,0.073,0.073,0,103,103,14,1,fourtwo,,,,,,,,,,,,,,,,,,,,,,,,,,,,,,,,,,,,,,,,,,,,,,,,,,,,,,,,,,,,,,,,,,,,,,,,,,,,,,,,,,,,,,,,,,,,,,,,,,,,,,,,,,,,,,,,,,,,,,,,,,,,,,,,,,,,,,,
,,616f94cd9cd003d37c9db38c,2023-12-14_23h22.31.081,kallum_motion_pilot,2023.2.3,Win32,60.0240096,616f94cd9cd003d37c9db38c,657bb317c8798c6608bceb3f,657bb40d245848c8fef0ab5f,0.074,0.074,0,104,104,20,1,threeone,,,,,,,,,,,,,,,,,,,,,,,,,,,,,,,,,,,,,,,,,,,,,,,,,,,,,,,,,,,,,,,,,,,,,,,,,,,,,,,,,,,,,,,,,,,,,,,,,,,,,,,,,,,,,,,,,,,,,,,,,,,,,,,,,,,,,,,
,,616f94cd9cd003d37c9db38c,2023-12-14_23h22.31.081,kallum_motion_pilot,2023.2.3,Win32,60.0240096,616f94cd9cd003d37c9db38c,657bb317c8798c6608bceb3f,657bb40d245848c8fef0ab5f,0.074,0.074,0,105,105,107,1,sixeight,,,,,,,,,,,,,,,,,,,,,,,,,,,,,,,,,,,,,,,,,,,,,,,,,,,,,,,,,,,,,,,,,,,,,,,,,,,,,,,,,,,,,,,,,,,,,,,,,,,,,,,,,,,,,,,,,,,,,,,,,,,,,,,,,,,,,,,
,,616f94cd9cd003d37c9db38c,2023-12-14_23h22.31.081,kallum_motion_pilot,2023.2.3,Win32,60.0240096,616f94cd9cd003d37c9db38c,657bb317c8798c6608bceb3f,657bb40d245848c8fef0ab5f,0.074,0.074,0,106,106,54,1,fourtwo,,,,,,,,,,,,,,,,,,,,,,,,,,,,,,,,,,,,,,,,,,,,,,,,,,,,,,,,,,,,,,,,,,,,,,,,,,,,,,,,,,,,,,,,,,,,,,,,,,,,,,,,,,,,,,,,,,,,,,,,,,,,,,,,,,,,,,,
,,616f94cd9cd003d37c9db38c,2023-12-14_23h22.31.081,kallum_motion_pilot,2023.2.3,Win32,60.0240096,616f94cd9cd003d37c9db38c,657bb317c8798c6608bceb3f,657bb40d245848c8fef0ab5f,0.074,0.074,0,107,107,146,1,sixfive,,,,,,,,,,,,,,,,,,,,,,,,,,,,,,,,,,,,,,,,,,,,,,,,,,,,,,,,,,,,,,,,,,,,,,,,,,,,,,,,,,,,,,,,,,,,,,,,,,,,,,,,,,,,,,,,,,,,,,,,,,,,,,,,,,,,,,,
,,616f94cd9cd003d37c9db38c,2023-12-14_23h22.31.081,kallum_motion_pilot,2023.2.3,Win32,60.0240096,616f94cd9cd003d37c9db38c,657bb317c8798c6608bceb3f,657bb40d245848c8fef0ab5f,0.075,0.075,0,108,108,126,1,eightsix,,,,,,,,,,,,,,,,,,,,,,,,,,,,,,,,,,,,,,,,,,,,,,,,,,,,,,,,,,,,,,,,,,,,,,,,,,,,,,,,,,,,,,,,,,,,,,,,,,,,,,,,,,,,,,,,,,,,,,,,,,,,,,,,,,,,,,,
,,616f94cd9cd003d37c9db38c,2023-12-14_23h22.31.081,kallum_motion_pilot,2023.2.3,Win32,60.0240096,616f94cd9cd003d37c9db38c,657bb317c8798c6608bceb3f,657bb40d245848c8fef0ab5f,0.075,0.075,0,109,109,35,1,twofour,,,,,,,,,,,,,,,,,,,,,,,,,,,,,,,,,,,,,,,,,,,,,,,,,,,,,,,,,,,,,,,,,,,,,,,,,,,,,,,,,,,,,,,,,,,,,,,,,,,,,,,,,,,,,,,,,,,,,,,,,,,,,,,,,,,,,,,
,,616f94cd9cd003d37c9db38c,2023-12-14_23h22.31.081,kallum_motion_pilot,2023.2.3,Win32,60.0240096,616f94cd9cd003d37c9db38c,657bb317c8798c6608bceb3f,657bb40d245848c8fef0ab5f,0.076,0.076,0,110,110,27,1,twofour,,,,,,,,,,,,,,,,,,,,,,,,,,,,,,,,,,,,,,,,,,,,,,,,,,,,,,,,,,,,,,,,,,,,,,,,,,,,,,,,,,,,,,,,,,,,,,,,,,,,,,,,,,,,,,,,,,,,,,,,,,,,,,,,,,,,,,,
,,616f94cd9cd003d37c9db38c,2023-12-14_23h22.31.081,kallum_motion_pilot,2023.2.3,Win32,60.0240096,616f94cd9cd003d37c9db38c,657bb317c8798c6608bceb3f,657bb40d245848c8fef0ab5f,0.077,0.077,0,111,111,63,1,fourthree,,,,,,,,,,,,,,,,,,,,,,,,,,,,,,,,,,,,,,,,,,,,,,,,,,,,,,,,,,,,,,,,,,,,,,,,,,,,,,,,,,,,,,,,,,,,,,,,,,,,,,,,,,,,,,,,,,,,,,,,,,,,,,,,,,,,,,,
,,616f94cd9cd003d37c9db38c,2023-12-14_23h22.31.081,kallum_motion_pilot,2023.2.3,Win32,60.0240096,616f94cd9cd003d37c9db38c,657bb317c8798c6608bceb3f,657bb40d245848c8fef0ab5f,0.077,0.077,0,112,112,34,1,twoone,,,,,,,,,,,,,,,,,,,,,,,,,,,,,,,,,,,,,,,,,,,,,,,,,,,,,,,,,,,,,,,,,,,,,,,,,,,,,,,,,,,,,,,,,,,,,,,,,,,,,,,,,,,,,,,,,,,,,,,,,,,,,,,,,,,,,,,
,,616f94cd9cd003d37c9db38c,2023-12-14_23h22.31.081,kallum_motion_pilot,2023.2.3,Win32,60.0240096,616f94cd9cd003d37c9db38c,657bb317c8798c6608bceb3f,657bb40d245848c8fef0ab5f,0.077,0.077,0,113,113,8,1,onetwo,,,,,,,,,,,,,,,,,,,,,,,,,,,,,,,,,,,,,,,,,,,,,,,,,,,,,,,,,,,,,,,,,,,,,,,,,,,,,,,,,,,,,,,,,,,,,,,,,,,,,,,,,,,,,,,,,,,,,,,,,,,,,,,,,,,,,,,
,,616f94cd9cd003d37c9db38c,2023-12-14_23h22.31.081,kallum_motion_pilot,2023.2.3,Win32,60.0240096,616f94cd9cd003d37c9db38c,657bb317c8798c6608bceb3f,657bb40d245848c8fef0ab5f,0.077,0.077,0,114,114,139,1,sixeight,,,,,,,,,,,,,,,,,,,,,,,,,,,,,,,,,,,,,,,,,,,,,,,,,,,,,,,,,,,,,,,,,,,,,,,,,,,,,,,,,,,,,,,,,,,,,,,,,,,,,,,,,,,,,,,,,,,,,,,,,,,,,,,,,,,,,,,
,,616f94cd9cd003d37c9db38c,2023-12-14_23h22.31.081,kallum_motion_pilot,2023.2.3,Win32,60.0240096,616f94cd9cd003d37c9db38c,657bb317c8798c6608bceb3f,657bb40d245848c8fef0ab5f,0.077,0.077,0,115,115,106,1,sixfive,,,,,,,,,,,,,,,,,,,,,,,,,,,,,,,,,,,,,,,,,,,,,,,,,,,,,,,,,,,,,,,,,,,,,,,,,,,,,,,,,,,,,,,,,,,,,,,,,,,,,,,,,,,,,,,,,,,,,,,,,,,,,,,,,,,,,,,
,,616f94cd9cd003d37c9db38c,2023-12-14_23h22.31.081,kallum_motion_pilot,2023.2.3,Win32,60.0240096,616f94cd9cd003d37c9db38c,657bb317c8798c6608bceb3f,657bb40d245848c8fef0ab5f,0.078,0.078,0,116,116,116,1,sevenfive,,,,,,,,,,,,,,,,,,,,,,,,,,,,,,,,,,,,,,,,,,,,,,,,,,,,,,,,,,,,,,,,,,,,,,,,,,,,,,,,,,,,,,,,,,,,,,,,,,,,,,,,,,,,,,,,,,,,,,,,,,,,,,,,,,,,,,,
,,616f94cd9cd003d37c9db38c,2023-12-14_23h22.31.081,kallum_motion_pilot,2023.2.3,Win32,60.0240096,616f94cd9cd003d37c9db38c,657bb317c8798c6608bceb3f,657bb40d245848c8fef0ab5f,0.078,0.078,0,117,117,3,1,twofour,,,,,,,,,,,,,,,,,,,,,,,,,,,,,,,,,,,,,,,,,,,,,,,,,,,,,,,,,,,,,,,,,,,,,,,,,,,,,,,,,,,,,,,,,,,,,,,,,,,,,,,,,,,,,,,,,,,,,,,,,,,,,,,,,,,,,,,
,,616f94cd9cd003d37c9db38c,2023-12-14_23h22.31.081,kallum_motion_pilot,2023.2.3,Win32,60.0240096,616f94cd9cd003d37c9db38c,657bb317c8798c6608bceb3f,657bb40d245848c8fef0ab5f,0.078,0.078,0,118,118,40,1,onetwo,,,,,,,,,,,,,,,,,,,,,,,,,,,,,,,,,,,,,,,,,,,,,,,,,,,,,,,,,,,,,,,,,,,,,,,,,,,,,,,,,,,,,,,,,,,,,,,,,,,,,,,,,,,,,,,,,,,,,,,,,,,,,,,,,,,,,,,
,,616f94cd9cd003d37c9db38c,2023-12-14_23h22.31.081,kallum_motion_pilot,2023.2.3,Win32,60.0240096,616f94cd9cd003d37c9db38c,657bb317c8798c6608bceb3f,657bb40d245848c8fef0ab5f,0.078,0.078,0,119,119,0,1,onetwo,,,,,,,,,,,,,,,,,,,,,,,,,,,,,,,,,,,,,,,,,,,,,,,,,,,,,,,,,,,,,,,,,,,,,,,,,,,,,,,,,,,,,,,,,,,,,,,,,,,,,,,,,,,,,,,,,,,,,,,,,,,,,,,,,,,,,,,
,,616f94cd9cd003d37c9db38c,2023-12-14_23h22.31.081,kallum_motion_pilot,2023.2.3,Win32,60.0240096,616f94cd9cd003d37c9db38c,657bb317c8798c6608bceb3f,657bb40d245848c8fef0ab5f,0.078,0.078,0,120,120,58,1,twoone,,,,,,,,,,,,,,,,,,,,,,,,,,,,,,,,,,,,,,,,,,,,,,,,,,,,,,,,,,,,,,,,,,,,,,,,,,,,,,,,,,,,,,,,,,,,,,,,,,,,,,,,,,,,,,,,,,,,,,,,,,,,,,,,,,,,,,,
,,616f94cd9cd003d37c9db38c,2023-12-14_23h22.31.081,kallum_motion_pilot,2023.2.3,Win32,60.0240096,616f94cd9cd003d37c9db38c,657bb317c8798c6608bceb3f,657bb40d245848c8fef0ab5f,0.078,0.078,0,121,121,57,1,onethree,,,,,,,,,,,,,,,,,,,,,,,,,,,,,,,,,,,,,,,,,,,,,,,,,,,,,,,,,,,,,,,,,,,,,,,,,,,,,,,,,,,,,,,,,,,,,,,,,,,,,,,,,,,,,,,,,,,,,,,,,,,,,,,,,,,,,,,
,,616f94cd9cd003d37c9db38c,2023-12-14_23h22.31.081,kallum_motion_pilot,2023.2.3,Win32,60.0240096,616f94cd9cd003d37c9db38c,657bb317c8798c6608bceb3f,657bb40d245848c8fef0ab5f,0.078,0.078,0,122,122,76,1,threeone,,,,,,,,,,,,,,,,,,,,,,,,,,,,,,,,,,,,,,,,,,,,,,,,,,,,,,,,,,,,,,,,,,,,,,,,,,,,,,,,,,,,,,,,,,,,,,,,,,,,,,,,,,,,,,,,,,,,,,,,,,,,,,,,,,,,,,,
,,616f94cd9cd003d37c9db38c,2023-12-14_23h22.31.081,kallum_motion_pilot,2023.2.3,Win32,60.0240096,616f94cd9cd003d37c9db38c,657bb317c8798c6608bceb3f,657bb40d245848c8fef0ab5f,0.078,0.078,0,123,123,49,1,onethree,,,,,,,,,,,,,,,,,,,,,,,,,,,,,,,,,,,,,,,,,,,,,,,,,,,,,,,,,,,,,,,,,,,,,,,,,,,,,,,,,,,,,,,,,,,,,,,,,,,,,,,,,,,,,,,,,,,,,,,,,,,,,,,,,,,,,,,
,,616f94cd9cd003d37c9db38c,2023-12-14_23h22.31.081,kallum_motion_pilot,2023.2.3,Win32,60.0240096,616f94cd9cd003d37c9db38c,657bb317c8798c6608bceb3f,657bb40d245848c8fef0ab5f,0.078,0.078,0,124,124,155,1,sixeight,,,,,,,,,,,,,,,,,,,,,,,,,,,,,,,,,,,,,,,,,,,,,,,,,,,,,,,,,,,,,,,,,,,,,,,,,,,,,,,,,,,,,,,,,,,,,,,,,,,,,,,,,,,,,,,,,,,,,,,,,,,,,,,,,,,,,,,
,,616f94cd9cd003d37c9db38c,2023-12-14_23h22.31.081,kallum_motion_pilot,2023.2.3,Win32,60.0240096,616f94cd9cd003d37c9db38c,657bb317c8798c6608bceb3f,657bb40d245848c8fef0ab5f,0.078,0.078,0,125,125,65,1,onethree,,,,,,,,,,,,,,,,,,,,,,,,,,,,,,,,,,,,,,,,,,,,,,,,,,,,,,,,,,,,,,,,,,,,,,,,,,,,,,,,,,,,,,,,,,,,,,,,,,,,,,,,,,,,,,,,,,,,,,,,,,,,,,,,,,,,,,,
,,616f94cd9cd003d37c9db38c,2023-12-14_23h22.31.081,kallum_motion_pilot,2023.2.3,Win32,60.0240096,616f94cd9cd003d37c9db38c,657bb317c8798c6608bceb3f,657bb40d245848c8fef0ab5f,0.079,0.079,0,126,126,101,1,seveneight,,,,,,,,,,,,,,,,,,,,,,,,,,,,,,,,,,,,,,,,,,,,,,,,,,,,,,,,,,,,,,,,,,,,,,,,,,,,,,,,,,,,,,,,,,,,,,,,,,,,,,,,,,,,,,,,,,,,,,,,,,,,,,,,,,,,,,,
,,616f94cd9cd003d37c9db38c,2023-12-14_23h22.31.081,kallum_motion_pilot,2023.2.3,Win32,60.0240096,616f94cd9cd003d37c9db38c,657bb317c8798c6608bceb3f,657bb40d245848c8fef0ab5f,0.079,0.079,0,127,127,38,1,fourtwo,,,,,,,,,,,,,,,,,,,,,,,,,,,,,,,,,,,,,,,,,,,,,,,,,,,,,,,,,,,,,,,,,,,,,,,,,,,,,,,,,,,,,,,,,,,,,,,,,,,,,,,,,,,,,,,,,,,,,,,,,,,,,,,,,,,,,,,
,,616f94cd9cd003d37c9db38c,2023-12-14_23h22.31.081,kallum_motion_pilot,2023.2.3,Win32,60.0240096,616f94cd9cd003d37c9db38c,657bb317c8798c6608bceb3f,657bb40d245848c8fef0ab5f,0.08,0.08,0,128,128,98,1,sixfive,,,,,,,,,,,,,,,,,,,,,,,,,,,,,,,,,,,,,,,,,,,,,,,,,,,,,,,,,,,,,,,,,,,,,,,,,,,,,,,,,,,,,,,,,,,,,,,,,,,,,,,,,,,,,,,,,,,,,,,,,,,,,,,,,,,,,,,
,,616f94cd9cd003d37c9db38c,2023-12-14_23h22.31.081,kallum_motion_pilot,2023.2.3,Win32,60.0240096,616f94cd9cd003d37c9db38c,657bb317c8798c6608bceb3f,657bb40d245848c8fef0ab5f,0.081,0.081,0,129,129,132,1,sevenfive,,,,,,,,,,,,,,,,,,,,,,,,,,,,,,,,,,,,,,,,,,,,,,,,,,,,,,,,,,,,,,,,,,,,,,,,,,,,,,,,,,,,,,,,,,,,,,,,,,,,,,,,,,,,,,,,,,,,,,,,,,,,,,,,,,,,,,,
,,616f94cd9cd003d37c9db38c,2023-12-14_23h22.31.081,kallum_motion_pilot,2023.2.3,Win32,60.0240096,616f94cd9cd003d37c9db38c,657bb317c8798c6608bceb3f,657bb40d245848c8fef0ab5f,0.081,0.081,0,130,130,133,1,seveneight,,,,,,,,,,,,,,,,,,,,,,,,,,,,,,,,,,,,,,,,,,,,,,,,,,,,,,,,,,,,,,,,,,,,,,,,,,,,,,,,,,,,,,,,,,,,,,,,,,,,,,,,,,,,,,,,,,,,,,,,,,,,,,,,,,,,,,,
,,616f94cd9cd003d37c9db38c,2023-12-14_23h22.31.081,kallum_motion_pilot,2023.2.3,Win32,60.0240096,616f94cd9cd003d37c9db38c,657bb317c8798c6608bceb3f,657bb40d245848c8fef0ab5f,0.081,0.081,0,131,131,70,1,fourtwo,,,,,,,,,,,,,,,,,,,,,,,,,,,,,,,,,,,,,,,,,,,,,,,,,,,,,,,,,,,,,,,,,,,,,,,,,,,,,,,,,,,,,,,,,,,,,,,,,,,,,,,,,,,,,,,,,,,,,,,,,,,,,,,,,,,,,,,
,,616f94cd9cd003d37c9db38c,2023-12-14_23h22.31.081,kallum_motion_pilot,2023.2.3,Win32,60.0240096,616f94cd9cd003d37c9db38c,657bb317c8798c6608bceb3f,657bb40d245848c8fef0ab5f,0.081,0.081,0,132,132,90,1,sixfive,,,,,,,,,,,,,,,,,,,,,,,,,,,,,,,,,,,,,,,,,,,,,,,,,,,,,,,,,,,,,,,,,,,,,,,,,,,,,,,,,,,,,,,,,,,,,,,,,,,,,,,,,,,,,,,,,,,,,,,,,,,,,,,,,,,,,,,
,,616f94cd9cd003d37c9db38c,2023-12-14_23h22.31.081,kallum_motion_pilot,2023.2.3,Win32,60.0240096,616f94cd9cd003d37c9db38c,657bb317c8798c6608bceb3f,657bb40d245848c8fef0ab5f,0.081,0.081,0,133,133,9,1,onethree,,,,,,,,,,,,,,,,,,,,,,,,,,,,,,,,,,,,,,,,,,,,,,,,,,,,,,,,,,,,,,,,,,,,,,,,,,,,,,,,,,,,,,,,,,,,,,,,,,,,,,,,,,,,,,,,,,,,,,,,,,,,,,,,,,,,,,,
,,616f94cd9cd003d37c9db38c,2023-12-14_23h22.31.081,kallum_motion_pilot,2023.2.3,Win32,60.0240096,616f94cd9cd003d37c9db38c,657bb317c8798c6608bceb3f,657bb40d245848c8fef0ab5f,0.083,0.083,0,134,134,91,1,sixeight,,,,,,,,,,,,,,,,,,,,,,,,,,,,,,,,,,,,,,,,,,,,,,,,,,,,,,,,,,,,,,,,,,,,,,,,,,,,,,,,,,,,,,,,,,,,,,,,,,,,,,,,,,,,,,,,,,,,,,,,,,,,,,,,,,,,,,,
,,616f94cd9cd003d37c9db38c,2023-12-14_23h22.31.081,kallum_motion_pilot,2023.2.3,Win32,60.0240096,616f94cd9cd003d37c9db38c,657bb317c8798c6608bceb3f,657bb40d245848c8fef0ab5f,0.083,0.083,0,135,135,161,1,fiveseven,,,,,,,,,,,,,,,,,,,,,,,,,,,,,,,,,,,,,,,,,,,,,,,,,,,,,,,,,,,,,,,,,,,,,,,,,,,,,,,,,,,,,,,,,,,,,,,,,,,,,,,,,,,,,,,,,,,,,,,,,,,,,,,,,,,,,,,
,,616f94cd9cd003d37c9db38c,2023-12-14_23h22.31.081,kallum_motion_pilot,2023.2.3,Win32,60.0240096,616f94cd9cd003d37c9db38c,657bb317c8798c6608bceb3f,657bb40d245848c8fef0ab5f,0.083,0.083,0,136,136,77,1,threefour,,,,,,,,,,,,,,,,,,,,,,,,,,,,,,,,,,,,,,,,,,,,,,,,,,,,,,,,,,,,,,,,,,,,,,,,,,,,,,,,,,,,,,,,,,,,,,,,,,,,,,,,,,,,,,,,,,,,,,,,,,,,,,,,,,,,,,,
,,616f94cd9cd003d37c9db38c,2023-12-14_23h22.31.081,kallum_motion_pilot,2023.2.3,Win32,60.0240096,616f94cd9cd003d37c9db38c,657bb317c8798c6608bceb3f,657bb40d245848c8fef0ab5f,0.083,0.083,0,137,137,33,1,onethree,,,,,,,,,,,,,,,,,,,,,,,,,,,,,,,,,,,,,,,,,,,,,,,,,,,,,,,,,,,,,,,,,,,,,,,,,,,,,,,,,,,,,,,,,,,,,,,,,,,,,,,,,,,,,,,,,,,,,,,,,,,,,,,,,,,,,,,
,,616f94cd9cd003d37c9db38c,2023-12-14_23h22.31.081,kallum_motion_pilot,2023.2.3,Win32,60.0240096,616f94cd9cd003d37c9db38c,657bb317c8798c6608bceb3f,657bb40d245848c8fef0ab5f,0.083,0.083,0,138,138,48,1,onetwo,,,,,,,,,,,,,,,,,,,,,,,,,,,,,,,,,,,,,,,,,,,,,,,,,,,,,,,,,,,,,,,,,,,,,,,,,,,,,,,,,,,,,,,,,,,,,,,,,,,,,,,,,,,,,,,,,,,,,,,,,,,,,,,,,,,,,,,
,,616f94cd9cd003d37c9db38c,2023-12-14_23h22.31.081,kallum_motion_pilot,2023.2.3,Win32,60.0240096,616f94cd9cd003d37c9db38c,657bb317c8798c6608bceb3f,657bb40d245848c8fef0ab5f,0.083,0.083,0,139,139,51,1,twofour,,,,,,,,,,,,,,,,,,,,,,,,,,,,,,,,,,,,,,,,,,,,,,,,,,,,,,,,,,,,,,,,,,,,,,,,,,,,,,,,,,,,,,,,,,,,,,,,,,,,,,,,,,,,,,,,,,,,,,,,,,,,,,,,,,,,,,,
,,616f94cd9cd003d37c9db38c,2023-12-14_23h22.31.081,kallum_motion_pilot,2023.2.3,Win32,60.0240096,616f94cd9cd003d37c9db38c,657bb317c8798c6608bceb3f,657bb40d245848c8fef0ab5f,0.083,0.083,0,140,140,43,1,twofour,,,,,,,,,,,,,,,,,,,,,,,,,,,,,,,,,,,,,,,,,,,,,,,,,,,,,,,,,,,,,,,,,,,,,,,,,,,,,,,,,,,,,,,,,,,,,,,,,,,,,,,,,,,,,,,,,,,,,,,,,,,,,,,,,,,,,,,
,,616f94cd9cd003d37c9db38c,2023-12-14_23h22.31.081,kallum_motion_pilot,2023.2.3,Win32,60.0240096,616f94cd9cd003d37c9db38c,657bb317c8798c6608bceb3f,657bb40d245848c8fef0ab5f,0.085,0.085,0,141,141,110,1,eightsix,,,,,,,,,,,,,,,,,,,,,,,,,,,,,,,,,,,,,,,,,,,,,,,,,,,,,,,,,,,,,,,,,,,,,,,,,,,,,,,,,,,,,,,,,,,,,,,,,,,,,,,,,,,,,,,,,,,,,,,,,,,,,,,,,,,,,,,
,,616f94cd9cd003d37c9db38c,2023-12-14_23h22.31.081,kallum_motion_pilot,2023.2.3,Win32,60.0240096,616f94cd9cd003d37c9db38c,657bb317c8798c6608bceb3f,657bb40d245848c8fef0ab5f,0.085,0.085,0,142,142,144,1,fivesix,,,,,,,,,,,,,,,,,,,,,,,,,,,,,,,,,,,,,,,,,,,,,,,,,,,,,,,,,,,,,,,,,,,,,,,,,,,,,,,,,,,,,,,,,,,,,,,,,,,,,,,,,,,,,,,,,,,,,,,,,,,,,,,,,,,,,,,
,,616f94cd9cd003d37c9db38c,2023-12-14_23h22.31.081,kallum_motion_pilot,2023.2.3,Win32,60.0240096,616f94cd9cd003d37c9db38c,657bb317c8798c6608bceb3f,657bb40d245848c8fef0ab5f,0.085,0.085,0,143,143,92,1,sevenfive,,,,,,,,,,,,,,,,,,,,,,,,,,,,,,,,,,,,,,,,,,,,,,,,,,,,,,,,,,,,,,,,,,,,,,,,,,,,,,,,,,,,,,,,,,,,,,,,,,,,,,,,,,,,,,,,,,,,,,,,,,,,,,,,,,,,,,,
,,616f94cd9cd003d37c9db38c,2023-12-14_23h22.31.081,kallum_motion_pilot,2023.2.3,Win32,60.0240096,616f94cd9cd003d37c9db38c,657bb317c8798c6608bceb3f,657bb40d245848c8fef0ab5f,0.087,0.087,0,144,144,127,1,eightseven,,,,,,,,,,,,,,,,,,,,,,,,,,,,,,,,,,,,,,,,,,,,,,,,,,,,,,,,,,,,,,,,,,,,,,,,,,,,,,,,,,,,,,,,,,,,,,,,,,,,,,,,,,,,,,,,,,,,,,,,,,,,,,,,,,,,,,,
,,616f94cd9cd003d37c9db38c,2023-12-14_23h22.31.081,kallum_motion_pilot,2023.2.3,Win32,60.0240096,616f94cd9cd003d37c9db38c,657bb317c8798c6608bceb3f,657bb40d245848c8fef0ab5f,0.087,0.087,0,145,145,29,1,threefour,,,,,,,,,,,,,,,,,,,,,,,,,,,,,,,,,,,,,,,,,,,,,,,,,,,,,,,,,,,,,,,,,,,,,,,,,,,,,,,,,,,,,,,,,,,,,,,,,,,,,,,,,,,,,,,,,,,,,,,,,,,,,,,,,,,,,,,
,,616f94cd9cd003d37c9db38c,2023-12-14_23h22.31.081,kallum_motion_pilot,2023.2.3,Win32,60.0240096,616f94cd9cd003d37c9db38c,657bb317c8798c6608bceb3f,657bb40d245848c8fef0ab5f,0.087,0.087,0,146,146,87,1,eightseven,,,,,,,,,,,,,,,,,,,,,,,,,,,,,,,,,,,,,,,,,,,,,,,,,,,,,,,,,,,,,,,,,,,,,,,,,,,,,,,,,,,,,,,,,,,,,,,,,,,,,,,,,,,,,,,,,,,,,,,,,,,,,,,,,,,,,,,
,,616f94cd9cd003d37c9db38c,2023-12-14_23h22.31.081,kallum_motion_pilot,2023.2.3,Win32,60.0240096,616f94cd9cd003d37c9db38c,657bb317c8798c6608bceb3f,657bb40d245848c8fef0ab5f,0.088,0.088,0,147,147,125,1,seveneight,,,,,,,,,,,,,,,,,,,,,,,,,,,,,,,,,,,,,,,,,,,,,,,,,,,,,,,,,,,,,,,,,,,,,,,,,,,,,,,,,,,,,,,,,,,,,,,,,,,,,,,,,,,,,,,,,,,,,,,,,,,,,,,,,,,,,,,
,,616f94cd9cd003d37c9db38c,2023-12-14_23h22.31.081,kallum_motion_pilot,2023.2.3,Win32,60.0240096,616f94cd9cd003d37c9db38c,657bb317c8798c6608bceb3f,657bb40d245848c8fef0ab5f,0.088,0.088,0,148,148,141,1,seveneight,,,,,,,,,,,,,,,,,,,,,,,,,,,,,,,,,,,,,,,,,,,,,,,,,,,,,,,,,,,,,,,,,,,,,,,,,,,,,,,,,,,,,,,,,,,,,,,,,,,,,,,,,,,,,,,,,,,,,,,,,,,,,,,,,,,,,,,
,,616f94cd9cd003d37c9db38c,2023-12-14_23h22.31.081,kallum_motion_pilot,2023.2.3,Win32,60.0240096,616f94cd9cd003d37c9db38c,657bb317c8798c6608bceb3f,657bb40d245848c8fef0ab5f,0.088,0.088,0,149,149,128,1,fivesix,,,,,,,,,,,,,,,,,,,,,,,,,,,,,,,,,,,,,,,,,,,,,,,,,,,,,,,,,,,,,,,,,,,,,,,,,,,,,,,,,,,,,,,,,,,,,,,,,,,,,,,,,,,,,,,,,,,,,,,,,,,,,,,,,,,,,,,
,,616f94cd9cd003d37c9db38c,2023-12-14_23h22.31.081,kallum_motion_pilot,2023.2.3,Win32,60.0240096,616f94cd9cd003d37c9db38c,657bb317c8798c6608bceb3f,657bb40d245848c8fef0ab5f,0.088,0.088,0,150,150,118,1,eightsix,,,,,,,,,,,,,,,,,,,,,,,,,,,,,,,,,,,,,,,,,,,,,,,,,,,,,,,,,,,,,,,,,,,,,,,,,,,,,,,,,,,,,,,,,,,,,,,,,,,,,,,,,,,,,,,,,,,,,,,,,,,,,,,,,,,,,,,
,,616f94cd9cd003d37c9db38c,2023-12-14_23h22.31.081,kallum_motion_pilot,2023.2.3,Win32,60.0240096,616f94cd9cd003d37c9db38c,657bb317c8798c6608bceb3f,657bb40d245848c8fef0ab5f,0.088,0.088,0,151,151,41,1,onethree,,,,,,,,,,,,,,,,,,,,,,,,,,,,,,,,,,,,,,,,,,,,,,,,,,,,,,,,,,,,,,,,,,,,,,,,,,,,,,,,,,,,,,,,,,,,,,,,,,,,,,,,,,,,,,,,,,,,,,,,,,,,,,,,,,,,,,,
,,616f94cd9cd003d37c9db38c,2023-12-14_23h22.31.081,kallum_motion_pilot,2023.2.3,Win32,60.0240096,616f94cd9cd003d37c9db38c,657bb317c8798c6608bceb3f,657bb40d245848c8fef0ab5f,0.088,0.088,0,152,152,31,1,fourthree,,,,,,,,,,,,,,,,,,,,,,,,,,,,,,,,,,,,,,,,,,,,,,,,,,,,,,,,,,,,,,,,,,,,,,,,,,,,,,,,,,,,,,,,,,,,,,,,,,,,,,,,,,,,,,,,,,,,,,,,,,,,,,,,,,,,,,,
,,616f94cd9cd003d37c9db38c,2023-12-14_23h22.31.081,kallum_motion_pilot,2023.2.3,Win32,60.0240096,616f94cd9cd003d37c9db38c,657bb317c8798c6608bceb3f,657bb40d245848c8fef0ab5f,0.088,0.088,0,153,153,12,1,threeone,,,,,,,,,,,,,,,,,,,,,,,,,,,,,,,,,,,,,,,,,,,,,,,,,,,,,,,,,,,,,,,,,,,,,,,,,,,,,,,,,,,,,,,,,,,,,,,,,,,,,,,,,,,,,,,,,,,,,,,,,,,,,,,,,,,,,,,
,,616f94cd9cd003d37c9db38c,2023-12-14_23h22.31.081,kallum_motion_pilot,2023.2.3,Win32,60.0240096,616f94cd9cd003d37c9db38c,657bb317c8798c6608bceb3f,657bb40d245848c8fef0ab5f,0.088,0.089,0,154,154,59,1,twofour,,,,,,,,,,,,,,,,,,,,,,,,,,,,,,,,,,,,,,,,,,,,,,,,,,,,,,,,,,,,,,,,,,,,,,,,,,,,,,,,,,,,,,,,,,,,,,,,,,,,,,,,,,,,,,,,,,,,,,,,,,,,,,,,,,,,,,,
,,616f94cd9cd003d37c9db38c,2023-12-14_23h22.31.081,kallum_motion_pilot,2023.2.3,Win32,60.0240096,616f94cd9cd003d37c9db38c,657bb317c8798c6608bceb3f,657bb40d245848c8fef0ab5f,0.089,0.089,0,155,155,26,1,twoone,,,,,,,,,,,,,,,,,,,,,,,,,,,,,,,,,,,,,,,,,,,,,,,,,,,,,,,,,,,,,,,,,,,,,,,,,,,,,,,,,,,,,,,,,,,,,,,,,,,,,,,,,,,,,,,,,,,,,,,,,,,,,,,,,,,,,,,
,,616f94cd9cd003d37c9db38c,2023-12-14_23h22.31.081,kallum_motion_pilot,2023.2.3,Win32,60.0240096,616f94cd9cd003d37c9db38c,657bb317c8798c6608bceb3f,657bb40d245848c8fef0ab5f,0.089,0.089,0,156,156,47,1,fourthree,,,,,,,,,,,,,,,,,,,,,,,,,,,,,,,,,,,,,,,,,,,,,,,,,,,,,,,,,,,,,,,,,,,,,,,,,,,,,,,,,,,,,,,,,,,,,,,,,,,,,,,,,,,,,,,,,,,,,,,,,,,,,,,,,,,,,,,
,,616f94cd9cd003d37c9db38c,2023-12-14_23h22.31.081,kallum_motion_pilot,2023.2.3,Win32,60.0240096,616f94cd9cd003d37c9db38c,657bb317c8798c6608bceb3f,657bb40d245848c8fef0ab5f,0.089,0.089,0,157,157,85,1,seveneight,,,,,,,,,,,,,,,,,,,,,,,,,,,,,,,,,,,,,,,,,,,,,,,,,,,,,,,,,,,,,,,,,,,,,,,,,,,,,,,,,,,,,,,,,,,,,,,,,,,,,,,,,,,,,,,,,,,,,,,,,,,,,,,,,,,,,,,
,,616f94cd9cd003d37c9db38c,2023-12-14_23h22.31.081,kallum_motion_pilot,2023.2.3,Win32,60.0240096,616f94cd9cd003d37c9db38c,657bb317c8798c6608bceb3f,657bb40d245848c8fef0ab5f,0.089,0.089,0,158,158,160,1,fivesix,,,,,,,,,,,,,,,,,,,,,,,,,,,,,,,,,,,,,,,,,,,,,,,,,,,,,,,,,,,,,,,,,,,,,,,,,,,,,,,,,,,,,,,,,,,,,,,,,,,,,,,,,,,,,,,,,,,,,,,,,,,,,,,,,,,,,,,
,,616f94cd9cd003d37c9db38c,2023-12-14_23h22.31.081,kallum_motion_pilot,2023.2.3,Win32,60.0240096,616f94cd9cd003d37c9db38c,657bb317c8798c6608bceb3f,657bb40d245848c8fef0ab5f,0.089,0.089,0,159,159,121,1,fiveseven,,,,,,,,,,,,,,,,,,,,,,,,,,,,,,,,,,,,,,,,,,,,,,,,,,,,,,,,,,,,,,,,,,,,,,,,,,,,,,,,,,,,,,,,,,,,,,,,,,,,,,,,,,,,,,,,,,,,,,,,,,,,,,,,,,,,,,,
,,616f94cd9cd003d37c9db38c,2023-12-14_23h22.31.081,kallum_motion_pilot,2023.2.3,Win32,60.0240096,616f94cd9cd003d37c9db38c,657bb317c8798c6608bceb3f,657bb40d245848c8fef0ab5f,0.089,0.089,0,160,160,10,1,twoone,,,,,,,,,,,,,,,,,,,,,,,,,,,,,,,,,,,,,,,,,,,,,,,,,,,,,,,,,,,,,,,,,,,,,,,,,,,,,,,,,,,,,,,,,,,,,,,,,,,,,,,,,,,,,,,,,,,,,,,,,,,,,,,,,,,,,,,
,,616f94cd9cd003d37c9db38c,2023-12-14_23h22.31.081,kallum_motion_pilot,2023.2.3,Win32,60.0240096,616f94cd9cd003d37c9db38c,657bb317c8798c6608bceb3f,657bb40d245848c8fef0ab5f,0.089,0.089,0,161,161,111,1,eightseven,,,,,,,,,,,,,,,,,,,,,,,,,,,,,,,,,,,,,,,,,,,,,,,,,,,,,,,,,,,,,,,,,,,,,,,,,,,,,,,,,,,,,,,,,,,,,,,,,,,,,,,,,,,,,,,,,,,,,,,,,,,,,,,,,,,,,,,
,,616f94cd9cd003d37c9db38c,2023-12-14_23h22.31.081,kallum_motion_pilot,2023.2.3,Win32,60.0240096,616f94cd9cd003d37c9db38c,657bb317c8798c6608bceb3f,657bb40d245848c8fef0ab5f,0.089,0.089,1,0,162,59,1,twofour,,,,,,,,,,,,,,,,,,,,,,,,,,,,,,,,,,,,,,,,,,,,,,,,,,,,,,,,,,,,,,,,,,,,,,,,,,,,,,,,,,,,,,,,,,,,,,,,,,,,,,,,,,,,,,,,,,,,,,,,,,,,,,,,,,,,,,,
,,616f94cd9cd003d37c9db38c,2023-12-14_23h22.31.081,kallum_motion_pilot,2023.2.3,Win32,60.0240096,616f94cd9cd003d37c9db38c,657bb317c8798c6608bceb3f,657bb40d245848c8fef0ab5f,0.089,0.089,1,1,163,62,1,fourtwo,,,,,,,,,,,,,,,,,,,,,,,,,,,,,,,,,,,,,,,,,,,,,,,,,,,,,,,,,,,,,,,,,,,,,,,,,,,,,,,,,,,,,,,,,,,,,,,,,,,,,,,,,,,,,,,,,,,,,,,,,,,,,,,,,,,,,,,
,,616f94cd9cd003d37c9db38c,2023-12-14_23h22.31.081,kallum_motion_pilot,2023.2.3,Win32,60.0240096,616f94cd9cd003d37c9db38c,657bb317c8798c6608bceb3f,657bb40d245848c8fef0ab5f,0.089,0.089,1,2,164,159,1,eightseven,,,,,,,,,,,,,,,,,,,,,,,,,,,,,,,,,,,,,,,,,,,,,,,,,,,,,,,,,,,,,,,,,,,,,,,,,,,,,,,,,,,,,,,,,,,,,,,,,,,,,,,,,,,,,,,,,,,,,,,,,,,,,,,,,,,,,,,
,,616f94cd9cd003d37c9db38c,2023-12-14_23h22.31.081,kallum_motion_pilot,2023.2.3,Win32,60.0240096,616f94cd9cd003d37c9db38c,657bb317c8798c6608bceb3f,657bb40d245848c8fef0ab5f,0.09,0.09,1,3,165,114,1,sixfive,,,,,,,,,,,,,,,,,,,,,,,,,,,,,,,,,,,,,,,,,,,,,,,,,,,,,,,,,,,,,,,,,,,,,,,,,,,,,,,,,,,,,,,,,,,,,,,,,,,,,,,,,,,,,,,,,,,,,,,,,,,,,,,,,,,,,,,
,,616f94cd9cd003d37c9db38c,2023-12-14_23h22.31.081,kallum_motion_pilot,2023.2.3,Win32,60.0240096,616f94cd9cd003d37c9db38c,657bb317c8798c6608bceb3f,657bb40d245848c8fef0ab5f,0.09,0.09,1,4,166,42,1,twoone,,,,,,,,,,,,,,,,,,,,,,,,,,,,,,,,,,,,,,,,,,,,,,,,,,,,,,,,,,,,,,,,,,,,,,,,,,,,,,,,,,,,,,,,,,,,,,,,,,,,,,,,,,,,,,,,,,,,,,,,,,,,,,,,,,,,,,,
,,616f94cd9cd003d37c9db38c,2023-12-14_23h22.31.081,kallum_motion_pilot,2023.2.3,Win32,60.0240096,616f94cd9cd003d37c9db38c,657bb317c8798c6608bceb3f,657bb40d245848c8fef0ab5f,0.092,0.092,1,5,167,5,1,threefour,,,,,,,,,,,,,,,,,,,,,,,,,,,,,,,,,,,,,,,,,,,,,,,,,,,,,,,,,,,,,,,,,,,,,,,,,,,,,,,,,,,,,,,,,,,,,,,,,,,,,,,,,,,,,,,,,,,,,,,,,,,,,,,,,,,,,,,
,,616f94cd9cd003d37c9db38c,2023-12-14_23h22.31.081,kallum_motion_pilot,2023.2.3,Win32,60.0240096,616f94cd9cd003d37c9db38c,657bb317c8798c6608bceb3f,657bb40d245848c8fef0ab5f,0.092,0.092,1,6,168,63,1,fourthree,,,,,,,,,,,,,,,,,,,,,,,,,,,,,,,,,,,,,,,,,,,,,,,,,,,,,,,,,,,,,,,,,,,,,,,,,,,,,,,,,,,,,,,,,,,,,,,,,,,,,,,,,,,,,,,,,,,,,,,,,,,,,,,,,,,,,,,
,,616f94cd9cd003d37c9db38c,2023-12-14_23h22.31.081,kallum_motion_pilot,2023.2.3,Win32,60.0240096,616f94cd9cd003d37c9db38c,657bb317c8798c6608bceb3f,657bb40d245848c8fef0ab5f,0.093,0.093,1,7,169,102,1,eightsix,,,,,,,,,,,,,,,,,,,,,,,,,,,,,,,,,,,,,,,,,,,,,,,,,,,,,,,,,,,,,,,,,,,,,,,,,,,,,,,,,,,,,,,,,,,,,,,,,,,,,,,,,,,,,,,,,,,,,,,,,,,,,,,,,,,,,,,
,,616f94cd9cd003d37c9db38c,2023-12-14_23h22.31.081,kallum_motion_pilot,2023.2.3,Win32,60.0240096,616f94cd9cd003d37c9db38c,657bb317c8798c6608bceb3f,657bb40d245848c8fef0ab5f,0.093,0.093,1,8,170,95,1,eightseven,,,,,,,,,,,,,,,,,,,,,,,,,,,,,,,,,,,,,,,,,,,,,,,,,,,,,,,,,,,,,,,,,,,,,,,,,,,,,,,,,,,,,,,,,,,,,,,,,,,,,,,,,,,,,,,,,,,,,,,,,,,,,,,,,,,,,,,
,,616f94cd9cd003d37c9db38c,2023-12-14_23h22.31.081,kallum_motion_pilot,2023.2.3,Win32,60.0240096,616f94cd9cd003d37c9db38c,657bb317c8798c6608bceb3f,657bb40d245848c8fef0ab5f,0.093,0.093,1,9,171,137,1,fiveseven,,,,,,,,,,,,,,,,,,,,,,,,,,,,,,,,,,,,,,,,,,,,,,,,,,,,,,,,,,,,,,,,,,,,,,,,,,,,,,,,,,,,,,,,,,,,,,,,,,,,,,,,,,,,,,,,,,,,,,,,,,,,,,,,,,,,,,,
,,616f94cd9cd003d37c9db38c,2023-12-14_23h22.31.081,kallum_motion_pilot,2023.2.3,Win32,60.0240096,616f94cd9cd003d37c9db38c,657bb317c8798c6608bceb3f,657bb40d245848c8fef0ab5f,0.093,0.094,1,10,172,111,1,eightseven,,,,,,,,,,,,,,,,,,,,,,,,,,,,,,,,,,,,,,,,,,,,,,,,,,,,,,,,,,,,,,,,,,,,,,,,,,,,,,,,,,,,,,,,,,,,,,,,,,,,,,,,,,,,,,,,,,,,,,,,,,,,,,,,,,,,,,,
,,616f94cd9cd003d37c9db38c,2023-12-14_23h22.31.081,kallum_motion_pilot,2023.2.3,Win32,60.0240096,616f94cd9cd003d37c9db38c,657bb317c8798c6608bceb3f,657bb40d245848c8fef0ab5f,0.094,0.094,1,11,173,76,1,threeone,,,,,,,,,,,,,,,,,,,,,,,,,,,,,,,,,,,,,,,,,,,,,,,,,,,,,,,,,,,,,,,,,,,,,,,,,,,,,,,,,,,,,,,,,,,,,,,,,,,,,,,,,,,,,,,,,,,,,,,,,,,,,,,,,,,,,,,
,,616f94cd9cd003d37c9db38c,2023-12-14_23h22.31.081,kallum_motion_pilot,2023.2.3,Win32,60.0240096,616f94cd9cd003d37c9db38c,657bb317c8798c6608bceb3f,657bb40d245848c8fef0ab5f,0.094,0.094,1,12,174,107,1,sixeight,,,,,,,,,,,,,,,,,,,,,,,,,,,,,,,,,,,,,,,,,,,,,,,,,,,,,,,,,,,,,,,,,,,,,,,,,,,,,,,,,,,,,,,,,,,,,,,,,,,,,,,,,,,,,,,,,,,,,,,,,,,,,,,,,,,,,,,
,,616f94cd9cd003d37c9db38c,2023-12-14_23h22.31.081,kallum_motion_pilot,2023.2.3,Win32,60.0240096,616f94cd9cd003d37c9db38c,657bb317c8798c6608bceb3f,657bb40d245848c8fef0ab5f,0.094,0.094,1,13,175,81,1,fiveseven,,,,,,,,,,,,,,,,,,,,,,,,,,,,,,,,,,,,,,,,,,,,,,,,,,,,,,,,,,,,,,,,,,,,,,,,,,,,,,,,,,,,,,,,,,,,,,,,,,,,,,,,,,,,,,,,,,,,,,,,,,,,,,,,,,,,,,,
,,616f94cd9cd003d37c9db38c,2023-12-14_23h22.31.081,kallum_motion_pilot,2023.2.3,Win32,60.0240096,616f94cd9cd003d37c9db38c,657bb317c8798c6608bceb3f,657bb40d245848c8fef0ab5f,0.094,0.094,1,14,176,0,1,onetwo,,,,,,,,,,,,,,,,,,,,,,,,,,,,,,,,,,,,,,,,,,,,,,,,,,,,,,,,,,,,,,,,,,,,,,,,,,,,,,,,,,,,,,,,,,,,,,,,,,,,,,,,,,,,,,,,,,,,,,,,,,,,,,,,,,,,,,,
,,616f94cd9cd003d37c9db38c,2023-12-14_23h22.31.081,kallum_motion_pilot,2023.2.3,Win32,60.0240096,616f94cd9cd003d37c9db38c,657bb317c8798c6608bceb3f,657bb40d245848c8fef0ab5f,0.094,0.094,1,15,177,12,1,threeone,,,,,,,,,,,,,,,,,,,,,,,,,,,,,,,,,,,,,,,,,,,,,,,,,,,,,,,,,,,,,,,,,,,,,,,,,,,,,,,,,,,,,,,,,,,,,,,,,,,,,,,,,,,,,,,,,,,,,,,,,,,,,,,,,,,,,,,
,,616f94cd9cd003d37c9db38c,2023-12-14_23h22.31.081,kallum_motion_pilot,2023.2.3,Win32,60.0240096,616f94cd9cd003d37c9db38c,657bb317c8798c6608bceb3f,657bb40d245848c8fef0ab5f,0.094,0.094,1,16,178,23,1,fourthree,,,,,,,,,,,,,,,,,,,,,,,,,,,,,,,,,,,,,,,,,,,,,,,,,,,,,,,,,,,,,,,,,,,,,,,,,,,,,,,,,,,,,,,,,,,,,,,,,,,,,,,,,,,,,,,,,,,,,,,,,,,,,,,,,,,,,,,
,,616f94cd9cd003d37c9db38c,2023-12-14_23h22.31.081,kallum_motion_pilot,2023.2.3,Win32,60.0240096,616f94cd9cd003d37c9db38c,657bb317c8798c6608bceb3f,657bb40d245848c8fef0ab5f,0.095,0.095,1,17,179,99,1,sixeight,,,,,,,,,,,,,,,,,,,,,,,,,,,,,,,,,,,,,,,,,,,,,,,,,,,,,,,,,,,,,,,,,,,,,,,,,,,,,,,,,,,,,,,,,,,,,,,,,,,,,,,,,,,,,,,,,,,,,,,,,,,,,,,,,,,,,,,
,,616f94cd9cd003d37c9db38c,2023-12-14_23h22.31.081,kallum_motion_pilot,2023.2.3,Win32,60.0240096,616f94cd9cd003d37c9db38c,657bb317c8798c6608bceb3f,657bb40d245848c8fef0ab5f,0.095,0.095,1,18,180,28,1,threeone,,,,,,,,,,,,,,,,,,,,,,,,,,,,,,,,,,,,,,,,,,,,,,,,,,,,,,,,,,,,,,,,,,,,,,,,,,,,,,,,,,,,,,,,,,,,,,,,,,,,,,,,,,,,,,,,,,,,,,,,,,,,,,,,,,,,,,,
,,616f94cd9cd003d37c9db38c,2023-12-14_23h22.31.081,kallum_motion_pilot,2023.2.3,Win32,60.0240096,616f94cd9cd003d37c9db38c,657bb317c8798c6608bceb3f,657bb40d245848c8fef0ab5f,0.095,0.095,1,19,181,78,1,fourtwo,,,,,,,,,,,,,,,,,,,,,,,,,,,,,,,,,,,,,,,,,,,,,,,,,,,,,,,,,,,,,,,,,,,,,,,,,,,,,,,,,,,,,,,,,,,,,,,,,,,,,,,,,,,,,,,,,,,,,,,,,,,,,,,,,,,,,,,
,,616f94cd9cd003d37c9db38c,2023-12-14_23h22.31.081,kallum_motion_pilot,2023.2.3,Win32,60.0240096,616f94cd9cd003d37c9db38c,657bb317c8798c6608bceb3f,657bb40d245848c8fef0ab5f,0.095,0.095,1,20,182,104,1,fivesix,,,,,,,,,,,,,,,,,,,,,,,,,,,,,,,,,,,,,,,,,,,,,,,,,,,,,,,,,,,,,,,,,,,,,,,,,,,,,,,,,,,,,,,,,,,,,,,,,,,,,,,,,,,,,,,,,,,,,,,,,,,,,,,,,,,,,,,
,,616f94cd9cd003d37c9db38c,2023-12-14_23h22.31.081,kallum_motion_pilot,2023.2.3,Win32,60.0240096,616f94cd9cd003d37c9db38c,657bb317c8798c6608bceb3f,657bb40d245848c8fef0ab5f,0.095,0.095,1,21,183,33,1,onethree,,,,,,,,,,,,,,,,,,,,,,,,,,,,,,,,,,,,,,,,,,,,,,,,,,,,,,,,,,,,,,,,,,,,,,,,,,,,,,,,,,,,,,,,,,,,,,,,,,,,,,,,,,,,,,,,,,,,,,,,,,,,,,,,,,,,,,,
,,616f94cd9cd003d37c9db38c,2023-12-14_23h22.31.081,kallum_motion_pilot,2023.2.3,Win32,60.0240096,616f94cd9cd003d37c9db38c,657bb317c8798c6608bceb3f,657bb40d245848c8fef0ab5f,0.095,0.095,1,22,184,2,1,twoone,,,,,,,,,,,,,,,,,,,,,,,,,,,,,,,,,,,,,,,,,,,,,,,,,,,,,,,,,,,,,,,,,,,,,,,,,,,,,,,,,,,,,,,,,,,,,,,,,,,,,,,,,,,,,,,,,,,,,,,,,,,,,,,,,,,,,,,
,,616f94cd9cd003d37c9db38c,2023-12-14_23h22.31.081,kallum_motion_pilot,2023.2.3,Win32,60.0240096,616f94cd9cd003d37c9db38c,657bb317c8798c6608bceb3f,657bb40d245848c8fef0ab5f,0.095,0.095,1,23,185,64,1,onetwo,,,,,,,,,,,,,,,,,,,,,,,,,,,,,,,,,,,,,,,,,,,,,,,,,,,,,,,,,,,,,,,,,,,,,,,,,,,,,,,,,,,,,,,,,,,,,,,,,,,,,,,,,,,,,,,,,,,,,,,,,,,,,,,,,,,,,,,
,,616f94cd9cd003d37c9db38c,2023-12-14_23h22.31.081,kallum_motion_pilot,2023.2.3,Win32,60.0240096,616f94cd9cd003d37c9db38c,657bb317c8798c6608bceb3f,657bb40d245848c8fef0ab5f,0.095,0.096,1,24,186,130,1,sixfive,,,,,,,,,,,,,,,,,,,,,,,,,,,,,,,,,,,,,,,,,,,,,,,,,,,,,,,,,,,,,,,,,,,,,,,,,,,,,,,,,,,,,,,,,,,,,,,,,,,,,,,,,,,,,,,,,,,,,,,,,,,,,,,,,,,,,,,
,,616f94cd9cd003d37c9db38c,2023-12-14_23h22.31.081,kallum_motion_pilot,2023.2.3,Win32,60.0240096,616f94cd9cd003d37c9db38c,657bb317c8798c6608bceb3f,657bb40d245848c8fef0ab5f,0.096,0.096,1,25,187,146,1,sixfive,,,,,,,,,,,,,,,,,,,,,,,,,,,,,,,,,,,,,,,,,,,,,,,,,,,,,,,,,,,,,,,,,,,,,,,,,,,,,,,,,,,,,,,,,,,,,,,,,,,,,,,,,,,,,,,,,,,,,,,,,,,,,,,,,,,,,,,
,,616f94cd9cd003d37c9db38c,2023-12-14_23h22.31.081,kallum_motion_pilot,2023.2.3,Win32,60.0240096,616f94cd9cd003d37c9db38c,657bb317c8798c6608bceb3f,657bb40d245848c8fef0ab5f,0.097,0.097,1,26,188,100,1,sevenfive,,,,,,,,,,,,,,,,,,,,,,,,,,,,,,,,,,,,,,,,,,,,,,,,,,,,,,,,,,,,,,,,,,,,,,,,,,,,,,,,,,,,,,,,,,,,,,,,,,,,,,,,,,,,,,,,,,,,,,,,,,,,,,,,,,,,,,,
,,616f94cd9cd003d37c9db38c,2023-12-14_23h22.31.081,kallum_motion_pilot,2023.2.3,Win32,60.0240096,616f94cd9cd003d37c9db38c,657bb317c8798c6608bceb3f,657bb40d245848c8fef0ab5f,0.097,0.097,1,27,189,43,1,twofour,,,,,,,,,,,,,,,,,,,,,,,,,,,,,,,,,,,,,,,,,,,,,,,,,,,,,,,,,,,,,,,,,,,,,,,,,,,,,,,,,,,,,,,,,,,,,,,,,,,,,,,,,,,,,,,,,,,,,,,,,,,,,,,,,,,,,,,
,,616f94cd9cd003d37c9db38c,2023-12-14_23h22.31.081,kallum_motion_pilot,2023.2.3,Win32,60.0240096,616f94cd9cd003d37c9db38c,657bb317c8798c6608bceb3f,657bb40d245848c8fef0ab5f,0.097,0.097,1,28,190,120,1,fivesix,,,,,,,,,,,,,,,,,,,,,,,,,,,,,,,,,,,,,,,,,,,,,,,,,,,,,,,,,,,,,,,,,,,,,,,,,,,,,,,,,,,,,,,,,,,,,,,,,,,,,,,,,,,,,,,,,,,,,,,,,,,,,,,,,,,,,,,
,,616f94cd9cd003d37c9db38c,2023-12-14_23h22.31.081,kallum_motion_pilot,2023.2.3,Win32,60.0240096,616f94cd9cd003d37c9db38c,657bb317c8798c6608bceb3f,657bb40d245848c8fef0ab5f,0.097,0.097,1,29,191,69,1,threefour,,,,,,,,,,,,,,,,,,,,,,,,,,,,,,,,,,,,,,,,,,,,,,,,,,,,,,,,,,,,,,,,,,,,,,,,,,,,,,,,,,,,,,,,,,,,,,,,,,,,,,,,,,,,,,,,,,,,,,,,,,,,,,,,,,,,,,,
,,616f94cd9cd003d37c9db38c,2023-12-14_23h22.31.081,kallum_motion_pilot,2023.2.3,Win32,60.0240096,616f94cd9cd003d37c9db38c,657bb317c8798c6608bceb3f,657bb40d245848c8fef0ab5f,0.097,0.097,1,30,192,127,1,eightseven,,,,,,,,,,,,,,,,,,,,,,,,,,,,,,,,,,,,,,,,,,,,,,,,,,,,,,,,,,,,,,,,,,,,,,,,,,,,,,,,,,,,,,,,,,,,,,,,,,,,,,,,,,,,,,,,,,,,,,,,,,,,,,,,,,,,,,,
,,616f94cd9cd003d37c9db38c,2023-12-14_23h22.31.081,kallum_motion_pilot,2023.2.3,Win32,60.0240096,616f94cd9cd003d37c9db38c,657bb317c8798c6608bceb3f,657bb40d245848c8fef0ab5f,0.097,0.097,1,31,193,32,1,onetwo,,,,,,,,,,,,,,,,,,,,,,,,,,,,,,,,,,,,,,,,,,,,,,,,,,,,,,,,,,,,,,,,,,,,,,,,,,,,,,,,,,,,,,,,,,,,,,,,,,,,,,,,,,,,,,,,,,,,,,,,,,,,,,,,,,,,,,,
,,616f94cd9cd003d37c9db38c,2023-12-14_23h22.31.081,kallum_motion_pilot,2023.2.3,Win32,60.0240096,616f94cd9cd003d37c9db38c,657bb317c8798c6608bceb3f,657bb40d245848c8fef0ab5f,0.097,0.097,1,32,194,91,1,sixeight,,,,,,,,,,,,,,,,,,,,,,,,,,,,,,,,,,,,,,,,,,,,,,,,,,,,,,,,,,,,,,,,,,,,,,,,,,,,,,,,,,,,,,,,,,,,,,,,,,,,,,,,,,,,,,,,,,,,,,,,,,,,,,,,,,,,,,,
,,616f94cd9cd003d37c9db38c,2023-12-14_23h22.31.081,kallum_motion_pilot,2023.2.3,Win32,60.0240096,616f94cd9cd003d37c9db38c,657bb317c8798c6608bceb3f,657bb40d245848c8fef0ab5f,0.098,0.098,1,33,195,1,1,onethree,,,,,,,,,,,,,,,,,,,,,,,,,,,,,,,,,,,,,,,,,,,,,,,,,,,,,,,,,,,,,,,,,,,,,,,,,,,,,,,,,,,,,,,,,,,,,,,,,,,,,,,,,,,,,,,,,,,,,,,,,,,,,,,,,,,,,,,
,,616f94cd9cd003d37c9db38c,2023-12-14_23h22.31.081,kallum_motion_pilot,2023.2.3,Win32,60.0240096,616f94cd9cd003d37c9db38c,657bb317c8798c6608bceb3f,657bb40d245848c8fef0ab5f,0.098,0.098,1,34,196,51,1,twofour,,,,,,,,,,,,,,,,,,,,,,,,,,,,,,,,,,,,,,,,,,,,,,,,,,,,,,,,,,,,,,,,,,,,,,,,,,,,,,,,,,,,,,,,,,,,,,,,,,,,,,,,,,,,,,,,,,,,,,,,,,,,,,,,,,,,,,,
,,616f94cd9cd003d37c9db38c,2023-12-14_23h22.31.081,kallum_motion_pilot,2023.2.3,Win32,60.0240096,616f94cd9cd003d37c9db38c,657bb317c8798c6608bceb3f,657bb40d245848c8fef0ab5f,0.098,0.098,1,35,197,122,1,sixfive,,,,,,,,,,,,,,,,,,,,,,,,,,,,,,,,,,,,,,,,,,,,,,,,,,,,,,,,,,,,,,,,,,,,,,,,,,,,,,,,,,,,,,,,,,,,,,,,,,,,,,,,,,,,,,,,,,,,,,,,,,,,,,,,,,,,,,,
,,616f94cd9cd003d37c9db38c,2023-12-14_23h22.31.081,kallum_motion_pilot,2023.2.3,Win32,60.0240096,616f94cd9cd003d37c9db38c,657bb317c8798c6608bceb3f,657bb40d245848c8fef0ab5f,0.098,0.098,1,36,198,45,1,threefour,,,,,,,,,,,,,,,,,,,,,,,,,,,,,,,,,,,,,,,,,,,,,,,,,,,,,,,,,,,,,,,,,,,,,,,,,,,,,,,,,,,,,,,,,,,,,,,,,,,,,,,,,,,,,,,,,,,,,,,,,,,,,,,,,,,,,,,
,,616f94cd9cd003d37c9db38c,2023-12-14_23h22.31.081,kallum_motion_pilot,2023.2.3,Win32,60.0240096,616f94cd9cd003d37c9db38c,657bb317c8798c6608bceb3f,657bb40d245848c8fef0ab5f,0.098,0.098,1,37,199,8,1,onetwo,,,,,,,,,,,,,,,,,,,,,,,,,,,,,,,,,,,,,,,,,,,,,,,,,,,,,,,,,,,,,,,,,,,,,,,,,,,,,,,,,,,,,,,,,,,,,,,,,,,,,,,,,,,,,,,,,,,,,,,,,,,,,,,,,,,,,,,
,,616f94cd9cd003d37c9db38c,2023-12-14_23h22.31.081,kallum_motion_pilot,2023.2.3,Win32,60.0240096,616f94cd9cd003d37c9db38c,657bb317c8798c6608bceb3f,657bb40d245848c8fef0ab5f,0.098,0.098,1,38,200,75,1,twofour,,,,,,,,,,,,,,,,,,,,,,,,,,,,,,,,,,,,,,,,,,,,,,,,,,,,,,,,,,,,,,,,,,,,,,,,,,,,,,,,,,,,,,,,,,,,,,,,,,,,,,,,,,,,,,,,,,,,,,,,,,,,,,,,,,,,,,,
,,616f94cd9cd003d37c9db38c,2023-12-14_23h22.31.081,kallum_motion_pilot,2023.2.3,Win32,60.0240096,616f94cd9cd003d37c9db38c,657bb317c8798c6608bceb3f,657bb40d245848c8fef0ab5f,0.099,0.099,1,39,201,21,1,threefour,,,,,,,,,,,,,,,,,,,,,,,,,,,,,,,,,,,,,,,,,,,,,,,,,,,,,,,,,,,,,,,,,,,,,,,,,,,,,,,,,,,,,,,,,,,,,,,,,,,,,,,,,,,,,,,,,,,,,,,,,,,,,,,,,,,,,,,
,,616f94cd9cd003d37c9db38c,2023-12-14_23h22.31.081,kallum_motion_pilot,2023.2.3,Win32,60.0240096,616f94cd9cd003d37c9db38c,657bb317c8798c6608bceb3f,657bb40d245848c8fef0ab5f,0.099,0.099,1,40,202,139,1,sixeight,,,,,,,,,,,,,,,,,,,,,,,,,,,,,,,,,,,,,,,,,,,,,,,,,,,,,,,,,,,,,,,,,,,,,,,,,,,,,,,,,,,,,,,,,,,,,,,,,,,,,,,,,,,,,,,,,,,,,,,,,,,,,,,,,,,,,,,
,,616f94cd9cd003d37c9db38c,2023-12-14_23h22.31.081,kallum_motion_pilot,2023.2.3,Win32,60.0240096,616f94cd9cd003d37c9db38c,657bb317c8798c6608bceb3f,657bb40d245848c8fef0ab5f,0.099,0.099,1,41,203,74,1,twoone,,,,,,,,,,,,,,,,,,,,,,,,,,,,,,,,,,,,,,,,,,,,,,,,,,,,,,,,,,,,,,,,,,,,,,,,,,,,,,,,,,,,,,,,,,,,,,,,,,,,,,,,,,,,,,,,,,,,,,,,,,,,,,,,,,,,,,,
,,616f94cd9cd003d37c9db38c,2023-12-14_23h22.31.081,kallum_motion_pilot,2023.2.3,Win32,60.0240096,616f94cd9cd003d37c9db38c,657bb317c8798c6608bceb3f,657bb40d245848c8fef0ab5f,0.099,0.099,1,42,204,128,1,fivesix,,,,,,,,,,,,,,,,,,,,,,,,,,,,,,,,,,,,,,,,,,,,,,,,,,,,,,,,,,,,,,,,,,,,,,,,,,,,,,,,,,,,,,,,,,,,,,,,,,,,,,,,,,,,,,,,,,,,,,,,,,,,,,,,,,,,,,,
,,616f94cd9cd003d37c9db38c,2023-12-14_23h22.31.081,kallum_motion_pilot,2023.2.3,Win32,60.0240096,616f94cd9cd003d37c9db38c,657bb317c8798c6608bceb3f,657bb40d245848c8fef0ab5f,0.099,0.099,1,43,205,133,1,seveneight,,,,,,,,,,,,,,,,,,,,,,,,,,,,,,,,,,,,,,,,,,,,,,,,,,,,,,,,,,,,,,,,,,,,,,,,,,,,,,,,,,,,,,,,,,,,,,,,,,,,,,,,,,,,,,,,,,,,,,,,,,,,,,,,,,,,,,,
,,616f94cd9cd003d37c9db38c,2023-12-14_23h22.31.081,kallum_motion_pilot,2023.2.3,Win32,60.0240096,616f94cd9cd003d37c9db38c,657bb317c8798c6608bceb3f,657bb40d245848c8fef0ab5f,0.099,0.099,1,44,206,80,1,fivesix,,,,,,,,,,,,,,,,,,,,,,,,,,,,,,,,,,,,,,,,,,,,,,,,,,,,,,,,,,,,,,,,,,,,,,,,,,,,,,,,,,,,,,,,,,,,,,,,,,,,,,,,,,,,,,,,,,,,,,,,,,,,,,,,,,,,,,,
,,616f94cd9cd003d37c9db38c,2023-12-14_23h22.31.081,kallum_motion_pilot,2023.2.3,Win32,60.0240096,616f94cd9cd003d37c9db38c,657bb317c8798c6608bceb3f,657bb40d245848c8fef0ab5f,0.099,0.099,1,45,207,85,1,seveneight,,,,,,,,,,,,,,,,,,,,,,,,,,,,,,,,,,,,,,,,,,,,,,,,,,,,,,,,,,,,,,,,,,,,,,,,,,,,,,,,,,,,,,,,,,,,,,,,,,,,,,,,,,,,,,,,,,,,,,,,,,,,,,,,,,,,,,,
,,616f94cd9cd003d37c9db38c,2023-12-14_23h22.31.081,kallum_motion_pilot,2023.2.3,Win32,60.0240096,616f94cd9cd003d37c9db38c,657bb317c8798c6608bceb3f,657bb40d245848c8fef0ab5f,0.099,0.099,1,46,208,143,1,eightseven,,,,,,,,,,,,,,,,,,,,,,,,,,,,,,,,,,,,,,,,,,,,,,,,,,,,,,,,,,,,,,,,,,,,,,,,,,,,,,,,,,,,,,,,,,,,,,,,,,,,,,,,,,,,,,,,,,,,,,,,,,,,,,,,,,,,,,,
,,616f94cd9cd003d37c9db38c,2023-12-14_23h22.31.081,kallum_motion_pilot,2023.2.3,Win32,60.0240096,616f94cd9cd003d37c9db38c,657bb317c8798c6608bceb3f,657bb40d245848c8fef0ab5f,0.099,0.099,1,47,209,31,1,fourthree,,,,,,,,,,,,,,,,,,,,,,,,,,,,,,,,,,,,,,,,,,,,,,,,,,,,,,,,,,,,,,,,,,,,,,,,,,,,,,,,,,,,,,,,,,,,,,,,,,,,,,,,,,,,,,,,,,,,,,,,,,,,,,,,,,,,,,,
,,616f94cd9cd003d37c9db38c,2023-12-14_23h22.31.081,kallum_motion_pilot,2023.2.3,Win32,60.0240096,616f94cd9cd003d37c9db38c,657bb317c8798c6608bceb3f,657bb40d245848c8fef0ab5f,0.099,0.099,1,48,210,11,1,twofour,,,,,,,,,,,,,,,,,,,,,,,,,,,,,,,,,,,,,,,,,,,,,,,,,,,,,,,,,,,,,,,,,,,,,,,,,,,,,,,,,,,,,,,,,,,,,,,,,,,,,,,,,,,,,,,,,,,,,,,,,,,,,,,,,,,,,,,
,,616f94cd9cd003d37c9db38c,2023-12-14_23h22.31.081,kallum_motion_pilot,2023.2.3,Win32,60.0240096,616f94cd9cd003d37c9db38c,657bb317c8798c6608bceb3f,657bb40d245848c8fef0ab5f,0.099,0.099,1,49,211,83,1,sixeight,,,,,,,,,,,,,,,,,,,,,,,,,,,,,,,,,,,,,,,,,,,,,,,,,,,,,,,,,,,,,,,,,,,,,,,,,,,,,,,,,,,,,,,,,,,,,,,,,,,,,,,,,,,,,,,,,,,,,,,,,,,,,,,,,,,,,,,
,,616f94cd9cd003d37c9db38c,2023-12-14_23h22.31.081,kallum_motion_pilot,2023.2.3,Win32,60.0240096,616f94cd9cd003d37c9db38c,657bb317c8798c6608bceb3f,657bb40d245848c8fef0ab5f,0.099,0.099,1,50,212,144,1,fivesix,,,,,,,,,,,,,,,,,,,,,,,,,,,,,,,,,,,,,,,,,,,,,,,,,,,,,,,,,,,,,,,,,,,,,,,,,,,,,,,,,,,,,,,,,,,,,,,,,,,,,,,,,,,,,,,,,,,,,,,,,,,,,,,,,,,,,,,
,,616f94cd9cd003d37c9db38c,2023-12-14_23h22.31.081,kallum_motion_pilot,2023.2.3,Win32,60.0240096,616f94cd9cd003d37c9db38c,657bb317c8798c6608bceb3f,657bb40d245848c8fef0ab5f,0.099,0.099,1,51,213,121,1,fiveseven,,,,,,,,,,,,,,,,,,,,,,,,,,,,,,,,,,,,,,,,,,,,,,,,,,,,,,,,,,,,,,,,,,,,,,,,,,,,,,,,,,,,,,,,,,,,,,,,,,,,,,,,,,,,,,,,,,,,,,,,,,,,,,,,,,,,,,,
,,616f94cd9cd003d37c9db38c,2023-12-14_23h22.31.081,kallum_motion_pilot,2023.2.3,Win32,60.0240096,616f94cd9cd003d37c9db38c,657bb317c8798c6608bceb3f,657bb40d245848c8fef0ab5f,0.099,0.099,1,52,214,118,1,eightsix,,,,,,,,,,,,,,,,,,,,,,,,,,,,,,,,,,,,,,,,,,,,,,,,,,,,,,,,,,,,,,,,,,,,,,,,,,,,,,,,,,,,,,,,,,,,,,,,,,,,,,,,,,,,,,,,,,,,,,,,,,,,,,,,,,,,,,,
,,616f94cd9cd003d37c9db38c,2023-12-14_23h22.31.081,kallum_motion_pilot,2023.2.3,Win32,60.0240096,616f94cd9cd003d37c9db38c,657bb317c8798c6608bceb3f,657bb40d245848c8fef0ab5f,0.1,0.1,1,53,215,65,1,onethree,,,,,,,,,,,,,,,,,,,,,,,,,,,,,,,,,,,,,,,,,,,,,,,,,,,,,,,,,,,,,,,,,,,,,,,,,,,,,,,,,,,,,,,,,,,,,,,,,,,,,,,,,,,,,,,,,,,,,,,,,,,,,,,,,,,,,,,
,,616f94cd9cd003d37c9db38c,2023-12-14_23h22.31.081,kallum_motion_pilot,2023.2.3,Win32,60.0240096,616f94cd9cd003d37c9db38c,657bb317c8798c6608bceb3f,657bb40d245848c8fef0ab5f,0.1,0.1,1,54,216,90,1,sixfive,,,,,,,,,,,,,,,,,,,,,,,,,,,,,,,,,,,,,,,,,,,,,,,,,,,,,,,,,,,,,,,,,,,,,,,,,,,,,,,,,,,,,,,,,,,,,,,,,,,,,,,,,,,,,,,,,,,,,,,,,,,,,,,,,,,,,,,
,,616f94cd9cd003d37c9db38c,2023-12-14_23h22.31.081,kallum_motion_pilot,2023.2.3,Win32,60.0240096,616f94cd9cd003d37c9db38c,657bb317c8798c6608bceb3f,657bb40d245848c8fef0ab5f,0.101,0.101,1,55,217,134,1,eightsix,,,,,,,,,,,,,,,,,,,,,,,,,,,,,,,,,,,,,,,,,,,,,,,,,,,,,,,,,,,,,,,,,,,,,,,,,,,,,,,,,,,,,,,,,,,,,,,,,,,,,,,,,,,,,,,,,,,,,,,,,,,,,,,,,,,,,,,
,,616f94cd9cd003d37c9db38c,2023-12-14_23h22.31.081,kallum_motion_pilot,2023.2.3,Win32,60.0240096,616f94cd9cd003d37c9db38c,657bb317c8798c6608bceb3f,657bb40d245848c8fef0ab5f,0.101,0.101,1,56,218,117,1,seveneight,,,,,,,,,,,,,,,,,,,,,,,,,,,,,,,,,,,,,,,,,,,,,,,,,,,,,,,,,,,,,,,,,,,,,,,,,,,,,,,,,,,,,,,,,,,,,,,,,,,,,,,,,,,,,,,,,,,,,,,,,,,,,,,,,,,,,,,
,,616f94cd9cd003d37c9db38c,2023-12-14_23h22.31.081,kallum_motion_pilot,2023.2.3,Win32,60.0240096,616f94cd9cd003d37c9db38c,657bb317c8798c6608bceb3f,657bb40d245848c8fef0ab5f,0.101,0.101,1,57,219,17,1,onethree,,,,,,,,,,,,,,,,,,,,,,,,,,,,,,,,,,,,,,,,,,,,,,,,,,,,,,,,,,,,,,,,,,,,,,,,,,,,,,,,,,,,,,,,,,,,,,,,,,,,,,,,,,,,,,,,,,,,,,,,,,,,,,,,,,,,,,,
,,616f94cd9cd003d37c9db38c,2023-12-14_23h22.31.081,kallum_motion_pilot,2023.2.3,Win32,60.0240096,616f94cd9cd003d37c9db38c,657bb317c8798c6608bceb3f,657bb40d245848c8fef0ab5f,0.101,0.101,1,58,220,48,1,onetwo,,,,,,,,,,,,,,,,,,,,,,,,,,,,,,,,,,,,,,,,,,,,,,,,,,,,,,,,,,,,,,,,,,,,,,,,,,,,,,,,,,,,,,,,,,,,,,,,,,,,,,,,,,,,,,,,,,,,,,,,,,,,,,,,,,,,,,,
,,616f94cd9cd003d37c9db38c,2023-12-14_23h22.31.081,kallum_motion_pilot,2023.2.3,Win32,60.0240096,616f94cd9cd003d37c9db38c,657bb317c8798c6608bceb3f,657bb40d245848c8fef0ab5f,0.101,0.101,1,59,221,46,1,fourtwo,,,,,,,,,,,,,,,,,,,,,,,,,,,,,,,,,,,,,,,,,,,,,,,,,,,,,,,,,,,,,,,,,,,,,,,,,,,,,,,,,,,,,,,,,,,,,,,,,,,,,,,,,,,,,,,,,,,,,,,,,,,,,,,,,,,,,,,
,,616f94cd9cd003d37c9db38c,2023-12-14_23h22.31.081,kallum_motion_pilot,2023.2.3,Win32,60.0240096,616f94cd9cd003d37c9db38c,657bb317c8798c6608bceb3f,657bb40d245848c8fef0ab5f,0.101,0.101,1,60,222,68,1,threeone,,,,,,,,,,,,,,,,,,,,,,,,,,,,,,,,,,,,,,,,,,,,,,,,,,,,,,,,,,,,,,,,,,,,,,,,,,,,,,,,,,,,,,,,,,,,,,,,,,,,,,,,,,,,,,,,,,,,,,,,,,,,,,,,,,,,,,,
,,616f94cd9cd003d37c9db38c,2023-12-14_23h22.31.081,kallum_motion_pilot,2023.2.3,Win32,60.0240096,616f94cd9cd003d37c9db38c,657bb317c8798c6608bceb3f,657bb40d245848c8fef0ab5f,0.101,0.101,1,61,223,150,1,eightsix,,,,,,,,,,,,,,,,,,,,,,,,,,,,,,,,,,,,,,,,,,,,,,,,,,,,,,,,,,,,,,,,,,,,,,,,,,,,,,,,,,,,,,,,,,,,,,,,,,,,,,,,,,,,,,,,,,,,,,,,,,,,,,,,,,,,,,,
,,616f94cd9cd003d37c9db38c,2023-12-14_23h22.31.081,kallum_motion_pilot,2023.2.3,Win32,60.0240096,616f94cd9cd003d37c9db38c,657bb317c8798c6608bceb3f,657bb40d245848c8fef0ab5f,0.101,0.101,1,62,224,82,1,sixfive,,,,,,,,,,,,,,,,,,,,,,,,,,,,,,,,,,,,,,,,,,,,,,,,,,,,,,,,,,,,,,,,,,,,,,,,,,,,,,,,,,,,,,,,,,,,,,,,,,,,,,,,,,,,,,,,,,,,,,,,,,,,,,,,,,,,,,,
,,616f94cd9cd003d37c9db38c,2023-12-14_23h22.31.081,kallum_motion_pilot,2023.2.3,Win32,60.0240096,616f94cd9cd003d37c9db38c,657bb317c8798c6608bceb3f,657bb40d245848c8fef0ab5f,0.102,0.102,1,63,225,40,1,onetwo,,,,,,,,,,,,,,,,,,,,,,,,,,,,,,,,,,,,,,,,,,,,,,,,,,,,,,,,,,,,,,,,,,,,,,,,,,,,,,,,,,,,,,,,,,,,,,,,,,,,,,,,,,,,,,,,,,,,,,,,,,,,,,,,,,,,,,,
,,616f94cd9cd003d37c9db38c,2023-12-14_23h22.31.081,kallum_motion_pilot,2023.2.3,Win32,60.0240096,616f94cd9cd003d37c9db38c,657bb317c8798c6608bceb3f,657bb40d245848c8fef0ab5f,0.102,0.102,1,64,226,116,1,sevenfive,,,,,,,,,,,,,,,,,,,,,,,,,,,,,,,,,,,,,,,,,,,,,,,,,,,,,,,,,,,,,,,,,,,,,,,,,,,,,,,,,,,,,,,,,,,,,,,,,,,,,,,,,,,,,,,,,,,,,,,,,,,,,,,,,,,,,,,
,,616f94cd9cd003d37c9db38c,2023-12-14_23h22.31.081,kallum_motion_pilot,2023.2.3,Win32,60.0240096,616f94cd9cd003d37c9db38c,657bb317c8798c6608bceb3f,657bb40d245848c8fef0ab5f,0.102,0.102,1,65,227,151,1,eightseven,,,,,,,,,,,,,,,,,,,,,,,,,,,,,,,,,,,,,,,,,,,,,,,,,,,,,,,,,,,,,,,,,,,,,,,,,,,,,,,,,,,,,,,,,,,,,,,,,,,,,,,,,,,,,,,,,,,,,,,,,,,,,,,,,,,,,,,
,,616f94cd9cd003d37c9db38c,2023-12-14_23h22.31.081,kallum_motion_pilot,2023.2.3,Win32,60.0240096,616f94cd9cd003d37c9db38c,657bb317c8798c6608bceb3f,657bb40d245848c8fef0ab5f,0.102,0.102,1,66,228,30,1,fourtwo,,,,,,,,,,,,,,,,,,,,,,,,,,,,,,,,,,,,,,,,,,,,,,,,,,,,,,,,,,,,,,,,,,,,,,,,,,,,,,,,,,,,,,,,,,,,,,,,,,,,,,,,,,,,,,,,,,,,,,,,,,,,,,,,,,,,,,,
,,616f94cd9cd003d37c9db38c,2023-12-14_23h22.31.081,kallum_motion_pilot,2023.2.3,Win32,60.0240096,616f94cd9cd003d37c9db38c,657bb317c8798c6608bceb3f,657bb40d245848c8fef0ab5f,0.102,0.102,1,67,229,6,1,fourtwo,,,,,,,,,,,,,,,,,,,,,,,,,,,,,,,,,,,,,,,,,,,,,,,,,,,,,,,,,,,,,,,,,,,,,,,,,,,,,,,,,,,,,,,,,,,,,,,,,,,,,,,,,,,,,,,,,,,,,,,,,,,,,,,,,,,,,,,
,,616f94cd9cd003d37c9db38c,2023-12-14_23h22.31.081,kallum_motion_pilot,2023.2.3,Win32,60.0240096,616f94cd9cd003d37c9db38c,657bb317c8798c6608bceb3f,657bb40d245848c8fef0ab5f,0.102,0.102,1,68,230,140,1,sevenfive,,,,,,,,,,,,,,,,,,,,,,,,,,,,,,,,,,,,,,,,,,,,,,,,,,,,,,,,,,,,,,,,,,,,,,,,,,,,,,,,,,,,,,,,,,,,,,,,,,,,,,,,,,,,,,,,,,,,,,,,,,,,,,,,,,,,,,,
,,616f94cd9cd003d37c9db38c,2023-12-14_23h22.31.081,kallum_motion_pilot,2023.2.3,Win32,60.0240096,616f94cd9cd003d37c9db38c,657bb317c8798c6608bceb3f,657bb40d245848c8fef0ab5f,0.102,0.102,1,69,231,49,1,onethree,,,,,,,,,,,,,,,,,,,,,,,,,,,,,,,,,,,,,,,,,,,,,,,,,,,,,,,,,,,,,,,,,,,,,,,,,,,,,,,,,,,,,,,,,,,,,,,,,,,,,,,,,,,,,,,,,,,,,,,,,,,,,,,,,,,,,,,
,,616f94cd9cd003d37c9db38c,2023-12-14_23h22.31.081,kallum_motion_pilot,2023.2.3,Win32,60.0240096,616f94cd9cd003d37c9db38c,657bb317c8798c6608bceb3f,657bb40d245848c8fef0ab5f,0.103,0.103,1,70,232,37,1,threefour,,,,,,,,,,,,,,,,,,,,,,,,,,,,,,,,,,,,,,,,,,,,,,,,,,,,,,,,,,,,,,,,,,,,,,,,,,,,,,,,,,,,,,,,,,,,,,,,,,,,,,,,,,,,,,,,,,,,,,,,,,,,,,,,,,,,,,,
,,616f94cd9cd003d37c9db38c,2023-12-14_23h22.31.081,kallum_motion_pilot,2023.2.3,Win32,60.0240096,616f94cd9cd003d37c9db38c,657bb317c8798c6608bceb3f,657bb40d245848c8fef0ab5f,0.103,0.103,1,71,233,4,1,threeone,,,,,,,,,,,,,,,,,,,,,,,,,,,,,,,,,,,,,,,,,,,,,,,,,,,,,,,,,,,,,,,,,,,,,,,,,,,,,,,,,,,,,,,,,,,,,,,,,,,,,,,,,,,,,,,,,,,,,,,,,,,,,,,,,,,,,,,
,,616f94cd9cd003d37c9db38c,2023-12-14_23h22.31.081,kallum_motion_pilot,2023.2.3,Win32,60.0240096,616f94cd9cd003d37c9db38c,657bb317c8798c6608bceb3f,657bb40d245848c8fef0ab5f,0.103,0.103,1,72,234,145,1,fiveseven,,,,,,,,,,,,,,,,,,,,,,,,,,,,,,,,,,,,,,,,,,,,,,,,,,,,,,,,,,,,,,,,,,,,,,,,,,,,,,,,,,,,,,,,,,,,,,,,,,,,,,,,,,,,,,,,,,,,,,,,,,,,,,,,,,,,,,,
,,616f94cd9cd003d37c9db38c,2023-12-14_23h22.31.081,kallum_motion_pilot,2023.2.3,Win32,60.0240096,616f94cd9cd003d37c9db38c,657bb317c8798c6608bceb3f,657bb40d245848c8fef0ab5f,0.103,0.103,1,73,235,54,1,fourtwo,,,,,,,,,,,,,,,,,,,,,,,,,,,,,,,,,,,,,,,,,,,,,,,,,,,,,,,,,,,,,,,,,,,,,,,,,,,,,,,,,,,,,,,,,,,,,,,,,,,,,,,,,,,,,,,,,,,,,,,,,,,,,,,,,,,,,,,
,,616f94cd9cd003d37c9db38c,2023-12-14_23h22.31.081,kallum_motion_pilot,2023.2.3,Win32,60.0240096,616f94cd9cd003d37c9db38c,657bb317c8798c6608bceb3f,657bb40d245848c8fef0ab5f,0.103,0.103,1,74,236,3,1,twofour,,,,,,,,,,,,,,,,,,,,,,,,,,,,,,,,,,,,,,,,,,,,,,,,,,,,,,,,,,,,,,,,,,,,,,,,,,,,,,,,,,,,,,,,,,,,,,,,,,,,,,,,,,,,,,,,,,,,,,,,,,,,,,,,,,,,,,,
,,616f94cd9cd003d37c9db38c,2023-12-14_23h22.31.081,kallum_motion_pilot,2023.2.3,Win32,60.0240096,616f94cd9cd003d37c9db38c,657bb317c8798c6608bceb3f,657bb40d245848c8fef0ab5f,0.103,0.103,1,75,237,84,1,sevenfive,,,,,,,,,,,,,,,,,,,,,,,,,,,,,,,,,,,,,,,,,,,,,,,,,,,,,,,,,,,,,,,,,,,,,,,,,,,,,,,,,,,,,,,,,,,,,,,,,,,,,,,,,,,,,,,,,,,,,,,,,,,,,,,,,,,,,,,
,,616f94cd9cd003d37c9db38c,2023-12-14_23h22.31.081,kallum_motion_pilot,2023.2.3,Win32,60.0240096,616f94cd9cd003d37c9db38c,657bb317c8798c6608bceb3f,657bb40d245848c8fef0ab5f,0.103,0.103,1,76,238,66,1,twoone,,,,,,,,,,,,,,,,,,,,,,,,,,,,,,,,,,,,,,,,,,,,,,,,,,,,,,,,,,,,,,,,,,,,,,,,,,,,,,,,,,,,,,,,,,,,,,,,,,,,,,,,,,,,,,,,,,,,,,,,,,,,,,,,,,,,,,,
,,616f94cd9cd003d37c9db38c,2023-12-14_23h22.31.081,kallum_motion_pilot,2023.2.3,Win32,60.0240096,616f94cd9cd003d37c9db38c,657bb317c8798c6608bceb3f,657bb40d245848c8fef0ab5f,0.104,0.104,1,77,239,97,1,fiveseven,,,,,,,,,,,,,,,,,,,,,,,,,,,,,,,,,,,,,,,,,,,,,,,,,,,,,,,,,,,,,,,,,,,,,,,,,,,,,,,,,,,,,,,,,,,,,,,,,,,,,,,,,,,,,,,,,,,,,,,,,,,,,,,,,,,,,,,
,,616f94cd9cd003d37c9db38c,2023-12-14_23h22.31.081,kallum_motion_pilot,2023.2.3,Win32,60.0240096,616f94cd9cd003d37c9db38c,657bb317c8798c6608bceb3f,657bb40d245848c8fef0ab5f,0.104,0.104,1,78,240,141,1,seveneight,,,,,,,,,,,,,,,,,,,,,,,,,,,,,,,,,,,,,,,,,,,,,,,,,,,,,,,,,,,,,,,,,,,,,,,,,,,,,,,,,,,,,,,,,,,,,,,,,,,,,,,,,,,,,,,,,,,,,,,,,,,,,,,,,,,,,,,
,,616f94cd9cd003d37c9db38c,2023-12-14_23h22.31.081,kallum_motion_pilot,2023.2.3,Win32,60.0240096,616f94cd9cd003d37c9db38c,657bb317c8798c6608bceb3f,657bb40d245848c8fef0ab5f,0.104,0.104,1,79,241,108,1,sevenfive,,,,,,,,,,,,,,,,,,,,,,,,,,,,,,,,,,,,,,,,,,,,,,,,,,,,,,,,,,,,,,,,,,,,,,,,,,,,,,,,,,,,,,,,,,,,,,,,,,,,,,,,,,,,,,,,,,,,,,,,,,,,,,,,,,,,,,,
,,616f94cd9cd003d37c9db38c,2023-12-14_23h22.31.081,kallum_motion_pilot,2023.2.3,Win32,60.0240096,616f94cd9cd003d37c9db38c,657bb317c8798c6608bceb3f,657bb40d245848c8fef0ab5f,0.104,0.104,1,80,242,158,1,eightsix,,,,,,,,,,,,,,,,,,,,,,,,,,,,,,,,,,,,,,,,,,,,,,,,,,,,,,,,,,,,,,,,,,,,,,,,,,,,,,,,,,,,,,,,,,,,,,,,,,,,,,,,,,,,,,,,,,,,,,,,,,,,,,,,,,,,,,,
,,616f94cd9cd003d37c9db38c,2023-12-14_23h22.31.081,kallum_motion_pilot,2023.2.3,Win32,60.0240096,616f94cd9cd003d37c9db38c,657bb317c8798c6608bceb3f,657bb40d245848c8fef0ab5f,0.104,0.104,1,81,243,124,1,sevenfive,,,,,,,,,,,,,,,,,,,,,,,,,,,,,,,,,,,,,,,,,,,,,,,,,,,,,,,,,,,,,,,,,,,,,,,,,,,,,,,,,,,,,,,,,,,,,,,,,,,,,,,,,,,,,,,,,,,,,,,,,,,,,,,,,,,,,,,
,,616f94cd9cd003d37c9db38c,2023-12-14_23h22.31.081,kallum_motion_pilot,2023.2.3,Win32,60.0240096,616f94cd9cd003d37c9db38c,657bb317c8798c6608bceb3f,657bb40d245848c8fef0ab5f,0.104,0.104,1,82,244,147,1,sixeight,,,,,,,,,,,,,,,,,,,,,,,,,,,,,,,,,,,,,,,,,,,,,,,,,,,,,,,,,,,,,,,,,,,,,,,,,,,,,,,,,,,,,,,,,,,,,,,,,,,,,,,,,,,,,,,,,,,,,,,,,,,,,,,,,,,,,,,
,,616f94cd9cd003d37c9db38c,2023-12-14_23h22.31.081,kallum_motion_pilot,2023.2.3,Win32,60.0240096,616f94cd9cd003d37c9db38c,657bb317c8798c6608bceb3f,657bb40d245848c8fef0ab5f,0.104,0.104,1,83,245,36,1,threeone,,,,,,,,,,,,,,,,,,,,,,,,,,,,,,,,,,,,,,,,,,,,,,,,,,,,,,,,,,,,,,,,,,,,,,,,,,,,,,,,,,,,,,,,,,,,,,,,,,,,,,,,,,,,,,,,,,,,,,,,,,,,,,,,,,,,,,,
,,616f94cd9cd003d37c9db38c,2023-12-14_23h22.31.081,kallum_motion_pilot,2023.2.3,Win32,60.0240096,616f94cd9cd003d37c9db38c,657bb317c8798c6608bceb3f,657bb40d245848c8fef0ab5f,0.106,0.106,1,84,246,14,1,fourtwo,,,,,,,,,,,,,,,,,,,,,,,,,,,,,,,,,,,,,,,,,,,,,,,,,,,,,,,,,,,,,,,,,,,,,,,,,,,,,,,,,,,,,,,,,,,,,,,,,,,,,,,,,,,,,,,,,,,,,,,,,,,,,,,,,,,,,,,
,,616f94cd9cd003d37c9db38c,2023-12-14_23h22.31.081,kallum_motion_pilot,2023.2.3,Win32,60.0240096,616f94cd9cd003d37c9db38c,657bb317c8798c6608bceb3f,657bb40d245848c8fef0ab5f,0.106,0.106,1,85,247,153,1,fiveseven,,,,,,,,,,,,,,,,,,,,,,,,,,,,,,,,,,,,,,,,,,,,,,,,,,,,,,,,,,,,,,,,,,,,,,,,,,,,,,,,,,,,,,,,,,,,,,,,,,,,,,,,,,,,,,,,,,,,,,,,,,,,,,,,,,,,,,,
,,616f94cd9cd003d37c9db38c,2023-12-14_23h22.31.081,kallum_motion_pilot,2023.2.3,Win32,60.0240096,616f94cd9cd003d37c9db38c,657bb317c8798c6608bceb3f,657bb40d245848c8fef0ab5f,0.106,0.106,1,86,248,27,1,twofour,,,,,,,,,,,,,,,,,,,,,,,,,,,,,,,,,,,,,,,,,,,,,,,,,,,,,,,,,,,,,,,,,,,,,,,,,,,,,,,,,,,,,,,,,,,,,,,,,,,,,,,,,,,,,,,,,,,,,,,,,,,,,,,,,,,,,,,
,,616f94cd9cd003d37c9db38c,2023-12-14_23h22.31.081,kallum_motion_pilot,2023.2.3,Win32,60.0240096,616f94cd9cd003d37c9db38c,657bb317c8798c6608bceb3f,657bb40d245848c8fef0ab5f,0.106,0.106,1,87,249,135,1,eightseven,,,,,,,,,,,,,,,,,,,,,,,,,,,,,,,,,,,,,,,,,,,,,,,,,,,,,,,,,,,,,,,,,,,,,,,,,,,,,,,,,,,,,,,,,,,,,,,,,,,,,,,,,,,,,,,,,,,,,,,,,,,,,,,,,,,,,,,
,,616f94cd9cd003d37c9db38c,2023-12-14_23h22.31.081,kallum_motion_pilot,2023.2.3,Win32,60.0240096,616f94cd9cd003d37c9db38c,657bb317c8798c6608bceb3f,657bb40d245848c8fef0ab5f,0.107,0.107,1,88,250,15,1,fourthree,,,,,,,,,,,,,,,,,,,,,,,,,,,,,,,,,,,,,,,,,,,,,,,,,,,,,,,,,,,,,,,,,,,,,,,,,,,,,,,,,,,,,,,,,,,,,,,,,,,,,,,,,,,,,,,,,,,,,,,,,,,,,,,,,,,,,,,
,,616f94cd9cd003d37c9db38c,2023-12-14_23h22.31.081,kallum_motion_pilot,2023.2.3,Win32,60.0240096,616f94cd9cd003d37c9db38c,657bb317c8798c6608bceb3f,657bb40d245848c8fef0ab5f,0.107,0.107,1,89,251,73,1,onethree,,,,,,,,,,,,,,,,,,,,,,,,,,,,,,,,,,,,,,,,,,,,,,,,,,,,,,,,,,,,,,,,,,,,,,,,,,,,,,,,,,,,,,,,,,,,,,,,,,,,,,,,,,,,,,,,,,,,,,,,,,,,,,,,,,,,,,,
,,616f94cd9cd003d37c9db38c,2023-12-14_23h22.31.081,kallum_motion_pilot,2023.2.3,Win32,60.0240096,616f94cd9cd003d37c9db38c,657bb317c8798c6608bceb3f,657bb40d245848c8fef0ab5f,0.107,0.107,1,90,252,119,1,eightseven,,,,,,,,,,,,,,,,,,,,,,,,,,,,,,,,,,,,,,,,,,,,,,,,,,,,,,,,,,,,,,,,,,,,,,,,,,,,,,,,,,,,,,,,,,,,,,,,,,,,,,,,,,,,,,,,,,,,,,,,,,,,,,,,,,,,,,,
,,616f94cd9cd003d37c9db38c,2023-12-14_23h22.31.081,kallum_motion_pilot,2023.2.3,Win32,60.0240096,616f94cd9cd003d37c9db38c,657bb317c8798c6608bceb3f,657bb40d245848c8fef0ab5f,0.107,0.107,1,91,253,34,1,twoone,,,,,,,,,,,,,,,,,,,,,,,,,,,,,,,,,,,,,,,,,,,,,,,,,,,,,,,,,,,,,,,,,,,,,,,,,,,,,,,,,,,,,,,,,,,,,,,,,,,,,,,,,,,,,,,,,,,,,,,,,,,,,,,,,,,,,,,
,,616f94cd9cd003d37c9db38c,2023-12-14_23h22.31.081,kallum_motion_pilot,2023.2.3,Win32,60.0240096,616f94cd9cd003d37c9db38c,657bb317c8798c6608bceb3f,657bb40d245848c8fef0ab5f,0.107,0.107,1,92,254,93,1,seveneight,,,,,,,,,,,,,,,,,,,,,,,,,,,,,,,,,,,,,,,,,,,,,,,,,,,,,,,,,,,,,,,,,,,,,,,,,,,,,,,,,,,,,,,,,,,,,,,,,,,,,,,,,,,,,,,,,,,,,,,,,,,,,,,,,,,,,,,
,,616f94cd9cd003d37c9db38c,2023-12-14_23h22.31.081,kallum_motion_pilot,2023.2.3,Win32,60.0240096,616f94cd9cd003d37c9db38c,657bb317c8798c6608bceb3f,657bb40d245848c8fef0ab5f,0.107,0.107,1,93,255,156,1,sevenfive,,,,,,,,,,,,,,,,,,,,,,,,,,,,,,,,,,,,,,,,,,,,,,,,,,,,,,,,,,,,,,,,,,,,,,,,,,,,,,,,,,,,,,,,,,,,,,,,,,,,,,,,,,,,,,,,,,,,,,,,,,,,,,,,,,,,,,,
,,616f94cd9cd003d37c9db38c,2023-12-14_23h22.31.081,kallum_motion_pilot,2023.2.3,Win32,60.0240096,616f94cd9cd003d37c9db38c,657bb317c8798c6608bceb3f,657bb40d245848c8fef0ab5f,0.107,0.107,1,94,256,89,1,fiveseven,,,,,,,,,,,,,,,,,,,,,,,,,,,,,,,,,,,,,,,,,,,,,,,,,,,,,,,,,,,,,,,,,,,,,,,,,,,,,,,,,,,,,,,,,,,,,,,,,,,,,,,,,,,,,,,,,,,,,,,,,,,,,,,,,,,,,,,
,,616f94cd9cd003d37c9db38c,2023-12-14_23h22.31.081,kallum_motion_pilot,2023.2.3,Win32,60.0240096,616f94cd9cd003d37c9db38c,657bb317c8798c6608bceb3f,657bb40d245848c8fef0ab5f,0.107,0.107,1,95,257,71,1,fourthree,,,,,,,,,,,,,,,,,,,,,,,,,,,,,,,,,,,,,,,,,,,,,,,,,,,,,,,,,,,,,,,,,,,,,,,,,,,,,,,,,,,,,,,,,,,,,,,,,,,,,,,,,,,,,,,,,,,,,,,,,,,,,,,,,,,,,,,
,,616f94cd9cd003d37c9db38c,2023-12-14_23h22.31.081,kallum_motion_pilot,2023.2.3,Win32,60.0240096,616f94cd9cd003d37c9db38c,657bb317c8798c6608bceb3f,657bb40d245848c8fef0ab5f,0.107,0.107,1,96,258,125,1,seveneight,,,,,,,,,,,,,,,,,,,,,,,,,,,,,,,,,,,,,,,,,,,,,,,,,,,,,,,,,,,,,,,,,,,,,,,,,,,,,,,,,,,,,,,,,,,,,,,,,,,,,,,,,,,,,,,,,,,,,,,,,,,,,,,,,,,,,,,
,,616f94cd9cd003d37c9db38c,2023-12-14_23h22.31.081,kallum_motion_pilot,2023.2.3,Win32,60.0240096,616f94cd9cd003d37c9db38c,657bb317c8798c6608bceb3f,657bb40d245848c8fef0ab5f,0.107,0.108,1,97,259,39,1,fourthree,,,,,,,,,,,,,,,,,,,,,,,,,,,,,,,,,,,,,,,,,,,,,,,,,,,,,,,,,,,,,,,,,,,,,,,,,,,,,,,,,,,,,,,,,,,,,,,,,,,,,,,,,,,,,,,,,,,,,,,,,,,,,,,,,,,,,,,
,,616f94cd9cd003d37c9db38c,2023-12-14_23h22.31.081,kallum_motion_pilot,2023.2.3,Win32,60.0240096,616f94cd9cd003d37c9db38c,657bb317c8798c6608bceb3f,657bb40d245848c8fef0ab5f,0.108,0.108,1,98,260,132,1,sevenfive,,,,,,,,,,,,,,,,,,,,,,,,,,,,,,,,,,,,,,,,,,,,,,,,,,,,,,,,,,,,,,,,,,,,,,,,,,,,,,,,,,,,,,,,,,,,,,,,,,,,,,,,,,,,,,,,,,,,,,,,,,,,,,,,,,,,,,,
,,616f94cd9cd003d37c9db38c,2023-12-14_23h22.31.081,kallum_motion_pilot,2023.2.3,Win32,60.0240096,616f94cd9cd003d37c9db38c,657bb317c8798c6608bceb3f,657bb40d245848c8fef0ab5f,0.108,0.108,1,99,261,155,1,sixeight,,,,,,,,,,,,,,,,,,,,,,,,,,,,,,,,,,,,,,,,,,,,,,,,,,,,,,,,,,,,,,,,,,,,,,,,,,,,,,,,,,,,,,,,,,,,,,,,,,,,,,,,,,,,,,,,,,,,,,,,,,,,,,,,,,,,,,,
,,616f94cd9cd003d37c9db38c,2023-12-14_23h22.31.081,kallum_motion_pilot,2023.2.3,Win32,60.0240096,616f94cd9cd003d37c9db38c,657bb317c8798c6608bceb3f,657bb40d245848c8fef0ab5f,0.108,0.108,1,100,262,41,1,onethree,,,,,,,,,,,,,,,,,,,,,,,,,,,,,,,,,,,,,,,,,,,,,,,,,,,,,,,,,,,,,,,,,,,,,,,,,,,,,,,,,,,,,,,,,,,,,,,,,,,,,,,,,,,,,,,,,,,,,,,,,,,,,,,,,,,,,,,
,,616f94cd9cd003d37c9db38c,2023-12-14_23h22.31.081,kallum_motion_pilot,2023.2.3,Win32,60.0240096,616f94cd9cd003d37c9db38c,657bb317c8798c6608bceb3f,657bb40d245848c8fef0ab5f,0.108,0.108,1,101,263,96,1,fivesix,,,,,,,,,,,,,,,,,,,,,,,,,,,,,,,,,,,,,,,,,,,,,,,,,,,,,,,,,,,,,,,,,,,,,,,,,,,,,,,,,,,,,,,,,,,,,,,,,,,,,,,,,,,,,,,,,,,,,,,,,,,,,,,,,,,,,,,
,,616f94cd9cd003d37c9db38c,2023-12-14_23h22.31.081,kallum_motion_pilot,2023.2.3,Win32,60.0240096,616f94cd9cd003d37c9db38c,657bb317c8798c6608bceb3f,657bb40d245848c8fef0ab5f,0.108,0.108,1,102,264,113,1,fiveseven,,,,,,,,,,,,,,,,,,,,,,,,,,,,,,,,,,,,,,,,,,,,,,,,,,,,,,,,,,,,,,,,,,,,,,,,,,,,,,,,,,,,,,,,,,,,,,,,,,,,,,,,,,,,,,,,,,,,,,,,,,,,,,,,,,,,,,,
,,616f94cd9cd003d37c9db38c,2023-12-14_23h22.31.081,kallum_motion_pilot,2023.2.3,Win32,60.0240096,616f94cd9cd003d37c9db38c,657bb317c8798c6608bceb3f,657bb40d245848c8fef0ab5f,0.108,0.108,1,103,265,58,1,twoone,,,,,,,,,,,,,,,,,,,,,,,,,,,,,,,,,,,,,,,,,,,,,,,,,,,,,,,,,,,,,,,,,,,,,,,,,,,,,,,,,,,,,,,,,,,,,,,,,,,,,,,,,,,,,,,,,,,,,,,,,,,,,,,,,,,,,,,
,,616f94cd9cd003d37c9db38c,2023-12-14_23h22.31.081,kallum_motion_pilot,2023.2.3,Win32,60.0240096,616f94cd9cd003d37c9db38c,657bb317c8798c6608bceb3f,657bb40d245848c8fef0ab5f,0.108,0.108,1,104,266,35,1,twofour,,,,,,,,,,,,,,,,,,,,,,,,,,,,,,,,,,,,,,,,,,,,,,,,,,,,,,,,,,,,,,,,,,,,,,,,,,,,,,,,,,,,,,,,,,,,,,,,,,,,,,,,,,,,,,,,,,,,,,,,,,,,,,,,,,,,,,,
,,616f94cd9cd003d37c9db38c,2023-12-14_23h22.31.081,kallum_motion_pilot,2023.2.3,Win32,60.0240096,616f94cd9cd003d37c9db38c,657bb317c8798c6608bceb3f,657bb40d245848c8fef0ab5f,0.108,0.108,1,105,267,67,1,twofour,,,,,,,,,,,,,,,,,,,,,,,,,,,,,,,,,,,,,,,,,,,,,,,,,,,,,,,,,,,,,,,,,,,,,,,,,,,,,,,,,,,,,,,,,,,,,,,,,,,,,,,,,,,,,,,,,,,,,,,,,,,,,,,,,,,,,,,
,,616f94cd9cd003d37c9db38c,2023-12-14_23h22.31.081,kallum_motion_pilot,2023.2.3,Win32,60.0240096,616f94cd9cd003d37c9db38c,657bb317c8798c6608bceb3f,657bb40d245848c8fef0ab5f,0.108,0.108,1,106,268,160,1,fivesix,,,,,,,,,,,,,,,,,,,,,,,,,,,,,,,,,,,,,,,,,,,,,,,,,,,,,,,,,,,,,,,,,,,,,,,,,,,,,,,,,,,,,,,,,,,,,,,,,,,,,,,,,,,,,,,,,,,,,,,,,,,,,,,,,,,,,,,
,,616f94cd9cd003d37c9db38c,2023-12-14_23h22.31.081,kallum_motion_pilot,2023.2.3,Win32,60.0240096,616f94cd9cd003d37c9db38c,657bb317c8798c6608bceb3f,657bb40d245848c8fef0ab5f,0.108,0.108,1,107,269,10,1,twoone,,,,,,,,,,,,,,,,,,,,,,,,,,,,,,,,,,,,,,,,,,,,,,,,,,,,,,,,,,,,,,,,,,,,,,,,,,,,,,,,,,,,,,,,,,,,,,,,,,,,,,,,,,,,,,,,,,,,,,,,,,,,,,,,,,,,,,,
,,616f94cd9cd003d37c9db38c,2023-12-14_23h22.31.081,kallum_motion_pilot,2023.2.3,Win32,60.0240096,616f94cd9cd003d37c9db38c,657bb317c8798c6608bceb3f,657bb40d245848c8fef0ab5f,0.108,0.108,1,108,270,98,1,sixfive,,,,,,,,,,,,,,,,,,,,,,,,,,,,,,,,,,,,,,,,,,,,,,,,,,,,,,,,,,,,,,,,,,,,,,,,,,,,,,,,,,,,,,,,,,,,,,,,,,,,,,,,,,,,,,,,,,,,,,,,,,,,,,,,,,,,,,,
,,616f94cd9cd003d37c9db38c,2023-12-14_23h22.31.081,kallum_motion_pilot,2023.2.3,Win32,60.0240096,616f94cd9cd003d37c9db38c,657bb317c8798c6608bceb3f,657bb40d245848c8fef0ab5f,0.108,0.108,1,109,271,154,1,sixfive,,,,,,,,,,,,,,,,,,,,,,,,,,,,,,,,,,,,,,,,,,,,,,,,,,,,,,,,,,,,,,,,,,,,,,,,,,,,,,,,,,,,,,,,,,,,,,,,,,,,,,,,,,,,,,,,,,,,,,,,,,,,,,,,,,,,,,,
,,616f94cd9cd003d37c9db38c,2023-12-14_23h22.31.081,kallum_motion_pilot,2023.2.3,Win32,60.0240096,616f94cd9cd003d37c9db38c,657bb317c8798c6608bceb3f,657bb40d245848c8fef0ab5f,0.11,0.11,1,110,272,77,1,threefour,,,,,,,,,,,,,,,,,,,,,,,,,,,,,,,,,,,,,,,,,,,,,,,,,,,,,,,,,,,,,,,,,,,,,,,,,,,,,,,,,,,,,,,,,,,,,,,,,,,,,,,,,,,,,,,,,,,,,,,,,,,,,,,,,,,,,,,
,,616f94cd9cd003d37c9db38c,2023-12-14_23h22.31.081,kallum_motion_pilot,2023.2.3,Win32,60.0240096,616f94cd9cd003d37c9db38c,657bb317c8798c6608bceb3f,657bb40d245848c8fef0ab5f,0.11,0.11,1,111,273,123,1,sixeight,,,,,,,,,,,,,,,,,,,,,,,,,,,,,,,,,,,,,,,,,,,,,,,,,,,,,,,,,,,,,,,,,,,,,,,,,,,,,,,,,,,,,,,,,,,,,,,,,,,,,,,,,,,,,,,,,,,,,,,,,,,,,,,,,,,,,,,
,,616f94cd9cd003d37c9db38c,2023-12-14_23h22.31.081,kallum_motion_pilot,2023.2.3,Win32,60.0240096,616f94cd9cd003d37c9db38c,657bb317c8798c6608bceb3f,657bb40d245848c8fef0ab5f,0.11,0.11,1,112,274,16,1,onetwo,,,,,,,,,,,,,,,,,,,,,,,,,,,,,,,,,,,,,,,,,,,,,,,,,,,,,,,,,,,,,,,,,,,,,,,,,,,,,,,,,,,,,,,,,,,,,,,,,,,,,,,,,,,,,,,,,,,,,,,,,,,,,,,,,,,,,,,
,,616f94cd9cd003d37c9db38c,2023-12-14_23h22.31.081,kallum_motion_pilot,2023.2.3,Win32,60.0240096,616f94cd9cd003d37c9db38c,657bb317c8798c6608bceb3f,657bb40d245848c8fef0ab5f,0.11,0.11,1,113,275,29,1,threefour,,,,,,,,,,,,,,,,,,,,,,,,,,,,,,,,,,,,,,,,,,,,,,,,,,,,,,,,,,,,,,,,,,,,,,,,,,,,,,,,,,,,,,,,,,,,,,,,,,,,,,,,,,,,,,,,,,,,,,,,,,,,,,,,,,,,,,,
,,616f94cd9cd003d37c9db38c,2023-12-14_23h22.31.081,kallum_motion_pilot,2023.2.3,Win32,60.0240096,616f94cd9cd003d37c9db38c,657bb317c8798c6608bceb3f,657bb40d245848c8fef0ab5f,0.11,0.111,1,114,276,115,1,sixeight,,,,,,,,,,,,,,,,,,,,,,,,,,,,,,,,,,,,,,,,,,,,,,,,,,,,,,,,,,,,,,,,,,,,,,,,,,,,,,,,,,,,,,,,,,,,,,,,,,,,,,,,,,,,,,,,,,,,,,,,,,,,,,,,,,,,,,,
,,616f94cd9cd003d37c9db38c,2023-12-14_23h22.31.081,kallum_motion_pilot,2023.2.3,Win32,60.0240096,616f94cd9cd003d37c9db38c,657bb317c8798c6608bceb3f,657bb40d245848c8fef0ab5f,0.111,0.111,1,115,277,50,1,twoone,,,,,,,,,,,,,,,,,,,,,,,,,,,,,,,,,,,,,,,,,,,,,,,,,,,,,,,,,,,,,,,,,,,,,,,,,,,,,,,,,,,,,,,,,,,,,,,,,,,,,,,,,,,,,,,,,,,,,,,,,,,,,,,,,,,,,,,
,,616f94cd9cd003d37c9db38c,2023-12-14_23h22.31.081,kallum_motion_pilot,2023.2.3,Win32,60.0240096,616f94cd9cd003d37c9db38c,657bb317c8798c6608bceb3f,657bb40d245848c8fef0ab5f,0.111,0.111,1,116,278,47,1,fourthree,,,,,,,,,,,,,,,,,,,,,,,,,,,,,,,,,,,,,,,,,,,,,,,,,,,,,,,,,,,,,,,,,,,,,,,,,,,,,,,,,,,,,,,,,,,,,,,,,,,,,,,,,,,,,,,,,,,,,,,,,,,,,,,,,,,,,,,
,,616f94cd9cd003d37c9db38c,2023-12-14_23h22.31.081,kallum_motion_pilot,2023.2.3,Win32,60.0240096,616f94cd9cd003d37c9db38c,657bb317c8798c6608bceb3f,657bb40d245848c8fef0ab5f,0.111,0.111,1,117,279,109,1,seveneight,,,,,,,,,,,,,,,,,,,,,,,,,,,,,,,,,,,,,,,,,,,,,,,,,,,,,,,,,,,,,,,,,,,,,,,,,,,,,,,,,,,,,,,,,,,,,,,,,,,,,,,,,,,,,,,,,,,,,,,,,,,,,,,,,,,,,,,
,,616f94cd9cd003d37c9db38c,2023-12-14_23h22.31.081,kallum_motion_pilot,2023.2.3,Win32,60.0240096,616f94cd9cd003d37c9db38c,657bb317c8798c6608bceb3f,657bb40d245848c8fef0ab5f,0.111,0.111,1,118,280,94,1,eightsix,,,,,,,,,,,,,,,,,,,,,,,,,,,,,,,,,,,,,,,,,,,,,,,,,,,,,,,,,,,,,,,,,,,,,,,,,,,,,,,,,,,,,,,,,,,,,,,,,,,,,,,,,,,,,,,,,,,,,,,,,,,,,,,,,,,,,,,
,,616f94cd9cd003d37c9db38c,2023-12-14_23h22.31.081,kallum_motion_pilot,2023.2.3,Win32,60.0240096,616f94cd9cd003d37c9db38c,657bb317c8798c6608bceb3f,657bb40d245848c8fef0ab5f,0.112,0.112,1,119,281,7,1,fourthree,,,,,,,,,,,,,,,,,,,,,,,,,,,,,,,,,,,,,,,,,,,,,,,,,,,,,,,,,,,,,,,,,,,,,,,,,,,,,,,,,,,,,,,,,,,,,,,,,,,,,,,,,,,,,,,,,,,,,,,,,,,,,,,,,,,,,,,
