startup.started,startup.stopped,Prolific ID*,date,expName,psychopyVersion,OS,frameRate,participant,study_id,session,stimpositions.started,stimpositions.stopped,hardcoded_stimulus_positions.thisRepN,hardcoded_stimulus_positions.thisTrialN,hardcoded_stimulus_positions.thisN,hardcoded_stimulus_positions.thisIndex,hardcoded_stimulus_positions.ran,StimulusPos,stimorientation.started,stimorientation.stopped,prac_stimorientation_import_loop.thisRepN,prac_stimorientation_import_loop.thisTrialN,prac_stimorientation_import_loop.thisN,prac_stimorientation_import_loop.thisIndex,prac_stimorientation_import_loop.ran,Stimorientation,welcome_instr.started,welcome_instr.stopped,key_resp.keys,key_resp.rt,key_resp.duration,response_steppedout_1.started,response_steppedout_1.stopped,key_resp_20.keys,key_resp_20.rt,key_resp_20.duration,response_steppedout_2.started,response_steppedout_2.stopped,key_resp_19.keys,key_resp_19.rt,key_resp_19.duration,stim_response_instr.started,stim_response_instr.stopped,key_resp_15.keys,key_resp_15.rt,key_resp_15.duration,direction_instr_2.started,direction_instr_2.stopped,key_resp_9.keys,key_resp_9.rt,key_resp_9.duration,instr_prac.started,instr_prac.stopped,key_resp_10.keys,key_resp_10.rt,key_resp_10.duration,Stim1_display_prac.started,Stim1_display_prac.stopped,Ecc,Circle1_ori,Circle2_ori,response_prac.started,similarity,response_time,response_prac.stopped,mouse_5.x,mouse_5.y,mouse_5.leftButton,mouse_5.midButton,mouse_5.rightButton,mouse_5.clicked_name,responseprac_feedback.started,responseprac_feedback.stopped,summary2_prac.started,summary2_prac.stopped,mouse_6.x,mouse_6.y,mouse_6.leftButton,mouse_6.midButton,mouse_6.rightButton,mouse_6.clicked_name,duringprac.thisRepN,duringprac.thisTrialN,duringprac.thisN,duringprac.thisIndex,duringprac.ran,begin.started,begin.stopped,key_resp_22.keys,key_resp_22.rt,key_resp_22.duration,Stim1_display.started,Stim1_display.stopped,circle1_ori,circle2_ori,blank.started,blank.stopped,response.started,response.stopped,mouse.x,mouse.y,mouse.leftButton,mouse.midButton,mouse.rightButton,mouse.clicked_name,response_2.started,response_2.stopped,mouse_2.x,mouse_2.y,mouse_2.leftButton,mouse_2.midButton,mouse_2.rightButton,mouse_2.clicked_name,special_trial.started,special_trial.stopped,catch_1.started,catch_1.stopped,mouse_3.x,mouse_3.y,mouse_3.leftButton,mouse_3.midButton,mouse_3.rightButton,catchresponse,catchnumber,response_time_catch,Catch,response_sum.started,response_sum.stopped,mouse_11.x,mouse_11.y,mouse_11.leftButton,mouse_11.midButton,mouse_11.rightButton,main_trial.thisRepN,main_trial.thisTrialN,main_trial.thisN,main_trial.thisIndex,main_trial.ran,Orientationtrialno,xcircle1_ori,xcircle2_ori,flip_presentation_sequence_for_double_pass.started,flip_presentation_sequence_for_double_pass.stopped,double_pass.thisRepN,double_pass.thisTrialN,double_pass.thisN,double_pass.thisIndex,double_pass.ran,goodbye.started,goodbye.stopped,key_resp_3.keys,key_resp_3.rt,key_resp_3.duration
0.0003,0.0003,6170c5f324920093389dd767,2023-12-14_23h10.03.871,kallum_motion_pilot,2023.2.3,Win32,59.76929054,6170c5f324920093389dd767,657bb317c8798c6608bceb3f,657bb4303198d96ae306ed20,,,,,,,,,,,,,,,,,,,,,,,,,,,,,,,,,,,,,,,,,,,,,,,,,,,,,,,,,,,,,,,,,,,,,,,,,,,,,,,,,,,,,,,,,,,,,,,,,,,,,,,,,,,,,,,,,,,,,,,,,,,,,,,,,,,,,,,,,,,,,,,
,,6170c5f324920093389dd767,2023-12-14_23h10.03.871,kallum_motion_pilot,2023.2.3,Win32,59.76929054,6170c5f324920093389dd767,657bb317c8798c6608bceb3f,657bb4303198d96ae306ed20,0.0153,0.0154,0,0,0,51,1,twofour,,,,,,,,,,,,,,,,,,,,,,,,,,,,,,,,,,,,,,,,,,,,,,,,,,,,,,,,,,,,,,,,,,,,,,,,,,,,,,,,,,,,,,,,,,,,,,,,,,,,,,,,,,,,,,,,,,,,,,,,,,,,,,,,,,,,,,,
,,6170c5f324920093389dd767,2023-12-14_23h10.03.871,kallum_motion_pilot,2023.2.3,Win32,59.76929054,6170c5f324920093389dd767,657bb317c8798c6608bceb3f,657bb4303198d96ae306ed20,0.0156,0.0156,0,1,1,77,1,threefour,,,,,,,,,,,,,,,,,,,,,,,,,,,,,,,,,,,,,,,,,,,,,,,,,,,,,,,,,,,,,,,,,,,,,,,,,,,,,,,,,,,,,,,,,,,,,,,,,,,,,,,,,,,,,,,,,,,,,,,,,,,,,,,,,,,,,,,
,,6170c5f324920093389dd767,2023-12-14_23h10.03.871,kallum_motion_pilot,2023.2.3,Win32,59.76929054,6170c5f324920093389dd767,657bb317c8798c6608bceb3f,657bb4303198d96ae306ed20,0.0157,0.0157,0,2,2,89,1,fiveseven,,,,,,,,,,,,,,,,,,,,,,,,,,,,,,,,,,,,,,,,,,,,,,,,,,,,,,,,,,,,,,,,,,,,,,,,,,,,,,,,,,,,,,,,,,,,,,,,,,,,,,,,,,,,,,,,,,,,,,,,,,,,,,,,,,,,,,,
,,6170c5f324920093389dd767,2023-12-14_23h10.03.871,kallum_motion_pilot,2023.2.3,Win32,59.76929054,6170c5f324920093389dd767,657bb317c8798c6608bceb3f,657bb4303198d96ae306ed20,0.0158,0.0158,0,3,3,30,1,fourtwo,,,,,,,,,,,,,,,,,,,,,,,,,,,,,,,,,,,,,,,,,,,,,,,,,,,,,,,,,,,,,,,,,,,,,,,,,,,,,,,,,,,,,,,,,,,,,,,,,,,,,,,,,,,,,,,,,,,,,,,,,,,,,,,,,,,,,,,
,,6170c5f324920093389dd767,2023-12-14_23h10.03.871,kallum_motion_pilot,2023.2.3,Win32,59.76929054,6170c5f324920093389dd767,657bb317c8798c6608bceb3f,657bb4303198d96ae306ed20,0.0159,0.0159,0,4,4,17,1,onethree,,,,,,,,,,,,,,,,,,,,,,,,,,,,,,,,,,,,,,,,,,,,,,,,,,,,,,,,,,,,,,,,,,,,,,,,,,,,,,,,,,,,,,,,,,,,,,,,,,,,,,,,,,,,,,,,,,,,,,,,,,,,,,,,,,,,,,,
,,6170c5f324920093389dd767,2023-12-14_23h10.03.871,kallum_motion_pilot,2023.2.3,Win32,59.76929054,6170c5f324920093389dd767,657bb317c8798c6608bceb3f,657bb4303198d96ae306ed20,0.0159,0.0159,0,5,5,32,1,onetwo,,,,,,,,,,,,,,,,,,,,,,,,,,,,,,,,,,,,,,,,,,,,,,,,,,,,,,,,,,,,,,,,,,,,,,,,,,,,,,,,,,,,,,,,,,,,,,,,,,,,,,,,,,,,,,,,,,,,,,,,,,,,,,,,,,,,,,,
,,6170c5f324920093389dd767,2023-12-14_23h10.03.871,kallum_motion_pilot,2023.2.3,Win32,59.76929054,6170c5f324920093389dd767,657bb317c8798c6608bceb3f,657bb4303198d96ae306ed20,0.0159,0.0159,0,6,6,156,1,sevenfive,,,,,,,,,,,,,,,,,,,,,,,,,,,,,,,,,,,,,,,,,,,,,,,,,,,,,,,,,,,,,,,,,,,,,,,,,,,,,,,,,,,,,,,,,,,,,,,,,,,,,,,,,,,,,,,,,,,,,,,,,,,,,,,,,,,,,,,
,,6170c5f324920093389dd767,2023-12-14_23h10.03.871,kallum_motion_pilot,2023.2.3,Win32,59.76929054,6170c5f324920093389dd767,657bb317c8798c6608bceb3f,657bb4303198d96ae306ed20,0.016,0.016,0,7,7,116,1,sevenfive,,,,,,,,,,,,,,,,,,,,,,,,,,,,,,,,,,,,,,,,,,,,,,,,,,,,,,,,,,,,,,,,,,,,,,,,,,,,,,,,,,,,,,,,,,,,,,,,,,,,,,,,,,,,,,,,,,,,,,,,,,,,,,,,,,,,,,,
,,6170c5f324920093389dd767,2023-12-14_23h10.03.871,kallum_motion_pilot,2023.2.3,Win32,59.76929054,6170c5f324920093389dd767,657bb317c8798c6608bceb3f,657bb4303198d96ae306ed20,0.0162,0.0162,0,8,8,143,1,eightseven,,,,,,,,,,,,,,,,,,,,,,,,,,,,,,,,,,,,,,,,,,,,,,,,,,,,,,,,,,,,,,,,,,,,,,,,,,,,,,,,,,,,,,,,,,,,,,,,,,,,,,,,,,,,,,,,,,,,,,,,,,,,,,,,,,,,,,,
,,6170c5f324920093389dd767,2023-12-14_23h10.03.871,kallum_motion_pilot,2023.2.3,Win32,59.76929054,6170c5f324920093389dd767,657bb317c8798c6608bceb3f,657bb4303198d96ae306ed20,0.0163,0.0163,0,9,9,63,1,fourthree,,,,,,,,,,,,,,,,,,,,,,,,,,,,,,,,,,,,,,,,,,,,,,,,,,,,,,,,,,,,,,,,,,,,,,,,,,,,,,,,,,,,,,,,,,,,,,,,,,,,,,,,,,,,,,,,,,,,,,,,,,,,,,,,,,,,,,,
,,6170c5f324920093389dd767,2023-12-14_23h10.03.871,kallum_motion_pilot,2023.2.3,Win32,59.76929054,6170c5f324920093389dd767,657bb317c8798c6608bceb3f,657bb4303198d96ae306ed20,0.0163,0.0163,0,10,10,60,1,threeone,,,,,,,,,,,,,,,,,,,,,,,,,,,,,,,,,,,,,,,,,,,,,,,,,,,,,,,,,,,,,,,,,,,,,,,,,,,,,,,,,,,,,,,,,,,,,,,,,,,,,,,,,,,,,,,,,,,,,,,,,,,,,,,,,,,,,,,
,,6170c5f324920093389dd767,2023-12-14_23h10.03.871,kallum_motion_pilot,2023.2.3,Win32,59.76929054,6170c5f324920093389dd767,657bb317c8798c6608bceb3f,657bb4303198d96ae306ed20,0.0164,0.0164,0,11,11,62,1,fourtwo,,,,,,,,,,,,,,,,,,,,,,,,,,,,,,,,,,,,,,,,,,,,,,,,,,,,,,,,,,,,,,,,,,,,,,,,,,,,,,,,,,,,,,,,,,,,,,,,,,,,,,,,,,,,,,,,,,,,,,,,,,,,,,,,,,,,,,,
,,6170c5f324920093389dd767,2023-12-14_23h10.03.871,kallum_motion_pilot,2023.2.3,Win32,59.76929054,6170c5f324920093389dd767,657bb317c8798c6608bceb3f,657bb4303198d96ae306ed20,0.0165,0.0165,0,12,12,65,1,onethree,,,,,,,,,,,,,,,,,,,,,,,,,,,,,,,,,,,,,,,,,,,,,,,,,,,,,,,,,,,,,,,,,,,,,,,,,,,,,,,,,,,,,,,,,,,,,,,,,,,,,,,,,,,,,,,,,,,,,,,,,,,,,,,,,,,,,,,
,,6170c5f324920093389dd767,2023-12-14_23h10.03.871,kallum_motion_pilot,2023.2.3,Win32,59.76929054,6170c5f324920093389dd767,657bb317c8798c6608bceb3f,657bb4303198d96ae306ed20,0.0165,0.0165,0,13,13,108,1,sevenfive,,,,,,,,,,,,,,,,,,,,,,,,,,,,,,,,,,,,,,,,,,,,,,,,,,,,,,,,,,,,,,,,,,,,,,,,,,,,,,,,,,,,,,,,,,,,,,,,,,,,,,,,,,,,,,,,,,,,,,,,,,,,,,,,,,,,,,,
,,6170c5f324920093389dd767,2023-12-14_23h10.03.871,kallum_motion_pilot,2023.2.3,Win32,59.76929054,6170c5f324920093389dd767,657bb317c8798c6608bceb3f,657bb4303198d96ae306ed20,0.0166,0.0166,0,14,14,58,1,twoone,,,,,,,,,,,,,,,,,,,,,,,,,,,,,,,,,,,,,,,,,,,,,,,,,,,,,,,,,,,,,,,,,,,,,,,,,,,,,,,,,,,,,,,,,,,,,,,,,,,,,,,,,,,,,,,,,,,,,,,,,,,,,,,,,,,,,,,
,,6170c5f324920093389dd767,2023-12-14_23h10.03.871,kallum_motion_pilot,2023.2.3,Win32,59.76929054,6170c5f324920093389dd767,657bb317c8798c6608bceb3f,657bb4303198d96ae306ed20,0.0166,0.0167,0,15,15,144,1,fivesix,,,,,,,,,,,,,,,,,,,,,,,,,,,,,,,,,,,,,,,,,,,,,,,,,,,,,,,,,,,,,,,,,,,,,,,,,,,,,,,,,,,,,,,,,,,,,,,,,,,,,,,,,,,,,,,,,,,,,,,,,,,,,,,,,,,,,,,
,,6170c5f324920093389dd767,2023-12-14_23h10.03.871,kallum_motion_pilot,2023.2.3,Win32,59.76929054,6170c5f324920093389dd767,657bb317c8798c6608bceb3f,657bb4303198d96ae306ed20,0.0167,0.0167,0,16,16,104,1,fivesix,,,,,,,,,,,,,,,,,,,,,,,,,,,,,,,,,,,,,,,,,,,,,,,,,,,,,,,,,,,,,,,,,,,,,,,,,,,,,,,,,,,,,,,,,,,,,,,,,,,,,,,,,,,,,,,,,,,,,,,,,,,,,,,,,,,,,,,
,,6170c5f324920093389dd767,2023-12-14_23h10.03.871,kallum_motion_pilot,2023.2.3,Win32,59.76929054,6170c5f324920093389dd767,657bb317c8798c6608bceb3f,657bb4303198d96ae306ed20,0.0168,0.0168,0,17,17,140,1,sevenfive,,,,,,,,,,,,,,,,,,,,,,,,,,,,,,,,,,,,,,,,,,,,,,,,,,,,,,,,,,,,,,,,,,,,,,,,,,,,,,,,,,,,,,,,,,,,,,,,,,,,,,,,,,,,,,,,,,,,,,,,,,,,,,,,,,,,,,,
,,6170c5f324920093389dd767,2023-12-14_23h10.03.871,kallum_motion_pilot,2023.2.3,Win32,59.76929054,6170c5f324920093389dd767,657bb317c8798c6608bceb3f,657bb4303198d96ae306ed20,0.0168,0.0168,0,18,18,13,1,threefour,,,,,,,,,,,,,,,,,,,,,,,,,,,,,,,,,,,,,,,,,,,,,,,,,,,,,,,,,,,,,,,,,,,,,,,,,,,,,,,,,,,,,,,,,,,,,,,,,,,,,,,,,,,,,,,,,,,,,,,,,,,,,,,,,,,,,,,
,,6170c5f324920093389dd767,2023-12-14_23h10.03.871,kallum_motion_pilot,2023.2.3,Win32,59.76929054,6170c5f324920093389dd767,657bb317c8798c6608bceb3f,657bb4303198d96ae306ed20,0.0169,0.0169,0,19,19,27,1,twofour,,,,,,,,,,,,,,,,,,,,,,,,,,,,,,,,,,,,,,,,,,,,,,,,,,,,,,,,,,,,,,,,,,,,,,,,,,,,,,,,,,,,,,,,,,,,,,,,,,,,,,,,,,,,,,,,,,,,,,,,,,,,,,,,,,,,,,,
,,6170c5f324920093389dd767,2023-12-14_23h10.03.871,kallum_motion_pilot,2023.2.3,Win32,59.76929054,6170c5f324920093389dd767,657bb317c8798c6608bceb3f,657bb4303198d96ae306ed20,0.017,0.017,0,20,20,42,1,twoone,,,,,,,,,,,,,,,,,,,,,,,,,,,,,,,,,,,,,,,,,,,,,,,,,,,,,,,,,,,,,,,,,,,,,,,,,,,,,,,,,,,,,,,,,,,,,,,,,,,,,,,,,,,,,,,,,,,,,,,,,,,,,,,,,,,,,,,
,,6170c5f324920093389dd767,2023-12-14_23h10.03.871,kallum_motion_pilot,2023.2.3,Win32,59.76929054,6170c5f324920093389dd767,657bb317c8798c6608bceb3f,657bb4303198d96ae306ed20,0.017,0.017,0,21,21,39,1,fourthree,,,,,,,,,,,,,,,,,,,,,,,,,,,,,,,,,,,,,,,,,,,,,,,,,,,,,,,,,,,,,,,,,,,,,,,,,,,,,,,,,,,,,,,,,,,,,,,,,,,,,,,,,,,,,,,,,,,,,,,,,,,,,,,,,,,,,,,
,,6170c5f324920093389dd767,2023-12-14_23h10.03.871,kallum_motion_pilot,2023.2.3,Win32,59.76929054,6170c5f324920093389dd767,657bb317c8798c6608bceb3f,657bb4303198d96ae306ed20,0.017,0.0171,0,22,22,102,1,eightsix,,,,,,,,,,,,,,,,,,,,,,,,,,,,,,,,,,,,,,,,,,,,,,,,,,,,,,,,,,,,,,,,,,,,,,,,,,,,,,,,,,,,,,,,,,,,,,,,,,,,,,,,,,,,,,,,,,,,,,,,,,,,,,,,,,,,,,,
,,6170c5f324920093389dd767,2023-12-14_23h10.03.871,kallum_motion_pilot,2023.2.3,Win32,59.76929054,6170c5f324920093389dd767,657bb317c8798c6608bceb3f,657bb4303198d96ae306ed20,0.0172,0.0172,0,23,23,142,1,eightsix,,,,,,,,,,,,,,,,,,,,,,,,,,,,,,,,,,,,,,,,,,,,,,,,,,,,,,,,,,,,,,,,,,,,,,,,,,,,,,,,,,,,,,,,,,,,,,,,,,,,,,,,,,,,,,,,,,,,,,,,,,,,,,,,,,,,,,,
,,6170c5f324920093389dd767,2023-12-14_23h10.03.871,kallum_motion_pilot,2023.2.3,Win32,59.76929054,6170c5f324920093389dd767,657bb317c8798c6608bceb3f,657bb4303198d96ae306ed20,0.0172,0.0172,0,24,24,94,1,eightsix,,,,,,,,,,,,,,,,,,,,,,,,,,,,,,,,,,,,,,,,,,,,,,,,,,,,,,,,,,,,,,,,,,,,,,,,,,,,,,,,,,,,,,,,,,,,,,,,,,,,,,,,,,,,,,,,,,,,,,,,,,,,,,,,,,,,,,,
,,6170c5f324920093389dd767,2023-12-14_23h10.03.871,kallum_motion_pilot,2023.2.3,Win32,59.76929054,6170c5f324920093389dd767,657bb317c8798c6608bceb3f,657bb4303198d96ae306ed20,0.0173,0.0173,0,25,25,139,1,sixeight,,,,,,,,,,,,,,,,,,,,,,,,,,,,,,,,,,,,,,,,,,,,,,,,,,,,,,,,,,,,,,,,,,,,,,,,,,,,,,,,,,,,,,,,,,,,,,,,,,,,,,,,,,,,,,,,,,,,,,,,,,,,,,,,,,,,,,,
,,6170c5f324920093389dd767,2023-12-14_23h10.03.871,kallum_motion_pilot,2023.2.3,Win32,59.76929054,6170c5f324920093389dd767,657bb317c8798c6608bceb3f,657bb4303198d96ae306ed20,0.0174,0.0174,0,26,26,36,1,threeone,,,,,,,,,,,,,,,,,,,,,,,,,,,,,,,,,,,,,,,,,,,,,,,,,,,,,,,,,,,,,,,,,,,,,,,,,,,,,,,,,,,,,,,,,,,,,,,,,,,,,,,,,,,,,,,,,,,,,,,,,,,,,,,,,,,,,,,
,,6170c5f324920093389dd767,2023-12-14_23h10.03.871,kallum_motion_pilot,2023.2.3,Win32,59.76929054,6170c5f324920093389dd767,657bb317c8798c6608bceb3f,657bb4303198d96ae306ed20,0.0174,0.0174,0,27,27,57,1,onethree,,,,,,,,,,,,,,,,,,,,,,,,,,,,,,,,,,,,,,,,,,,,,,,,,,,,,,,,,,,,,,,,,,,,,,,,,,,,,,,,,,,,,,,,,,,,,,,,,,,,,,,,,,,,,,,,,,,,,,,,,,,,,,,,,,,,,,,
,,6170c5f324920093389dd767,2023-12-14_23h10.03.871,kallum_motion_pilot,2023.2.3,Win32,59.76929054,6170c5f324920093389dd767,657bb317c8798c6608bceb3f,657bb4303198d96ae306ed20,0.0174,0.0175,0,28,28,127,1,eightseven,,,,,,,,,,,,,,,,,,,,,,,,,,,,,,,,,,,,,,,,,,,,,,,,,,,,,,,,,,,,,,,,,,,,,,,,,,,,,,,,,,,,,,,,,,,,,,,,,,,,,,,,,,,,,,,,,,,,,,,,,,,,,,,,,,,,,,,
,,6170c5f324920093389dd767,2023-12-14_23h10.03.871,kallum_motion_pilot,2023.2.3,Win32,59.76929054,6170c5f324920093389dd767,657bb317c8798c6608bceb3f,657bb4303198d96ae306ed20,0.0176,0.0176,0,29,29,97,1,fiveseven,,,,,,,,,,,,,,,,,,,,,,,,,,,,,,,,,,,,,,,,,,,,,,,,,,,,,,,,,,,,,,,,,,,,,,,,,,,,,,,,,,,,,,,,,,,,,,,,,,,,,,,,,,,,,,,,,,,,,,,,,,,,,,,,,,,,,,,
,,6170c5f324920093389dd767,2023-12-14_23h10.03.871,kallum_motion_pilot,2023.2.3,Win32,59.76929054,6170c5f324920093389dd767,657bb317c8798c6608bceb3f,657bb4303198d96ae306ed20,0.0176,0.0176,0,30,30,115,1,sixeight,,,,,,,,,,,,,,,,,,,,,,,,,,,,,,,,,,,,,,,,,,,,,,,,,,,,,,,,,,,,,,,,,,,,,,,,,,,,,,,,,,,,,,,,,,,,,,,,,,,,,,,,,,,,,,,,,,,,,,,,,,,,,,,,,,,,,,,
,,6170c5f324920093389dd767,2023-12-14_23h10.03.871,kallum_motion_pilot,2023.2.3,Win32,59.76929054,6170c5f324920093389dd767,657bb317c8798c6608bceb3f,657bb4303198d96ae306ed20,0.0177,0.0177,0,31,31,37,1,threefour,,,,,,,,,,,,,,,,,,,,,,,,,,,,,,,,,,,,,,,,,,,,,,,,,,,,,,,,,,,,,,,,,,,,,,,,,,,,,,,,,,,,,,,,,,,,,,,,,,,,,,,,,,,,,,,,,,,,,,,,,,,,,,,,,,,,,,,
,,6170c5f324920093389dd767,2023-12-14_23h10.03.871,kallum_motion_pilot,2023.2.3,Win32,59.76929054,6170c5f324920093389dd767,657bb317c8798c6608bceb3f,657bb4303198d96ae306ed20,0.0177,0.0177,0,32,32,132,1,sevenfive,,,,,,,,,,,,,,,,,,,,,,,,,,,,,,,,,,,,,,,,,,,,,,,,,,,,,,,,,,,,,,,,,,,,,,,,,,,,,,,,,,,,,,,,,,,,,,,,,,,,,,,,,,,,,,,,,,,,,,,,,,,,,,,,,,,,,,,
,,6170c5f324920093389dd767,2023-12-14_23h10.03.871,kallum_motion_pilot,2023.2.3,Win32,59.76929054,6170c5f324920093389dd767,657bb317c8798c6608bceb3f,657bb4303198d96ae306ed20,0.0179,0.0179,0,33,33,105,1,fiveseven,,,,,,,,,,,,,,,,,,,,,,,,,,,,,,,,,,,,,,,,,,,,,,,,,,,,,,,,,,,,,,,,,,,,,,,,,,,,,,,,,,,,,,,,,,,,,,,,,,,,,,,,,,,,,,,,,,,,,,,,,,,,,,,,,,,,,,,
,,6170c5f324920093389dd767,2023-12-14_23h10.03.871,kallum_motion_pilot,2023.2.3,Win32,59.76929054,6170c5f324920093389dd767,657bb317c8798c6608bceb3f,657bb4303198d96ae306ed20,0.0179,0.0179,0,34,34,54,1,fourtwo,,,,,,,,,,,,,,,,,,,,,,,,,,,,,,,,,,,,,,,,,,,,,,,,,,,,,,,,,,,,,,,,,,,,,,,,,,,,,,,,,,,,,,,,,,,,,,,,,,,,,,,,,,,,,,,,,,,,,,,,,,,,,,,,,,,,,,,
,,6170c5f324920093389dd767,2023-12-14_23h10.03.871,kallum_motion_pilot,2023.2.3,Win32,59.76929054,6170c5f324920093389dd767,657bb317c8798c6608bceb3f,657bb4303198d96ae306ed20,0.0179,0.0179,0,35,35,128,1,fivesix,,,,,,,,,,,,,,,,,,,,,,,,,,,,,,,,,,,,,,,,,,,,,,,,,,,,,,,,,,,,,,,,,,,,,,,,,,,,,,,,,,,,,,,,,,,,,,,,,,,,,,,,,,,,,,,,,,,,,,,,,,,,,,,,,,,,,,,
,,6170c5f324920093389dd767,2023-12-14_23h10.03.871,kallum_motion_pilot,2023.2.3,Win32,59.76929054,6170c5f324920093389dd767,657bb317c8798c6608bceb3f,657bb4303198d96ae306ed20,0.018,0.018,0,36,36,155,1,sixeight,,,,,,,,,,,,,,,,,,,,,,,,,,,,,,,,,,,,,,,,,,,,,,,,,,,,,,,,,,,,,,,,,,,,,,,,,,,,,,,,,,,,,,,,,,,,,,,,,,,,,,,,,,,,,,,,,,,,,,,,,,,,,,,,,,,,,,,
,,6170c5f324920093389dd767,2023-12-14_23h10.03.871,kallum_motion_pilot,2023.2.3,Win32,59.76929054,6170c5f324920093389dd767,657bb317c8798c6608bceb3f,657bb4303198d96ae306ed20,0.0181,0.0181,0,37,37,43,1,twofour,,,,,,,,,,,,,,,,,,,,,,,,,,,,,,,,,,,,,,,,,,,,,,,,,,,,,,,,,,,,,,,,,,,,,,,,,,,,,,,,,,,,,,,,,,,,,,,,,,,,,,,,,,,,,,,,,,,,,,,,,,,,,,,,,,,,,,,
,,6170c5f324920093389dd767,2023-12-14_23h10.03.871,kallum_motion_pilot,2023.2.3,Win32,59.76929054,6170c5f324920093389dd767,657bb317c8798c6608bceb3f,657bb4303198d96ae306ed20,0.0181,0.0181,0,38,38,161,1,fiveseven,,,,,,,,,,,,,,,,,,,,,,,,,,,,,,,,,,,,,,,,,,,,,,,,,,,,,,,,,,,,,,,,,,,,,,,,,,,,,,,,,,,,,,,,,,,,,,,,,,,,,,,,,,,,,,,,,,,,,,,,,,,,,,,,,,,,,,,
,,6170c5f324920093389dd767,2023-12-14_23h10.03.871,kallum_motion_pilot,2023.2.3,Win32,59.76929054,6170c5f324920093389dd767,657bb317c8798c6608bceb3f,657bb4303198d96ae306ed20,0.0182,0.0182,0,39,39,52,1,threeone,,,,,,,,,,,,,,,,,,,,,,,,,,,,,,,,,,,,,,,,,,,,,,,,,,,,,,,,,,,,,,,,,,,,,,,,,,,,,,,,,,,,,,,,,,,,,,,,,,,,,,,,,,,,,,,,,,,,,,,,,,,,,,,,,,,,,,,
,,6170c5f324920093389dd767,2023-12-14_23h10.03.871,kallum_motion_pilot,2023.2.3,Win32,59.76929054,6170c5f324920093389dd767,657bb317c8798c6608bceb3f,657bb4303198d96ae306ed20,0.0183,0.0183,0,40,40,84,1,sevenfive,,,,,,,,,,,,,,,,,,,,,,,,,,,,,,,,,,,,,,,,,,,,,,,,,,,,,,,,,,,,,,,,,,,,,,,,,,,,,,,,,,,,,,,,,,,,,,,,,,,,,,,,,,,,,,,,,,,,,,,,,,,,,,,,,,,,,,,
,,6170c5f324920093389dd767,2023-12-14_23h10.03.871,kallum_motion_pilot,2023.2.3,Win32,59.76929054,6170c5f324920093389dd767,657bb317c8798c6608bceb3f,657bb4303198d96ae306ed20,0.0184,0.0184,0,41,41,157,1,seveneight,,,,,,,,,,,,,,,,,,,,,,,,,,,,,,,,,,,,,,,,,,,,,,,,,,,,,,,,,,,,,,,,,,,,,,,,,,,,,,,,,,,,,,,,,,,,,,,,,,,,,,,,,,,,,,,,,,,,,,,,,,,,,,,,,,,,,,,
,,6170c5f324920093389dd767,2023-12-14_23h10.03.871,kallum_motion_pilot,2023.2.3,Win32,59.76929054,6170c5f324920093389dd767,657bb317c8798c6608bceb3f,657bb4303198d96ae306ed20,0.0184,0.0184,0,42,42,160,1,fivesix,,,,,,,,,,,,,,,,,,,,,,,,,,,,,,,,,,,,,,,,,,,,,,,,,,,,,,,,,,,,,,,,,,,,,,,,,,,,,,,,,,,,,,,,,,,,,,,,,,,,,,,,,,,,,,,,,,,,,,,,,,,,,,,,,,,,,,,
,,6170c5f324920093389dd767,2023-12-14_23h10.03.871,kallum_motion_pilot,2023.2.3,Win32,59.76929054,6170c5f324920093389dd767,657bb317c8798c6608bceb3f,657bb4303198d96ae306ed20,0.0185,0.0185,0,43,43,61,1,threefour,,,,,,,,,,,,,,,,,,,,,,,,,,,,,,,,,,,,,,,,,,,,,,,,,,,,,,,,,,,,,,,,,,,,,,,,,,,,,,,,,,,,,,,,,,,,,,,,,,,,,,,,,,,,,,,,,,,,,,,,,,,,,,,,,,,,,,,
,,6170c5f324920093389dd767,2023-12-14_23h10.03.871,kallum_motion_pilot,2023.2.3,Win32,59.76929054,6170c5f324920093389dd767,657bb317c8798c6608bceb3f,657bb4303198d96ae306ed20,0.0186,0.0186,0,44,44,5,1,threefour,,,,,,,,,,,,,,,,,,,,,,,,,,,,,,,,,,,,,,,,,,,,,,,,,,,,,,,,,,,,,,,,,,,,,,,,,,,,,,,,,,,,,,,,,,,,,,,,,,,,,,,,,,,,,,,,,,,,,,,,,,,,,,,,,,,,,,,
,,6170c5f324920093389dd767,2023-12-14_23h10.03.871,kallum_motion_pilot,2023.2.3,Win32,59.76929054,6170c5f324920093389dd767,657bb317c8798c6608bceb3f,657bb4303198d96ae306ed20,0.0186,0.0187,0,45,45,135,1,eightseven,,,,,,,,,,,,,,,,,,,,,,,,,,,,,,,,,,,,,,,,,,,,,,,,,,,,,,,,,,,,,,,,,,,,,,,,,,,,,,,,,,,,,,,,,,,,,,,,,,,,,,,,,,,,,,,,,,,,,,,,,,,,,,,,,,,,,,,
,,6170c5f324920093389dd767,2023-12-14_23h10.03.871,kallum_motion_pilot,2023.2.3,Win32,59.76929054,6170c5f324920093389dd767,657bb317c8798c6608bceb3f,657bb4303198d96ae306ed20,0.0187,0.0188,0,46,46,44,1,threeone,,,,,,,,,,,,,,,,,,,,,,,,,,,,,,,,,,,,,,,,,,,,,,,,,,,,,,,,,,,,,,,,,,,,,,,,,,,,,,,,,,,,,,,,,,,,,,,,,,,,,,,,,,,,,,,,,,,,,,,,,,,,,,,,,,,,,,,
,,6170c5f324920093389dd767,2023-12-14_23h10.03.871,kallum_motion_pilot,2023.2.3,Win32,59.76929054,6170c5f324920093389dd767,657bb317c8798c6608bceb3f,657bb4303198d96ae306ed20,0.0188,0.0189,0,47,47,149,1,seveneight,,,,,,,,,,,,,,,,,,,,,,,,,,,,,,,,,,,,,,,,,,,,,,,,,,,,,,,,,,,,,,,,,,,,,,,,,,,,,,,,,,,,,,,,,,,,,,,,,,,,,,,,,,,,,,,,,,,,,,,,,,,,,,,,,,,,,,,
,,6170c5f324920093389dd767,2023-12-14_23h10.03.871,kallum_motion_pilot,2023.2.3,Win32,59.76929054,6170c5f324920093389dd767,657bb317c8798c6608bceb3f,657bb4303198d96ae306ed20,0.0189,0.0189,0,48,48,81,1,fiveseven,,,,,,,,,,,,,,,,,,,,,,,,,,,,,,,,,,,,,,,,,,,,,,,,,,,,,,,,,,,,,,,,,,,,,,,,,,,,,,,,,,,,,,,,,,,,,,,,,,,,,,,,,,,,,,,,,,,,,,,,,,,,,,,,,,,,,,,
,,6170c5f324920093389dd767,2023-12-14_23h10.03.871,kallum_motion_pilot,2023.2.3,Win32,59.76929054,6170c5f324920093389dd767,657bb317c8798c6608bceb3f,657bb4303198d96ae306ed20,0.0195,0.0195,0,49,49,2,1,twoone,,,,,,,,,,,,,,,,,,,,,,,,,,,,,,,,,,,,,,,,,,,,,,,,,,,,,,,,,,,,,,,,,,,,,,,,,,,,,,,,,,,,,,,,,,,,,,,,,,,,,,,,,,,,,,,,,,,,,,,,,,,,,,,,,,,,,,,
,,6170c5f324920093389dd767,2023-12-14_23h10.03.871,kallum_motion_pilot,2023.2.3,Win32,59.76929054,6170c5f324920093389dd767,657bb317c8798c6608bceb3f,657bb4303198d96ae306ed20,0.0196,0.0196,0,50,50,24,1,onetwo,,,,,,,,,,,,,,,,,,,,,,,,,,,,,,,,,,,,,,,,,,,,,,,,,,,,,,,,,,,,,,,,,,,,,,,,,,,,,,,,,,,,,,,,,,,,,,,,,,,,,,,,,,,,,,,,,,,,,,,,,,,,,,,,,,,,,,,
,,6170c5f324920093389dd767,2023-12-14_23h10.03.871,kallum_motion_pilot,2023.2.3,Win32,59.76929054,6170c5f324920093389dd767,657bb317c8798c6608bceb3f,657bb4303198d96ae306ed20,0.0197,0.0198,0,51,51,119,1,eightseven,,,,,,,,,,,,,,,,,,,,,,,,,,,,,,,,,,,,,,,,,,,,,,,,,,,,,,,,,,,,,,,,,,,,,,,,,,,,,,,,,,,,,,,,,,,,,,,,,,,,,,,,,,,,,,,,,,,,,,,,,,,,,,,,,,,,,,,
,,6170c5f324920093389dd767,2023-12-14_23h10.03.871,kallum_motion_pilot,2023.2.3,Win32,59.76929054,6170c5f324920093389dd767,657bb317c8798c6608bceb3f,657bb4303198d96ae306ed20,0.0198,0.0198,0,52,52,137,1,fiveseven,,,,,,,,,,,,,,,,,,,,,,,,,,,,,,,,,,,,,,,,,,,,,,,,,,,,,,,,,,,,,,,,,,,,,,,,,,,,,,,,,,,,,,,,,,,,,,,,,,,,,,,,,,,,,,,,,,,,,,,,,,,,,,,,,,,,,,,
,,6170c5f324920093389dd767,2023-12-14_23h10.03.871,kallum_motion_pilot,2023.2.3,Win32,59.76929054,6170c5f324920093389dd767,657bb317c8798c6608bceb3f,657bb4303198d96ae306ed20,0.0198,0.0199,0,53,53,9,1,onethree,,,,,,,,,,,,,,,,,,,,,,,,,,,,,,,,,,,,,,,,,,,,,,,,,,,,,,,,,,,,,,,,,,,,,,,,,,,,,,,,,,,,,,,,,,,,,,,,,,,,,,,,,,,,,,,,,,,,,,,,,,,,,,,,,,,,,,,
,,6170c5f324920093389dd767,2023-12-14_23h10.03.871,kallum_motion_pilot,2023.2.3,Win32,59.76929054,6170c5f324920093389dd767,657bb317c8798c6608bceb3f,657bb4303198d96ae306ed20,0.0199,0.0199,0,54,54,48,1,onetwo,,,,,,,,,,,,,,,,,,,,,,,,,,,,,,,,,,,,,,,,,,,,,,,,,,,,,,,,,,,,,,,,,,,,,,,,,,,,,,,,,,,,,,,,,,,,,,,,,,,,,,,,,,,,,,,,,,,,,,,,,,,,,,,,,,,,,,,
,,6170c5f324920093389dd767,2023-12-14_23h10.03.871,kallum_motion_pilot,2023.2.3,Win32,59.76929054,6170c5f324920093389dd767,657bb317c8798c6608bceb3f,657bb4303198d96ae306ed20,0.0199,0.02,0,55,55,64,1,onetwo,,,,,,,,,,,,,,,,,,,,,,,,,,,,,,,,,,,,,,,,,,,,,,,,,,,,,,,,,,,,,,,,,,,,,,,,,,,,,,,,,,,,,,,,,,,,,,,,,,,,,,,,,,,,,,,,,,,,,,,,,,,,,,,,,,,,,,,
,,6170c5f324920093389dd767,2023-12-14_23h10.03.871,kallum_motion_pilot,2023.2.3,Win32,59.76929054,6170c5f324920093389dd767,657bb317c8798c6608bceb3f,657bb4303198d96ae306ed20,0.0201,0.0201,0,56,56,86,1,eightsix,,,,,,,,,,,,,,,,,,,,,,,,,,,,,,,,,,,,,,,,,,,,,,,,,,,,,,,,,,,,,,,,,,,,,,,,,,,,,,,,,,,,,,,,,,,,,,,,,,,,,,,,,,,,,,,,,,,,,,,,,,,,,,,,,,,,,,,
,,6170c5f324920093389dd767,2023-12-14_23h10.03.871,kallum_motion_pilot,2023.2.3,Win32,59.76929054,6170c5f324920093389dd767,657bb317c8798c6608bceb3f,657bb4303198d96ae306ed20,0.0201,0.0201,0,57,57,96,1,fivesix,,,,,,,,,,,,,,,,,,,,,,,,,,,,,,,,,,,,,,,,,,,,,,,,,,,,,,,,,,,,,,,,,,,,,,,,,,,,,,,,,,,,,,,,,,,,,,,,,,,,,,,,,,,,,,,,,,,,,,,,,,,,,,,,,,,,,,,
,,6170c5f324920093389dd767,2023-12-14_23h10.03.871,kallum_motion_pilot,2023.2.3,Win32,59.76929054,6170c5f324920093389dd767,657bb317c8798c6608bceb3f,657bb4303198d96ae306ed20,0.0201,0.0202,0,58,58,20,1,threeone,,,,,,,,,,,,,,,,,,,,,,,,,,,,,,,,,,,,,,,,,,,,,,,,,,,,,,,,,,,,,,,,,,,,,,,,,,,,,,,,,,,,,,,,,,,,,,,,,,,,,,,,,,,,,,,,,,,,,,,,,,,,,,,,,,,,,,,
,,6170c5f324920093389dd767,2023-12-14_23h10.03.871,kallum_motion_pilot,2023.2.3,Win32,59.76929054,6170c5f324920093389dd767,657bb317c8798c6608bceb3f,657bb4303198d96ae306ed20,0.0203,0.0203,0,59,59,138,1,sixfive,,,,,,,,,,,,,,,,,,,,,,,,,,,,,,,,,,,,,,,,,,,,,,,,,,,,,,,,,,,,,,,,,,,,,,,,,,,,,,,,,,,,,,,,,,,,,,,,,,,,,,,,,,,,,,,,,,,,,,,,,,,,,,,,,,,,,,,
,,6170c5f324920093389dd767,2023-12-14_23h10.03.871,kallum_motion_pilot,2023.2.3,Win32,59.76929054,6170c5f324920093389dd767,657bb317c8798c6608bceb3f,657bb4303198d96ae306ed20,0.0203,0.0203,0,60,60,103,1,eightseven,,,,,,,,,,,,,,,,,,,,,,,,,,,,,,,,,,,,,,,,,,,,,,,,,,,,,,,,,,,,,,,,,,,,,,,,,,,,,,,,,,,,,,,,,,,,,,,,,,,,,,,,,,,,,,,,,,,,,,,,,,,,,,,,,,,,,,,
,,6170c5f324920093389dd767,2023-12-14_23h10.03.871,kallum_motion_pilot,2023.2.3,Win32,59.76929054,6170c5f324920093389dd767,657bb317c8798c6608bceb3f,657bb4303198d96ae306ed20,0.0204,0.0204,0,61,61,11,1,twofour,,,,,,,,,,,,,,,,,,,,,,,,,,,,,,,,,,,,,,,,,,,,,,,,,,,,,,,,,,,,,,,,,,,,,,,,,,,,,,,,,,,,,,,,,,,,,,,,,,,,,,,,,,,,,,,,,,,,,,,,,,,,,,,,,,,,,,,
,,6170c5f324920093389dd767,2023-12-14_23h10.03.871,kallum_motion_pilot,2023.2.3,Win32,59.76929054,6170c5f324920093389dd767,657bb317c8798c6608bceb3f,657bb4303198d96ae306ed20,0.0205,0.0205,0,62,62,91,1,sixeight,,,,,,,,,,,,,,,,,,,,,,,,,,,,,,,,,,,,,,,,,,,,,,,,,,,,,,,,,,,,,,,,,,,,,,,,,,,,,,,,,,,,,,,,,,,,,,,,,,,,,,,,,,,,,,,,,,,,,,,,,,,,,,,,,,,,,,,
,,6170c5f324920093389dd767,2023-12-14_23h10.03.871,kallum_motion_pilot,2023.2.3,Win32,59.76929054,6170c5f324920093389dd767,657bb317c8798c6608bceb3f,657bb4303198d96ae306ed20,0.0205,0.0205,0,63,63,6,1,fourtwo,,,,,,,,,,,,,,,,,,,,,,,,,,,,,,,,,,,,,,,,,,,,,,,,,,,,,,,,,,,,,,,,,,,,,,,,,,,,,,,,,,,,,,,,,,,,,,,,,,,,,,,,,,,,,,,,,,,,,,,,,,,,,,,,,,,,,,,
,,6170c5f324920093389dd767,2023-12-14_23h10.03.871,kallum_motion_pilot,2023.2.3,Win32,59.76929054,6170c5f324920093389dd767,657bb317c8798c6608bceb3f,657bb4303198d96ae306ed20,0.0206,0.0206,0,64,64,15,1,fourthree,,,,,,,,,,,,,,,,,,,,,,,,,,,,,,,,,,,,,,,,,,,,,,,,,,,,,,,,,,,,,,,,,,,,,,,,,,,,,,,,,,,,,,,,,,,,,,,,,,,,,,,,,,,,,,,,,,,,,,,,,,,,,,,,,,,,,,,
,,6170c5f324920093389dd767,2023-12-14_23h10.03.871,kallum_motion_pilot,2023.2.3,Win32,59.76929054,6170c5f324920093389dd767,657bb317c8798c6608bceb3f,657bb4303198d96ae306ed20,0.0207,0.0208,0,65,65,154,1,sixfive,,,,,,,,,,,,,,,,,,,,,,,,,,,,,,,,,,,,,,,,,,,,,,,,,,,,,,,,,,,,,,,,,,,,,,,,,,,,,,,,,,,,,,,,,,,,,,,,,,,,,,,,,,,,,,,,,,,,,,,,,,,,,,,,,,,,,,,
,,6170c5f324920093389dd767,2023-12-14_23h10.03.871,kallum_motion_pilot,2023.2.3,Win32,59.76929054,6170c5f324920093389dd767,657bb317c8798c6608bceb3f,657bb4303198d96ae306ed20,0.0208,0.0208,0,66,66,69,1,threefour,,,,,,,,,,,,,,,,,,,,,,,,,,,,,,,,,,,,,,,,,,,,,,,,,,,,,,,,,,,,,,,,,,,,,,,,,,,,,,,,,,,,,,,,,,,,,,,,,,,,,,,,,,,,,,,,,,,,,,,,,,,,,,,,,,,,,,,
,,6170c5f324920093389dd767,2023-12-14_23h10.03.871,kallum_motion_pilot,2023.2.3,Win32,59.76929054,6170c5f324920093389dd767,657bb317c8798c6608bceb3f,657bb4303198d96ae306ed20,0.0208,0.0209,0,67,67,122,1,sixfive,,,,,,,,,,,,,,,,,,,,,,,,,,,,,,,,,,,,,,,,,,,,,,,,,,,,,,,,,,,,,,,,,,,,,,,,,,,,,,,,,,,,,,,,,,,,,,,,,,,,,,,,,,,,,,,,,,,,,,,,,,,,,,,,,,,,,,,
,,6170c5f324920093389dd767,2023-12-14_23h10.03.871,kallum_motion_pilot,2023.2.3,Win32,59.76929054,6170c5f324920093389dd767,657bb317c8798c6608bceb3f,657bb4303198d96ae306ed20,0.0209,0.0209,0,68,68,126,1,eightsix,,,,,,,,,,,,,,,,,,,,,,,,,,,,,,,,,,,,,,,,,,,,,,,,,,,,,,,,,,,,,,,,,,,,,,,,,,,,,,,,,,,,,,,,,,,,,,,,,,,,,,,,,,,,,,,,,,,,,,,,,,,,,,,,,,,,,,,
,,6170c5f324920093389dd767,2023-12-14_23h10.03.871,kallum_motion_pilot,2023.2.3,Win32,59.76929054,6170c5f324920093389dd767,657bb317c8798c6608bceb3f,657bb4303198d96ae306ed20,0.021,0.021,0,69,69,121,1,fiveseven,,,,,,,,,,,,,,,,,,,,,,,,,,,,,,,,,,,,,,,,,,,,,,,,,,,,,,,,,,,,,,,,,,,,,,,,,,,,,,,,,,,,,,,,,,,,,,,,,,,,,,,,,,,,,,,,,,,,,,,,,,,,,,,,,,,,,,,
,,6170c5f324920093389dd767,2023-12-14_23h10.03.871,kallum_motion_pilot,2023.2.3,Win32,59.76929054,6170c5f324920093389dd767,657bb317c8798c6608bceb3f,657bb4303198d96ae306ed20,0.021,0.021,0,70,70,111,1,eightseven,,,,,,,,,,,,,,,,,,,,,,,,,,,,,,,,,,,,,,,,,,,,,,,,,,,,,,,,,,,,,,,,,,,,,,,,,,,,,,,,,,,,,,,,,,,,,,,,,,,,,,,,,,,,,,,,,,,,,,,,,,,,,,,,,,,,,,,
,,6170c5f324920093389dd767,2023-12-14_23h10.03.871,kallum_motion_pilot,2023.2.3,Win32,59.76929054,6170c5f324920093389dd767,657bb317c8798c6608bceb3f,657bb4303198d96ae306ed20,0.0211,0.0212,0,71,71,29,1,threefour,,,,,,,,,,,,,,,,,,,,,,,,,,,,,,,,,,,,,,,,,,,,,,,,,,,,,,,,,,,,,,,,,,,,,,,,,,,,,,,,,,,,,,,,,,,,,,,,,,,,,,,,,,,,,,,,,,,,,,,,,,,,,,,,,,,,,,,
,,6170c5f324920093389dd767,2023-12-14_23h10.03.871,kallum_motion_pilot,2023.2.3,Win32,59.76929054,6170c5f324920093389dd767,657bb317c8798c6608bceb3f,657bb4303198d96ae306ed20,0.0212,0.0212,0,72,72,49,1,onethree,,,,,,,,,,,,,,,,,,,,,,,,,,,,,,,,,,,,,,,,,,,,,,,,,,,,,,,,,,,,,,,,,,,,,,,,,,,,,,,,,,,,,,,,,,,,,,,,,,,,,,,,,,,,,,,,,,,,,,,,,,,,,,,,,,,,,,,
,,6170c5f324920093389dd767,2023-12-14_23h10.03.871,kallum_motion_pilot,2023.2.3,Win32,59.76929054,6170c5f324920093389dd767,657bb317c8798c6608bceb3f,657bb4303198d96ae306ed20,0.0212,0.0212,0,73,73,74,1,twoone,,,,,,,,,,,,,,,,,,,,,,,,,,,,,,,,,,,,,,,,,,,,,,,,,,,,,,,,,,,,,,,,,,,,,,,,,,,,,,,,,,,,,,,,,,,,,,,,,,,,,,,,,,,,,,,,,,,,,,,,,,,,,,,,,,,,,,,
,,6170c5f324920093389dd767,2023-12-14_23h10.03.871,kallum_motion_pilot,2023.2.3,Win32,59.76929054,6170c5f324920093389dd767,657bb317c8798c6608bceb3f,657bb4303198d96ae306ed20,0.0213,0.0214,0,74,74,23,1,fourthree,,,,,,,,,,,,,,,,,,,,,,,,,,,,,,,,,,,,,,,,,,,,,,,,,,,,,,,,,,,,,,,,,,,,,,,,,,,,,,,,,,,,,,,,,,,,,,,,,,,,,,,,,,,,,,,,,,,,,,,,,,,,,,,,,,,,,,,
,,6170c5f324920093389dd767,2023-12-14_23h10.03.871,kallum_motion_pilot,2023.2.3,Win32,59.76929054,6170c5f324920093389dd767,657bb317c8798c6608bceb3f,657bb4303198d96ae306ed20,0.0214,0.0215,0,75,75,107,1,sixeight,,,,,,,,,,,,,,,,,,,,,,,,,,,,,,,,,,,,,,,,,,,,,,,,,,,,,,,,,,,,,,,,,,,,,,,,,,,,,,,,,,,,,,,,,,,,,,,,,,,,,,,,,,,,,,,,,,,,,,,,,,,,,,,,,,,,,,,
,,6170c5f324920093389dd767,2023-12-14_23h10.03.871,kallum_motion_pilot,2023.2.3,Win32,59.76929054,6170c5f324920093389dd767,657bb317c8798c6608bceb3f,657bb4303198d96ae306ed20,0.0215,0.0215,0,76,76,35,1,twofour,,,,,,,,,,,,,,,,,,,,,,,,,,,,,,,,,,,,,,,,,,,,,,,,,,,,,,,,,,,,,,,,,,,,,,,,,,,,,,,,,,,,,,,,,,,,,,,,,,,,,,,,,,,,,,,,,,,,,,,,,,,,,,,,,,,,,,,
,,6170c5f324920093389dd767,2023-12-14_23h10.03.871,kallum_motion_pilot,2023.2.3,Win32,59.76929054,6170c5f324920093389dd767,657bb317c8798c6608bceb3f,657bb4303198d96ae306ed20,0.0215,0.0216,0,77,77,131,1,sixeight,,,,,,,,,,,,,,,,,,,,,,,,,,,,,,,,,,,,,,,,,,,,,,,,,,,,,,,,,,,,,,,,,,,,,,,,,,,,,,,,,,,,,,,,,,,,,,,,,,,,,,,,,,,,,,,,,,,,,,,,,,,,,,,,,,,,,,,
,,6170c5f324920093389dd767,2023-12-14_23h10.03.871,kallum_motion_pilot,2023.2.3,Win32,59.76929054,6170c5f324920093389dd767,657bb317c8798c6608bceb3f,657bb4303198d96ae306ed20,0.0216,0.0216,0,78,78,80,1,fivesix,,,,,,,,,,,,,,,,,,,,,,,,,,,,,,,,,,,,,,,,,,,,,,,,,,,,,,,,,,,,,,,,,,,,,,,,,,,,,,,,,,,,,,,,,,,,,,,,,,,,,,,,,,,,,,,,,,,,,,,,,,,,,,,,,,,,,,,
,,6170c5f324920093389dd767,2023-12-14_23h10.03.871,kallum_motion_pilot,2023.2.3,Win32,59.76929054,6170c5f324920093389dd767,657bb317c8798c6608bceb3f,657bb4303198d96ae306ed20,0.0216,0.0216,0,79,79,78,1,fourtwo,,,,,,,,,,,,,,,,,,,,,,,,,,,,,,,,,,,,,,,,,,,,,,,,,,,,,,,,,,,,,,,,,,,,,,,,,,,,,,,,,,,,,,,,,,,,,,,,,,,,,,,,,,,,,,,,,,,,,,,,,,,,,,,,,,,,,,,
,,6170c5f324920093389dd767,2023-12-14_23h10.03.871,kallum_motion_pilot,2023.2.3,Win32,59.76929054,6170c5f324920093389dd767,657bb317c8798c6608bceb3f,657bb4303198d96ae306ed20,0.0217,0.0218,0,80,80,88,1,fivesix,,,,,,,,,,,,,,,,,,,,,,,,,,,,,,,,,,,,,,,,,,,,,,,,,,,,,,,,,,,,,,,,,,,,,,,,,,,,,,,,,,,,,,,,,,,,,,,,,,,,,,,,,,,,,,,,,,,,,,,,,,,,,,,,,,,,,,,
,,6170c5f324920093389dd767,2023-12-14_23h10.03.871,kallum_motion_pilot,2023.2.3,Win32,59.76929054,6170c5f324920093389dd767,657bb317c8798c6608bceb3f,657bb4303198d96ae306ed20,0.0218,0.0218,0,81,81,129,1,fiveseven,,,,,,,,,,,,,,,,,,,,,,,,,,,,,,,,,,,,,,,,,,,,,,,,,,,,,,,,,,,,,,,,,,,,,,,,,,,,,,,,,,,,,,,,,,,,,,,,,,,,,,,,,,,,,,,,,,,,,,,,,,,,,,,,,,,,,,,
,,6170c5f324920093389dd767,2023-12-14_23h10.03.871,kallum_motion_pilot,2023.2.3,Win32,59.76929054,6170c5f324920093389dd767,657bb317c8798c6608bceb3f,657bb4303198d96ae306ed20,0.0219,0.022,0,82,82,33,1,onethree,,,,,,,,,,,,,,,,,,,,,,,,,,,,,,,,,,,,,,,,,,,,,,,,,,,,,,,,,,,,,,,,,,,,,,,,,,,,,,,,,,,,,,,,,,,,,,,,,,,,,,,,,,,,,,,,,,,,,,,,,,,,,,,,,,,,,,,
,,6170c5f324920093389dd767,2023-12-14_23h10.03.871,kallum_motion_pilot,2023.2.3,Win32,59.76929054,6170c5f324920093389dd767,657bb317c8798c6608bceb3f,657bb4303198d96ae306ed20,0.022,0.022,0,83,83,67,1,twofour,,,,,,,,,,,,,,,,,,,,,,,,,,,,,,,,,,,,,,,,,,,,,,,,,,,,,,,,,,,,,,,,,,,,,,,,,,,,,,,,,,,,,,,,,,,,,,,,,,,,,,,,,,,,,,,,,,,,,,,,,,,,,,,,,,,,,,,
,,6170c5f324920093389dd767,2023-12-14_23h10.03.871,kallum_motion_pilot,2023.2.3,Win32,59.76929054,6170c5f324920093389dd767,657bb317c8798c6608bceb3f,657bb4303198d96ae306ed20,0.0221,0.0221,0,84,84,46,1,fourtwo,,,,,,,,,,,,,,,,,,,,,,,,,,,,,,,,,,,,,,,,,,,,,,,,,,,,,,,,,,,,,,,,,,,,,,,,,,,,,,,,,,,,,,,,,,,,,,,,,,,,,,,,,,,,,,,,,,,,,,,,,,,,,,,,,,,,,,,
,,6170c5f324920093389dd767,2023-12-14_23h10.03.871,kallum_motion_pilot,2023.2.3,Win32,59.76929054,6170c5f324920093389dd767,657bb317c8798c6608bceb3f,657bb4303198d96ae306ed20,0.0221,0.0222,0,85,85,82,1,sixfive,,,,,,,,,,,,,,,,,,,,,,,,,,,,,,,,,,,,,,,,,,,,,,,,,,,,,,,,,,,,,,,,,,,,,,,,,,,,,,,,,,,,,,,,,,,,,,,,,,,,,,,,,,,,,,,,,,,,,,,,,,,,,,,,,,,,,,,
,,6170c5f324920093389dd767,2023-12-14_23h10.03.871,kallum_motion_pilot,2023.2.3,Win32,59.76929054,6170c5f324920093389dd767,657bb317c8798c6608bceb3f,657bb4303198d96ae306ed20,0.0222,0.0222,0,86,86,134,1,eightsix,,,,,,,,,,,,,,,,,,,,,,,,,,,,,,,,,,,,,,,,,,,,,,,,,,,,,,,,,,,,,,,,,,,,,,,,,,,,,,,,,,,,,,,,,,,,,,,,,,,,,,,,,,,,,,,,,,,,,,,,,,,,,,,,,,,,,,,
,,6170c5f324920093389dd767,2023-12-14_23h10.03.871,kallum_motion_pilot,2023.2.3,Win32,59.76929054,6170c5f324920093389dd767,657bb317c8798c6608bceb3f,657bb4303198d96ae306ed20,0.0223,0.0223,0,87,87,136,1,fivesix,,,,,,,,,,,,,,,,,,,,,,,,,,,,,,,,,,,,,,,,,,,,,,,,,,,,,,,,,,,,,,,,,,,,,,,,,,,,,,,,,,,,,,,,,,,,,,,,,,,,,,,,,,,,,,,,,,,,,,,,,,,,,,,,,,,,,,,
,,6170c5f324920093389dd767,2023-12-14_23h10.03.871,kallum_motion_pilot,2023.2.3,Win32,59.76929054,6170c5f324920093389dd767,657bb317c8798c6608bceb3f,657bb4303198d96ae306ed20,0.0223,0.0224,0,88,88,70,1,fourtwo,,,,,,,,,,,,,,,,,,,,,,,,,,,,,,,,,,,,,,,,,,,,,,,,,,,,,,,,,,,,,,,,,,,,,,,,,,,,,,,,,,,,,,,,,,,,,,,,,,,,,,,,,,,,,,,,,,,,,,,,,,,,,,,,,,,,,,,
,,6170c5f324920093389dd767,2023-12-14_23h10.03.871,kallum_motion_pilot,2023.2.3,Win32,59.76929054,6170c5f324920093389dd767,657bb317c8798c6608bceb3f,657bb4303198d96ae306ed20,0.0224,0.0224,0,89,89,117,1,seveneight,,,,,,,,,,,,,,,,,,,,,,,,,,,,,,,,,,,,,,,,,,,,,,,,,,,,,,,,,,,,,,,,,,,,,,,,,,,,,,,,,,,,,,,,,,,,,,,,,,,,,,,,,,,,,,,,,,,,,,,,,,,,,,,,,,,,,,,
,,6170c5f324920093389dd767,2023-12-14_23h10.03.871,kallum_motion_pilot,2023.2.3,Win32,59.76929054,6170c5f324920093389dd767,657bb317c8798c6608bceb3f,657bb4303198d96ae306ed20,0.0225,0.0226,0,90,90,95,1,eightseven,,,,,,,,,,,,,,,,,,,,,,,,,,,,,,,,,,,,,,,,,,,,,,,,,,,,,,,,,,,,,,,,,,,,,,,,,,,,,,,,,,,,,,,,,,,,,,,,,,,,,,,,,,,,,,,,,,,,,,,,,,,,,,,,,,,,,,,
,,6170c5f324920093389dd767,2023-12-14_23h10.03.871,kallum_motion_pilot,2023.2.3,Win32,59.76929054,6170c5f324920093389dd767,657bb317c8798c6608bceb3f,657bb4303198d96ae306ed20,0.0226,0.0226,0,91,91,68,1,threeone,,,,,,,,,,,,,,,,,,,,,,,,,,,,,,,,,,,,,,,,,,,,,,,,,,,,,,,,,,,,,,,,,,,,,,,,,,,,,,,,,,,,,,,,,,,,,,,,,,,,,,,,,,,,,,,,,,,,,,,,,,,,,,,,,,,,,,,
,,6170c5f324920093389dd767,2023-12-14_23h10.03.871,kallum_motion_pilot,2023.2.3,Win32,59.76929054,6170c5f324920093389dd767,657bb317c8798c6608bceb3f,657bb4303198d96ae306ed20,0.0226,0.0226,0,92,92,93,1,seveneight,,,,,,,,,,,,,,,,,,,,,,,,,,,,,,,,,,,,,,,,,,,,,,,,,,,,,,,,,,,,,,,,,,,,,,,,,,,,,,,,,,,,,,,,,,,,,,,,,,,,,,,,,,,,,,,,,,,,,,,,,,,,,,,,,,,,,,,
,,6170c5f324920093389dd767,2023-12-14_23h10.03.871,kallum_motion_pilot,2023.2.3,Win32,59.76929054,6170c5f324920093389dd767,657bb317c8798c6608bceb3f,657bb4303198d96ae306ed20,0.0227,0.0228,0,93,93,12,1,threeone,,,,,,,,,,,,,,,,,,,,,,,,,,,,,,,,,,,,,,,,,,,,,,,,,,,,,,,,,,,,,,,,,,,,,,,,,,,,,,,,,,,,,,,,,,,,,,,,,,,,,,,,,,,,,,,,,,,,,,,,,,,,,,,,,,,,,,,
,,6170c5f324920093389dd767,2023-12-14_23h10.03.871,kallum_motion_pilot,2023.2.3,Win32,59.76929054,6170c5f324920093389dd767,657bb317c8798c6608bceb3f,657bb4303198d96ae306ed20,0.0228,0.0229,0,94,94,98,1,sixfive,,,,,,,,,,,,,,,,,,,,,,,,,,,,,,,,,,,,,,,,,,,,,,,,,,,,,,,,,,,,,,,,,,,,,,,,,,,,,,,,,,,,,,,,,,,,,,,,,,,,,,,,,,,,,,,,,,,,,,,,,,,,,,,,,,,,,,,
,,6170c5f324920093389dd767,2023-12-14_23h10.03.871,kallum_motion_pilot,2023.2.3,Win32,59.76929054,6170c5f324920093389dd767,657bb317c8798c6608bceb3f,657bb4303198d96ae306ed20,0.0229,0.0229,0,95,95,133,1,seveneight,,,,,,,,,,,,,,,,,,,,,,,,,,,,,,,,,,,,,,,,,,,,,,,,,,,,,,,,,,,,,,,,,,,,,,,,,,,,,,,,,,,,,,,,,,,,,,,,,,,,,,,,,,,,,,,,,,,,,,,,,,,,,,,,,,,,,,,
,,6170c5f324920093389dd767,2023-12-14_23h10.03.871,kallum_motion_pilot,2023.2.3,Win32,59.76929054,6170c5f324920093389dd767,657bb317c8798c6608bceb3f,657bb4303198d96ae306ed20,0.0229,0.023,0,96,96,25,1,onethree,,,,,,,,,,,,,,,,,,,,,,,,,,,,,,,,,,,,,,,,,,,,,,,,,,,,,,,,,,,,,,,,,,,,,,,,,,,,,,,,,,,,,,,,,,,,,,,,,,,,,,,,,,,,,,,,,,,,,,,,,,,,,,,,,,,,,,,
,,6170c5f324920093389dd767,2023-12-14_23h10.03.871,kallum_motion_pilot,2023.2.3,Win32,59.76929054,6170c5f324920093389dd767,657bb317c8798c6608bceb3f,657bb4303198d96ae306ed20,0.0231,0.0231,0,97,97,109,1,seveneight,,,,,,,,,,,,,,,,,,,,,,,,,,,,,,,,,,,,,,,,,,,,,,,,,,,,,,,,,,,,,,,,,,,,,,,,,,,,,,,,,,,,,,,,,,,,,,,,,,,,,,,,,,,,,,,,,,,,,,,,,,,,,,,,,,,,,,,
,,6170c5f324920093389dd767,2023-12-14_23h10.03.871,kallum_motion_pilot,2023.2.3,Win32,59.76929054,6170c5f324920093389dd767,657bb317c8798c6608bceb3f,657bb4303198d96ae306ed20,0.0231,0.0232,0,98,98,76,1,threeone,,,,,,,,,,,,,,,,,,,,,,,,,,,,,,,,,,,,,,,,,,,,,,,,,,,,,,,,,,,,,,,,,,,,,,,,,,,,,,,,,,,,,,,,,,,,,,,,,,,,,,,,,,,,,,,,,,,,,,,,,,,,,,,,,,,,,,,
,,6170c5f324920093389dd767,2023-12-14_23h10.03.871,kallum_motion_pilot,2023.2.3,Win32,59.76929054,6170c5f324920093389dd767,657bb317c8798c6608bceb3f,657bb4303198d96ae306ed20,0.0232,0.0232,0,99,99,1,1,onethree,,,,,,,,,,,,,,,,,,,,,,,,,,,,,,,,,,,,,,,,,,,,,,,,,,,,,,,,,,,,,,,,,,,,,,,,,,,,,,,,,,,,,,,,,,,,,,,,,,,,,,,,,,,,,,,,,,,,,,,,,,,,,,,,,,,,,,,
,,6170c5f324920093389dd767,2023-12-14_23h10.03.871,kallum_motion_pilot,2023.2.3,Win32,59.76929054,6170c5f324920093389dd767,657bb317c8798c6608bceb3f,657bb4303198d96ae306ed20,0.0232,0.0233,0,100,100,10,1,twoone,,,,,,,,,,,,,,,,,,,,,,,,,,,,,,,,,,,,,,,,,,,,,,,,,,,,,,,,,,,,,,,,,,,,,,,,,,,,,,,,,,,,,,,,,,,,,,,,,,,,,,,,,,,,,,,,,,,,,,,,,,,,,,,,,,,,,,,
,,6170c5f324920093389dd767,2023-12-14_23h10.03.871,kallum_motion_pilot,2023.2.3,Win32,59.76929054,6170c5f324920093389dd767,657bb317c8798c6608bceb3f,657bb4303198d96ae306ed20,0.0234,0.0234,0,101,101,14,1,fourtwo,,,,,,,,,,,,,,,,,,,,,,,,,,,,,,,,,,,,,,,,,,,,,,,,,,,,,,,,,,,,,,,,,,,,,,,,,,,,,,,,,,,,,,,,,,,,,,,,,,,,,,,,,,,,,,,,,,,,,,,,,,,,,,,,,,,,,,,
,,6170c5f324920093389dd767,2023-12-14_23h10.03.871,kallum_motion_pilot,2023.2.3,Win32,59.76929054,6170c5f324920093389dd767,657bb317c8798c6608bceb3f,657bb4303198d96ae306ed20,0.0235,0.0235,0,102,102,45,1,threefour,,,,,,,,,,,,,,,,,,,,,,,,,,,,,,,,,,,,,,,,,,,,,,,,,,,,,,,,,,,,,,,,,,,,,,,,,,,,,,,,,,,,,,,,,,,,,,,,,,,,,,,,,,,,,,,,,,,,,,,,,,,,,,,,,,,,,,,
,,6170c5f324920093389dd767,2023-12-14_23h10.03.871,kallum_motion_pilot,2023.2.3,Win32,59.76929054,6170c5f324920093389dd767,657bb317c8798c6608bceb3f,657bb4303198d96ae306ed20,0.0235,0.0236,0,103,103,114,1,sixfive,,,,,,,,,,,,,,,,,,,,,,,,,,,,,,,,,,,,,,,,,,,,,,,,,,,,,,,,,,,,,,,,,,,,,,,,,,,,,,,,,,,,,,,,,,,,,,,,,,,,,,,,,,,,,,,,,,,,,,,,,,,,,,,,,,,,,,,
,,6170c5f324920093389dd767,2023-12-14_23h10.03.871,kallum_motion_pilot,2023.2.3,Win32,59.76929054,6170c5f324920093389dd767,657bb317c8798c6608bceb3f,657bb4303198d96ae306ed20,0.0236,0.0236,0,104,104,3,1,twofour,,,,,,,,,,,,,,,,,,,,,,,,,,,,,,,,,,,,,,,,,,,,,,,,,,,,,,,,,,,,,,,,,,,,,,,,,,,,,,,,,,,,,,,,,,,,,,,,,,,,,,,,,,,,,,,,,,,,,,,,,,,,,,,,,,,,,,,
,,6170c5f324920093389dd767,2023-12-14_23h10.03.871,kallum_motion_pilot,2023.2.3,Win32,59.76929054,6170c5f324920093389dd767,657bb317c8798c6608bceb3f,657bb4303198d96ae306ed20,0.0236,0.0238,0,105,105,112,1,fivesix,,,,,,,,,,,,,,,,,,,,,,,,,,,,,,,,,,,,,,,,,,,,,,,,,,,,,,,,,,,,,,,,,,,,,,,,,,,,,,,,,,,,,,,,,,,,,,,,,,,,,,,,,,,,,,,,,,,,,,,,,,,,,,,,,,,,,,,
,,6170c5f324920093389dd767,2023-12-14_23h10.03.871,kallum_motion_pilot,2023.2.3,Win32,59.76929054,6170c5f324920093389dd767,657bb317c8798c6608bceb3f,657bb4303198d96ae306ed20,0.0238,0.0238,0,106,106,34,1,twoone,,,,,,,,,,,,,,,,,,,,,,,,,,,,,,,,,,,,,,,,,,,,,,,,,,,,,,,,,,,,,,,,,,,,,,,,,,,,,,,,,,,,,,,,,,,,,,,,,,,,,,,,,,,,,,,,,,,,,,,,,,,,,,,,,,,,,,,
,,6170c5f324920093389dd767,2023-12-14_23h10.03.871,kallum_motion_pilot,2023.2.3,Win32,59.76929054,6170c5f324920093389dd767,657bb317c8798c6608bceb3f,657bb4303198d96ae306ed20,0.0238,0.0239,0,107,107,106,1,sixfive,,,,,,,,,,,,,,,,,,,,,,,,,,,,,,,,,,,,,,,,,,,,,,,,,,,,,,,,,,,,,,,,,,,,,,,,,,,,,,,,,,,,,,,,,,,,,,,,,,,,,,,,,,,,,,,,,,,,,,,,,,,,,,,,,,,,,,,
,,6170c5f324920093389dd767,2023-12-14_23h10.03.871,kallum_motion_pilot,2023.2.3,Win32,59.76929054,6170c5f324920093389dd767,657bb317c8798c6608bceb3f,657bb4303198d96ae306ed20,0.024,0.024,0,108,108,99,1,sixeight,,,,,,,,,,,,,,,,,,,,,,,,,,,,,,,,,,,,,,,,,,,,,,,,,,,,,,,,,,,,,,,,,,,,,,,,,,,,,,,,,,,,,,,,,,,,,,,,,,,,,,,,,,,,,,,,,,,,,,,,,,,,,,,,,,,,,,,
,,6170c5f324920093389dd767,2023-12-14_23h10.03.871,kallum_motion_pilot,2023.2.3,Win32,59.76929054,6170c5f324920093389dd767,657bb317c8798c6608bceb3f,657bb4303198d96ae306ed20,0.024,0.024,0,109,109,28,1,threeone,,,,,,,,,,,,,,,,,,,,,,,,,,,,,,,,,,,,,,,,,,,,,,,,,,,,,,,,,,,,,,,,,,,,,,,,,,,,,,,,,,,,,,,,,,,,,,,,,,,,,,,,,,,,,,,,,,,,,,,,,,,,,,,,,,,,,,,
,,6170c5f324920093389dd767,2023-12-14_23h10.03.871,kallum_motion_pilot,2023.2.3,Win32,59.76929054,6170c5f324920093389dd767,657bb317c8798c6608bceb3f,657bb4303198d96ae306ed20,0.0241,0.0241,0,110,110,71,1,fourthree,,,,,,,,,,,,,,,,,,,,,,,,,,,,,,,,,,,,,,,,,,,,,,,,,,,,,,,,,,,,,,,,,,,,,,,,,,,,,,,,,,,,,,,,,,,,,,,,,,,,,,,,,,,,,,,,,,,,,,,,,,,,,,,,,,,,,,,
,,6170c5f324920093389dd767,2023-12-14_23h10.03.871,kallum_motion_pilot,2023.2.3,Win32,59.76929054,6170c5f324920093389dd767,657bb317c8798c6608bceb3f,657bb4303198d96ae306ed20,0.0242,0.0242,0,111,111,146,1,sixfive,,,,,,,,,,,,,,,,,,,,,,,,,,,,,,,,,,,,,,,,,,,,,,,,,,,,,,,,,,,,,,,,,,,,,,,,,,,,,,,,,,,,,,,,,,,,,,,,,,,,,,,,,,,,,,,,,,,,,,,,,,,,,,,,,,,,,,,
,,6170c5f324920093389dd767,2023-12-14_23h10.03.871,kallum_motion_pilot,2023.2.3,Win32,59.76929054,6170c5f324920093389dd767,657bb317c8798c6608bceb3f,657bb4303198d96ae306ed20,0.0242,0.0242,0,112,112,148,1,sevenfive,,,,,,,,,,,,,,,,,,,,,,,,,,,,,,,,,,,,,,,,,,,,,,,,,,,,,,,,,,,,,,,,,,,,,,,,,,,,,,,,,,,,,,,,,,,,,,,,,,,,,,,,,,,,,,,,,,,,,,,,,,,,,,,,,,,,,,,
,,6170c5f324920093389dd767,2023-12-14_23h10.03.871,kallum_motion_pilot,2023.2.3,Win32,59.76929054,6170c5f324920093389dd767,657bb317c8798c6608bceb3f,657bb4303198d96ae306ed20,0.0244,0.0244,0,113,113,40,1,onetwo,,,,,,,,,,,,,,,,,,,,,,,,,,,,,,,,,,,,,,,,,,,,,,,,,,,,,,,,,,,,,,,,,,,,,,,,,,,,,,,,,,,,,,,,,,,,,,,,,,,,,,,,,,,,,,,,,,,,,,,,,,,,,,,,,,,,,,,
,,6170c5f324920093389dd767,2023-12-14_23h10.03.871,kallum_motion_pilot,2023.2.3,Win32,59.76929054,6170c5f324920093389dd767,657bb317c8798c6608bceb3f,657bb4303198d96ae306ed20,0.0244,0.0244,0,114,114,59,1,twofour,,,,,,,,,,,,,,,,,,,,,,,,,,,,,,,,,,,,,,,,,,,,,,,,,,,,,,,,,,,,,,,,,,,,,,,,,,,,,,,,,,,,,,,,,,,,,,,,,,,,,,,,,,,,,,,,,,,,,,,,,,,,,,,,,,,,,,,
,,6170c5f324920093389dd767,2023-12-14_23h10.03.871,kallum_motion_pilot,2023.2.3,Win32,59.76929054,6170c5f324920093389dd767,657bb317c8798c6608bceb3f,657bb4303198d96ae306ed20,0.0245,0.0245,0,115,115,92,1,sevenfive,,,,,,,,,,,,,,,,,,,,,,,,,,,,,,,,,,,,,,,,,,,,,,,,,,,,,,,,,,,,,,,,,,,,,,,,,,,,,,,,,,,,,,,,,,,,,,,,,,,,,,,,,,,,,,,,,,,,,,,,,,,,,,,,,,,,,,,
,,6170c5f324920093389dd767,2023-12-14_23h10.03.871,kallum_motion_pilot,2023.2.3,Win32,59.76929054,6170c5f324920093389dd767,657bb317c8798c6608bceb3f,657bb4303198d96ae306ed20,0.0246,0.0246,0,116,116,72,1,onetwo,,,,,,,,,,,,,,,,,,,,,,,,,,,,,,,,,,,,,,,,,,,,,,,,,,,,,,,,,,,,,,,,,,,,,,,,,,,,,,,,,,,,,,,,,,,,,,,,,,,,,,,,,,,,,,,,,,,,,,,,,,,,,,,,,,,,,,,
,,6170c5f324920093389dd767,2023-12-14_23h10.03.871,kallum_motion_pilot,2023.2.3,Win32,59.76929054,6170c5f324920093389dd767,657bb317c8798c6608bceb3f,657bb4303198d96ae306ed20,0.0247,0.0247,0,117,117,124,1,sevenfive,,,,,,,,,,,,,,,,,,,,,,,,,,,,,,,,,,,,,,,,,,,,,,,,,,,,,,,,,,,,,,,,,,,,,,,,,,,,,,,,,,,,,,,,,,,,,,,,,,,,,,,,,,,,,,,,,,,,,,,,,,,,,,,,,,,,,,,
,,6170c5f324920093389dd767,2023-12-14_23h10.03.871,kallum_motion_pilot,2023.2.3,Win32,59.76929054,6170c5f324920093389dd767,657bb317c8798c6608bceb3f,657bb4303198d96ae306ed20,0.0247,0.0248,0,118,118,53,1,threefour,,,,,,,,,,,,,,,,,,,,,,,,,,,,,,,,,,,,,,,,,,,,,,,,,,,,,,,,,,,,,,,,,,,,,,,,,,,,,,,,,,,,,,,,,,,,,,,,,,,,,,,,,,,,,,,,,,,,,,,,,,,,,,,,,,,,,,,
,,6170c5f324920093389dd767,2023-12-14_23h10.03.871,kallum_motion_pilot,2023.2.3,Win32,59.76929054,6170c5f324920093389dd767,657bb317c8798c6608bceb3f,657bb4303198d96ae306ed20,0.0248,0.0249,0,119,119,110,1,eightsix,,,,,,,,,,,,,,,,,,,,,,,,,,,,,,,,,,,,,,,,,,,,,,,,,,,,,,,,,,,,,,,,,,,,,,,,,,,,,,,,,,,,,,,,,,,,,,,,,,,,,,,,,,,,,,,,,,,,,,,,,,,,,,,,,,,,,,,
,,6170c5f324920093389dd767,2023-12-14_23h10.03.871,kallum_motion_pilot,2023.2.3,Win32,59.76929054,6170c5f324920093389dd767,657bb317c8798c6608bceb3f,657bb4303198d96ae306ed20,0.0249,0.0249,0,120,120,120,1,fivesix,,,,,,,,,,,,,,,,,,,,,,,,,,,,,,,,,,,,,,,,,,,,,,,,,,,,,,,,,,,,,,,,,,,,,,,,,,,,,,,,,,,,,,,,,,,,,,,,,,,,,,,,,,,,,,,,,,,,,,,,,,,,,,,,,,,,,,,
,,6170c5f324920093389dd767,2023-12-14_23h10.03.871,kallum_motion_pilot,2023.2.3,Win32,59.76929054,6170c5f324920093389dd767,657bb317c8798c6608bceb3f,657bb4303198d96ae306ed20,0.0249,0.025,0,121,121,38,1,fourtwo,,,,,,,,,,,,,,,,,,,,,,,,,,,,,,,,,,,,,,,,,,,,,,,,,,,,,,,,,,,,,,,,,,,,,,,,,,,,,,,,,,,,,,,,,,,,,,,,,,,,,,,,,,,,,,,,,,,,,,,,,,,,,,,,,,,,,,,
,,6170c5f324920093389dd767,2023-12-14_23h10.03.871,kallum_motion_pilot,2023.2.3,Win32,59.76929054,6170c5f324920093389dd767,657bb317c8798c6608bceb3f,657bb4303198d96ae306ed20,0.025,0.025,0,122,122,87,1,eightseven,,,,,,,,,,,,,,,,,,,,,,,,,,,,,,,,,,,,,,,,,,,,,,,,,,,,,,,,,,,,,,,,,,,,,,,,,,,,,,,,,,,,,,,,,,,,,,,,,,,,,,,,,,,,,,,,,,,,,,,,,,,,,,,,,,,,,,,
,,6170c5f324920093389dd767,2023-12-14_23h10.03.871,kallum_motion_pilot,2023.2.3,Win32,59.76929054,6170c5f324920093389dd767,657bb317c8798c6608bceb3f,657bb4303198d96ae306ed20,0.0251,0.0251,0,123,123,79,1,eightseven,,,,,,,,,,,,,,,,,,,,,,,,,,,,,,,,,,,,,,,,,,,,,,,,,,,,,,,,,,,,,,,,,,,,,,,,,,,,,,,,,,,,,,,,,,,,,,,,,,,,,,,,,,,,,,,,,,,,,,,,,,,,,,,,,,,,,,,
,,6170c5f324920093389dd767,2023-12-14_23h10.03.871,kallum_motion_pilot,2023.2.3,Win32,59.76929054,6170c5f324920093389dd767,657bb317c8798c6608bceb3f,657bb4303198d96ae306ed20,0.0252,0.0253,0,124,124,147,1,sixeight,,,,,,,,,,,,,,,,,,,,,,,,,,,,,,,,,,,,,,,,,,,,,,,,,,,,,,,,,,,,,,,,,,,,,,,,,,,,,,,,,,,,,,,,,,,,,,,,,,,,,,,,,,,,,,,,,,,,,,,,,,,,,,,,,,,,,,,
,,6170c5f324920093389dd767,2023-12-14_23h10.03.871,kallum_motion_pilot,2023.2.3,Win32,59.76929054,6170c5f324920093389dd767,657bb317c8798c6608bceb3f,657bb4303198d96ae306ed20,0.0253,0.0253,0,125,125,22,1,fourtwo,,,,,,,,,,,,,,,,,,,,,,,,,,,,,,,,,,,,,,,,,,,,,,,,,,,,,,,,,,,,,,,,,,,,,,,,,,,,,,,,,,,,,,,,,,,,,,,,,,,,,,,,,,,,,,,,,,,,,,,,,,,,,,,,,,,,,,,
,,6170c5f324920093389dd767,2023-12-14_23h10.03.871,kallum_motion_pilot,2023.2.3,Win32,59.76929054,6170c5f324920093389dd767,657bb317c8798c6608bceb3f,657bb4303198d96ae306ed20,0.0254,0.0254,0,126,126,8,1,onetwo,,,,,,,,,,,,,,,,,,,,,,,,,,,,,,,,,,,,,,,,,,,,,,,,,,,,,,,,,,,,,,,,,,,,,,,,,,,,,,,,,,,,,,,,,,,,,,,,,,,,,,,,,,,,,,,,,,,,,,,,,,,,,,,,,,,,,,,
,,6170c5f324920093389dd767,2023-12-14_23h10.03.871,kallum_motion_pilot,2023.2.3,Win32,59.76929054,6170c5f324920093389dd767,657bb317c8798c6608bceb3f,657bb4303198d96ae306ed20,0.0255,0.0255,0,127,127,151,1,eightseven,,,,,,,,,,,,,,,,,,,,,,,,,,,,,,,,,,,,,,,,,,,,,,,,,,,,,,,,,,,,,,,,,,,,,,,,,,,,,,,,,,,,,,,,,,,,,,,,,,,,,,,,,,,,,,,,,,,,,,,,,,,,,,,,,,,,,,,
,,6170c5f324920093389dd767,2023-12-14_23h10.03.871,kallum_motion_pilot,2023.2.3,Win32,59.76929054,6170c5f324920093389dd767,657bb317c8798c6608bceb3f,657bb4303198d96ae306ed20,0.0256,0.0257,0,128,128,16,1,onetwo,,,,,,,,,,,,,,,,,,,,,,,,,,,,,,,,,,,,,,,,,,,,,,,,,,,,,,,,,,,,,,,,,,,,,,,,,,,,,,,,,,,,,,,,,,,,,,,,,,,,,,,,,,,,,,,,,,,,,,,,,,,,,,,,,,,,,,,
,,6170c5f324920093389dd767,2023-12-14_23h10.03.871,kallum_motion_pilot,2023.2.3,Win32,59.76929054,6170c5f324920093389dd767,657bb317c8798c6608bceb3f,657bb4303198d96ae306ed20,0.0257,0.0257,0,129,129,123,1,sixeight,,,,,,,,,,,,,,,,,,,,,,,,,,,,,,,,,,,,,,,,,,,,,,,,,,,,,,,,,,,,,,,,,,,,,,,,,,,,,,,,,,,,,,,,,,,,,,,,,,,,,,,,,,,,,,,,,,,,,,,,,,,,,,,,,,,,,,,
,,6170c5f324920093389dd767,2023-12-14_23h10.03.871,kallum_motion_pilot,2023.2.3,Win32,59.76929054,6170c5f324920093389dd767,657bb317c8798c6608bceb3f,657bb4303198d96ae306ed20,0.0258,0.0258,0,130,130,19,1,twofour,,,,,,,,,,,,,,,,,,,,,,,,,,,,,,,,,,,,,,,,,,,,,,,,,,,,,,,,,,,,,,,,,,,,,,,,,,,,,,,,,,,,,,,,,,,,,,,,,,,,,,,,,,,,,,,,,,,,,,,,,,,,,,,,,,,,,,,
,,6170c5f324920093389dd767,2023-12-14_23h10.03.871,kallum_motion_pilot,2023.2.3,Win32,59.76929054,6170c5f324920093389dd767,657bb317c8798c6608bceb3f,657bb4303198d96ae306ed20,0.0258,0.0259,0,131,131,31,1,fourthree,,,,,,,,,,,,,,,,,,,,,,,,,,,,,,,,,,,,,,,,,,,,,,,,,,,,,,,,,,,,,,,,,,,,,,,,,,,,,,,,,,,,,,,,,,,,,,,,,,,,,,,,,,,,,,,,,,,,,,,,,,,,,,,,,,,,,,,
,,6170c5f324920093389dd767,2023-12-14_23h10.03.871,kallum_motion_pilot,2023.2.3,Win32,59.76929054,6170c5f324920093389dd767,657bb317c8798c6608bceb3f,657bb4303198d96ae306ed20,0.0259,0.0259,0,132,132,18,1,twoone,,,,,,,,,,,,,,,,,,,,,,,,,,,,,,,,,,,,,,,,,,,,,,,,,,,,,,,,,,,,,,,,,,,,,,,,,,,,,,,,,,,,,,,,,,,,,,,,,,,,,,,,,,,,,,,,,,,,,,,,,,,,,,,,,,,,,,,
,,6170c5f324920093389dd767,2023-12-14_23h10.03.871,kallum_motion_pilot,2023.2.3,Win32,59.76929054,6170c5f324920093389dd767,657bb317c8798c6608bceb3f,657bb4303198d96ae306ed20,0.026,0.0261,0,133,133,101,1,seveneight,,,,,,,,,,,,,,,,,,,,,,,,,,,,,,,,,,,,,,,,,,,,,,,,,,,,,,,,,,,,,,,,,,,,,,,,,,,,,,,,,,,,,,,,,,,,,,,,,,,,,,,,,,,,,,,,,,,,,,,,,,,,,,,,,,,,,,,
,,6170c5f324920093389dd767,2023-12-14_23h10.03.871,kallum_motion_pilot,2023.2.3,Win32,59.76929054,6170c5f324920093389dd767,657bb317c8798c6608bceb3f,657bb4303198d96ae306ed20,0.0261,0.0261,0,134,134,90,1,sixfive,,,,,,,,,,,,,,,,,,,,,,,,,,,,,,,,,,,,,,,,,,,,,,,,,,,,,,,,,,,,,,,,,,,,,,,,,,,,,,,,,,,,,,,,,,,,,,,,,,,,,,,,,,,,,,,,,,,,,,,,,,,,,,,,,,,,,,,
,,6170c5f324920093389dd767,2023-12-14_23h10.03.871,kallum_motion_pilot,2023.2.3,Win32,59.76929054,6170c5f324920093389dd767,657bb317c8798c6608bceb3f,657bb4303198d96ae306ed20,0.0262,0.0262,0,135,135,56,1,onetwo,,,,,,,,,,,,,,,,,,,,,,,,,,,,,,,,,,,,,,,,,,,,,,,,,,,,,,,,,,,,,,,,,,,,,,,,,,,,,,,,,,,,,,,,,,,,,,,,,,,,,,,,,,,,,,,,,,,,,,,,,,,,,,,,,,,,,,,
,,6170c5f324920093389dd767,2023-12-14_23h10.03.871,kallum_motion_pilot,2023.2.3,Win32,59.76929054,6170c5f324920093389dd767,657bb317c8798c6608bceb3f,657bb4303198d96ae306ed20,0.0263,0.0263,0,136,136,141,1,seveneight,,,,,,,,,,,,,,,,,,,,,,,,,,,,,,,,,,,,,,,,,,,,,,,,,,,,,,,,,,,,,,,,,,,,,,,,,,,,,,,,,,,,,,,,,,,,,,,,,,,,,,,,,,,,,,,,,,,,,,,,,,,,,,,,,,,,,,,
,,6170c5f324920093389dd767,2023-12-14_23h10.03.871,kallum_motion_pilot,2023.2.3,Win32,59.76929054,6170c5f324920093389dd767,657bb317c8798c6608bceb3f,657bb4303198d96ae306ed20,0.0263,0.0264,0,137,137,47,1,fourthree,,,,,,,,,,,,,,,,,,,,,,,,,,,,,,,,,,,,,,,,,,,,,,,,,,,,,,,,,,,,,,,,,,,,,,,,,,,,,,,,,,,,,,,,,,,,,,,,,,,,,,,,,,,,,,,,,,,,,,,,,,,,,,,,,,,,,,,
,,6170c5f324920093389dd767,2023-12-14_23h10.03.871,kallum_motion_pilot,2023.2.3,Win32,59.76929054,6170c5f324920093389dd767,657bb317c8798c6608bceb3f,657bb4303198d96ae306ed20,0.0265,0.0266,0,138,138,85,1,seveneight,,,,,,,,,,,,,,,,,,,,,,,,,,,,,,,,,,,,,,,,,,,,,,,,,,,,,,,,,,,,,,,,,,,,,,,,,,,,,,,,,,,,,,,,,,,,,,,,,,,,,,,,,,,,,,,,,,,,,,,,,,,,,,,,,,,,,,,
,,6170c5f324920093389dd767,2023-12-14_23h10.03.871,kallum_motion_pilot,2023.2.3,Win32,59.76929054,6170c5f324920093389dd767,657bb317c8798c6608bceb3f,657bb4303198d96ae306ed20,0.0266,0.0266,0,139,139,0,1,onetwo,,,,,,,,,,,,,,,,,,,,,,,,,,,,,,,,,,,,,,,,,,,,,,,,,,,,,,,,,,,,,,,,,,,,,,,,,,,,,,,,,,,,,,,,,,,,,,,,,,,,,,,,,,,,,,,,,,,,,,,,,,,,,,,,,,,,,,,
,,6170c5f324920093389dd767,2023-12-14_23h10.03.871,kallum_motion_pilot,2023.2.3,Win32,59.76929054,6170c5f324920093389dd767,657bb317c8798c6608bceb3f,657bb4303198d96ae306ed20,0.0267,0.0268,0,140,140,125,1,seveneight,,,,,,,,,,,,,,,,,,,,,,,,,,,,,,,,,,,,,,,,,,,,,,,,,,,,,,,,,,,,,,,,,,,,,,,,,,,,,,,,,,,,,,,,,,,,,,,,,,,,,,,,,,,,,,,,,,,,,,,,,,,,,,,,,,,,,,,
,,6170c5f324920093389dd767,2023-12-14_23h10.03.871,kallum_motion_pilot,2023.2.3,Win32,59.76929054,6170c5f324920093389dd767,657bb317c8798c6608bceb3f,657bb4303198d96ae306ed20,0.027,0.0271,0,141,141,130,1,sixfive,,,,,,,,,,,,,,,,,,,,,,,,,,,,,,,,,,,,,,,,,,,,,,,,,,,,,,,,,,,,,,,,,,,,,,,,,,,,,,,,,,,,,,,,,,,,,,,,,,,,,,,,,,,,,,,,,,,,,,,,,,,,,,,,,,,,,,,
,,6170c5f324920093389dd767,2023-12-14_23h10.03.871,kallum_motion_pilot,2023.2.3,Win32,59.76929054,6170c5f324920093389dd767,657bb317c8798c6608bceb3f,657bb4303198d96ae306ed20,0.0272,0.0272,0,142,142,55,1,fourthree,,,,,,,,,,,,,,,,,,,,,,,,,,,,,,,,,,,,,,,,,,,,,,,,,,,,,,,,,,,,,,,,,,,,,,,,,,,,,,,,,,,,,,,,,,,,,,,,,,,,,,,,,,,,,,,,,,,,,,,,,,,,,,,,,,,,,,,
,,6170c5f324920093389dd767,2023-12-14_23h10.03.871,kallum_motion_pilot,2023.2.3,Win32,59.76929054,6170c5f324920093389dd767,657bb317c8798c6608bceb3f,657bb4303198d96ae306ed20,0.0273,0.0273,0,143,143,75,1,twofour,,,,,,,,,,,,,,,,,,,,,,,,,,,,,,,,,,,,,,,,,,,,,,,,,,,,,,,,,,,,,,,,,,,,,,,,,,,,,,,,,,,,,,,,,,,,,,,,,,,,,,,,,,,,,,,,,,,,,,,,,,,,,,,,,,,,,,,
,,6170c5f324920093389dd767,2023-12-14_23h10.03.871,kallum_motion_pilot,2023.2.3,Win32,59.76929054,6170c5f324920093389dd767,657bb317c8798c6608bceb3f,657bb4303198d96ae306ed20,0.0274,0.0275,0,144,144,73,1,onethree,,,,,,,,,,,,,,,,,,,,,,,,,,,,,,,,,,,,,,,,,,,,,,,,,,,,,,,,,,,,,,,,,,,,,,,,,,,,,,,,,,,,,,,,,,,,,,,,,,,,,,,,,,,,,,,,,,,,,,,,,,,,,,,,,,,,,,,
,,6170c5f324920093389dd767,2023-12-14_23h10.03.871,kallum_motion_pilot,2023.2.3,Win32,59.76929054,6170c5f324920093389dd767,657bb317c8798c6608bceb3f,657bb4303198d96ae306ed20,0.0275,0.0275,0,145,145,113,1,fiveseven,,,,,,,,,,,,,,,,,,,,,,,,,,,,,,,,,,,,,,,,,,,,,,,,,,,,,,,,,,,,,,,,,,,,,,,,,,,,,,,,,,,,,,,,,,,,,,,,,,,,,,,,,,,,,,,,,,,,,,,,,,,,,,,,,,,,,,,
,,6170c5f324920093389dd767,2023-12-14_23h10.03.871,kallum_motion_pilot,2023.2.3,Win32,59.76929054,6170c5f324920093389dd767,657bb317c8798c6608bceb3f,657bb4303198d96ae306ed20,0.0276,0.0276,0,146,146,158,1,eightsix,,,,,,,,,,,,,,,,,,,,,,,,,,,,,,,,,,,,,,,,,,,,,,,,,,,,,,,,,,,,,,,,,,,,,,,,,,,,,,,,,,,,,,,,,,,,,,,,,,,,,,,,,,,,,,,,,,,,,,,,,,,,,,,,,,,,,,,
,,6170c5f324920093389dd767,2023-12-14_23h10.03.871,kallum_motion_pilot,2023.2.3,Win32,59.76929054,6170c5f324920093389dd767,657bb317c8798c6608bceb3f,657bb4303198d96ae306ed20,0.0276,0.0278,0,147,147,159,1,eightseven,,,,,,,,,,,,,,,,,,,,,,,,,,,,,,,,,,,,,,,,,,,,,,,,,,,,,,,,,,,,,,,,,,,,,,,,,,,,,,,,,,,,,,,,,,,,,,,,,,,,,,,,,,,,,,,,,,,,,,,,,,,,,,,,,,,,,,,
,,6170c5f324920093389dd767,2023-12-14_23h10.03.871,kallum_motion_pilot,2023.2.3,Win32,59.76929054,6170c5f324920093389dd767,657bb317c8798c6608bceb3f,657bb4303198d96ae306ed20,0.0278,0.0278,0,148,148,7,1,fourthree,,,,,,,,,,,,,,,,,,,,,,,,,,,,,,,,,,,,,,,,,,,,,,,,,,,,,,,,,,,,,,,,,,,,,,,,,,,,,,,,,,,,,,,,,,,,,,,,,,,,,,,,,,,,,,,,,,,,,,,,,,,,,,,,,,,,,,,
,,6170c5f324920093389dd767,2023-12-14_23h10.03.871,kallum_motion_pilot,2023.2.3,Win32,59.76929054,6170c5f324920093389dd767,657bb317c8798c6608bceb3f,657bb4303198d96ae306ed20,0.0279,0.028,0,149,149,153,1,fiveseven,,,,,,,,,,,,,,,,,,,,,,,,,,,,,,,,,,,,,,,,,,,,,,,,,,,,,,,,,,,,,,,,,,,,,,,,,,,,,,,,,,,,,,,,,,,,,,,,,,,,,,,,,,,,,,,,,,,,,,,,,,,,,,,,,,,,,,,
,,6170c5f324920093389dd767,2023-12-14_23h10.03.871,kallum_motion_pilot,2023.2.3,Win32,59.76929054,6170c5f324920093389dd767,657bb317c8798c6608bceb3f,657bb4303198d96ae306ed20,0.028,0.028,0,150,150,66,1,twoone,,,,,,,,,,,,,,,,,,,,,,,,,,,,,,,,,,,,,,,,,,,,,,,,,,,,,,,,,,,,,,,,,,,,,,,,,,,,,,,,,,,,,,,,,,,,,,,,,,,,,,,,,,,,,,,,,,,,,,,,,,,,,,,,,,,,,,,
,,6170c5f324920093389dd767,2023-12-14_23h10.03.871,kallum_motion_pilot,2023.2.3,Win32,59.76929054,6170c5f324920093389dd767,657bb317c8798c6608bceb3f,657bb4303198d96ae306ed20,0.0281,0.0282,0,151,151,4,1,threeone,,,,,,,,,,,,,,,,,,,,,,,,,,,,,,,,,,,,,,,,,,,,,,,,,,,,,,,,,,,,,,,,,,,,,,,,,,,,,,,,,,,,,,,,,,,,,,,,,,,,,,,,,,,,,,,,,,,,,,,,,,,,,,,,,,,,,,,
,,6170c5f324920093389dd767,2023-12-14_23h10.03.871,kallum_motion_pilot,2023.2.3,Win32,59.76929054,6170c5f324920093389dd767,657bb317c8798c6608bceb3f,657bb4303198d96ae306ed20,0.0282,0.0282,0,152,152,118,1,eightsix,,,,,,,,,,,,,,,,,,,,,,,,,,,,,,,,,,,,,,,,,,,,,,,,,,,,,,,,,,,,,,,,,,,,,,,,,,,,,,,,,,,,,,,,,,,,,,,,,,,,,,,,,,,,,,,,,,,,,,,,,,,,,,,,,,,,,,,
,,6170c5f324920093389dd767,2023-12-14_23h10.03.871,kallum_motion_pilot,2023.2.3,Win32,59.76929054,6170c5f324920093389dd767,657bb317c8798c6608bceb3f,657bb4303198d96ae306ed20,0.0283,0.0283,0,153,153,145,1,fiveseven,,,,,,,,,,,,,,,,,,,,,,,,,,,,,,,,,,,,,,,,,,,,,,,,,,,,,,,,,,,,,,,,,,,,,,,,,,,,,,,,,,,,,,,,,,,,,,,,,,,,,,,,,,,,,,,,,,,,,,,,,,,,,,,,,,,,,,,
,,6170c5f324920093389dd767,2023-12-14_23h10.03.871,kallum_motion_pilot,2023.2.3,Win32,59.76929054,6170c5f324920093389dd767,657bb317c8798c6608bceb3f,657bb4303198d96ae306ed20,0.0283,0.0284,0,154,154,150,1,eightsix,,,,,,,,,,,,,,,,,,,,,,,,,,,,,,,,,,,,,,,,,,,,,,,,,,,,,,,,,,,,,,,,,,,,,,,,,,,,,,,,,,,,,,,,,,,,,,,,,,,,,,,,,,,,,,,,,,,,,,,,,,,,,,,,,,,,,,,
,,6170c5f324920093389dd767,2023-12-14_23h10.03.871,kallum_motion_pilot,2023.2.3,Win32,59.76929054,6170c5f324920093389dd767,657bb317c8798c6608bceb3f,657bb4303198d96ae306ed20,0.0284,0.0285,0,155,155,83,1,sixeight,,,,,,,,,,,,,,,,,,,,,,,,,,,,,,,,,,,,,,,,,,,,,,,,,,,,,,,,,,,,,,,,,,,,,,,,,,,,,,,,,,,,,,,,,,,,,,,,,,,,,,,,,,,,,,,,,,,,,,,,,,,,,,,,,,,,,,,
,,6170c5f324920093389dd767,2023-12-14_23h10.03.871,kallum_motion_pilot,2023.2.3,Win32,59.76929054,6170c5f324920093389dd767,657bb317c8798c6608bceb3f,657bb4303198d96ae306ed20,0.0285,0.0285,0,156,156,41,1,onethree,,,,,,,,,,,,,,,,,,,,,,,,,,,,,,,,,,,,,,,,,,,,,,,,,,,,,,,,,,,,,,,,,,,,,,,,,,,,,,,,,,,,,,,,,,,,,,,,,,,,,,,,,,,,,,,,,,,,,,,,,,,,,,,,,,,,,,,
,,6170c5f324920093389dd767,2023-12-14_23h10.03.871,kallum_motion_pilot,2023.2.3,Win32,59.76929054,6170c5f324920093389dd767,657bb317c8798c6608bceb3f,657bb4303198d96ae306ed20,0.0285,0.0286,0,157,157,100,1,sevenfive,,,,,,,,,,,,,,,,,,,,,,,,,,,,,,,,,,,,,,,,,,,,,,,,,,,,,,,,,,,,,,,,,,,,,,,,,,,,,,,,,,,,,,,,,,,,,,,,,,,,,,,,,,,,,,,,,,,,,,,,,,,,,,,,,,,,,,,
,,6170c5f324920093389dd767,2023-12-14_23h10.03.871,kallum_motion_pilot,2023.2.3,Win32,59.76929054,6170c5f324920093389dd767,657bb317c8798c6608bceb3f,657bb4303198d96ae306ed20,0.0287,0.0287,0,158,158,21,1,threefour,,,,,,,,,,,,,,,,,,,,,,,,,,,,,,,,,,,,,,,,,,,,,,,,,,,,,,,,,,,,,,,,,,,,,,,,,,,,,,,,,,,,,,,,,,,,,,,,,,,,,,,,,,,,,,,,,,,,,,,,,,,,,,,,,,,,,,,
,,6170c5f324920093389dd767,2023-12-14_23h10.03.871,kallum_motion_pilot,2023.2.3,Win32,59.76929054,6170c5f324920093389dd767,657bb317c8798c6608bceb3f,657bb4303198d96ae306ed20,0.0287,0.0288,0,159,159,152,1,fivesix,,,,,,,,,,,,,,,,,,,,,,,,,,,,,,,,,,,,,,,,,,,,,,,,,,,,,,,,,,,,,,,,,,,,,,,,,,,,,,,,,,,,,,,,,,,,,,,,,,,,,,,,,,,,,,,,,,,,,,,,,,,,,,,,,,,,,,,
,,6170c5f324920093389dd767,2023-12-14_23h10.03.871,kallum_motion_pilot,2023.2.3,Win32,59.76929054,6170c5f324920093389dd767,657bb317c8798c6608bceb3f,657bb4303198d96ae306ed20,0.0288,0.0289,0,160,160,26,1,twoone,,,,,,,,,,,,,,,,,,,,,,,,,,,,,,,,,,,,,,,,,,,,,,,,,,,,,,,,,,,,,,,,,,,,,,,,,,,,,,,,,,,,,,,,,,,,,,,,,,,,,,,,,,,,,,,,,,,,,,,,,,,,,,,,,,,,,,,
,,6170c5f324920093389dd767,2023-12-14_23h10.03.871,kallum_motion_pilot,2023.2.3,Win32,59.76929054,6170c5f324920093389dd767,657bb317c8798c6608bceb3f,657bb4303198d96ae306ed20,0.0289,0.029,0,161,161,50,1,twoone,,,,,,,,,,,,,,,,,,,,,,,,,,,,,,,,,,,,,,,,,,,,,,,,,,,,,,,,,,,,,,,,,,,,,,,,,,,,,,,,,,,,,,,,,,,,,,,,,,,,,,,,,,,,,,,,,,,,,,,,,,,,,,,,,,,,,,,
,,6170c5f324920093389dd767,2023-12-14_23h10.03.871,kallum_motion_pilot,2023.2.3,Win32,59.76929054,6170c5f324920093389dd767,657bb317c8798c6608bceb3f,657bb4303198d96ae306ed20,0.029,0.029,1,0,162,158,1,eightsix,,,,,,,,,,,,,,,,,,,,,,,,,,,,,,,,,,,,,,,,,,,,,,,,,,,,,,,,,,,,,,,,,,,,,,,,,,,,,,,,,,,,,,,,,,,,,,,,,,,,,,,,,,,,,,,,,,,,,,,,,,,,,,,,,,,,,,,
,,6170c5f324920093389dd767,2023-12-14_23h10.03.871,kallum_motion_pilot,2023.2.3,Win32,59.76929054,6170c5f324920093389dd767,657bb317c8798c6608bceb3f,657bb4303198d96ae306ed20,0.0291,0.0291,1,1,163,153,1,fiveseven,,,,,,,,,,,,,,,,,,,,,,,,,,,,,,,,,,,,,,,,,,,,,,,,,,,,,,,,,,,,,,,,,,,,,,,,,,,,,,,,,,,,,,,,,,,,,,,,,,,,,,,,,,,,,,,,,,,,,,,,,,,,,,,,,,,,,,,
,,6170c5f324920093389dd767,2023-12-14_23h10.03.871,kallum_motion_pilot,2023.2.3,Win32,59.76929054,6170c5f324920093389dd767,657bb317c8798c6608bceb3f,657bb4303198d96ae306ed20,0.0291,0.0293,1,2,164,46,1,fourtwo,,,,,,,,,,,,,,,,,,,,,,,,,,,,,,,,,,,,,,,,,,,,,,,,,,,,,,,,,,,,,,,,,,,,,,,,,,,,,,,,,,,,,,,,,,,,,,,,,,,,,,,,,,,,,,,,,,,,,,,,,,,,,,,,,,,,,,,
,,6170c5f324920093389dd767,2023-12-14_23h10.03.871,kallum_motion_pilot,2023.2.3,Win32,59.76929054,6170c5f324920093389dd767,657bb317c8798c6608bceb3f,657bb4303198d96ae306ed20,0.0293,0.0293,1,3,165,103,1,eightseven,,,,,,,,,,,,,,,,,,,,,,,,,,,,,,,,,,,,,,,,,,,,,,,,,,,,,,,,,,,,,,,,,,,,,,,,,,,,,,,,,,,,,,,,,,,,,,,,,,,,,,,,,,,,,,,,,,,,,,,,,,,,,,,,,,,,,,,
,,6170c5f324920093389dd767,2023-12-14_23h10.03.871,kallum_motion_pilot,2023.2.3,Win32,59.76929054,6170c5f324920093389dd767,657bb317c8798c6608bceb3f,657bb4303198d96ae306ed20,0.0294,0.0294,1,4,166,117,1,seveneight,,,,,,,,,,,,,,,,,,,,,,,,,,,,,,,,,,,,,,,,,,,,,,,,,,,,,,,,,,,,,,,,,,,,,,,,,,,,,,,,,,,,,,,,,,,,,,,,,,,,,,,,,,,,,,,,,,,,,,,,,,,,,,,,,,,,,,,
,,6170c5f324920093389dd767,2023-12-14_23h10.03.871,kallum_motion_pilot,2023.2.3,Win32,59.76929054,6170c5f324920093389dd767,657bb317c8798c6608bceb3f,657bb4303198d96ae306ed20,0.0294,0.0295,1,5,167,55,1,fourthree,,,,,,,,,,,,,,,,,,,,,,,,,,,,,,,,,,,,,,,,,,,,,,,,,,,,,,,,,,,,,,,,,,,,,,,,,,,,,,,,,,,,,,,,,,,,,,,,,,,,,,,,,,,,,,,,,,,,,,,,,,,,,,,,,,,,,,,
,,6170c5f324920093389dd767,2023-12-14_23h10.03.871,kallum_motion_pilot,2023.2.3,Win32,59.76929054,6170c5f324920093389dd767,657bb317c8798c6608bceb3f,657bb4303198d96ae306ed20,0.0295,0.0296,1,6,168,2,1,twoone,,,,,,,,,,,,,,,,,,,,,,,,,,,,,,,,,,,,,,,,,,,,,,,,,,,,,,,,,,,,,,,,,,,,,,,,,,,,,,,,,,,,,,,,,,,,,,,,,,,,,,,,,,,,,,,,,,,,,,,,,,,,,,,,,,,,,,,
,,6170c5f324920093389dd767,2023-12-14_23h10.03.871,kallum_motion_pilot,2023.2.3,Win32,59.76929054,6170c5f324920093389dd767,657bb317c8798c6608bceb3f,657bb4303198d96ae306ed20,0.0297,0.0297,1,7,169,148,1,sevenfive,,,,,,,,,,,,,,,,,,,,,,,,,,,,,,,,,,,,,,,,,,,,,,,,,,,,,,,,,,,,,,,,,,,,,,,,,,,,,,,,,,,,,,,,,,,,,,,,,,,,,,,,,,,,,,,,,,,,,,,,,,,,,,,,,,,,,,,
,,6170c5f324920093389dd767,2023-12-14_23h10.03.871,kallum_motion_pilot,2023.2.3,Win32,59.76929054,6170c5f324920093389dd767,657bb317c8798c6608bceb3f,657bb4303198d96ae306ed20,0.0297,0.0297,1,8,170,126,1,eightsix,,,,,,,,,,,,,,,,,,,,,,,,,,,,,,,,,,,,,,,,,,,,,,,,,,,,,,,,,,,,,,,,,,,,,,,,,,,,,,,,,,,,,,,,,,,,,,,,,,,,,,,,,,,,,,,,,,,,,,,,,,,,,,,,,,,,,,,
,,6170c5f324920093389dd767,2023-12-14_23h10.03.871,kallum_motion_pilot,2023.2.3,Win32,59.76929054,6170c5f324920093389dd767,657bb317c8798c6608bceb3f,657bb4303198d96ae306ed20,0.0299,0.0299,1,9,171,34,1,twoone,,,,,,,,,,,,,,,,,,,,,,,,,,,,,,,,,,,,,,,,,,,,,,,,,,,,,,,,,,,,,,,,,,,,,,,,,,,,,,,,,,,,,,,,,,,,,,,,,,,,,,,,,,,,,,,,,,,,,,,,,,,,,,,,,,,,,,,
,,6170c5f324920093389dd767,2023-12-14_23h10.03.871,kallum_motion_pilot,2023.2.3,Win32,59.76929054,6170c5f324920093389dd767,657bb317c8798c6608bceb3f,657bb4303198d96ae306ed20,0.0299,0.0299,1,10,172,155,1,sixeight,,,,,,,,,,,,,,,,,,,,,,,,,,,,,,,,,,,,,,,,,,,,,,,,,,,,,,,,,,,,,,,,,,,,,,,,,,,,,,,,,,,,,,,,,,,,,,,,,,,,,,,,,,,,,,,,,,,,,,,,,,,,,,,,,,,,,,,
,,6170c5f324920093389dd767,2023-12-14_23h10.03.871,kallum_motion_pilot,2023.2.3,Win32,59.76929054,6170c5f324920093389dd767,657bb317c8798c6608bceb3f,657bb4303198d96ae306ed20,0.03,0.03,1,11,173,107,1,sixeight,,,,,,,,,,,,,,,,,,,,,,,,,,,,,,,,,,,,,,,,,,,,,,,,,,,,,,,,,,,,,,,,,,,,,,,,,,,,,,,,,,,,,,,,,,,,,,,,,,,,,,,,,,,,,,,,,,,,,,,,,,,,,,,,,,,,,,,
,,6170c5f324920093389dd767,2023-12-14_23h10.03.871,kallum_motion_pilot,2023.2.3,Win32,59.76929054,6170c5f324920093389dd767,657bb317c8798c6608bceb3f,657bb4303198d96ae306ed20,0.0301,0.0301,1,12,174,134,1,eightsix,,,,,,,,,,,,,,,,,,,,,,,,,,,,,,,,,,,,,,,,,,,,,,,,,,,,,,,,,,,,,,,,,,,,,,,,,,,,,,,,,,,,,,,,,,,,,,,,,,,,,,,,,,,,,,,,,,,,,,,,,,,,,,,,,,,,,,,
,,6170c5f324920093389dd767,2023-12-14_23h10.03.871,kallum_motion_pilot,2023.2.3,Win32,59.76929054,6170c5f324920093389dd767,657bb317c8798c6608bceb3f,657bb4303198d96ae306ed20,0.0302,0.0302,1,13,175,97,1,fiveseven,,,,,,,,,,,,,,,,,,,,,,,,,,,,,,,,,,,,,,,,,,,,,,,,,,,,,,,,,,,,,,,,,,,,,,,,,,,,,,,,,,,,,,,,,,,,,,,,,,,,,,,,,,,,,,,,,,,,,,,,,,,,,,,,,,,,,,,
,,6170c5f324920093389dd767,2023-12-14_23h10.03.871,kallum_motion_pilot,2023.2.3,Win32,59.76929054,6170c5f324920093389dd767,657bb317c8798c6608bceb3f,657bb4303198d96ae306ed20,0.0302,0.0303,1,14,176,159,1,eightseven,,,,,,,,,,,,,,,,,,,,,,,,,,,,,,,,,,,,,,,,,,,,,,,,,,,,,,,,,,,,,,,,,,,,,,,,,,,,,,,,,,,,,,,,,,,,,,,,,,,,,,,,,,,,,,,,,,,,,,,,,,,,,,,,,,,,,,,
,,6170c5f324920093389dd767,2023-12-14_23h10.03.871,kallum_motion_pilot,2023.2.3,Win32,59.76929054,6170c5f324920093389dd767,657bb317c8798c6608bceb3f,657bb4303198d96ae306ed20,0.0304,0.0304,1,15,177,120,1,fivesix,,,,,,,,,,,,,,,,,,,,,,,,,,,,,,,,,,,,,,,,,,,,,,,,,,,,,,,,,,,,,,,,,,,,,,,,,,,,,,,,,,,,,,,,,,,,,,,,,,,,,,,,,,,,,,,,,,,,,,,,,,,,,,,,,,,,,,,
,,6170c5f324920093389dd767,2023-12-14_23h10.03.871,kallum_motion_pilot,2023.2.3,Win32,59.76929054,6170c5f324920093389dd767,657bb317c8798c6608bceb3f,657bb4303198d96ae306ed20,0.0304,0.0304,1,16,178,20,1,threeone,,,,,,,,,,,,,,,,,,,,,,,,,,,,,,,,,,,,,,,,,,,,,,,,,,,,,,,,,,,,,,,,,,,,,,,,,,,,,,,,,,,,,,,,,,,,,,,,,,,,,,,,,,,,,,,,,,,,,,,,,,,,,,,,,,,,,,,
,,6170c5f324920093389dd767,2023-12-14_23h10.03.871,kallum_motion_pilot,2023.2.3,Win32,59.76929054,6170c5f324920093389dd767,657bb317c8798c6608bceb3f,657bb4303198d96ae306ed20,0.0305,0.0305,1,17,179,1,1,onethree,,,,,,,,,,,,,,,,,,,,,,,,,,,,,,,,,,,,,,,,,,,,,,,,,,,,,,,,,,,,,,,,,,,,,,,,,,,,,,,,,,,,,,,,,,,,,,,,,,,,,,,,,,,,,,,,,,,,,,,,,,,,,,,,,,,,,,,
,,6170c5f324920093389dd767,2023-12-14_23h10.03.871,kallum_motion_pilot,2023.2.3,Win32,59.76929054,6170c5f324920093389dd767,657bb317c8798c6608bceb3f,657bb4303198d96ae306ed20,0.0306,0.0306,1,18,180,157,1,seveneight,,,,,,,,,,,,,,,,,,,,,,,,,,,,,,,,,,,,,,,,,,,,,,,,,,,,,,,,,,,,,,,,,,,,,,,,,,,,,,,,,,,,,,,,,,,,,,,,,,,,,,,,,,,,,,,,,,,,,,,,,,,,,,,,,,,,,,,
,,6170c5f324920093389dd767,2023-12-14_23h10.03.871,kallum_motion_pilot,2023.2.3,Win32,59.76929054,6170c5f324920093389dd767,657bb317c8798c6608bceb3f,657bb4303198d96ae306ed20,0.0307,0.0307,1,19,181,131,1,sixeight,,,,,,,,,,,,,,,,,,,,,,,,,,,,,,,,,,,,,,,,,,,,,,,,,,,,,,,,,,,,,,,,,,,,,,,,,,,,,,,,,,,,,,,,,,,,,,,,,,,,,,,,,,,,,,,,,,,,,,,,,,,,,,,,,,,,,,,
,,6170c5f324920093389dd767,2023-12-14_23h10.03.871,kallum_motion_pilot,2023.2.3,Win32,59.76929054,6170c5f324920093389dd767,657bb317c8798c6608bceb3f,657bb4303198d96ae306ed20,0.0308,0.0309,1,20,182,146,1,sixfive,,,,,,,,,,,,,,,,,,,,,,,,,,,,,,,,,,,,,,,,,,,,,,,,,,,,,,,,,,,,,,,,,,,,,,,,,,,,,,,,,,,,,,,,,,,,,,,,,,,,,,,,,,,,,,,,,,,,,,,,,,,,,,,,,,,,,,,
,,6170c5f324920093389dd767,2023-12-14_23h10.03.871,kallum_motion_pilot,2023.2.3,Win32,59.76929054,6170c5f324920093389dd767,657bb317c8798c6608bceb3f,657bb4303198d96ae306ed20,0.0309,0.0309,1,21,183,68,1,threeone,,,,,,,,,,,,,,,,,,,,,,,,,,,,,,,,,,,,,,,,,,,,,,,,,,,,,,,,,,,,,,,,,,,,,,,,,,,,,,,,,,,,,,,,,,,,,,,,,,,,,,,,,,,,,,,,,,,,,,,,,,,,,,,,,,,,,,,
,,6170c5f324920093389dd767,2023-12-14_23h10.03.871,kallum_motion_pilot,2023.2.3,Win32,59.76929054,6170c5f324920093389dd767,657bb317c8798c6608bceb3f,657bb4303198d96ae306ed20,0.031,0.0311,1,22,184,84,1,sevenfive,,,,,,,,,,,,,,,,,,,,,,,,,,,,,,,,,,,,,,,,,,,,,,,,,,,,,,,,,,,,,,,,,,,,,,,,,,,,,,,,,,,,,,,,,,,,,,,,,,,,,,,,,,,,,,,,,,,,,,,,,,,,,,,,,,,,,,,
,,6170c5f324920093389dd767,2023-12-14_23h10.03.871,kallum_motion_pilot,2023.2.3,Win32,59.76929054,6170c5f324920093389dd767,657bb317c8798c6608bceb3f,657bb4303198d96ae306ed20,0.0311,0.0311,1,23,185,156,1,sevenfive,,,,,,,,,,,,,,,,,,,,,,,,,,,,,,,,,,,,,,,,,,,,,,,,,,,,,,,,,,,,,,,,,,,,,,,,,,,,,,,,,,,,,,,,,,,,,,,,,,,,,,,,,,,,,,,,,,,,,,,,,,,,,,,,,,,,,,,
,,6170c5f324920093389dd767,2023-12-14_23h10.03.871,kallum_motion_pilot,2023.2.3,Win32,59.76929054,6170c5f324920093389dd767,657bb317c8798c6608bceb3f,657bb4303198d96ae306ed20,0.0312,0.0312,1,24,186,132,1,sevenfive,,,,,,,,,,,,,,,,,,,,,,,,,,,,,,,,,,,,,,,,,,,,,,,,,,,,,,,,,,,,,,,,,,,,,,,,,,,,,,,,,,,,,,,,,,,,,,,,,,,,,,,,,,,,,,,,,,,,,,,,,,,,,,,,,,,,,,,
,,6170c5f324920093389dd767,2023-12-14_23h10.03.871,kallum_motion_pilot,2023.2.3,Win32,59.76929054,6170c5f324920093389dd767,657bb317c8798c6608bceb3f,657bb4303198d96ae306ed20,0.0313,0.0313,1,25,187,121,1,fiveseven,,,,,,,,,,,,,,,,,,,,,,,,,,,,,,,,,,,,,,,,,,,,,,,,,,,,,,,,,,,,,,,,,,,,,,,,,,,,,,,,,,,,,,,,,,,,,,,,,,,,,,,,,,,,,,,,,,,,,,,,,,,,,,,,,,,,,,,
,,6170c5f324920093389dd767,2023-12-14_23h10.03.871,kallum_motion_pilot,2023.2.3,Win32,59.76929054,6170c5f324920093389dd767,657bb317c8798c6608bceb3f,657bb4303198d96ae306ed20,0.0314,0.0314,1,26,188,116,1,sevenfive,,,,,,,,,,,,,,,,,,,,,,,,,,,,,,,,,,,,,,,,,,,,,,,,,,,,,,,,,,,,,,,,,,,,,,,,,,,,,,,,,,,,,,,,,,,,,,,,,,,,,,,,,,,,,,,,,,,,,,,,,,,,,,,,,,,,,,,
,,6170c5f324920093389dd767,2023-12-14_23h10.03.871,kallum_motion_pilot,2023.2.3,Win32,59.76929054,6170c5f324920093389dd767,657bb317c8798c6608bceb3f,657bb4303198d96ae306ed20,0.0315,0.0315,1,27,189,147,1,sixeight,,,,,,,,,,,,,,,,,,,,,,,,,,,,,,,,,,,,,,,,,,,,,,,,,,,,,,,,,,,,,,,,,,,,,,,,,,,,,,,,,,,,,,,,,,,,,,,,,,,,,,,,,,,,,,,,,,,,,,,,,,,,,,,,,,,,,,,
,,6170c5f324920093389dd767,2023-12-14_23h10.03.871,kallum_motion_pilot,2023.2.3,Win32,59.76929054,6170c5f324920093389dd767,657bb317c8798c6608bceb3f,657bb4303198d96ae306ed20,0.0316,0.0316,1,28,190,124,1,sevenfive,,,,,,,,,,,,,,,,,,,,,,,,,,,,,,,,,,,,,,,,,,,,,,,,,,,,,,,,,,,,,,,,,,,,,,,,,,,,,,,,,,,,,,,,,,,,,,,,,,,,,,,,,,,,,,,,,,,,,,,,,,,,,,,,,,,,,,,
,,6170c5f324920093389dd767,2023-12-14_23h10.03.871,kallum_motion_pilot,2023.2.3,Win32,59.76929054,6170c5f324920093389dd767,657bb317c8798c6608bceb3f,657bb4303198d96ae306ed20,0.0317,0.0317,1,29,191,111,1,eightseven,,,,,,,,,,,,,,,,,,,,,,,,,,,,,,,,,,,,,,,,,,,,,,,,,,,,,,,,,,,,,,,,,,,,,,,,,,,,,,,,,,,,,,,,,,,,,,,,,,,,,,,,,,,,,,,,,,,,,,,,,,,,,,,,,,,,,,,
,,6170c5f324920093389dd767,2023-12-14_23h10.03.871,kallum_motion_pilot,2023.2.3,Win32,59.76929054,6170c5f324920093389dd767,657bb317c8798c6608bceb3f,657bb4303198d96ae306ed20,0.0318,0.0319,1,30,192,142,1,eightsix,,,,,,,,,,,,,,,,,,,,,,,,,,,,,,,,,,,,,,,,,,,,,,,,,,,,,,,,,,,,,,,,,,,,,,,,,,,,,,,,,,,,,,,,,,,,,,,,,,,,,,,,,,,,,,,,,,,,,,,,,,,,,,,,,,,,,,,
,,6170c5f324920093389dd767,2023-12-14_23h10.03.871,kallum_motion_pilot,2023.2.3,Win32,59.76929054,6170c5f324920093389dd767,657bb317c8798c6608bceb3f,657bb4303198d96ae306ed20,0.0319,0.0319,1,31,193,82,1,sixfive,,,,,,,,,,,,,,,,,,,,,,,,,,,,,,,,,,,,,,,,,,,,,,,,,,,,,,,,,,,,,,,,,,,,,,,,,,,,,,,,,,,,,,,,,,,,,,,,,,,,,,,,,,,,,,,,,,,,,,,,,,,,,,,,,,,,,,,
,,6170c5f324920093389dd767,2023-12-14_23h10.03.871,kallum_motion_pilot,2023.2.3,Win32,59.76929054,6170c5f324920093389dd767,657bb317c8798c6608bceb3f,657bb4303198d96ae306ed20,0.032,0.032,1,32,194,144,1,fivesix,,,,,,,,,,,,,,,,,,,,,,,,,,,,,,,,,,,,,,,,,,,,,,,,,,,,,,,,,,,,,,,,,,,,,,,,,,,,,,,,,,,,,,,,,,,,,,,,,,,,,,,,,,,,,,,,,,,,,,,,,,,,,,,,,,,,,,,
,,6170c5f324920093389dd767,2023-12-14_23h10.03.871,kallum_motion_pilot,2023.2.3,Win32,59.76929054,6170c5f324920093389dd767,657bb317c8798c6608bceb3f,657bb4303198d96ae306ed20,0.0321,0.0321,1,33,195,90,1,sixfive,,,,,,,,,,,,,,,,,,,,,,,,,,,,,,,,,,,,,,,,,,,,,,,,,,,,,,,,,,,,,,,,,,,,,,,,,,,,,,,,,,,,,,,,,,,,,,,,,,,,,,,,,,,,,,,,,,,,,,,,,,,,,,,,,,,,,,,
,,6170c5f324920093389dd767,2023-12-14_23h10.03.871,kallum_motion_pilot,2023.2.3,Win32,59.76929054,6170c5f324920093389dd767,657bb317c8798c6608bceb3f,657bb4303198d96ae306ed20,0.0322,0.0322,1,34,196,7,1,fourthree,,,,,,,,,,,,,,,,,,,,,,,,,,,,,,,,,,,,,,,,,,,,,,,,,,,,,,,,,,,,,,,,,,,,,,,,,,,,,,,,,,,,,,,,,,,,,,,,,,,,,,,,,,,,,,,,,,,,,,,,,,,,,,,,,,,,,,,
,,6170c5f324920093389dd767,2023-12-14_23h10.03.871,kallum_motion_pilot,2023.2.3,Win32,59.76929054,6170c5f324920093389dd767,657bb317c8798c6608bceb3f,657bb4303198d96ae306ed20,0.0323,0.0323,1,35,197,24,1,onetwo,,,,,,,,,,,,,,,,,,,,,,,,,,,,,,,,,,,,,,,,,,,,,,,,,,,,,,,,,,,,,,,,,,,,,,,,,,,,,,,,,,,,,,,,,,,,,,,,,,,,,,,,,,,,,,,,,,,,,,,,,,,,,,,,,,,,,,,
,,6170c5f324920093389dd767,2023-12-14_23h10.03.871,kallum_motion_pilot,2023.2.3,Win32,59.76929054,6170c5f324920093389dd767,657bb317c8798c6608bceb3f,657bb4303198d96ae306ed20,0.0323,0.0324,1,36,198,3,1,twofour,,,,,,,,,,,,,,,,,,,,,,,,,,,,,,,,,,,,,,,,,,,,,,,,,,,,,,,,,,,,,,,,,,,,,,,,,,,,,,,,,,,,,,,,,,,,,,,,,,,,,,,,,,,,,,,,,,,,,,,,,,,,,,,,,,,,,,,
,,6170c5f324920093389dd767,2023-12-14_23h10.03.871,kallum_motion_pilot,2023.2.3,Win32,59.76929054,6170c5f324920093389dd767,657bb317c8798c6608bceb3f,657bb4303198d96ae306ed20,0.0324,0.0324,1,37,199,39,1,fourthree,,,,,,,,,,,,,,,,,,,,,,,,,,,,,,,,,,,,,,,,,,,,,,,,,,,,,,,,,,,,,,,,,,,,,,,,,,,,,,,,,,,,,,,,,,,,,,,,,,,,,,,,,,,,,,,,,,,,,,,,,,,,,,,,,,,,,,,
,,6170c5f324920093389dd767,2023-12-14_23h10.03.871,kallum_motion_pilot,2023.2.3,Win32,59.76929054,6170c5f324920093389dd767,657bb317c8798c6608bceb3f,657bb4303198d96ae306ed20,0.0325,0.0326,1,38,200,83,1,sixeight,,,,,,,,,,,,,,,,,,,,,,,,,,,,,,,,,,,,,,,,,,,,,,,,,,,,,,,,,,,,,,,,,,,,,,,,,,,,,,,,,,,,,,,,,,,,,,,,,,,,,,,,,,,,,,,,,,,,,,,,,,,,,,,,,,,,,,,
,,6170c5f324920093389dd767,2023-12-14_23h10.03.871,kallum_motion_pilot,2023.2.3,Win32,59.76929054,6170c5f324920093389dd767,657bb317c8798c6608bceb3f,657bb4303198d96ae306ed20,0.0326,0.0327,1,39,201,130,1,sixfive,,,,,,,,,,,,,,,,,,,,,,,,,,,,,,,,,,,,,,,,,,,,,,,,,,,,,,,,,,,,,,,,,,,,,,,,,,,,,,,,,,,,,,,,,,,,,,,,,,,,,,,,,,,,,,,,,,,,,,,,,,,,,,,,,,,,,,,
,,6170c5f324920093389dd767,2023-12-14_23h10.03.871,kallum_motion_pilot,2023.2.3,Win32,59.76929054,6170c5f324920093389dd767,657bb317c8798c6608bceb3f,657bb4303198d96ae306ed20,0.0327,0.0328,1,40,202,11,1,twofour,,,,,,,,,,,,,,,,,,,,,,,,,,,,,,,,,,,,,,,,,,,,,,,,,,,,,,,,,,,,,,,,,,,,,,,,,,,,,,,,,,,,,,,,,,,,,,,,,,,,,,,,,,,,,,,,,,,,,,,,,,,,,,,,,,,,,,,
,,6170c5f324920093389dd767,2023-12-14_23h10.03.871,kallum_motion_pilot,2023.2.3,Win32,59.76929054,6170c5f324920093389dd767,657bb317c8798c6608bceb3f,657bb4303198d96ae306ed20,0.0328,0.0328,1,41,203,108,1,sevenfive,,,,,,,,,,,,,,,,,,,,,,,,,,,,,,,,,,,,,,,,,,,,,,,,,,,,,,,,,,,,,,,,,,,,,,,,,,,,,,,,,,,,,,,,,,,,,,,,,,,,,,,,,,,,,,,,,,,,,,,,,,,,,,,,,,,,,,,
,,6170c5f324920093389dd767,2023-12-14_23h10.03.871,kallum_motion_pilot,2023.2.3,Win32,59.76929054,6170c5f324920093389dd767,657bb317c8798c6608bceb3f,657bb4303198d96ae306ed20,0.0329,0.033,1,42,204,32,1,onetwo,,,,,,,,,,,,,,,,,,,,,,,,,,,,,,,,,,,,,,,,,,,,,,,,,,,,,,,,,,,,,,,,,,,,,,,,,,,,,,,,,,,,,,,,,,,,,,,,,,,,,,,,,,,,,,,,,,,,,,,,,,,,,,,,,,,,,,,
,,6170c5f324920093389dd767,2023-12-14_23h10.03.871,kallum_motion_pilot,2023.2.3,Win32,59.76929054,6170c5f324920093389dd767,657bb317c8798c6608bceb3f,657bb4303198d96ae306ed20,0.033,0.033,1,43,205,123,1,sixeight,,,,,,,,,,,,,,,,,,,,,,,,,,,,,,,,,,,,,,,,,,,,,,,,,,,,,,,,,,,,,,,,,,,,,,,,,,,,,,,,,,,,,,,,,,,,,,,,,,,,,,,,,,,,,,,,,,,,,,,,,,,,,,,,,,,,,,,
,,6170c5f324920093389dd767,2023-12-14_23h10.03.871,kallum_motion_pilot,2023.2.3,Win32,59.76929054,6170c5f324920093389dd767,657bb317c8798c6608bceb3f,657bb4303198d96ae306ed20,0.033,0.0331,1,44,206,127,1,eightseven,,,,,,,,,,,,,,,,,,,,,,,,,,,,,,,,,,,,,,,,,,,,,,,,,,,,,,,,,,,,,,,,,,,,,,,,,,,,,,,,,,,,,,,,,,,,,,,,,,,,,,,,,,,,,,,,,,,,,,,,,,,,,,,,,,,,,,,
,,6170c5f324920093389dd767,2023-12-14_23h10.03.871,kallum_motion_pilot,2023.2.3,Win32,59.76929054,6170c5f324920093389dd767,657bb317c8798c6608bceb3f,657bb4303198d96ae306ed20,0.0332,0.0333,1,45,207,143,1,eightseven,,,,,,,,,,,,,,,,,,,,,,,,,,,,,,,,,,,,,,,,,,,,,,,,,,,,,,,,,,,,,,,,,,,,,,,,,,,,,,,,,,,,,,,,,,,,,,,,,,,,,,,,,,,,,,,,,,,,,,,,,,,,,,,,,,,,,,,
,,6170c5f324920093389dd767,2023-12-14_23h10.03.871,kallum_motion_pilot,2023.2.3,Win32,59.76929054,6170c5f324920093389dd767,657bb317c8798c6608bceb3f,657bb4303198d96ae306ed20,0.0333,0.0333,1,46,208,89,1,fiveseven,,,,,,,,,,,,,,,,,,,,,,,,,,,,,,,,,,,,,,,,,,,,,,,,,,,,,,,,,,,,,,,,,,,,,,,,,,,,,,,,,,,,,,,,,,,,,,,,,,,,,,,,,,,,,,,,,,,,,,,,,,,,,,,,,,,,,,,
,,6170c5f324920093389dd767,2023-12-14_23h10.03.871,kallum_motion_pilot,2023.2.3,Win32,59.76929054,6170c5f324920093389dd767,657bb317c8798c6608bceb3f,657bb4303198d96ae306ed20,0.0333,0.0334,1,47,209,22,1,fourtwo,,,,,,,,,,,,,,,,,,,,,,,,,,,,,,,,,,,,,,,,,,,,,,,,,,,,,,,,,,,,,,,,,,,,,,,,,,,,,,,,,,,,,,,,,,,,,,,,,,,,,,,,,,,,,,,,,,,,,,,,,,,,,,,,,,,,,,,
,,6170c5f324920093389dd767,2023-12-14_23h10.03.871,kallum_motion_pilot,2023.2.3,Win32,59.76929054,6170c5f324920093389dd767,657bb317c8798c6608bceb3f,657bb4303198d96ae306ed20,0.0335,0.0336,1,48,210,25,1,onethree,,,,,,,,,,,,,,,,,,,,,,,,,,,,,,,,,,,,,,,,,,,,,,,,,,,,,,,,,,,,,,,,,,,,,,,,,,,,,,,,,,,,,,,,,,,,,,,,,,,,,,,,,,,,,,,,,,,,,,,,,,,,,,,,,,,,,,,
,,6170c5f324920093389dd767,2023-12-14_23h10.03.871,kallum_motion_pilot,2023.2.3,Win32,59.76929054,6170c5f324920093389dd767,657bb317c8798c6608bceb3f,657bb4303198d96ae306ed20,0.0336,0.0336,1,49,211,8,1,onetwo,,,,,,,,,,,,,,,,,,,,,,,,,,,,,,,,,,,,,,,,,,,,,,,,,,,,,,,,,,,,,,,,,,,,,,,,,,,,,,,,,,,,,,,,,,,,,,,,,,,,,,,,,,,,,,,,,,,,,,,,,,,,,,,,,,,,,,,
,,6170c5f324920093389dd767,2023-12-14_23h10.03.871,kallum_motion_pilot,2023.2.3,Win32,59.76929054,6170c5f324920093389dd767,657bb317c8798c6608bceb3f,657bb4303198d96ae306ed20,0.0337,0.0337,1,50,212,30,1,fourtwo,,,,,,,,,,,,,,,,,,,,,,,,,,,,,,,,,,,,,,,,,,,,,,,,,,,,,,,,,,,,,,,,,,,,,,,,,,,,,,,,,,,,,,,,,,,,,,,,,,,,,,,,,,,,,,,,,,,,,,,,,,,,,,,,,,,,,,,
,,6170c5f324920093389dd767,2023-12-14_23h10.03.871,kallum_motion_pilot,2023.2.3,Win32,59.76929054,6170c5f324920093389dd767,657bb317c8798c6608bceb3f,657bb4303198d96ae306ed20,0.0343,0.0343,1,51,213,43,1,twofour,,,,,,,,,,,,,,,,,,,,,,,,,,,,,,,,,,,,,,,,,,,,,,,,,,,,,,,,,,,,,,,,,,,,,,,,,,,,,,,,,,,,,,,,,,,,,,,,,,,,,,,,,,,,,,,,,,,,,,,,,,,,,,,,,,,,,,,
,,6170c5f324920093389dd767,2023-12-14_23h10.03.871,kallum_motion_pilot,2023.2.3,Win32,59.76929054,6170c5f324920093389dd767,657bb317c8798c6608bceb3f,657bb4303198d96ae306ed20,0.0343,0.0344,1,52,214,54,1,fourtwo,,,,,,,,,,,,,,,,,,,,,,,,,,,,,,,,,,,,,,,,,,,,,,,,,,,,,,,,,,,,,,,,,,,,,,,,,,,,,,,,,,,,,,,,,,,,,,,,,,,,,,,,,,,,,,,,,,,,,,,,,,,,,,,,,,,,,,,
,,6170c5f324920093389dd767,2023-12-14_23h10.03.871,kallum_motion_pilot,2023.2.3,Win32,59.76929054,6170c5f324920093389dd767,657bb317c8798c6608bceb3f,657bb4303198d96ae306ed20,0.0344,0.0345,1,53,215,73,1,onethree,,,,,,,,,,,,,,,,,,,,,,,,,,,,,,,,,,,,,,,,,,,,,,,,,,,,,,,,,,,,,,,,,,,,,,,,,,,,,,,,,,,,,,,,,,,,,,,,,,,,,,,,,,,,,,,,,,,,,,,,,,,,,,,,,,,,,,,
,,6170c5f324920093389dd767,2023-12-14_23h10.03.871,kallum_motion_pilot,2023.2.3,Win32,59.76929054,6170c5f324920093389dd767,657bb317c8798c6608bceb3f,657bb4303198d96ae306ed20,0.0345,0.0346,1,54,216,110,1,eightsix,,,,,,,,,,,,,,,,,,,,,,,,,,,,,,,,,,,,,,,,,,,,,,,,,,,,,,,,,,,,,,,,,,,,,,,,,,,,,,,,,,,,,,,,,,,,,,,,,,,,,,,,,,,,,,,,,,,,,,,,,,,,,,,,,,,,,,,
,,6170c5f324920093389dd767,2023-12-14_23h10.03.871,kallum_motion_pilot,2023.2.3,Win32,59.76929054,6170c5f324920093389dd767,657bb317c8798c6608bceb3f,657bb4303198d96ae306ed20,0.0346,0.0347,1,55,217,79,1,eightseven,,,,,,,,,,,,,,,,,,,,,,,,,,,,,,,,,,,,,,,,,,,,,,,,,,,,,,,,,,,,,,,,,,,,,,,,,,,,,,,,,,,,,,,,,,,,,,,,,,,,,,,,,,,,,,,,,,,,,,,,,,,,,,,,,,,,,,,
,,6170c5f324920093389dd767,2023-12-14_23h10.03.871,kallum_motion_pilot,2023.2.3,Win32,59.76929054,6170c5f324920093389dd767,657bb317c8798c6608bceb3f,657bb4303198d96ae306ed20,0.0347,0.0347,1,56,218,74,1,twoone,,,,,,,,,,,,,,,,,,,,,,,,,,,,,,,,,,,,,,,,,,,,,,,,,,,,,,,,,,,,,,,,,,,,,,,,,,,,,,,,,,,,,,,,,,,,,,,,,,,,,,,,,,,,,,,,,,,,,,,,,,,,,,,,,,,,,,,
,,6170c5f324920093389dd767,2023-12-14_23h10.03.871,kallum_motion_pilot,2023.2.3,Win32,59.76929054,6170c5f324920093389dd767,657bb317c8798c6608bceb3f,657bb4303198d96ae306ed20,0.0348,0.0349,1,57,219,122,1,sixfive,,,,,,,,,,,,,,,,,,,,,,,,,,,,,,,,,,,,,,,,,,,,,,,,,,,,,,,,,,,,,,,,,,,,,,,,,,,,,,,,,,,,,,,,,,,,,,,,,,,,,,,,,,,,,,,,,,,,,,,,,,,,,,,,,,,,,,,
,,6170c5f324920093389dd767,2023-12-14_23h10.03.871,kallum_motion_pilot,2023.2.3,Win32,59.76929054,6170c5f324920093389dd767,657bb317c8798c6608bceb3f,657bb4303198d96ae306ed20,0.0349,0.0349,1,58,220,64,1,onetwo,,,,,,,,,,,,,,,,,,,,,,,,,,,,,,,,,,,,,,,,,,,,,,,,,,,,,,,,,,,,,,,,,,,,,,,,,,,,,,,,,,,,,,,,,,,,,,,,,,,,,,,,,,,,,,,,,,,,,,,,,,,,,,,,,,,,,,,
,,6170c5f324920093389dd767,2023-12-14_23h10.03.871,kallum_motion_pilot,2023.2.3,Win32,59.76929054,6170c5f324920093389dd767,657bb317c8798c6608bceb3f,657bb4303198d96ae306ed20,0.035,0.0351,1,59,221,38,1,fourtwo,,,,,,,,,,,,,,,,,,,,,,,,,,,,,,,,,,,,,,,,,,,,,,,,,,,,,,,,,,,,,,,,,,,,,,,,,,,,,,,,,,,,,,,,,,,,,,,,,,,,,,,,,,,,,,,,,,,,,,,,,,,,,,,,,,,,,,,
,,6170c5f324920093389dd767,2023-12-14_23h10.03.871,kallum_motion_pilot,2023.2.3,Win32,59.76929054,6170c5f324920093389dd767,657bb317c8798c6608bceb3f,657bb4303198d96ae306ed20,0.0351,0.0352,1,60,222,44,1,threeone,,,,,,,,,,,,,,,,,,,,,,,,,,,,,,,,,,,,,,,,,,,,,,,,,,,,,,,,,,,,,,,,,,,,,,,,,,,,,,,,,,,,,,,,,,,,,,,,,,,,,,,,,,,,,,,,,,,,,,,,,,,,,,,,,,,,,,,
,,6170c5f324920093389dd767,2023-12-14_23h10.03.871,kallum_motion_pilot,2023.2.3,Win32,59.76929054,6170c5f324920093389dd767,657bb317c8798c6608bceb3f,657bb4303198d96ae306ed20,0.0352,0.0352,1,61,223,67,1,twofour,,,,,,,,,,,,,,,,,,,,,,,,,,,,,,,,,,,,,,,,,,,,,,,,,,,,,,,,,,,,,,,,,,,,,,,,,,,,,,,,,,,,,,,,,,,,,,,,,,,,,,,,,,,,,,,,,,,,,,,,,,,,,,,,,,,,,,,
,,6170c5f324920093389dd767,2023-12-14_23h10.03.871,kallum_motion_pilot,2023.2.3,Win32,59.76929054,6170c5f324920093389dd767,657bb317c8798c6608bceb3f,657bb4303198d96ae306ed20,0.0353,0.0354,1,62,224,136,1,fivesix,,,,,,,,,,,,,,,,,,,,,,,,,,,,,,,,,,,,,,,,,,,,,,,,,,,,,,,,,,,,,,,,,,,,,,,,,,,,,,,,,,,,,,,,,,,,,,,,,,,,,,,,,,,,,,,,,,,,,,,,,,,,,,,,,,,,,,,
,,6170c5f324920093389dd767,2023-12-14_23h10.03.871,kallum_motion_pilot,2023.2.3,Win32,59.76929054,6170c5f324920093389dd767,657bb317c8798c6608bceb3f,657bb4303198d96ae306ed20,0.0354,0.0354,1,63,225,4,1,threeone,,,,,,,,,,,,,,,,,,,,,,,,,,,,,,,,,,,,,,,,,,,,,,,,,,,,,,,,,,,,,,,,,,,,,,,,,,,,,,,,,,,,,,,,,,,,,,,,,,,,,,,,,,,,,,,,,,,,,,,,,,,,,,,,,,,,,,,
,,6170c5f324920093389dd767,2023-12-14_23h10.03.871,kallum_motion_pilot,2023.2.3,Win32,59.76929054,6170c5f324920093389dd767,657bb317c8798c6608bceb3f,657bb4303198d96ae306ed20,0.0355,0.0356,1,64,226,56,1,onetwo,,,,,,,,,,,,,,,,,,,,,,,,,,,,,,,,,,,,,,,,,,,,,,,,,,,,,,,,,,,,,,,,,,,,,,,,,,,,,,,,,,,,,,,,,,,,,,,,,,,,,,,,,,,,,,,,,,,,,,,,,,,,,,,,,,,,,,,
,,6170c5f324920093389dd767,2023-12-14_23h10.03.871,kallum_motion_pilot,2023.2.3,Win32,59.76929054,6170c5f324920093389dd767,657bb317c8798c6608bceb3f,657bb4303198d96ae306ed20,0.0357,0.0357,1,65,227,19,1,twofour,,,,,,,,,,,,,,,,,,,,,,,,,,,,,,,,,,,,,,,,,,,,,,,,,,,,,,,,,,,,,,,,,,,,,,,,,,,,,,,,,,,,,,,,,,,,,,,,,,,,,,,,,,,,,,,,,,,,,,,,,,,,,,,,,,,,,,,
,,6170c5f324920093389dd767,2023-12-14_23h10.03.871,kallum_motion_pilot,2023.2.3,Win32,59.76929054,6170c5f324920093389dd767,657bb317c8798c6608bceb3f,657bb4303198d96ae306ed20,0.0358,0.0358,1,66,228,112,1,fivesix,,,,,,,,,,,,,,,,,,,,,,,,,,,,,,,,,,,,,,,,,,,,,,,,,,,,,,,,,,,,,,,,,,,,,,,,,,,,,,,,,,,,,,,,,,,,,,,,,,,,,,,,,,,,,,,,,,,,,,,,,,,,,,,,,,,,,,,
,,6170c5f324920093389dd767,2023-12-14_23h10.03.871,kallum_motion_pilot,2023.2.3,Win32,59.76929054,6170c5f324920093389dd767,657bb317c8798c6608bceb3f,657bb4303198d96ae306ed20,0.0359,0.0359,1,67,229,129,1,fiveseven,,,,,,,,,,,,,,,,,,,,,,,,,,,,,,,,,,,,,,,,,,,,,,,,,,,,,,,,,,,,,,,,,,,,,,,,,,,,,,,,,,,,,,,,,,,,,,,,,,,,,,,,,,,,,,,,,,,,,,,,,,,,,,,,,,,,,,,
,,6170c5f324920093389dd767,2023-12-14_23h10.03.871,kallum_motion_pilot,2023.2.3,Win32,59.76929054,6170c5f324920093389dd767,657bb317c8798c6608bceb3f,657bb4303198d96ae306ed20,0.0359,0.036,1,68,230,101,1,seveneight,,,,,,,,,,,,,,,,,,,,,,,,,,,,,,,,,,,,,,,,,,,,,,,,,,,,,,,,,,,,,,,,,,,,,,,,,,,,,,,,,,,,,,,,,,,,,,,,,,,,,,,,,,,,,,,,,,,,,,,,,,,,,,,,,,,,,,,
,,6170c5f324920093389dd767,2023-12-14_23h10.03.871,kallum_motion_pilot,2023.2.3,Win32,59.76929054,6170c5f324920093389dd767,657bb317c8798c6608bceb3f,657bb4303198d96ae306ed20,0.036,0.0361,1,69,231,6,1,fourtwo,,,,,,,,,,,,,,,,,,,,,,,,,,,,,,,,,,,,,,,,,,,,,,,,,,,,,,,,,,,,,,,,,,,,,,,,,,,,,,,,,,,,,,,,,,,,,,,,,,,,,,,,,,,,,,,,,,,,,,,,,,,,,,,,,,,,,,,
,,6170c5f324920093389dd767,2023-12-14_23h10.03.871,kallum_motion_pilot,2023.2.3,Win32,59.76929054,6170c5f324920093389dd767,657bb317c8798c6608bceb3f,657bb4303198d96ae306ed20,0.0361,0.0362,1,70,232,125,1,seveneight,,,,,,,,,,,,,,,,,,,,,,,,,,,,,,,,,,,,,,,,,,,,,,,,,,,,,,,,,,,,,,,,,,,,,,,,,,,,,,,,,,,,,,,,,,,,,,,,,,,,,,,,,,,,,,,,,,,,,,,,,,,,,,,,,,,,,,,
,,6170c5f324920093389dd767,2023-12-14_23h10.03.871,kallum_motion_pilot,2023.2.3,Win32,59.76929054,6170c5f324920093389dd767,657bb317c8798c6608bceb3f,657bb4303198d96ae306ed20,0.0362,0.0362,1,71,233,88,1,fivesix,,,,,,,,,,,,,,,,,,,,,,,,,,,,,,,,,,,,,,,,,,,,,,,,,,,,,,,,,,,,,,,,,,,,,,,,,,,,,,,,,,,,,,,,,,,,,,,,,,,,,,,,,,,,,,,,,,,,,,,,,,,,,,,,,,,,,,,
,,6170c5f324920093389dd767,2023-12-14_23h10.03.871,kallum_motion_pilot,2023.2.3,Win32,59.76929054,6170c5f324920093389dd767,657bb317c8798c6608bceb3f,657bb4303198d96ae306ed20,0.0363,0.0363,1,72,234,13,1,threefour,,,,,,,,,,,,,,,,,,,,,,,,,,,,,,,,,,,,,,,,,,,,,,,,,,,,,,,,,,,,,,,,,,,,,,,,,,,,,,,,,,,,,,,,,,,,,,,,,,,,,,,,,,,,,,,,,,,,,,,,,,,,,,,,,,,,,,,
,,6170c5f324920093389dd767,2023-12-14_23h10.03.871,kallum_motion_pilot,2023.2.3,Win32,59.76929054,6170c5f324920093389dd767,657bb317c8798c6608bceb3f,657bb4303198d96ae306ed20,0.0364,0.0365,1,73,235,75,1,twofour,,,,,,,,,,,,,,,,,,,,,,,,,,,,,,,,,,,,,,,,,,,,,,,,,,,,,,,,,,,,,,,,,,,,,,,,,,,,,,,,,,,,,,,,,,,,,,,,,,,,,,,,,,,,,,,,,,,,,,,,,,,,,,,,,,,,,,,
,,6170c5f324920093389dd767,2023-12-14_23h10.03.871,kallum_motion_pilot,2023.2.3,Win32,59.76929054,6170c5f324920093389dd767,657bb317c8798c6608bceb3f,657bb4303198d96ae306ed20,0.0365,0.0366,1,74,236,27,1,twofour,,,,,,,,,,,,,,,,,,,,,,,,,,,,,,,,,,,,,,,,,,,,,,,,,,,,,,,,,,,,,,,,,,,,,,,,,,,,,,,,,,,,,,,,,,,,,,,,,,,,,,,,,,,,,,,,,,,,,,,,,,,,,,,,,,,,,,,
,,6170c5f324920093389dd767,2023-12-14_23h10.03.871,kallum_motion_pilot,2023.2.3,Win32,59.76929054,6170c5f324920093389dd767,657bb317c8798c6608bceb3f,657bb4303198d96ae306ed20,0.0366,0.0366,1,75,237,102,1,eightsix,,,,,,,,,,,,,,,,,,,,,,,,,,,,,,,,,,,,,,,,,,,,,,,,,,,,,,,,,,,,,,,,,,,,,,,,,,,,,,,,,,,,,,,,,,,,,,,,,,,,,,,,,,,,,,,,,,,,,,,,,,,,,,,,,,,,,,,
,,6170c5f324920093389dd767,2023-12-14_23h10.03.871,kallum_motion_pilot,2023.2.3,Win32,59.76929054,6170c5f324920093389dd767,657bb317c8798c6608bceb3f,657bb4303198d96ae306ed20,0.0367,0.0367,1,76,238,63,1,fourthree,,,,,,,,,,,,,,,,,,,,,,,,,,,,,,,,,,,,,,,,,,,,,,,,,,,,,,,,,,,,,,,,,,,,,,,,,,,,,,,,,,,,,,,,,,,,,,,,,,,,,,,,,,,,,,,,,,,,,,,,,,,,,,,,,,,,,,,
,,6170c5f324920093389dd767,2023-12-14_23h10.03.871,kallum_motion_pilot,2023.2.3,Win32,59.76929054,6170c5f324920093389dd767,657bb317c8798c6608bceb3f,657bb4303198d96ae306ed20,0.0368,0.0369,1,77,239,45,1,threefour,,,,,,,,,,,,,,,,,,,,,,,,,,,,,,,,,,,,,,,,,,,,,,,,,,,,,,,,,,,,,,,,,,,,,,,,,,,,,,,,,,,,,,,,,,,,,,,,,,,,,,,,,,,,,,,,,,,,,,,,,,,,,,,,,,,,,,,
,,6170c5f324920093389dd767,2023-12-14_23h10.03.871,kallum_motion_pilot,2023.2.3,Win32,59.76929054,6170c5f324920093389dd767,657bb317c8798c6608bceb3f,657bb4303198d96ae306ed20,0.0369,0.037,1,78,240,58,1,twoone,,,,,,,,,,,,,,,,,,,,,,,,,,,,,,,,,,,,,,,,,,,,,,,,,,,,,,,,,,,,,,,,,,,,,,,,,,,,,,,,,,,,,,,,,,,,,,,,,,,,,,,,,,,,,,,,,,,,,,,,,,,,,,,,,,,,,,,
,,6170c5f324920093389dd767,2023-12-14_23h10.03.871,kallum_motion_pilot,2023.2.3,Win32,59.76929054,6170c5f324920093389dd767,657bb317c8798c6608bceb3f,657bb4303198d96ae306ed20,0.037,0.037,1,79,241,149,1,seveneight,,,,,,,,,,,,,,,,,,,,,,,,,,,,,,,,,,,,,,,,,,,,,,,,,,,,,,,,,,,,,,,,,,,,,,,,,,,,,,,,,,,,,,,,,,,,,,,,,,,,,,,,,,,,,,,,,,,,,,,,,,,,,,,,,,,,,,,
,,6170c5f324920093389dd767,2023-12-14_23h10.03.871,kallum_motion_pilot,2023.2.3,Win32,59.76929054,6170c5f324920093389dd767,657bb317c8798c6608bceb3f,657bb4303198d96ae306ed20,0.037,0.0371,1,80,242,114,1,sixfive,,,,,,,,,,,,,,,,,,,,,,,,,,,,,,,,,,,,,,,,,,,,,,,,,,,,,,,,,,,,,,,,,,,,,,,,,,,,,,,,,,,,,,,,,,,,,,,,,,,,,,,,,,,,,,,,,,,,,,,,,,,,,,,,,,,,,,,
,,6170c5f324920093389dd767,2023-12-14_23h10.03.871,kallum_motion_pilot,2023.2.3,Win32,59.76929054,6170c5f324920093389dd767,657bb317c8798c6608bceb3f,657bb4303198d96ae306ed20,0.0371,0.0373,1,81,243,47,1,fourthree,,,,,,,,,,,,,,,,,,,,,,,,,,,,,,,,,,,,,,,,,,,,,,,,,,,,,,,,,,,,,,,,,,,,,,,,,,,,,,,,,,,,,,,,,,,,,,,,,,,,,,,,,,,,,,,,,,,,,,,,,,,,,,,,,,,,,,,
,,6170c5f324920093389dd767,2023-12-14_23h10.03.871,kallum_motion_pilot,2023.2.3,Win32,59.76929054,6170c5f324920093389dd767,657bb317c8798c6608bceb3f,657bb4303198d96ae306ed20,0.0373,0.0374,1,82,244,78,1,fourtwo,,,,,,,,,,,,,,,,,,,,,,,,,,,,,,,,,,,,,,,,,,,,,,,,,,,,,,,,,,,,,,,,,,,,,,,,,,,,,,,,,,,,,,,,,,,,,,,,,,,,,,,,,,,,,,,,,,,,,,,,,,,,,,,,,,,,,,,
,,6170c5f324920093389dd767,2023-12-14_23h10.03.871,kallum_motion_pilot,2023.2.3,Win32,59.76929054,6170c5f324920093389dd767,657bb317c8798c6608bceb3f,657bb4303198d96ae306ed20,0.0374,0.0374,1,83,245,71,1,fourthree,,,,,,,,,,,,,,,,,,,,,,,,,,,,,,,,,,,,,,,,,,,,,,,,,,,,,,,,,,,,,,,,,,,,,,,,,,,,,,,,,,,,,,,,,,,,,,,,,,,,,,,,,,,,,,,,,,,,,,,,,,,,,,,,,,,,,,,
,,6170c5f324920093389dd767,2023-12-14_23h10.03.871,kallum_motion_pilot,2023.2.3,Win32,59.76929054,6170c5f324920093389dd767,657bb317c8798c6608bceb3f,657bb4303198d96ae306ed20,0.0374,0.0375,1,84,246,105,1,fiveseven,,,,,,,,,,,,,,,,,,,,,,,,,,,,,,,,,,,,,,,,,,,,,,,,,,,,,,,,,,,,,,,,,,,,,,,,,,,,,,,,,,,,,,,,,,,,,,,,,,,,,,,,,,,,,,,,,,,,,,,,,,,,,,,,,,,,,,,
,,6170c5f324920093389dd767,2023-12-14_23h10.03.871,kallum_motion_pilot,2023.2.3,Win32,59.76929054,6170c5f324920093389dd767,657bb317c8798c6608bceb3f,657bb4303198d96ae306ed20,0.0376,0.0376,1,85,247,29,1,threefour,,,,,,,,,,,,,,,,,,,,,,,,,,,,,,,,,,,,,,,,,,,,,,,,,,,,,,,,,,,,,,,,,,,,,,,,,,,,,,,,,,,,,,,,,,,,,,,,,,,,,,,,,,,,,,,,,,,,,,,,,,,,,,,,,,,,,,,
,,6170c5f324920093389dd767,2023-12-14_23h10.03.871,kallum_motion_pilot,2023.2.3,Win32,59.76929054,6170c5f324920093389dd767,657bb317c8798c6608bceb3f,657bb4303198d96ae306ed20,0.0377,0.0377,1,86,248,98,1,sixfive,,,,,,,,,,,,,,,,,,,,,,,,,,,,,,,,,,,,,,,,,,,,,,,,,,,,,,,,,,,,,,,,,,,,,,,,,,,,,,,,,,,,,,,,,,,,,,,,,,,,,,,,,,,,,,,,,,,,,,,,,,,,,,,,,,,,,,,
,,6170c5f324920093389dd767,2023-12-14_23h10.03.871,kallum_motion_pilot,2023.2.3,Win32,59.76929054,6170c5f324920093389dd767,657bb317c8798c6608bceb3f,657bb4303198d96ae306ed20,0.0377,0.0378,1,87,249,93,1,seveneight,,,,,,,,,,,,,,,,,,,,,,,,,,,,,,,,,,,,,,,,,,,,,,,,,,,,,,,,,,,,,,,,,,,,,,,,,,,,,,,,,,,,,,,,,,,,,,,,,,,,,,,,,,,,,,,,,,,,,,,,,,,,,,,,,,,,,,,
,,6170c5f324920093389dd767,2023-12-14_23h10.03.871,kallum_motion_pilot,2023.2.3,Win32,59.76929054,6170c5f324920093389dd767,657bb317c8798c6608bceb3f,657bb4303198d96ae306ed20,0.0378,0.038,1,88,250,52,1,threeone,,,,,,,,,,,,,,,,,,,,,,,,,,,,,,,,,,,,,,,,,,,,,,,,,,,,,,,,,,,,,,,,,,,,,,,,,,,,,,,,,,,,,,,,,,,,,,,,,,,,,,,,,,,,,,,,,,,,,,,,,,,,,,,,,,,,,,,
,,6170c5f324920093389dd767,2023-12-14_23h10.03.871,kallum_motion_pilot,2023.2.3,Win32,59.76929054,6170c5f324920093389dd767,657bb317c8798c6608bceb3f,657bb4303198d96ae306ed20,0.038,0.038,1,89,251,72,1,onetwo,,,,,,,,,,,,,,,,,,,,,,,,,,,,,,,,,,,,,,,,,,,,,,,,,,,,,,,,,,,,,,,,,,,,,,,,,,,,,,,,,,,,,,,,,,,,,,,,,,,,,,,,,,,,,,,,,,,,,,,,,,,,,,,,,,,,,,,
,,6170c5f324920093389dd767,2023-12-14_23h10.03.871,kallum_motion_pilot,2023.2.3,Win32,59.76929054,6170c5f324920093389dd767,657bb317c8798c6608bceb3f,657bb4303198d96ae306ed20,0.0381,0.0381,1,90,252,95,1,eightseven,,,,,,,,,,,,,,,,,,,,,,,,,,,,,,,,,,,,,,,,,,,,,,,,,,,,,,,,,,,,,,,,,,,,,,,,,,,,,,,,,,,,,,,,,,,,,,,,,,,,,,,,,,,,,,,,,,,,,,,,,,,,,,,,,,,,,,,
,,6170c5f324920093389dd767,2023-12-14_23h10.03.871,kallum_motion_pilot,2023.2.3,Win32,59.76929054,6170c5f324920093389dd767,657bb317c8798c6608bceb3f,657bb4303198d96ae306ed20,0.0381,0.0382,1,91,253,99,1,sixeight,,,,,,,,,,,,,,,,,,,,,,,,,,,,,,,,,,,,,,,,,,,,,,,,,,,,,,,,,,,,,,,,,,,,,,,,,,,,,,,,,,,,,,,,,,,,,,,,,,,,,,,,,,,,,,,,,,,,,,,,,,,,,,,,,,,,,,,
,,6170c5f324920093389dd767,2023-12-14_23h10.03.871,kallum_motion_pilot,2023.2.3,Win32,59.76929054,6170c5f324920093389dd767,657bb317c8798c6608bceb3f,657bb4303198d96ae306ed20,0.0383,0.0384,1,92,254,51,1,twofour,,,,,,,,,,,,,,,,,,,,,,,,,,,,,,,,,,,,,,,,,,,,,,,,,,,,,,,,,,,,,,,,,,,,,,,,,,,,,,,,,,,,,,,,,,,,,,,,,,,,,,,,,,,,,,,,,,,,,,,,,,,,,,,,,,,,,,,
,,6170c5f324920093389dd767,2023-12-14_23h10.03.871,kallum_motion_pilot,2023.2.3,Win32,59.76929054,6170c5f324920093389dd767,657bb317c8798c6608bceb3f,657bb4303198d96ae306ed20,0.0384,0.0385,1,93,255,37,1,threefour,,,,,,,,,,,,,,,,,,,,,,,,,,,,,,,,,,,,,,,,,,,,,,,,,,,,,,,,,,,,,,,,,,,,,,,,,,,,,,,,,,,,,,,,,,,,,,,,,,,,,,,,,,,,,,,,,,,,,,,,,,,,,,,,,,,,,,,
,,6170c5f324920093389dd767,2023-12-14_23h10.03.871,kallum_motion_pilot,2023.2.3,Win32,59.76929054,6170c5f324920093389dd767,657bb317c8798c6608bceb3f,657bb4303198d96ae306ed20,0.0385,0.0386,1,94,256,113,1,fiveseven,,,,,,,,,,,,,,,,,,,,,,,,,,,,,,,,,,,,,,,,,,,,,,,,,,,,,,,,,,,,,,,,,,,,,,,,,,,,,,,,,,,,,,,,,,,,,,,,,,,,,,,,,,,,,,,,,,,,,,,,,,,,,,,,,,,,,,,
,,6170c5f324920093389dd767,2023-12-14_23h10.03.871,kallum_motion_pilot,2023.2.3,Win32,59.76929054,6170c5f324920093389dd767,657bb317c8798c6608bceb3f,657bb4303198d96ae306ed20,0.0386,0.0386,1,95,257,139,1,sixeight,,,,,,,,,,,,,,,,,,,,,,,,,,,,,,,,,,,,,,,,,,,,,,,,,,,,,,,,,,,,,,,,,,,,,,,,,,,,,,,,,,,,,,,,,,,,,,,,,,,,,,,,,,,,,,,,,,,,,,,,,,,,,,,,,,,,,,,
,,6170c5f324920093389dd767,2023-12-14_23h10.03.871,kallum_motion_pilot,2023.2.3,Win32,59.76929054,6170c5f324920093389dd767,657bb317c8798c6608bceb3f,657bb4303198d96ae306ed20,0.0388,0.0388,1,96,258,91,1,sixeight,,,,,,,,,,,,,,,,,,,,,,,,,,,,,,,,,,,,,,,,,,,,,,,,,,,,,,,,,,,,,,,,,,,,,,,,,,,,,,,,,,,,,,,,,,,,,,,,,,,,,,,,,,,,,,,,,,,,,,,,,,,,,,,,,,,,,,,
,,6170c5f324920093389dd767,2023-12-14_23h10.03.871,kallum_motion_pilot,2023.2.3,Win32,59.76929054,6170c5f324920093389dd767,657bb317c8798c6608bceb3f,657bb4303198d96ae306ed20,0.0388,0.0389,1,97,259,23,1,fourthree,,,,,,,,,,,,,,,,,,,,,,,,,,,,,,,,,,,,,,,,,,,,,,,,,,,,,,,,,,,,,,,,,,,,,,,,,,,,,,,,,,,,,,,,,,,,,,,,,,,,,,,,,,,,,,,,,,,,,,,,,,,,,,,,,,,,,,,
,,6170c5f324920093389dd767,2023-12-14_23h10.03.871,kallum_motion_pilot,2023.2.3,Win32,59.76929054,6170c5f324920093389dd767,657bb317c8798c6608bceb3f,657bb4303198d96ae306ed20,0.039,0.039,1,98,260,62,1,fourtwo,,,,,,,,,,,,,,,,,,,,,,,,,,,,,,,,,,,,,,,,,,,,,,,,,,,,,,,,,,,,,,,,,,,,,,,,,,,,,,,,,,,,,,,,,,,,,,,,,,,,,,,,,,,,,,,,,,,,,,,,,,,,,,,,,,,,,,,
,,6170c5f324920093389dd767,2023-12-14_23h10.03.871,kallum_motion_pilot,2023.2.3,Win32,59.76929054,6170c5f324920093389dd767,657bb317c8798c6608bceb3f,657bb4303198d96ae306ed20,0.0391,0.0391,1,99,261,15,1,fourthree,,,,,,,,,,,,,,,,,,,,,,,,,,,,,,,,,,,,,,,,,,,,,,,,,,,,,,,,,,,,,,,,,,,,,,,,,,,,,,,,,,,,,,,,,,,,,,,,,,,,,,,,,,,,,,,,,,,,,,,,,,,,,,,,,,,,,,,
,,6170c5f324920093389dd767,2023-12-14_23h10.03.871,kallum_motion_pilot,2023.2.3,Win32,59.76929054,6170c5f324920093389dd767,657bb317c8798c6608bceb3f,657bb4303198d96ae306ed20,0.0391,0.0392,1,100,262,61,1,threefour,,,,,,,,,,,,,,,,,,,,,,,,,,,,,,,,,,,,,,,,,,,,,,,,,,,,,,,,,,,,,,,,,,,,,,,,,,,,,,,,,,,,,,,,,,,,,,,,,,,,,,,,,,,,,,,,,,,,,,,,,,,,,,,,,,,,,,,
,,6170c5f324920093389dd767,2023-12-14_23h10.03.871,kallum_motion_pilot,2023.2.3,Win32,59.76929054,6170c5f324920093389dd767,657bb317c8798c6608bceb3f,657bb4303198d96ae306ed20,0.0392,0.0392,1,101,263,53,1,threefour,,,,,,,,,,,,,,,,,,,,,,,,,,,,,,,,,,,,,,,,,,,,,,,,,,,,,,,,,,,,,,,,,,,,,,,,,,,,,,,,,,,,,,,,,,,,,,,,,,,,,,,,,,,,,,,,,,,,,,,,,,,,,,,,,,,,,,,
,,6170c5f324920093389dd767,2023-12-14_23h10.03.871,kallum_motion_pilot,2023.2.3,Win32,59.76929054,6170c5f324920093389dd767,657bb317c8798c6608bceb3f,657bb4303198d96ae306ed20,0.0393,0.0394,1,102,264,118,1,eightsix,,,,,,,,,,,,,,,,,,,,,,,,,,,,,,,,,,,,,,,,,,,,,,,,,,,,,,,,,,,,,,,,,,,,,,,,,,,,,,,,,,,,,,,,,,,,,,,,,,,,,,,,,,,,,,,,,,,,,,,,,,,,,,,,,,,,,,,
,,6170c5f324920093389dd767,2023-12-14_23h10.03.871,kallum_motion_pilot,2023.2.3,Win32,59.76929054,6170c5f324920093389dd767,657bb317c8798c6608bceb3f,657bb4303198d96ae306ed20,0.0394,0.0395,1,103,265,81,1,fiveseven,,,,,,,,,,,,,,,,,,,,,,,,,,,,,,,,,,,,,,,,,,,,,,,,,,,,,,,,,,,,,,,,,,,,,,,,,,,,,,,,,,,,,,,,,,,,,,,,,,,,,,,,,,,,,,,,,,,,,,,,,,,,,,,,,,,,,,,
,,6170c5f324920093389dd767,2023-12-14_23h10.03.871,kallum_motion_pilot,2023.2.3,Win32,59.76929054,6170c5f324920093389dd767,657bb317c8798c6608bceb3f,657bb4303198d96ae306ed20,0.0395,0.0395,1,104,266,150,1,eightsix,,,,,,,,,,,,,,,,,,,,,,,,,,,,,,,,,,,,,,,,,,,,,,,,,,,,,,,,,,,,,,,,,,,,,,,,,,,,,,,,,,,,,,,,,,,,,,,,,,,,,,,,,,,,,,,,,,,,,,,,,,,,,,,,,,,,,,,
,,6170c5f324920093389dd767,2023-12-14_23h10.03.871,kallum_motion_pilot,2023.2.3,Win32,59.76929054,6170c5f324920093389dd767,657bb317c8798c6608bceb3f,657bb4303198d96ae306ed20,0.0396,0.0397,1,105,267,100,1,sevenfive,,,,,,,,,,,,,,,,,,,,,,,,,,,,,,,,,,,,,,,,,,,,,,,,,,,,,,,,,,,,,,,,,,,,,,,,,,,,,,,,,,,,,,,,,,,,,,,,,,,,,,,,,,,,,,,,,,,,,,,,,,,,,,,,,,,,,,,
,,6170c5f324920093389dd767,2023-12-14_23h10.03.871,kallum_motion_pilot,2023.2.3,Win32,59.76929054,6170c5f324920093389dd767,657bb317c8798c6608bceb3f,657bb4303198d96ae306ed20,0.0397,0.0398,1,106,268,96,1,fivesix,,,,,,,,,,,,,,,,,,,,,,,,,,,,,,,,,,,,,,,,,,,,,,,,,,,,,,,,,,,,,,,,,,,,,,,,,,,,,,,,,,,,,,,,,,,,,,,,,,,,,,,,,,,,,,,,,,,,,,,,,,,,,,,,,,,,,,,
,,6170c5f324920093389dd767,2023-12-14_23h10.03.871,kallum_motion_pilot,2023.2.3,Win32,59.76929054,6170c5f324920093389dd767,657bb317c8798c6608bceb3f,657bb4303198d96ae306ed20,0.0398,0.0399,1,107,269,152,1,fivesix,,,,,,,,,,,,,,,,,,,,,,,,,,,,,,,,,,,,,,,,,,,,,,,,,,,,,,,,,,,,,,,,,,,,,,,,,,,,,,,,,,,,,,,,,,,,,,,,,,,,,,,,,,,,,,,,,,,,,,,,,,,,,,,,,,,,,,,
,,6170c5f324920093389dd767,2023-12-14_23h10.03.871,kallum_motion_pilot,2023.2.3,Win32,59.76929054,6170c5f324920093389dd767,657bb317c8798c6608bceb3f,657bb4303198d96ae306ed20,0.04,0.04,1,108,270,77,1,threefour,,,,,,,,,,,,,,,,,,,,,,,,,,,,,,,,,,,,,,,,,,,,,,,,,,,,,,,,,,,,,,,,,,,,,,,,,,,,,,,,,,,,,,,,,,,,,,,,,,,,,,,,,,,,,,,,,,,,,,,,,,,,,,,,,,,,,,,
,,6170c5f324920093389dd767,2023-12-14_23h10.03.871,kallum_motion_pilot,2023.2.3,Win32,59.76929054,6170c5f324920093389dd767,657bb317c8798c6608bceb3f,657bb4303198d96ae306ed20,0.04,0.0401,1,109,271,133,1,seveneight,,,,,,,,,,,,,,,,,,,,,,,,,,,,,,,,,,,,,,,,,,,,,,,,,,,,,,,,,,,,,,,,,,,,,,,,,,,,,,,,,,,,,,,,,,,,,,,,,,,,,,,,,,,,,,,,,,,,,,,,,,,,,,,,,,,,,,,
,,6170c5f324920093389dd767,2023-12-14_23h10.03.871,kallum_motion_pilot,2023.2.3,Win32,59.76929054,6170c5f324920093389dd767,657bb317c8798c6608bceb3f,657bb4303198d96ae306ed20,0.0402,0.0402,1,110,272,48,1,onetwo,,,,,,,,,,,,,,,,,,,,,,,,,,,,,,,,,,,,,,,,,,,,,,,,,,,,,,,,,,,,,,,,,,,,,,,,,,,,,,,,,,,,,,,,,,,,,,,,,,,,,,,,,,,,,,,,,,,,,,,,,,,,,,,,,,,,,,,
,,6170c5f324920093389dd767,2023-12-14_23h10.03.871,kallum_motion_pilot,2023.2.3,Win32,59.76929054,6170c5f324920093389dd767,657bb317c8798c6608bceb3f,657bb4303198d96ae306ed20,0.0403,0.0403,1,111,273,80,1,fivesix,,,,,,,,,,,,,,,,,,,,,,,,,,,,,,,,,,,,,,,,,,,,,,,,,,,,,,,,,,,,,,,,,,,,,,,,,,,,,,,,,,,,,,,,,,,,,,,,,,,,,,,,,,,,,,,,,,,,,,,,,,,,,,,,,,,,,,,
,,6170c5f324920093389dd767,2023-12-14_23h10.03.871,kallum_motion_pilot,2023.2.3,Win32,59.76929054,6170c5f324920093389dd767,657bb317c8798c6608bceb3f,657bb4303198d96ae306ed20,0.0404,0.0404,1,112,274,0,1,onetwo,,,,,,,,,,,,,,,,,,,,,,,,,,,,,,,,,,,,,,,,,,,,,,,,,,,,,,,,,,,,,,,,,,,,,,,,,,,,,,,,,,,,,,,,,,,,,,,,,,,,,,,,,,,,,,,,,,,,,,,,,,,,,,,,,,,,,,,
,,6170c5f324920093389dd767,2023-12-14_23h10.03.871,kallum_motion_pilot,2023.2.3,Win32,59.76929054,6170c5f324920093389dd767,657bb317c8798c6608bceb3f,657bb4303198d96ae306ed20,0.0405,0.0405,1,113,275,66,1,twoone,,,,,,,,,,,,,,,,,,,,,,,,,,,,,,,,,,,,,,,,,,,,,,,,,,,,,,,,,,,,,,,,,,,,,,,,,,,,,,,,,,,,,,,,,,,,,,,,,,,,,,,,,,,,,,,,,,,,,,,,,,,,,,,,,,,,,,,
,,6170c5f324920093389dd767,2023-12-14_23h10.03.871,kallum_motion_pilot,2023.2.3,Win32,59.76929054,6170c5f324920093389dd767,657bb317c8798c6608bceb3f,657bb4303198d96ae306ed20,0.0405,0.0406,1,114,276,161,1,fiveseven,,,,,,,,,,,,,,,,,,,,,,,,,,,,,,,,,,,,,,,,,,,,,,,,,,,,,,,,,,,,,,,,,,,,,,,,,,,,,,,,,,,,,,,,,,,,,,,,,,,,,,,,,,,,,,,,,,,,,,,,,,,,,,,,,,,,,,,
,,6170c5f324920093389dd767,2023-12-14_23h10.03.871,kallum_motion_pilot,2023.2.3,Win32,59.76929054,6170c5f324920093389dd767,657bb317c8798c6608bceb3f,657bb4303198d96ae306ed20,0.0407,0.0407,1,115,277,60,1,threeone,,,,,,,,,,,,,,,,,,,,,,,,,,,,,,,,,,,,,,,,,,,,,,,,,,,,,,,,,,,,,,,,,,,,,,,,,,,,,,,,,,,,,,,,,,,,,,,,,,,,,,,,,,,,,,,,,,,,,,,,,,,,,,,,,,,,,,,
,,6170c5f324920093389dd767,2023-12-14_23h10.03.871,kallum_motion_pilot,2023.2.3,Win32,59.76929054,6170c5f324920093389dd767,657bb317c8798c6608bceb3f,657bb4303198d96ae306ed20,0.0408,0.0408,1,116,278,138,1,sixfive,,,,,,,,,,,,,,,,,,,,,,,,,,,,,,,,,,,,,,,,,,,,,,,,,,,,,,,,,,,,,,,,,,,,,,,,,,,,,,,,,,,,,,,,,,,,,,,,,,,,,,,,,,,,,,,,,,,,,,,,,,,,,,,,,,,,,,,
,,6170c5f324920093389dd767,2023-12-14_23h10.03.871,kallum_motion_pilot,2023.2.3,Win32,59.76929054,6170c5f324920093389dd767,657bb317c8798c6608bceb3f,657bb4303198d96ae306ed20,0.0409,0.0409,1,117,279,86,1,eightsix,,,,,,,,,,,,,,,,,,,,,,,,,,,,,,,,,,,,,,,,,,,,,,,,,,,,,,,,,,,,,,,,,,,,,,,,,,,,,,,,,,,,,,,,,,,,,,,,,,,,,,,,,,,,,,,,,,,,,,,,,,,,,,,,,,,,,,,
