startup.started,startup.stopped,Prolific ID*,date,expName,psychopyVersion,OS,frameRate,participant,study_id,session,stimpositions.started,stimpositions.stopped,hardcoded_stimulus_positions.thisRepN,hardcoded_stimulus_positions.thisTrialN,hardcoded_stimulus_positions.thisN,hardcoded_stimulus_positions.thisIndex,hardcoded_stimulus_positions.ran,StimulusPos,stimorientation.started,stimorientation.stopped,prac_stimorientation_import_loop.thisRepN,prac_stimorientation_import_loop.thisTrialN,prac_stimorientation_import_loop.thisN,prac_stimorientation_import_loop.thisIndex,prac_stimorientation_import_loop.ran,Stimorientation,welcome_instr.started,welcome_instr.stopped,key_resp.keys,key_resp.rt,key_resp.duration,response_steppedout_1.started,response_steppedout_1.stopped,key_resp_20.keys,key_resp_20.rt,key_resp_20.duration,response_steppedout_2.started,response_steppedout_2.stopped,key_resp_19.keys,key_resp_19.rt,key_resp_19.duration,stim_response_instr.started,stim_response_instr.stopped,key_resp_15.keys,key_resp_15.rt,key_resp_15.duration,direction_instr_2.started,direction_instr_2.stopped,key_resp_9.keys,key_resp_9.rt,key_resp_9.duration,instr_prac.started,instr_prac.stopped,key_resp_10.keys,key_resp_10.rt,key_resp_10.duration,Stim1_display_prac.started,Stim1_display_prac.stopped,Ecc,Circle1_ori,Circle2_ori,response_prac.started,similarity,response_time,response_prac.stopped,mouse_5.x,mouse_5.y,mouse_5.leftButton,mouse_5.midButton,mouse_5.rightButton,mouse_5.clicked_name,responseprac_feedback.started,responseprac_feedback.stopped,summary2_prac.started,summary2_prac.stopped,mouse_6.x,mouse_6.y,mouse_6.leftButton,mouse_6.midButton,mouse_6.rightButton,mouse_6.clicked_name,duringprac.thisRepN,duringprac.thisTrialN,duringprac.thisN,duringprac.thisIndex,duringprac.ran,begin.started,begin.stopped,key_resp_22.keys,key_resp_22.rt,key_resp_22.duration,Stim1_display.started,Stim1_display.stopped,circle1_ori,circle2_ori,blank.started,blank.stopped,response.started,response.stopped,mouse.x,mouse.y,mouse.leftButton,mouse.midButton,mouse.rightButton,mouse.clicked_name,response_2.started,response_2.stopped,mouse_2.x,mouse_2.y,mouse_2.leftButton,mouse_2.midButton,mouse_2.rightButton,mouse_2.clicked_name,special_trial.started,special_trial.stopped,catch_1.started,catch_1.stopped,mouse_3.x,mouse_3.y,mouse_3.leftButton,mouse_3.midButton,mouse_3.rightButton,catchresponse,catchnumber,response_time_catch,Catch,response_sum.started,response_sum.stopped,mouse_11.x,mouse_11.y,mouse_11.leftButton,mouse_11.midButton,mouse_11.rightButton,main_trial.thisRepN,main_trial.thisTrialN,main_trial.thisN,main_trial.thisIndex,main_trial.ran,Orientationtrialno,xcircle1_ori,xcircle2_ori,flip_presentation_sequence_for_double_pass.started,flip_presentation_sequence_for_double_pass.stopped,double_pass.thisRepN,double_pass.thisTrialN,double_pass.thisN,double_pass.thisIndex,double_pass.ran,goodbye.started,goodbye.stopped,key_resp_3.keys,key_resp_3.rt,key_resp_3.duration
0,0,6511e9adc4ba37678f5f1181,2023-12-15_14h41.06.428,kallum_motion_pilot,2023.2.3,Win32,60.0240096,6511e9adc4ba37678f5f1181,657bb317c8798c6608bceb3f,657bcbc420d87e63f1a096e7,,,,,,,,,,,,,,,,,,,,,,,,,,,,,,,,,,,,,,,,,,,,,,,,,,,,,,,,,,,,,,,,,,,,,,,,,,,,,,,,,,,,,,,,,,,,,,,,,,,,,,,,,,,,,,,,,,,,,,,,,,,,,,,,,,,,,,,,,,,,,,,
,,6511e9adc4ba37678f5f1181,2023-12-15_14h41.06.428,kallum_motion_pilot,2023.2.3,Win32,60.0240096,6511e9adc4ba37678f5f1181,657bb317c8798c6608bceb3f,657bcbc420d87e63f1a096e7,0.029,0.029,0,0,0,45,1,threefour,,,,,,,,,,,,,,,,,,,,,,,,,,,,,,,,,,,,,,,,,,,,,,,,,,,,,,,,,,,,,,,,,,,,,,,,,,,,,,,,,,,,,,,,,,,,,,,,,,,,,,,,,,,,,,,,,,,,,,,,,,,,,,,,,,,,,,,
,,6511e9adc4ba37678f5f1181,2023-12-15_14h41.06.428,kallum_motion_pilot,2023.2.3,Win32,60.0240096,6511e9adc4ba37678f5f1181,657bb317c8798c6608bceb3f,657bcbc420d87e63f1a096e7,0.029,0.029,0,1,1,41,1,onethree,,,,,,,,,,,,,,,,,,,,,,,,,,,,,,,,,,,,,,,,,,,,,,,,,,,,,,,,,,,,,,,,,,,,,,,,,,,,,,,,,,,,,,,,,,,,,,,,,,,,,,,,,,,,,,,,,,,,,,,,,,,,,,,,,,,,,,,
,,6511e9adc4ba37678f5f1181,2023-12-15_14h41.06.428,kallum_motion_pilot,2023.2.3,Win32,60.0240096,6511e9adc4ba37678f5f1181,657bb317c8798c6608bceb3f,657bcbc420d87e63f1a096e7,0.029,0.029,0,2,2,6,1,fourtwo,,,,,,,,,,,,,,,,,,,,,,,,,,,,,,,,,,,,,,,,,,,,,,,,,,,,,,,,,,,,,,,,,,,,,,,,,,,,,,,,,,,,,,,,,,,,,,,,,,,,,,,,,,,,,,,,,,,,,,,,,,,,,,,,,,,,,,,
,,6511e9adc4ba37678f5f1181,2023-12-15_14h41.06.428,kallum_motion_pilot,2023.2.3,Win32,60.0240096,6511e9adc4ba37678f5f1181,657bb317c8798c6608bceb3f,657bcbc420d87e63f1a096e7,0.029,0.029,0,3,3,108,1,sevenfive,,,,,,,,,,,,,,,,,,,,,,,,,,,,,,,,,,,,,,,,,,,,,,,,,,,,,,,,,,,,,,,,,,,,,,,,,,,,,,,,,,,,,,,,,,,,,,,,,,,,,,,,,,,,,,,,,,,,,,,,,,,,,,,,,,,,,,,
,,6511e9adc4ba37678f5f1181,2023-12-15_14h41.06.428,kallum_motion_pilot,2023.2.3,Win32,60.0240096,6511e9adc4ba37678f5f1181,657bb317c8798c6608bceb3f,657bcbc420d87e63f1a096e7,0.029,0.029,0,4,4,67,1,twofour,,,,,,,,,,,,,,,,,,,,,,,,,,,,,,,,,,,,,,,,,,,,,,,,,,,,,,,,,,,,,,,,,,,,,,,,,,,,,,,,,,,,,,,,,,,,,,,,,,,,,,,,,,,,,,,,,,,,,,,,,,,,,,,,,,,,,,,
,,6511e9adc4ba37678f5f1181,2023-12-15_14h41.06.428,kallum_motion_pilot,2023.2.3,Win32,60.0240096,6511e9adc4ba37678f5f1181,657bb317c8798c6608bceb3f,657bcbc420d87e63f1a096e7,0.03,0.03,0,5,5,53,1,threefour,,,,,,,,,,,,,,,,,,,,,,,,,,,,,,,,,,,,,,,,,,,,,,,,,,,,,,,,,,,,,,,,,,,,,,,,,,,,,,,,,,,,,,,,,,,,,,,,,,,,,,,,,,,,,,,,,,,,,,,,,,,,,,,,,,,,,,,
,,6511e9adc4ba37678f5f1181,2023-12-15_14h41.06.428,kallum_motion_pilot,2023.2.3,Win32,60.0240096,6511e9adc4ba37678f5f1181,657bb317c8798c6608bceb3f,657bcbc420d87e63f1a096e7,0.03,0.03,0,6,6,154,1,sixfive,,,,,,,,,,,,,,,,,,,,,,,,,,,,,,,,,,,,,,,,,,,,,,,,,,,,,,,,,,,,,,,,,,,,,,,,,,,,,,,,,,,,,,,,,,,,,,,,,,,,,,,,,,,,,,,,,,,,,,,,,,,,,,,,,,,,,,,
,,6511e9adc4ba37678f5f1181,2023-12-15_14h41.06.428,kallum_motion_pilot,2023.2.3,Win32,60.0240096,6511e9adc4ba37678f5f1181,657bb317c8798c6608bceb3f,657bcbc420d87e63f1a096e7,0.03,0.03,0,7,7,74,1,twoone,,,,,,,,,,,,,,,,,,,,,,,,,,,,,,,,,,,,,,,,,,,,,,,,,,,,,,,,,,,,,,,,,,,,,,,,,,,,,,,,,,,,,,,,,,,,,,,,,,,,,,,,,,,,,,,,,,,,,,,,,,,,,,,,,,,,,,,
,,6511e9adc4ba37678f5f1181,2023-12-15_14h41.06.428,kallum_motion_pilot,2023.2.3,Win32,60.0240096,6511e9adc4ba37678f5f1181,657bb317c8798c6608bceb3f,657bcbc420d87e63f1a096e7,0.03,0.03,0,8,8,75,1,twofour,,,,,,,,,,,,,,,,,,,,,,,,,,,,,,,,,,,,,,,,,,,,,,,,,,,,,,,,,,,,,,,,,,,,,,,,,,,,,,,,,,,,,,,,,,,,,,,,,,,,,,,,,,,,,,,,,,,,,,,,,,,,,,,,,,,,,,,
,,6511e9adc4ba37678f5f1181,2023-12-15_14h41.06.428,kallum_motion_pilot,2023.2.3,Win32,60.0240096,6511e9adc4ba37678f5f1181,657bb317c8798c6608bceb3f,657bcbc420d87e63f1a096e7,0.03,0.03,0,9,9,68,1,threeone,,,,,,,,,,,,,,,,,,,,,,,,,,,,,,,,,,,,,,,,,,,,,,,,,,,,,,,,,,,,,,,,,,,,,,,,,,,,,,,,,,,,,,,,,,,,,,,,,,,,,,,,,,,,,,,,,,,,,,,,,,,,,,,,,,,,,,,
,,6511e9adc4ba37678f5f1181,2023-12-15_14h41.06.428,kallum_motion_pilot,2023.2.3,Win32,60.0240096,6511e9adc4ba37678f5f1181,657bb317c8798c6608bceb3f,657bcbc420d87e63f1a096e7,0.03,0.03,0,10,10,152,1,fivesix,,,,,,,,,,,,,,,,,,,,,,,,,,,,,,,,,,,,,,,,,,,,,,,,,,,,,,,,,,,,,,,,,,,,,,,,,,,,,,,,,,,,,,,,,,,,,,,,,,,,,,,,,,,,,,,,,,,,,,,,,,,,,,,,,,,,,,,
,,6511e9adc4ba37678f5f1181,2023-12-15_14h41.06.428,kallum_motion_pilot,2023.2.3,Win32,60.0240096,6511e9adc4ba37678f5f1181,657bb317c8798c6608bceb3f,657bcbc420d87e63f1a096e7,0.03,0.03,0,11,11,114,1,sixfive,,,,,,,,,,,,,,,,,,,,,,,,,,,,,,,,,,,,,,,,,,,,,,,,,,,,,,,,,,,,,,,,,,,,,,,,,,,,,,,,,,,,,,,,,,,,,,,,,,,,,,,,,,,,,,,,,,,,,,,,,,,,,,,,,,,,,,,
,,6511e9adc4ba37678f5f1181,2023-12-15_14h41.06.428,kallum_motion_pilot,2023.2.3,Win32,60.0240096,6511e9adc4ba37678f5f1181,657bb317c8798c6608bceb3f,657bcbc420d87e63f1a096e7,0.03,0.03,0,12,12,128,1,fivesix,,,,,,,,,,,,,,,,,,,,,,,,,,,,,,,,,,,,,,,,,,,,,,,,,,,,,,,,,,,,,,,,,,,,,,,,,,,,,,,,,,,,,,,,,,,,,,,,,,,,,,,,,,,,,,,,,,,,,,,,,,,,,,,,,,,,,,,
,,6511e9adc4ba37678f5f1181,2023-12-15_14h41.06.428,kallum_motion_pilot,2023.2.3,Win32,60.0240096,6511e9adc4ba37678f5f1181,657bb317c8798c6608bceb3f,657bcbc420d87e63f1a096e7,0.03,0.03,0,13,13,52,1,threeone,,,,,,,,,,,,,,,,,,,,,,,,,,,,,,,,,,,,,,,,,,,,,,,,,,,,,,,,,,,,,,,,,,,,,,,,,,,,,,,,,,,,,,,,,,,,,,,,,,,,,,,,,,,,,,,,,,,,,,,,,,,,,,,,,,,,,,,
,,6511e9adc4ba37678f5f1181,2023-12-15_14h41.06.428,kallum_motion_pilot,2023.2.3,Win32,60.0240096,6511e9adc4ba37678f5f1181,657bb317c8798c6608bceb3f,657bcbc420d87e63f1a096e7,0.031,0.031,0,14,14,156,1,sevenfive,,,,,,,,,,,,,,,,,,,,,,,,,,,,,,,,,,,,,,,,,,,,,,,,,,,,,,,,,,,,,,,,,,,,,,,,,,,,,,,,,,,,,,,,,,,,,,,,,,,,,,,,,,,,,,,,,,,,,,,,,,,,,,,,,,,,,,,
,,6511e9adc4ba37678f5f1181,2023-12-15_14h41.06.428,kallum_motion_pilot,2023.2.3,Win32,60.0240096,6511e9adc4ba37678f5f1181,657bb317c8798c6608bceb3f,657bcbc420d87e63f1a096e7,0.031,0.031,0,15,15,66,1,twoone,,,,,,,,,,,,,,,,,,,,,,,,,,,,,,,,,,,,,,,,,,,,,,,,,,,,,,,,,,,,,,,,,,,,,,,,,,,,,,,,,,,,,,,,,,,,,,,,,,,,,,,,,,,,,,,,,,,,,,,,,,,,,,,,,,,,,,,
,,6511e9adc4ba37678f5f1181,2023-12-15_14h41.06.428,kallum_motion_pilot,2023.2.3,Win32,60.0240096,6511e9adc4ba37678f5f1181,657bb317c8798c6608bceb3f,657bcbc420d87e63f1a096e7,0.031,0.031,0,16,16,97,1,fiveseven,,,,,,,,,,,,,,,,,,,,,,,,,,,,,,,,,,,,,,,,,,,,,,,,,,,,,,,,,,,,,,,,,,,,,,,,,,,,,,,,,,,,,,,,,,,,,,,,,,,,,,,,,,,,,,,,,,,,,,,,,,,,,,,,,,,,,,,
,,6511e9adc4ba37678f5f1181,2023-12-15_14h41.06.428,kallum_motion_pilot,2023.2.3,Win32,60.0240096,6511e9adc4ba37678f5f1181,657bb317c8798c6608bceb3f,657bcbc420d87e63f1a096e7,0.031,0.031,0,17,17,0,1,onetwo,,,,,,,,,,,,,,,,,,,,,,,,,,,,,,,,,,,,,,,,,,,,,,,,,,,,,,,,,,,,,,,,,,,,,,,,,,,,,,,,,,,,,,,,,,,,,,,,,,,,,,,,,,,,,,,,,,,,,,,,,,,,,,,,,,,,,,,
,,6511e9adc4ba37678f5f1181,2023-12-15_14h41.06.428,kallum_motion_pilot,2023.2.3,Win32,60.0240096,6511e9adc4ba37678f5f1181,657bb317c8798c6608bceb3f,657bcbc420d87e63f1a096e7,0.031,0.031,0,18,18,98,1,sixfive,,,,,,,,,,,,,,,,,,,,,,,,,,,,,,,,,,,,,,,,,,,,,,,,,,,,,,,,,,,,,,,,,,,,,,,,,,,,,,,,,,,,,,,,,,,,,,,,,,,,,,,,,,,,,,,,,,,,,,,,,,,,,,,,,,,,,,,
,,6511e9adc4ba37678f5f1181,2023-12-15_14h41.06.428,kallum_motion_pilot,2023.2.3,Win32,60.0240096,6511e9adc4ba37678f5f1181,657bb317c8798c6608bceb3f,657bcbc420d87e63f1a096e7,0.031,0.031,0,19,19,127,1,eightseven,,,,,,,,,,,,,,,,,,,,,,,,,,,,,,,,,,,,,,,,,,,,,,,,,,,,,,,,,,,,,,,,,,,,,,,,,,,,,,,,,,,,,,,,,,,,,,,,,,,,,,,,,,,,,,,,,,,,,,,,,,,,,,,,,,,,,,,
,,6511e9adc4ba37678f5f1181,2023-12-15_14h41.06.428,kallum_motion_pilot,2023.2.3,Win32,60.0240096,6511e9adc4ba37678f5f1181,657bb317c8798c6608bceb3f,657bcbc420d87e63f1a096e7,0.031,0.031,0,20,20,46,1,fourtwo,,,,,,,,,,,,,,,,,,,,,,,,,,,,,,,,,,,,,,,,,,,,,,,,,,,,,,,,,,,,,,,,,,,,,,,,,,,,,,,,,,,,,,,,,,,,,,,,,,,,,,,,,,,,,,,,,,,,,,,,,,,,,,,,,,,,,,,
,,6511e9adc4ba37678f5f1181,2023-12-15_14h41.06.428,kallum_motion_pilot,2023.2.3,Win32,60.0240096,6511e9adc4ba37678f5f1181,657bb317c8798c6608bceb3f,657bcbc420d87e63f1a096e7,0.031,0.031,0,21,21,11,1,twofour,,,,,,,,,,,,,,,,,,,,,,,,,,,,,,,,,,,,,,,,,,,,,,,,,,,,,,,,,,,,,,,,,,,,,,,,,,,,,,,,,,,,,,,,,,,,,,,,,,,,,,,,,,,,,,,,,,,,,,,,,,,,,,,,,,,,,,,
,,6511e9adc4ba37678f5f1181,2023-12-15_14h41.06.428,kallum_motion_pilot,2023.2.3,Win32,60.0240096,6511e9adc4ba37678f5f1181,657bb317c8798c6608bceb3f,657bcbc420d87e63f1a096e7,0.031,0.031,0,22,22,70,1,fourtwo,,,,,,,,,,,,,,,,,,,,,,,,,,,,,,,,,,,,,,,,,,,,,,,,,,,,,,,,,,,,,,,,,,,,,,,,,,,,,,,,,,,,,,,,,,,,,,,,,,,,,,,,,,,,,,,,,,,,,,,,,,,,,,,,,,,,,,,
,,6511e9adc4ba37678f5f1181,2023-12-15_14h41.06.428,kallum_motion_pilot,2023.2.3,Win32,60.0240096,6511e9adc4ba37678f5f1181,657bb317c8798c6608bceb3f,657bcbc420d87e63f1a096e7,0.031,0.031,0,23,23,56,1,onetwo,,,,,,,,,,,,,,,,,,,,,,,,,,,,,,,,,,,,,,,,,,,,,,,,,,,,,,,,,,,,,,,,,,,,,,,,,,,,,,,,,,,,,,,,,,,,,,,,,,,,,,,,,,,,,,,,,,,,,,,,,,,,,,,,,,,,,,,
,,6511e9adc4ba37678f5f1181,2023-12-15_14h41.06.428,kallum_motion_pilot,2023.2.3,Win32,60.0240096,6511e9adc4ba37678f5f1181,657bb317c8798c6608bceb3f,657bcbc420d87e63f1a096e7,0.031,0.031,0,24,24,13,1,threefour,,,,,,,,,,,,,,,,,,,,,,,,,,,,,,,,,,,,,,,,,,,,,,,,,,,,,,,,,,,,,,,,,,,,,,,,,,,,,,,,,,,,,,,,,,,,,,,,,,,,,,,,,,,,,,,,,,,,,,,,,,,,,,,,,,,,,,,
,,6511e9adc4ba37678f5f1181,2023-12-15_14h41.06.428,kallum_motion_pilot,2023.2.3,Win32,60.0240096,6511e9adc4ba37678f5f1181,657bb317c8798c6608bceb3f,657bcbc420d87e63f1a096e7,0.031,0.031,0,25,25,153,1,fiveseven,,,,,,,,,,,,,,,,,,,,,,,,,,,,,,,,,,,,,,,,,,,,,,,,,,,,,,,,,,,,,,,,,,,,,,,,,,,,,,,,,,,,,,,,,,,,,,,,,,,,,,,,,,,,,,,,,,,,,,,,,,,,,,,,,,,,,,,
,,6511e9adc4ba37678f5f1181,2023-12-15_14h41.06.428,kallum_motion_pilot,2023.2.3,Win32,60.0240096,6511e9adc4ba37678f5f1181,657bb317c8798c6608bceb3f,657bcbc420d87e63f1a096e7,0.031,0.031,0,26,26,14,1,fourtwo,,,,,,,,,,,,,,,,,,,,,,,,,,,,,,,,,,,,,,,,,,,,,,,,,,,,,,,,,,,,,,,,,,,,,,,,,,,,,,,,,,,,,,,,,,,,,,,,,,,,,,,,,,,,,,,,,,,,,,,,,,,,,,,,,,,,,,,
,,6511e9adc4ba37678f5f1181,2023-12-15_14h41.06.428,kallum_motion_pilot,2023.2.3,Win32,60.0240096,6511e9adc4ba37678f5f1181,657bb317c8798c6608bceb3f,657bcbc420d87e63f1a096e7,0.031,0.031,0,27,27,42,1,twoone,,,,,,,,,,,,,,,,,,,,,,,,,,,,,,,,,,,,,,,,,,,,,,,,,,,,,,,,,,,,,,,,,,,,,,,,,,,,,,,,,,,,,,,,,,,,,,,,,,,,,,,,,,,,,,,,,,,,,,,,,,,,,,,,,,,,,,,
,,6511e9adc4ba37678f5f1181,2023-12-15_14h41.06.428,kallum_motion_pilot,2023.2.3,Win32,60.0240096,6511e9adc4ba37678f5f1181,657bb317c8798c6608bceb3f,657bcbc420d87e63f1a096e7,0.031,0.031,0,28,28,137,1,fiveseven,,,,,,,,,,,,,,,,,,,,,,,,,,,,,,,,,,,,,,,,,,,,,,,,,,,,,,,,,,,,,,,,,,,,,,,,,,,,,,,,,,,,,,,,,,,,,,,,,,,,,,,,,,,,,,,,,,,,,,,,,,,,,,,,,,,,,,,
,,6511e9adc4ba37678f5f1181,2023-12-15_14h41.06.428,kallum_motion_pilot,2023.2.3,Win32,60.0240096,6511e9adc4ba37678f5f1181,657bb317c8798c6608bceb3f,657bcbc420d87e63f1a096e7,0.032,0.032,0,29,29,62,1,fourtwo,,,,,,,,,,,,,,,,,,,,,,,,,,,,,,,,,,,,,,,,,,,,,,,,,,,,,,,,,,,,,,,,,,,,,,,,,,,,,,,,,,,,,,,,,,,,,,,,,,,,,,,,,,,,,,,,,,,,,,,,,,,,,,,,,,,,,,,
,,6511e9adc4ba37678f5f1181,2023-12-15_14h41.06.428,kallum_motion_pilot,2023.2.3,Win32,60.0240096,6511e9adc4ba37678f5f1181,657bb317c8798c6608bceb3f,657bcbc420d87e63f1a096e7,0.032,0.032,0,30,30,28,1,threeone,,,,,,,,,,,,,,,,,,,,,,,,,,,,,,,,,,,,,,,,,,,,,,,,,,,,,,,,,,,,,,,,,,,,,,,,,,,,,,,,,,,,,,,,,,,,,,,,,,,,,,,,,,,,,,,,,,,,,,,,,,,,,,,,,,,,,,,
,,6511e9adc4ba37678f5f1181,2023-12-15_14h41.06.428,kallum_motion_pilot,2023.2.3,Win32,60.0240096,6511e9adc4ba37678f5f1181,657bb317c8798c6608bceb3f,657bcbc420d87e63f1a096e7,0.032,0.032,0,31,31,47,1,fourthree,,,,,,,,,,,,,,,,,,,,,,,,,,,,,,,,,,,,,,,,,,,,,,,,,,,,,,,,,,,,,,,,,,,,,,,,,,,,,,,,,,,,,,,,,,,,,,,,,,,,,,,,,,,,,,,,,,,,,,,,,,,,,,,,,,,,,,,
,,6511e9adc4ba37678f5f1181,2023-12-15_14h41.06.428,kallum_motion_pilot,2023.2.3,Win32,60.0240096,6511e9adc4ba37678f5f1181,657bb317c8798c6608bceb3f,657bcbc420d87e63f1a096e7,0.032,0.032,0,32,32,24,1,onetwo,,,,,,,,,,,,,,,,,,,,,,,,,,,,,,,,,,,,,,,,,,,,,,,,,,,,,,,,,,,,,,,,,,,,,,,,,,,,,,,,,,,,,,,,,,,,,,,,,,,,,,,,,,,,,,,,,,,,,,,,,,,,,,,,,,,,,,,
,,6511e9adc4ba37678f5f1181,2023-12-15_14h41.06.428,kallum_motion_pilot,2023.2.3,Win32,60.0240096,6511e9adc4ba37678f5f1181,657bb317c8798c6608bceb3f,657bcbc420d87e63f1a096e7,0.032,0.032,0,33,33,134,1,eightsix,,,,,,,,,,,,,,,,,,,,,,,,,,,,,,,,,,,,,,,,,,,,,,,,,,,,,,,,,,,,,,,,,,,,,,,,,,,,,,,,,,,,,,,,,,,,,,,,,,,,,,,,,,,,,,,,,,,,,,,,,,,,,,,,,,,,,,,
,,6511e9adc4ba37678f5f1181,2023-12-15_14h41.06.428,kallum_motion_pilot,2023.2.3,Win32,60.0240096,6511e9adc4ba37678f5f1181,657bb317c8798c6608bceb3f,657bcbc420d87e63f1a096e7,0.032,0.032,0,34,34,30,1,fourtwo,,,,,,,,,,,,,,,,,,,,,,,,,,,,,,,,,,,,,,,,,,,,,,,,,,,,,,,,,,,,,,,,,,,,,,,,,,,,,,,,,,,,,,,,,,,,,,,,,,,,,,,,,,,,,,,,,,,,,,,,,,,,,,,,,,,,,,,
,,6511e9adc4ba37678f5f1181,2023-12-15_14h41.06.428,kallum_motion_pilot,2023.2.3,Win32,60.0240096,6511e9adc4ba37678f5f1181,657bb317c8798c6608bceb3f,657bcbc420d87e63f1a096e7,0.032,0.032,0,35,35,35,1,twofour,,,,,,,,,,,,,,,,,,,,,,,,,,,,,,,,,,,,,,,,,,,,,,,,,,,,,,,,,,,,,,,,,,,,,,,,,,,,,,,,,,,,,,,,,,,,,,,,,,,,,,,,,,,,,,,,,,,,,,,,,,,,,,,,,,,,,,,
,,6511e9adc4ba37678f5f1181,2023-12-15_14h41.06.428,kallum_motion_pilot,2023.2.3,Win32,60.0240096,6511e9adc4ba37678f5f1181,657bb317c8798c6608bceb3f,657bcbc420d87e63f1a096e7,0.032,0.032,0,36,36,80,1,fivesix,,,,,,,,,,,,,,,,,,,,,,,,,,,,,,,,,,,,,,,,,,,,,,,,,,,,,,,,,,,,,,,,,,,,,,,,,,,,,,,,,,,,,,,,,,,,,,,,,,,,,,,,,,,,,,,,,,,,,,,,,,,,,,,,,,,,,,,
,,6511e9adc4ba37678f5f1181,2023-12-15_14h41.06.428,kallum_motion_pilot,2023.2.3,Win32,60.0240096,6511e9adc4ba37678f5f1181,657bb317c8798c6608bceb3f,657bcbc420d87e63f1a096e7,0.032,0.032,0,37,37,129,1,fiveseven,,,,,,,,,,,,,,,,,,,,,,,,,,,,,,,,,,,,,,,,,,,,,,,,,,,,,,,,,,,,,,,,,,,,,,,,,,,,,,,,,,,,,,,,,,,,,,,,,,,,,,,,,,,,,,,,,,,,,,,,,,,,,,,,,,,,,,,
,,6511e9adc4ba37678f5f1181,2023-12-15_14h41.06.428,kallum_motion_pilot,2023.2.3,Win32,60.0240096,6511e9adc4ba37678f5f1181,657bb317c8798c6608bceb3f,657bcbc420d87e63f1a096e7,0.032,0.032,0,38,38,89,1,fiveseven,,,,,,,,,,,,,,,,,,,,,,,,,,,,,,,,,,,,,,,,,,,,,,,,,,,,,,,,,,,,,,,,,,,,,,,,,,,,,,,,,,,,,,,,,,,,,,,,,,,,,,,,,,,,,,,,,,,,,,,,,,,,,,,,,,,,,,,
,,6511e9adc4ba37678f5f1181,2023-12-15_14h41.06.428,kallum_motion_pilot,2023.2.3,Win32,60.0240096,6511e9adc4ba37678f5f1181,657bb317c8798c6608bceb3f,657bcbc420d87e63f1a096e7,0.032,0.033,0,39,39,107,1,sixeight,,,,,,,,,,,,,,,,,,,,,,,,,,,,,,,,,,,,,,,,,,,,,,,,,,,,,,,,,,,,,,,,,,,,,,,,,,,,,,,,,,,,,,,,,,,,,,,,,,,,,,,,,,,,,,,,,,,,,,,,,,,,,,,,,,,,,,,
,,6511e9adc4ba37678f5f1181,2023-12-15_14h41.06.428,kallum_motion_pilot,2023.2.3,Win32,60.0240096,6511e9adc4ba37678f5f1181,657bb317c8798c6608bceb3f,657bcbc420d87e63f1a096e7,0.033,0.033,0,40,40,122,1,sixfive,,,,,,,,,,,,,,,,,,,,,,,,,,,,,,,,,,,,,,,,,,,,,,,,,,,,,,,,,,,,,,,,,,,,,,,,,,,,,,,,,,,,,,,,,,,,,,,,,,,,,,,,,,,,,,,,,,,,,,,,,,,,,,,,,,,,,,,
,,6511e9adc4ba37678f5f1181,2023-12-15_14h41.06.428,kallum_motion_pilot,2023.2.3,Win32,60.0240096,6511e9adc4ba37678f5f1181,657bb317c8798c6608bceb3f,657bcbc420d87e63f1a096e7,0.033,0.033,0,41,41,78,1,fourtwo,,,,,,,,,,,,,,,,,,,,,,,,,,,,,,,,,,,,,,,,,,,,,,,,,,,,,,,,,,,,,,,,,,,,,,,,,,,,,,,,,,,,,,,,,,,,,,,,,,,,,,,,,,,,,,,,,,,,,,,,,,,,,,,,,,,,,,,
,,6511e9adc4ba37678f5f1181,2023-12-15_14h41.06.428,kallum_motion_pilot,2023.2.3,Win32,60.0240096,6511e9adc4ba37678f5f1181,657bb317c8798c6608bceb3f,657bcbc420d87e63f1a096e7,0.033,0.033,0,42,42,12,1,threeone,,,,,,,,,,,,,,,,,,,,,,,,,,,,,,,,,,,,,,,,,,,,,,,,,,,,,,,,,,,,,,,,,,,,,,,,,,,,,,,,,,,,,,,,,,,,,,,,,,,,,,,,,,,,,,,,,,,,,,,,,,,,,,,,,,,,,,,
,,6511e9adc4ba37678f5f1181,2023-12-15_14h41.06.428,kallum_motion_pilot,2023.2.3,Win32,60.0240096,6511e9adc4ba37678f5f1181,657bb317c8798c6608bceb3f,657bcbc420d87e63f1a096e7,0.033,0.033,0,43,43,77,1,threefour,,,,,,,,,,,,,,,,,,,,,,,,,,,,,,,,,,,,,,,,,,,,,,,,,,,,,,,,,,,,,,,,,,,,,,,,,,,,,,,,,,,,,,,,,,,,,,,,,,,,,,,,,,,,,,,,,,,,,,,,,,,,,,,,,,,,,,,
,,6511e9adc4ba37678f5f1181,2023-12-15_14h41.06.428,kallum_motion_pilot,2023.2.3,Win32,60.0240096,6511e9adc4ba37678f5f1181,657bb317c8798c6608bceb3f,657bcbc420d87e63f1a096e7,0.033,0.033,0,44,44,8,1,onetwo,,,,,,,,,,,,,,,,,,,,,,,,,,,,,,,,,,,,,,,,,,,,,,,,,,,,,,,,,,,,,,,,,,,,,,,,,,,,,,,,,,,,,,,,,,,,,,,,,,,,,,,,,,,,,,,,,,,,,,,,,,,,,,,,,,,,,,,
,,6511e9adc4ba37678f5f1181,2023-12-15_14h41.06.428,kallum_motion_pilot,2023.2.3,Win32,60.0240096,6511e9adc4ba37678f5f1181,657bb317c8798c6608bceb3f,657bcbc420d87e63f1a096e7,0.033,0.033,0,45,45,135,1,eightseven,,,,,,,,,,,,,,,,,,,,,,,,,,,,,,,,,,,,,,,,,,,,,,,,,,,,,,,,,,,,,,,,,,,,,,,,,,,,,,,,,,,,,,,,,,,,,,,,,,,,,,,,,,,,,,,,,,,,,,,,,,,,,,,,,,,,,,,
,,6511e9adc4ba37678f5f1181,2023-12-15_14h41.06.428,kallum_motion_pilot,2023.2.3,Win32,60.0240096,6511e9adc4ba37678f5f1181,657bb317c8798c6608bceb3f,657bcbc420d87e63f1a096e7,0.033,0.033,0,46,46,59,1,twofour,,,,,,,,,,,,,,,,,,,,,,,,,,,,,,,,,,,,,,,,,,,,,,,,,,,,,,,,,,,,,,,,,,,,,,,,,,,,,,,,,,,,,,,,,,,,,,,,,,,,,,,,,,,,,,,,,,,,,,,,,,,,,,,,,,,,,,,
,,6511e9adc4ba37678f5f1181,2023-12-15_14h41.06.428,kallum_motion_pilot,2023.2.3,Win32,60.0240096,6511e9adc4ba37678f5f1181,657bb317c8798c6608bceb3f,657bcbc420d87e63f1a096e7,0.033,0.033,0,47,47,58,1,twoone,,,,,,,,,,,,,,,,,,,,,,,,,,,,,,,,,,,,,,,,,,,,,,,,,,,,,,,,,,,,,,,,,,,,,,,,,,,,,,,,,,,,,,,,,,,,,,,,,,,,,,,,,,,,,,,,,,,,,,,,,,,,,,,,,,,,,,,
,,6511e9adc4ba37678f5f1181,2023-12-15_14h41.06.428,kallum_motion_pilot,2023.2.3,Win32,60.0240096,6511e9adc4ba37678f5f1181,657bb317c8798c6608bceb3f,657bcbc420d87e63f1a096e7,0.033,0.033,0,48,48,37,1,threefour,,,,,,,,,,,,,,,,,,,,,,,,,,,,,,,,,,,,,,,,,,,,,,,,,,,,,,,,,,,,,,,,,,,,,,,,,,,,,,,,,,,,,,,,,,,,,,,,,,,,,,,,,,,,,,,,,,,,,,,,,,,,,,,,,,,,,,,
,,6511e9adc4ba37678f5f1181,2023-12-15_14h41.06.428,kallum_motion_pilot,2023.2.3,Win32,60.0240096,6511e9adc4ba37678f5f1181,657bb317c8798c6608bceb3f,657bcbc420d87e63f1a096e7,0.033,0.033,0,49,49,95,1,eightseven,,,,,,,,,,,,,,,,,,,,,,,,,,,,,,,,,,,,,,,,,,,,,,,,,,,,,,,,,,,,,,,,,,,,,,,,,,,,,,,,,,,,,,,,,,,,,,,,,,,,,,,,,,,,,,,,,,,,,,,,,,,,,,,,,,,,,,,
,,6511e9adc4ba37678f5f1181,2023-12-15_14h41.06.428,kallum_motion_pilot,2023.2.3,Win32,60.0240096,6511e9adc4ba37678f5f1181,657bb317c8798c6608bceb3f,657bcbc420d87e63f1a096e7,0.034,0.034,0,50,50,31,1,fourthree,,,,,,,,,,,,,,,,,,,,,,,,,,,,,,,,,,,,,,,,,,,,,,,,,,,,,,,,,,,,,,,,,,,,,,,,,,,,,,,,,,,,,,,,,,,,,,,,,,,,,,,,,,,,,,,,,,,,,,,,,,,,,,,,,,,,,,,
,,6511e9adc4ba37678f5f1181,2023-12-15_14h41.06.428,kallum_motion_pilot,2023.2.3,Win32,60.0240096,6511e9adc4ba37678f5f1181,657bb317c8798c6608bceb3f,657bcbc420d87e63f1a096e7,0.034,0.034,0,51,51,133,1,seveneight,,,,,,,,,,,,,,,,,,,,,,,,,,,,,,,,,,,,,,,,,,,,,,,,,,,,,,,,,,,,,,,,,,,,,,,,,,,,,,,,,,,,,,,,,,,,,,,,,,,,,,,,,,,,,,,,,,,,,,,,,,,,,,,,,,,,,,,
,,6511e9adc4ba37678f5f1181,2023-12-15_14h41.06.428,kallum_motion_pilot,2023.2.3,Win32,60.0240096,6511e9adc4ba37678f5f1181,657bb317c8798c6608bceb3f,657bcbc420d87e63f1a096e7,0.034,0.034,0,52,52,25,1,onethree,,,,,,,,,,,,,,,,,,,,,,,,,,,,,,,,,,,,,,,,,,,,,,,,,,,,,,,,,,,,,,,,,,,,,,,,,,,,,,,,,,,,,,,,,,,,,,,,,,,,,,,,,,,,,,,,,,,,,,,,,,,,,,,,,,,,,,,
,,6511e9adc4ba37678f5f1181,2023-12-15_14h41.06.428,kallum_motion_pilot,2023.2.3,Win32,60.0240096,6511e9adc4ba37678f5f1181,657bb317c8798c6608bceb3f,657bcbc420d87e63f1a096e7,0.034,0.034,0,53,53,131,1,sixeight,,,,,,,,,,,,,,,,,,,,,,,,,,,,,,,,,,,,,,,,,,,,,,,,,,,,,,,,,,,,,,,,,,,,,,,,,,,,,,,,,,,,,,,,,,,,,,,,,,,,,,,,,,,,,,,,,,,,,,,,,,,,,,,,,,,,,,,
,,6511e9adc4ba37678f5f1181,2023-12-15_14h41.06.428,kallum_motion_pilot,2023.2.3,Win32,60.0240096,6511e9adc4ba37678f5f1181,657bb317c8798c6608bceb3f,657bcbc420d87e63f1a096e7,0.034,0.034,0,54,54,19,1,twofour,,,,,,,,,,,,,,,,,,,,,,,,,,,,,,,,,,,,,,,,,,,,,,,,,,,,,,,,,,,,,,,,,,,,,,,,,,,,,,,,,,,,,,,,,,,,,,,,,,,,,,,,,,,,,,,,,,,,,,,,,,,,,,,,,,,,,,,
,,6511e9adc4ba37678f5f1181,2023-12-15_14h41.06.428,kallum_motion_pilot,2023.2.3,Win32,60.0240096,6511e9adc4ba37678f5f1181,657bb317c8798c6608bceb3f,657bcbc420d87e63f1a096e7,0.034,0.034,0,55,55,2,1,twoone,,,,,,,,,,,,,,,,,,,,,,,,,,,,,,,,,,,,,,,,,,,,,,,,,,,,,,,,,,,,,,,,,,,,,,,,,,,,,,,,,,,,,,,,,,,,,,,,,,,,,,,,,,,,,,,,,,,,,,,,,,,,,,,,,,,,,,,
,,6511e9adc4ba37678f5f1181,2023-12-15_14h41.06.428,kallum_motion_pilot,2023.2.3,Win32,60.0240096,6511e9adc4ba37678f5f1181,657bb317c8798c6608bceb3f,657bcbc420d87e63f1a096e7,0.034,0.034,0,56,56,39,1,fourthree,,,,,,,,,,,,,,,,,,,,,,,,,,,,,,,,,,,,,,,,,,,,,,,,,,,,,,,,,,,,,,,,,,,,,,,,,,,,,,,,,,,,,,,,,,,,,,,,,,,,,,,,,,,,,,,,,,,,,,,,,,,,,,,,,,,,,,,
,,6511e9adc4ba37678f5f1181,2023-12-15_14h41.06.428,kallum_motion_pilot,2023.2.3,Win32,60.0240096,6511e9adc4ba37678f5f1181,657bb317c8798c6608bceb3f,657bcbc420d87e63f1a096e7,0.034,0.034,0,57,57,43,1,twofour,,,,,,,,,,,,,,,,,,,,,,,,,,,,,,,,,,,,,,,,,,,,,,,,,,,,,,,,,,,,,,,,,,,,,,,,,,,,,,,,,,,,,,,,,,,,,,,,,,,,,,,,,,,,,,,,,,,,,,,,,,,,,,,,,,,,,,,
,,6511e9adc4ba37678f5f1181,2023-12-15_14h41.06.428,kallum_motion_pilot,2023.2.3,Win32,60.0240096,6511e9adc4ba37678f5f1181,657bb317c8798c6608bceb3f,657bcbc420d87e63f1a096e7,0.034,0.034,0,58,58,121,1,fiveseven,,,,,,,,,,,,,,,,,,,,,,,,,,,,,,,,,,,,,,,,,,,,,,,,,,,,,,,,,,,,,,,,,,,,,,,,,,,,,,,,,,,,,,,,,,,,,,,,,,,,,,,,,,,,,,,,,,,,,,,,,,,,,,,,,,,,,,,
,,6511e9adc4ba37678f5f1181,2023-12-15_14h41.06.428,kallum_motion_pilot,2023.2.3,Win32,60.0240096,6511e9adc4ba37678f5f1181,657bb317c8798c6608bceb3f,657bcbc420d87e63f1a096e7,0.034,0.034,0,59,59,93,1,seveneight,,,,,,,,,,,,,,,,,,,,,,,,,,,,,,,,,,,,,,,,,,,,,,,,,,,,,,,,,,,,,,,,,,,,,,,,,,,,,,,,,,,,,,,,,,,,,,,,,,,,,,,,,,,,,,,,,,,,,,,,,,,,,,,,,,,,,,,
,,6511e9adc4ba37678f5f1181,2023-12-15_14h41.06.428,kallum_motion_pilot,2023.2.3,Win32,60.0240096,6511e9adc4ba37678f5f1181,657bb317c8798c6608bceb3f,657bcbc420d87e63f1a096e7,0.034,0.034,0,60,60,72,1,onetwo,,,,,,,,,,,,,,,,,,,,,,,,,,,,,,,,,,,,,,,,,,,,,,,,,,,,,,,,,,,,,,,,,,,,,,,,,,,,,,,,,,,,,,,,,,,,,,,,,,,,,,,,,,,,,,,,,,,,,,,,,,,,,,,,,,,,,,,
,,6511e9adc4ba37678f5f1181,2023-12-15_14h41.06.428,kallum_motion_pilot,2023.2.3,Win32,60.0240096,6511e9adc4ba37678f5f1181,657bb317c8798c6608bceb3f,657bcbc420d87e63f1a096e7,0.035,0.035,0,61,61,21,1,threefour,,,,,,,,,,,,,,,,,,,,,,,,,,,,,,,,,,,,,,,,,,,,,,,,,,,,,,,,,,,,,,,,,,,,,,,,,,,,,,,,,,,,,,,,,,,,,,,,,,,,,,,,,,,,,,,,,,,,,,,,,,,,,,,,,,,,,,,
,,6511e9adc4ba37678f5f1181,2023-12-15_14h41.06.428,kallum_motion_pilot,2023.2.3,Win32,60.0240096,6511e9adc4ba37678f5f1181,657bb317c8798c6608bceb3f,657bcbc420d87e63f1a096e7,0.035,0.035,0,62,62,144,1,fivesix,,,,,,,,,,,,,,,,,,,,,,,,,,,,,,,,,,,,,,,,,,,,,,,,,,,,,,,,,,,,,,,,,,,,,,,,,,,,,,,,,,,,,,,,,,,,,,,,,,,,,,,,,,,,,,,,,,,,,,,,,,,,,,,,,,,,,,,
,,6511e9adc4ba37678f5f1181,2023-12-15_14h41.06.428,kallum_motion_pilot,2023.2.3,Win32,60.0240096,6511e9adc4ba37678f5f1181,657bb317c8798c6608bceb3f,657bcbc420d87e63f1a096e7,0.035,0.035,0,63,63,87,1,eightseven,,,,,,,,,,,,,,,,,,,,,,,,,,,,,,,,,,,,,,,,,,,,,,,,,,,,,,,,,,,,,,,,,,,,,,,,,,,,,,,,,,,,,,,,,,,,,,,,,,,,,,,,,,,,,,,,,,,,,,,,,,,,,,,,,,,,,,,
,,6511e9adc4ba37678f5f1181,2023-12-15_14h41.06.428,kallum_motion_pilot,2023.2.3,Win32,60.0240096,6511e9adc4ba37678f5f1181,657bb317c8798c6608bceb3f,657bcbc420d87e63f1a096e7,0.035,0.035,0,64,64,69,1,threefour,,,,,,,,,,,,,,,,,,,,,,,,,,,,,,,,,,,,,,,,,,,,,,,,,,,,,,,,,,,,,,,,,,,,,,,,,,,,,,,,,,,,,,,,,,,,,,,,,,,,,,,,,,,,,,,,,,,,,,,,,,,,,,,,,,,,,,,
,,6511e9adc4ba37678f5f1181,2023-12-15_14h41.06.428,kallum_motion_pilot,2023.2.3,Win32,60.0240096,6511e9adc4ba37678f5f1181,657bb317c8798c6608bceb3f,657bcbc420d87e63f1a096e7,0.035,0.035,0,65,65,33,1,onethree,,,,,,,,,,,,,,,,,,,,,,,,,,,,,,,,,,,,,,,,,,,,,,,,,,,,,,,,,,,,,,,,,,,,,,,,,,,,,,,,,,,,,,,,,,,,,,,,,,,,,,,,,,,,,,,,,,,,,,,,,,,,,,,,,,,,,,,
,,6511e9adc4ba37678f5f1181,2023-12-15_14h41.06.428,kallum_motion_pilot,2023.2.3,Win32,60.0240096,6511e9adc4ba37678f5f1181,657bb317c8798c6608bceb3f,657bcbc420d87e63f1a096e7,0.035,0.035,0,66,66,139,1,sixeight,,,,,,,,,,,,,,,,,,,,,,,,,,,,,,,,,,,,,,,,,,,,,,,,,,,,,,,,,,,,,,,,,,,,,,,,,,,,,,,,,,,,,,,,,,,,,,,,,,,,,,,,,,,,,,,,,,,,,,,,,,,,,,,,,,,,,,,
,,6511e9adc4ba37678f5f1181,2023-12-15_14h41.06.428,kallum_motion_pilot,2023.2.3,Win32,60.0240096,6511e9adc4ba37678f5f1181,657bb317c8798c6608bceb3f,657bcbc420d87e63f1a096e7,0.035,0.035,0,67,67,124,1,sevenfive,,,,,,,,,,,,,,,,,,,,,,,,,,,,,,,,,,,,,,,,,,,,,,,,,,,,,,,,,,,,,,,,,,,,,,,,,,,,,,,,,,,,,,,,,,,,,,,,,,,,,,,,,,,,,,,,,,,,,,,,,,,,,,,,,,,,,,,
,,6511e9adc4ba37678f5f1181,2023-12-15_14h41.06.428,kallum_motion_pilot,2023.2.3,Win32,60.0240096,6511e9adc4ba37678f5f1181,657bb317c8798c6608bceb3f,657bcbc420d87e63f1a096e7,0.035,0.035,0,68,68,76,1,threeone,,,,,,,,,,,,,,,,,,,,,,,,,,,,,,,,,,,,,,,,,,,,,,,,,,,,,,,,,,,,,,,,,,,,,,,,,,,,,,,,,,,,,,,,,,,,,,,,,,,,,,,,,,,,,,,,,,,,,,,,,,,,,,,,,,,,,,,
,,6511e9adc4ba37678f5f1181,2023-12-15_14h41.06.428,kallum_motion_pilot,2023.2.3,Win32,60.0240096,6511e9adc4ba37678f5f1181,657bb317c8798c6608bceb3f,657bcbc420d87e63f1a096e7,0.035,0.035,0,69,69,4,1,threeone,,,,,,,,,,,,,,,,,,,,,,,,,,,,,,,,,,,,,,,,,,,,,,,,,,,,,,,,,,,,,,,,,,,,,,,,,,,,,,,,,,,,,,,,,,,,,,,,,,,,,,,,,,,,,,,,,,,,,,,,,,,,,,,,,,,,,,,
,,6511e9adc4ba37678f5f1181,2023-12-15_14h41.06.428,kallum_motion_pilot,2023.2.3,Win32,60.0240096,6511e9adc4ba37678f5f1181,657bb317c8798c6608bceb3f,657bcbc420d87e63f1a096e7,0.035,0.035,0,70,70,145,1,fiveseven,,,,,,,,,,,,,,,,,,,,,,,,,,,,,,,,,,,,,,,,,,,,,,,,,,,,,,,,,,,,,,,,,,,,,,,,,,,,,,,,,,,,,,,,,,,,,,,,,,,,,,,,,,,,,,,,,,,,,,,,,,,,,,,,,,,,,,,
,,6511e9adc4ba37678f5f1181,2023-12-15_14h41.06.428,kallum_motion_pilot,2023.2.3,Win32,60.0240096,6511e9adc4ba37678f5f1181,657bb317c8798c6608bceb3f,657bcbc420d87e63f1a096e7,0.035,0.035,0,71,71,149,1,seveneight,,,,,,,,,,,,,,,,,,,,,,,,,,,,,,,,,,,,,,,,,,,,,,,,,,,,,,,,,,,,,,,,,,,,,,,,,,,,,,,,,,,,,,,,,,,,,,,,,,,,,,,,,,,,,,,,,,,,,,,,,,,,,,,,,,,,,,,
,,6511e9adc4ba37678f5f1181,2023-12-15_14h41.06.428,kallum_motion_pilot,2023.2.3,Win32,60.0240096,6511e9adc4ba37678f5f1181,657bb317c8798c6608bceb3f,657bcbc420d87e63f1a096e7,0.035,0.035,0,72,72,103,1,eightseven,,,,,,,,,,,,,,,,,,,,,,,,,,,,,,,,,,,,,,,,,,,,,,,,,,,,,,,,,,,,,,,,,,,,,,,,,,,,,,,,,,,,,,,,,,,,,,,,,,,,,,,,,,,,,,,,,,,,,,,,,,,,,,,,,,,,,,,
,,6511e9adc4ba37678f5f1181,2023-12-15_14h41.06.428,kallum_motion_pilot,2023.2.3,Win32,60.0240096,6511e9adc4ba37678f5f1181,657bb317c8798c6608bceb3f,657bcbc420d87e63f1a096e7,0.035,0.035,0,73,73,15,1,fourthree,,,,,,,,,,,,,,,,,,,,,,,,,,,,,,,,,,,,,,,,,,,,,,,,,,,,,,,,,,,,,,,,,,,,,,,,,,,,,,,,,,,,,,,,,,,,,,,,,,,,,,,,,,,,,,,,,,,,,,,,,,,,,,,,,,,,,,,
,,6511e9adc4ba37678f5f1181,2023-12-15_14h41.06.428,kallum_motion_pilot,2023.2.3,Win32,60.0240096,6511e9adc4ba37678f5f1181,657bb317c8798c6608bceb3f,657bcbc420d87e63f1a096e7,0.035,0.035,0,74,74,71,1,fourthree,,,,,,,,,,,,,,,,,,,,,,,,,,,,,,,,,,,,,,,,,,,,,,,,,,,,,,,,,,,,,,,,,,,,,,,,,,,,,,,,,,,,,,,,,,,,,,,,,,,,,,,,,,,,,,,,,,,,,,,,,,,,,,,,,,,,,,,
,,6511e9adc4ba37678f5f1181,2023-12-15_14h41.06.428,kallum_motion_pilot,2023.2.3,Win32,60.0240096,6511e9adc4ba37678f5f1181,657bb317c8798c6608bceb3f,657bcbc420d87e63f1a096e7,0.035,0.036,0,75,75,132,1,sevenfive,,,,,,,,,,,,,,,,,,,,,,,,,,,,,,,,,,,,,,,,,,,,,,,,,,,,,,,,,,,,,,,,,,,,,,,,,,,,,,,,,,,,,,,,,,,,,,,,,,,,,,,,,,,,,,,,,,,,,,,,,,,,,,,,,,,,,,,
,,6511e9adc4ba37678f5f1181,2023-12-15_14h41.06.428,kallum_motion_pilot,2023.2.3,Win32,60.0240096,6511e9adc4ba37678f5f1181,657bb317c8798c6608bceb3f,657bcbc420d87e63f1a096e7,0.036,0.036,0,76,76,79,1,eightseven,,,,,,,,,,,,,,,,,,,,,,,,,,,,,,,,,,,,,,,,,,,,,,,,,,,,,,,,,,,,,,,,,,,,,,,,,,,,,,,,,,,,,,,,,,,,,,,,,,,,,,,,,,,,,,,,,,,,,,,,,,,,,,,,,,,,,,,
,,6511e9adc4ba37678f5f1181,2023-12-15_14h41.06.428,kallum_motion_pilot,2023.2.3,Win32,60.0240096,6511e9adc4ba37678f5f1181,657bb317c8798c6608bceb3f,657bcbc420d87e63f1a096e7,0.036,0.036,0,77,77,64,1,onetwo,,,,,,,,,,,,,,,,,,,,,,,,,,,,,,,,,,,,,,,,,,,,,,,,,,,,,,,,,,,,,,,,,,,,,,,,,,,,,,,,,,,,,,,,,,,,,,,,,,,,,,,,,,,,,,,,,,,,,,,,,,,,,,,,,,,,,,,
,,6511e9adc4ba37678f5f1181,2023-12-15_14h41.06.428,kallum_motion_pilot,2023.2.3,Win32,60.0240096,6511e9adc4ba37678f5f1181,657bb317c8798c6608bceb3f,657bcbc420d87e63f1a096e7,0.036,0.036,0,78,78,85,1,seveneight,,,,,,,,,,,,,,,,,,,,,,,,,,,,,,,,,,,,,,,,,,,,,,,,,,,,,,,,,,,,,,,,,,,,,,,,,,,,,,,,,,,,,,,,,,,,,,,,,,,,,,,,,,,,,,,,,,,,,,,,,,,,,,,,,,,,,,,
,,6511e9adc4ba37678f5f1181,2023-12-15_14h41.06.428,kallum_motion_pilot,2023.2.3,Win32,60.0240096,6511e9adc4ba37678f5f1181,657bb317c8798c6608bceb3f,657bcbc420d87e63f1a096e7,0.036,0.036,0,79,79,44,1,threeone,,,,,,,,,,,,,,,,,,,,,,,,,,,,,,,,,,,,,,,,,,,,,,,,,,,,,,,,,,,,,,,,,,,,,,,,,,,,,,,,,,,,,,,,,,,,,,,,,,,,,,,,,,,,,,,,,,,,,,,,,,,,,,,,,,,,,,,
,,6511e9adc4ba37678f5f1181,2023-12-15_14h41.06.428,kallum_motion_pilot,2023.2.3,Win32,60.0240096,6511e9adc4ba37678f5f1181,657bb317c8798c6608bceb3f,657bcbc420d87e63f1a096e7,0.036,0.036,0,80,80,138,1,sixfive,,,,,,,,,,,,,,,,,,,,,,,,,,,,,,,,,,,,,,,,,,,,,,,,,,,,,,,,,,,,,,,,,,,,,,,,,,,,,,,,,,,,,,,,,,,,,,,,,,,,,,,,,,,,,,,,,,,,,,,,,,,,,,,,,,,,,,,
,,6511e9adc4ba37678f5f1181,2023-12-15_14h41.06.428,kallum_motion_pilot,2023.2.3,Win32,60.0240096,6511e9adc4ba37678f5f1181,657bb317c8798c6608bceb3f,657bcbc420d87e63f1a096e7,0.036,0.036,0,81,81,112,1,fivesix,,,,,,,,,,,,,,,,,,,,,,,,,,,,,,,,,,,,,,,,,,,,,,,,,,,,,,,,,,,,,,,,,,,,,,,,,,,,,,,,,,,,,,,,,,,,,,,,,,,,,,,,,,,,,,,,,,,,,,,,,,,,,,,,,,,,,,,
,,6511e9adc4ba37678f5f1181,2023-12-15_14h41.06.428,kallum_motion_pilot,2023.2.3,Win32,60.0240096,6511e9adc4ba37678f5f1181,657bb317c8798c6608bceb3f,657bcbc420d87e63f1a096e7,0.036,0.036,0,82,82,117,1,seveneight,,,,,,,,,,,,,,,,,,,,,,,,,,,,,,,,,,,,,,,,,,,,,,,,,,,,,,,,,,,,,,,,,,,,,,,,,,,,,,,,,,,,,,,,,,,,,,,,,,,,,,,,,,,,,,,,,,,,,,,,,,,,,,,,,,,,,,,
,,6511e9adc4ba37678f5f1181,2023-12-15_14h41.06.428,kallum_motion_pilot,2023.2.3,Win32,60.0240096,6511e9adc4ba37678f5f1181,657bb317c8798c6608bceb3f,657bcbc420d87e63f1a096e7,0.036,0.036,0,83,83,5,1,threefour,,,,,,,,,,,,,,,,,,,,,,,,,,,,,,,,,,,,,,,,,,,,,,,,,,,,,,,,,,,,,,,,,,,,,,,,,,,,,,,,,,,,,,,,,,,,,,,,,,,,,,,,,,,,,,,,,,,,,,,,,,,,,,,,,,,,,,,
,,6511e9adc4ba37678f5f1181,2023-12-15_14h41.06.428,kallum_motion_pilot,2023.2.3,Win32,60.0240096,6511e9adc4ba37678f5f1181,657bb317c8798c6608bceb3f,657bcbc420d87e63f1a096e7,0.036,0.036,0,84,84,94,1,eightsix,,,,,,,,,,,,,,,,,,,,,,,,,,,,,,,,,,,,,,,,,,,,,,,,,,,,,,,,,,,,,,,,,,,,,,,,,,,,,,,,,,,,,,,,,,,,,,,,,,,,,,,,,,,,,,,,,,,,,,,,,,,,,,,,,,,,,,,
,,6511e9adc4ba37678f5f1181,2023-12-15_14h41.06.428,kallum_motion_pilot,2023.2.3,Win32,60.0240096,6511e9adc4ba37678f5f1181,657bb317c8798c6608bceb3f,657bcbc420d87e63f1a096e7,0.036,0.036,0,85,85,22,1,fourtwo,,,,,,,,,,,,,,,,,,,,,,,,,,,,,,,,,,,,,,,,,,,,,,,,,,,,,,,,,,,,,,,,,,,,,,,,,,,,,,,,,,,,,,,,,,,,,,,,,,,,,,,,,,,,,,,,,,,,,,,,,,,,,,,,,,,,,,,
,,6511e9adc4ba37678f5f1181,2023-12-15_14h41.06.428,kallum_motion_pilot,2023.2.3,Win32,60.0240096,6511e9adc4ba37678f5f1181,657bb317c8798c6608bceb3f,657bcbc420d87e63f1a096e7,0.036,0.036,0,86,86,123,1,sixeight,,,,,,,,,,,,,,,,,,,,,,,,,,,,,,,,,,,,,,,,,,,,,,,,,,,,,,,,,,,,,,,,,,,,,,,,,,,,,,,,,,,,,,,,,,,,,,,,,,,,,,,,,,,,,,,,,,,,,,,,,,,,,,,,,,,,,,,
,,6511e9adc4ba37678f5f1181,2023-12-15_14h41.06.428,kallum_motion_pilot,2023.2.3,Win32,60.0240096,6511e9adc4ba37678f5f1181,657bb317c8798c6608bceb3f,657bcbc420d87e63f1a096e7,0.037,0.037,0,87,87,86,1,eightsix,,,,,,,,,,,,,,,,,,,,,,,,,,,,,,,,,,,,,,,,,,,,,,,,,,,,,,,,,,,,,,,,,,,,,,,,,,,,,,,,,,,,,,,,,,,,,,,,,,,,,,,,,,,,,,,,,,,,,,,,,,,,,,,,,,,,,,,
,,6511e9adc4ba37678f5f1181,2023-12-15_14h41.06.428,kallum_motion_pilot,2023.2.3,Win32,60.0240096,6511e9adc4ba37678f5f1181,657bb317c8798c6608bceb3f,657bcbc420d87e63f1a096e7,0.037,0.037,0,88,88,110,1,eightsix,,,,,,,,,,,,,,,,,,,,,,,,,,,,,,,,,,,,,,,,,,,,,,,,,,,,,,,,,,,,,,,,,,,,,,,,,,,,,,,,,,,,,,,,,,,,,,,,,,,,,,,,,,,,,,,,,,,,,,,,,,,,,,,,,,,,,,,
,,6511e9adc4ba37678f5f1181,2023-12-15_14h41.06.428,kallum_motion_pilot,2023.2.3,Win32,60.0240096,6511e9adc4ba37678f5f1181,657bb317c8798c6608bceb3f,657bcbc420d87e63f1a096e7,0.037,0.037,0,89,89,83,1,sixeight,,,,,,,,,,,,,,,,,,,,,,,,,,,,,,,,,,,,,,,,,,,,,,,,,,,,,,,,,,,,,,,,,,,,,,,,,,,,,,,,,,,,,,,,,,,,,,,,,,,,,,,,,,,,,,,,,,,,,,,,,,,,,,,,,,,,,,,
,,6511e9adc4ba37678f5f1181,2023-12-15_14h41.06.428,kallum_motion_pilot,2023.2.3,Win32,60.0240096,6511e9adc4ba37678f5f1181,657bb317c8798c6608bceb3f,657bcbc420d87e63f1a096e7,0.037,0.037,0,90,90,48,1,onetwo,,,,,,,,,,,,,,,,,,,,,,,,,,,,,,,,,,,,,,,,,,,,,,,,,,,,,,,,,,,,,,,,,,,,,,,,,,,,,,,,,,,,,,,,,,,,,,,,,,,,,,,,,,,,,,,,,,,,,,,,,,,,,,,,,,,,,,,
,,6511e9adc4ba37678f5f1181,2023-12-15_14h41.06.428,kallum_motion_pilot,2023.2.3,Win32,60.0240096,6511e9adc4ba37678f5f1181,657bb317c8798c6608bceb3f,657bcbc420d87e63f1a096e7,0.037,0.037,0,91,91,16,1,onetwo,,,,,,,,,,,,,,,,,,,,,,,,,,,,,,,,,,,,,,,,,,,,,,,,,,,,,,,,,,,,,,,,,,,,,,,,,,,,,,,,,,,,,,,,,,,,,,,,,,,,,,,,,,,,,,,,,,,,,,,,,,,,,,,,,,,,,,,
,,6511e9adc4ba37678f5f1181,2023-12-15_14h41.06.428,kallum_motion_pilot,2023.2.3,Win32,60.0240096,6511e9adc4ba37678f5f1181,657bb317c8798c6608bceb3f,657bcbc420d87e63f1a096e7,0.037,0.037,0,92,92,157,1,seveneight,,,,,,,,,,,,,,,,,,,,,,,,,,,,,,,,,,,,,,,,,,,,,,,,,,,,,,,,,,,,,,,,,,,,,,,,,,,,,,,,,,,,,,,,,,,,,,,,,,,,,,,,,,,,,,,,,,,,,,,,,,,,,,,,,,,,,,,
,,6511e9adc4ba37678f5f1181,2023-12-15_14h41.06.428,kallum_motion_pilot,2023.2.3,Win32,60.0240096,6511e9adc4ba37678f5f1181,657bb317c8798c6608bceb3f,657bcbc420d87e63f1a096e7,0.037,0.037,0,93,93,3,1,twofour,,,,,,,,,,,,,,,,,,,,,,,,,,,,,,,,,,,,,,,,,,,,,,,,,,,,,,,,,,,,,,,,,,,,,,,,,,,,,,,,,,,,,,,,,,,,,,,,,,,,,,,,,,,,,,,,,,,,,,,,,,,,,,,,,,,,,,,
,,6511e9adc4ba37678f5f1181,2023-12-15_14h41.06.428,kallum_motion_pilot,2023.2.3,Win32,60.0240096,6511e9adc4ba37678f5f1181,657bb317c8798c6608bceb3f,657bcbc420d87e63f1a096e7,0.037,0.037,0,94,94,38,1,fourtwo,,,,,,,,,,,,,,,,,,,,,,,,,,,,,,,,,,,,,,,,,,,,,,,,,,,,,,,,,,,,,,,,,,,,,,,,,,,,,,,,,,,,,,,,,,,,,,,,,,,,,,,,,,,,,,,,,,,,,,,,,,,,,,,,,,,,,,,
,,6511e9adc4ba37678f5f1181,2023-12-15_14h41.06.428,kallum_motion_pilot,2023.2.3,Win32,60.0240096,6511e9adc4ba37678f5f1181,657bb317c8798c6608bceb3f,657bcbc420d87e63f1a096e7,0.037,0.037,0,95,95,27,1,twofour,,,,,,,,,,,,,,,,,,,,,,,,,,,,,,,,,,,,,,,,,,,,,,,,,,,,,,,,,,,,,,,,,,,,,,,,,,,,,,,,,,,,,,,,,,,,,,,,,,,,,,,,,,,,,,,,,,,,,,,,,,,,,,,,,,,,,,,
,,6511e9adc4ba37678f5f1181,2023-12-15_14h41.06.428,kallum_motion_pilot,2023.2.3,Win32,60.0240096,6511e9adc4ba37678f5f1181,657bb317c8798c6608bceb3f,657bcbc420d87e63f1a096e7,0.037,0.037,0,96,96,119,1,eightseven,,,,,,,,,,,,,,,,,,,,,,,,,,,,,,,,,,,,,,,,,,,,,,,,,,,,,,,,,,,,,,,,,,,,,,,,,,,,,,,,,,,,,,,,,,,,,,,,,,,,,,,,,,,,,,,,,,,,,,,,,,,,,,,,,,,,,,,
,,6511e9adc4ba37678f5f1181,2023-12-15_14h41.06.428,kallum_motion_pilot,2023.2.3,Win32,60.0240096,6511e9adc4ba37678f5f1181,657bb317c8798c6608bceb3f,657bcbc420d87e63f1a096e7,0.037,0.037,0,97,97,140,1,sevenfive,,,,,,,,,,,,,,,,,,,,,,,,,,,,,,,,,,,,,,,,,,,,,,,,,,,,,,,,,,,,,,,,,,,,,,,,,,,,,,,,,,,,,,,,,,,,,,,,,,,,,,,,,,,,,,,,,,,,,,,,,,,,,,,,,,,,,,,
,,6511e9adc4ba37678f5f1181,2023-12-15_14h41.06.428,kallum_motion_pilot,2023.2.3,Win32,60.0240096,6511e9adc4ba37678f5f1181,657bb317c8798c6608bceb3f,657bcbc420d87e63f1a096e7,0.037,0.037,0,98,98,106,1,sixfive,,,,,,,,,,,,,,,,,,,,,,,,,,,,,,,,,,,,,,,,,,,,,,,,,,,,,,,,,,,,,,,,,,,,,,,,,,,,,,,,,,,,,,,,,,,,,,,,,,,,,,,,,,,,,,,,,,,,,,,,,,,,,,,,,,,,,,,
,,6511e9adc4ba37678f5f1181,2023-12-15_14h41.06.428,kallum_motion_pilot,2023.2.3,Win32,60.0240096,6511e9adc4ba37678f5f1181,657bb317c8798c6608bceb3f,657bcbc420d87e63f1a096e7,0.037,0.037,0,99,99,101,1,seveneight,,,,,,,,,,,,,,,,,,,,,,,,,,,,,,,,,,,,,,,,,,,,,,,,,,,,,,,,,,,,,,,,,,,,,,,,,,,,,,,,,,,,,,,,,,,,,,,,,,,,,,,,,,,,,,,,,,,,,,,,,,,,,,,,,,,,,,,
,,6511e9adc4ba37678f5f1181,2023-12-15_14h41.06.428,kallum_motion_pilot,2023.2.3,Win32,60.0240096,6511e9adc4ba37678f5f1181,657bb317c8798c6608bceb3f,657bcbc420d87e63f1a096e7,0.037,0.037,0,100,100,96,1,fivesix,,,,,,,,,,,,,,,,,,,,,,,,,,,,,,,,,,,,,,,,,,,,,,,,,,,,,,,,,,,,,,,,,,,,,,,,,,,,,,,,,,,,,,,,,,,,,,,,,,,,,,,,,,,,,,,,,,,,,,,,,,,,,,,,,,,,,,,
,,6511e9adc4ba37678f5f1181,2023-12-15_14h41.06.428,kallum_motion_pilot,2023.2.3,Win32,60.0240096,6511e9adc4ba37678f5f1181,657bb317c8798c6608bceb3f,657bcbc420d87e63f1a096e7,0.037,0.037,0,101,101,136,1,fivesix,,,,,,,,,,,,,,,,,,,,,,,,,,,,,,,,,,,,,,,,,,,,,,,,,,,,,,,,,,,,,,,,,,,,,,,,,,,,,,,,,,,,,,,,,,,,,,,,,,,,,,,,,,,,,,,,,,,,,,,,,,,,,,,,,,,,,,,
,,6511e9adc4ba37678f5f1181,2023-12-15_14h41.06.428,kallum_motion_pilot,2023.2.3,Win32,60.0240096,6511e9adc4ba37678f5f1181,657bb317c8798c6608bceb3f,657bcbc420d87e63f1a096e7,0.038,0.038,0,102,102,126,1,eightsix,,,,,,,,,,,,,,,,,,,,,,,,,,,,,,,,,,,,,,,,,,,,,,,,,,,,,,,,,,,,,,,,,,,,,,,,,,,,,,,,,,,,,,,,,,,,,,,,,,,,,,,,,,,,,,,,,,,,,,,,,,,,,,,,,,,,,,,
,,6511e9adc4ba37678f5f1181,2023-12-15_14h41.06.428,kallum_motion_pilot,2023.2.3,Win32,60.0240096,6511e9adc4ba37678f5f1181,657bb317c8798c6608bceb3f,657bcbc420d87e63f1a096e7,0.038,0.038,0,103,103,141,1,seveneight,,,,,,,,,,,,,,,,,,,,,,,,,,,,,,,,,,,,,,,,,,,,,,,,,,,,,,,,,,,,,,,,,,,,,,,,,,,,,,,,,,,,,,,,,,,,,,,,,,,,,,,,,,,,,,,,,,,,,,,,,,,,,,,,,,,,,,,
,,6511e9adc4ba37678f5f1181,2023-12-15_14h41.06.428,kallum_motion_pilot,2023.2.3,Win32,60.0240096,6511e9adc4ba37678f5f1181,657bb317c8798c6608bceb3f,657bcbc420d87e63f1a096e7,0.038,0.038,0,104,104,100,1,sevenfive,,,,,,,,,,,,,,,,,,,,,,,,,,,,,,,,,,,,,,,,,,,,,,,,,,,,,,,,,,,,,,,,,,,,,,,,,,,,,,,,,,,,,,,,,,,,,,,,,,,,,,,,,,,,,,,,,,,,,,,,,,,,,,,,,,,,,,,
,,6511e9adc4ba37678f5f1181,2023-12-15_14h41.06.428,kallum_motion_pilot,2023.2.3,Win32,60.0240096,6511e9adc4ba37678f5f1181,657bb317c8798c6608bceb3f,657bcbc420d87e63f1a096e7,0.038,0.038,0,105,105,1,1,onethree,,,,,,,,,,,,,,,,,,,,,,,,,,,,,,,,,,,,,,,,,,,,,,,,,,,,,,,,,,,,,,,,,,,,,,,,,,,,,,,,,,,,,,,,,,,,,,,,,,,,,,,,,,,,,,,,,,,,,,,,,,,,,,,,,,,,,,,
,,6511e9adc4ba37678f5f1181,2023-12-15_14h41.06.428,kallum_motion_pilot,2023.2.3,Win32,60.0240096,6511e9adc4ba37678f5f1181,657bb317c8798c6608bceb3f,657bcbc420d87e63f1a096e7,0.038,0.038,0,106,106,160,1,fivesix,,,,,,,,,,,,,,,,,,,,,,,,,,,,,,,,,,,,,,,,,,,,,,,,,,,,,,,,,,,,,,,,,,,,,,,,,,,,,,,,,,,,,,,,,,,,,,,,,,,,,,,,,,,,,,,,,,,,,,,,,,,,,,,,,,,,,,,
,,6511e9adc4ba37678f5f1181,2023-12-15_14h41.06.428,kallum_motion_pilot,2023.2.3,Win32,60.0240096,6511e9adc4ba37678f5f1181,657bb317c8798c6608bceb3f,657bcbc420d87e63f1a096e7,0.038,0.038,0,107,107,155,1,sixeight,,,,,,,,,,,,,,,,,,,,,,,,,,,,,,,,,,,,,,,,,,,,,,,,,,,,,,,,,,,,,,,,,,,,,,,,,,,,,,,,,,,,,,,,,,,,,,,,,,,,,,,,,,,,,,,,,,,,,,,,,,,,,,,,,,,,,,,
,,6511e9adc4ba37678f5f1181,2023-12-15_14h41.06.428,kallum_motion_pilot,2023.2.3,Win32,60.0240096,6511e9adc4ba37678f5f1181,657bb317c8798c6608bceb3f,657bcbc420d87e63f1a096e7,0.038,0.038,0,108,108,105,1,fiveseven,,,,,,,,,,,,,,,,,,,,,,,,,,,,,,,,,,,,,,,,,,,,,,,,,,,,,,,,,,,,,,,,,,,,,,,,,,,,,,,,,,,,,,,,,,,,,,,,,,,,,,,,,,,,,,,,,,,,,,,,,,,,,,,,,,,,,,,
,,6511e9adc4ba37678f5f1181,2023-12-15_14h41.06.428,kallum_motion_pilot,2023.2.3,Win32,60.0240096,6511e9adc4ba37678f5f1181,657bb317c8798c6608bceb3f,657bcbc420d87e63f1a096e7,0.038,0.038,0,109,109,113,1,fiveseven,,,,,,,,,,,,,,,,,,,,,,,,,,,,,,,,,,,,,,,,,,,,,,,,,,,,,,,,,,,,,,,,,,,,,,,,,,,,,,,,,,,,,,,,,,,,,,,,,,,,,,,,,,,,,,,,,,,,,,,,,,,,,,,,,,,,,,,
,,6511e9adc4ba37678f5f1181,2023-12-15_14h41.06.428,kallum_motion_pilot,2023.2.3,Win32,60.0240096,6511e9adc4ba37678f5f1181,657bb317c8798c6608bceb3f,657bcbc420d87e63f1a096e7,0.038,0.038,0,110,110,7,1,fourthree,,,,,,,,,,,,,,,,,,,,,,,,,,,,,,,,,,,,,,,,,,,,,,,,,,,,,,,,,,,,,,,,,,,,,,,,,,,,,,,,,,,,,,,,,,,,,,,,,,,,,,,,,,,,,,,,,,,,,,,,,,,,,,,,,,,,,,,
,,6511e9adc4ba37678f5f1181,2023-12-15_14h41.06.428,kallum_motion_pilot,2023.2.3,Win32,60.0240096,6511e9adc4ba37678f5f1181,657bb317c8798c6608bceb3f,657bcbc420d87e63f1a096e7,0.038,0.038,0,111,111,125,1,seveneight,,,,,,,,,,,,,,,,,,,,,,,,,,,,,,,,,,,,,,,,,,,,,,,,,,,,,,,,,,,,,,,,,,,,,,,,,,,,,,,,,,,,,,,,,,,,,,,,,,,,,,,,,,,,,,,,,,,,,,,,,,,,,,,,,,,,,,,
,,6511e9adc4ba37678f5f1181,2023-12-15_14h41.06.428,kallum_motion_pilot,2023.2.3,Win32,60.0240096,6511e9adc4ba37678f5f1181,657bb317c8798c6608bceb3f,657bcbc420d87e63f1a096e7,0.038,0.038,0,112,112,161,1,fiveseven,,,,,,,,,,,,,,,,,,,,,,,,,,,,,,,,,,,,,,,,,,,,,,,,,,,,,,,,,,,,,,,,,,,,,,,,,,,,,,,,,,,,,,,,,,,,,,,,,,,,,,,,,,,,,,,,,,,,,,,,,,,,,,,,,,,,,,,
,,6511e9adc4ba37678f5f1181,2023-12-15_14h41.06.428,kallum_motion_pilot,2023.2.3,Win32,60.0240096,6511e9adc4ba37678f5f1181,657bb317c8798c6608bceb3f,657bcbc420d87e63f1a096e7,0.038,0.038,0,113,113,40,1,onetwo,,,,,,,,,,,,,,,,,,,,,,,,,,,,,,,,,,,,,,,,,,,,,,,,,,,,,,,,,,,,,,,,,,,,,,,,,,,,,,,,,,,,,,,,,,,,,,,,,,,,,,,,,,,,,,,,,,,,,,,,,,,,,,,,,,,,,,,
,,6511e9adc4ba37678f5f1181,2023-12-15_14h41.06.428,kallum_motion_pilot,2023.2.3,Win32,60.0240096,6511e9adc4ba37678f5f1181,657bb317c8798c6608bceb3f,657bcbc420d87e63f1a096e7,0.038,0.038,0,114,114,109,1,seveneight,,,,,,,,,,,,,,,,,,,,,,,,,,,,,,,,,,,,,,,,,,,,,,,,,,,,,,,,,,,,,,,,,,,,,,,,,,,,,,,,,,,,,,,,,,,,,,,,,,,,,,,,,,,,,,,,,,,,,,,,,,,,,,,,,,,,,,,
,,6511e9adc4ba37678f5f1181,2023-12-15_14h41.06.428,kallum_motion_pilot,2023.2.3,Win32,60.0240096,6511e9adc4ba37678f5f1181,657bb317c8798c6608bceb3f,657bcbc420d87e63f1a096e7,0.038,0.038,0,115,115,29,1,threefour,,,,,,,,,,,,,,,,,,,,,,,,,,,,,,,,,,,,,,,,,,,,,,,,,,,,,,,,,,,,,,,,,,,,,,,,,,,,,,,,,,,,,,,,,,,,,,,,,,,,,,,,,,,,,,,,,,,,,,,,,,,,,,,,,,,,,,,
,,6511e9adc4ba37678f5f1181,2023-12-15_14h41.06.428,kallum_motion_pilot,2023.2.3,Win32,60.0240096,6511e9adc4ba37678f5f1181,657bb317c8798c6608bceb3f,657bcbc420d87e63f1a096e7,0.038,0.038,0,116,116,116,1,sevenfive,,,,,,,,,,,,,,,,,,,,,,,,,,,,,,,,,,,,,,,,,,,,,,,,,,,,,,,,,,,,,,,,,,,,,,,,,,,,,,,,,,,,,,,,,,,,,,,,,,,,,,,,,,,,,,,,,,,,,,,,,,,,,,,,,,,,,,,
,,6511e9adc4ba37678f5f1181,2023-12-15_14h41.06.428,kallum_motion_pilot,2023.2.3,Win32,60.0240096,6511e9adc4ba37678f5f1181,657bb317c8798c6608bceb3f,657bcbc420d87e63f1a096e7,0.039,0.039,0,117,117,142,1,eightsix,,,,,,,,,,,,,,,,,,,,,,,,,,,,,,,,,,,,,,,,,,,,,,,,,,,,,,,,,,,,,,,,,,,,,,,,,,,,,,,,,,,,,,,,,,,,,,,,,,,,,,,,,,,,,,,,,,,,,,,,,,,,,,,,,,,,,,,
,,6511e9adc4ba37678f5f1181,2023-12-15_14h41.06.428,kallum_motion_pilot,2023.2.3,Win32,60.0240096,6511e9adc4ba37678f5f1181,657bb317c8798c6608bceb3f,657bcbc420d87e63f1a096e7,0.039,0.039,0,118,118,50,1,twoone,,,,,,,,,,,,,,,,,,,,,,,,,,,,,,,,,,,,,,,,,,,,,,,,,,,,,,,,,,,,,,,,,,,,,,,,,,,,,,,,,,,,,,,,,,,,,,,,,,,,,,,,,,,,,,,,,,,,,,,,,,,,,,,,,,,,,,,
,,6511e9adc4ba37678f5f1181,2023-12-15_14h41.06.428,kallum_motion_pilot,2023.2.3,Win32,60.0240096,6511e9adc4ba37678f5f1181,657bb317c8798c6608bceb3f,657bcbc420d87e63f1a096e7,0.039,0.039,0,119,119,82,1,sixfive,,,,,,,,,,,,,,,,,,,,,,,,,,,,,,,,,,,,,,,,,,,,,,,,,,,,,,,,,,,,,,,,,,,,,,,,,,,,,,,,,,,,,,,,,,,,,,,,,,,,,,,,,,,,,,,,,,,,,,,,,,,,,,,,,,,,,,,
,,6511e9adc4ba37678f5f1181,2023-12-15_14h41.06.428,kallum_motion_pilot,2023.2.3,Win32,60.0240096,6511e9adc4ba37678f5f1181,657bb317c8798c6608bceb3f,657bcbc420d87e63f1a096e7,0.039,0.039,0,120,120,92,1,sevenfive,,,,,,,,,,,,,,,,,,,,,,,,,,,,,,,,,,,,,,,,,,,,,,,,,,,,,,,,,,,,,,,,,,,,,,,,,,,,,,,,,,,,,,,,,,,,,,,,,,,,,,,,,,,,,,,,,,,,,,,,,,,,,,,,,,,,,,,
,,6511e9adc4ba37678f5f1181,2023-12-15_14h41.06.428,kallum_motion_pilot,2023.2.3,Win32,60.0240096,6511e9adc4ba37678f5f1181,657bb317c8798c6608bceb3f,657bcbc420d87e63f1a096e7,0.039,0.039,0,121,121,65,1,onethree,,,,,,,,,,,,,,,,,,,,,,,,,,,,,,,,,,,,,,,,,,,,,,,,,,,,,,,,,,,,,,,,,,,,,,,,,,,,,,,,,,,,,,,,,,,,,,,,,,,,,,,,,,,,,,,,,,,,,,,,,,,,,,,,,,,,,,,
,,6511e9adc4ba37678f5f1181,2023-12-15_14h41.06.428,kallum_motion_pilot,2023.2.3,Win32,60.0240096,6511e9adc4ba37678f5f1181,657bb317c8798c6608bceb3f,657bcbc420d87e63f1a096e7,0.039,0.039,0,122,122,18,1,twoone,,,,,,,,,,,,,,,,,,,,,,,,,,,,,,,,,,,,,,,,,,,,,,,,,,,,,,,,,,,,,,,,,,,,,,,,,,,,,,,,,,,,,,,,,,,,,,,,,,,,,,,,,,,,,,,,,,,,,,,,,,,,,,,,,,,,,,,
,,6511e9adc4ba37678f5f1181,2023-12-15_14h41.06.428,kallum_motion_pilot,2023.2.3,Win32,60.0240096,6511e9adc4ba37678f5f1181,657bb317c8798c6608bceb3f,657bcbc420d87e63f1a096e7,0.039,0.039,0,123,123,88,1,fivesix,,,,,,,,,,,,,,,,,,,,,,,,,,,,,,,,,,,,,,,,,,,,,,,,,,,,,,,,,,,,,,,,,,,,,,,,,,,,,,,,,,,,,,,,,,,,,,,,,,,,,,,,,,,,,,,,,,,,,,,,,,,,,,,,,,,,,,,
,,6511e9adc4ba37678f5f1181,2023-12-15_14h41.06.428,kallum_motion_pilot,2023.2.3,Win32,60.0240096,6511e9adc4ba37678f5f1181,657bb317c8798c6608bceb3f,657bcbc420d87e63f1a096e7,0.039,0.039,0,124,124,159,1,eightseven,,,,,,,,,,,,,,,,,,,,,,,,,,,,,,,,,,,,,,,,,,,,,,,,,,,,,,,,,,,,,,,,,,,,,,,,,,,,,,,,,,,,,,,,,,,,,,,,,,,,,,,,,,,,,,,,,,,,,,,,,,,,,,,,,,,,,,,
,,6511e9adc4ba37678f5f1181,2023-12-15_14h41.06.428,kallum_motion_pilot,2023.2.3,Win32,60.0240096,6511e9adc4ba37678f5f1181,657bb317c8798c6608bceb3f,657bcbc420d87e63f1a096e7,0.039,0.039,0,125,125,54,1,fourtwo,,,,,,,,,,,,,,,,,,,,,,,,,,,,,,,,,,,,,,,,,,,,,,,,,,,,,,,,,,,,,,,,,,,,,,,,,,,,,,,,,,,,,,,,,,,,,,,,,,,,,,,,,,,,,,,,,,,,,,,,,,,,,,,,,,,,,,,
,,6511e9adc4ba37678f5f1181,2023-12-15_14h41.06.428,kallum_motion_pilot,2023.2.3,Win32,60.0240096,6511e9adc4ba37678f5f1181,657bb317c8798c6608bceb3f,657bcbc420d87e63f1a096e7,0.039,0.039,0,126,126,90,1,sixfive,,,,,,,,,,,,,,,,,,,,,,,,,,,,,,,,,,,,,,,,,,,,,,,,,,,,,,,,,,,,,,,,,,,,,,,,,,,,,,,,,,,,,,,,,,,,,,,,,,,,,,,,,,,,,,,,,,,,,,,,,,,,,,,,,,,,,,,
,,6511e9adc4ba37678f5f1181,2023-12-15_14h41.06.428,kallum_motion_pilot,2023.2.3,Win32,60.0240096,6511e9adc4ba37678f5f1181,657bb317c8798c6608bceb3f,657bcbc420d87e63f1a096e7,0.039,0.039,0,127,127,148,1,sevenfive,,,,,,,,,,,,,,,,,,,,,,,,,,,,,,,,,,,,,,,,,,,,,,,,,,,,,,,,,,,,,,,,,,,,,,,,,,,,,,,,,,,,,,,,,,,,,,,,,,,,,,,,,,,,,,,,,,,,,,,,,,,,,,,,,,,,,,,
,,6511e9adc4ba37678f5f1181,2023-12-15_14h41.06.428,kallum_motion_pilot,2023.2.3,Win32,60.0240096,6511e9adc4ba37678f5f1181,657bb317c8798c6608bceb3f,657bcbc420d87e63f1a096e7,0.039,0.039,0,128,128,91,1,sixeight,,,,,,,,,,,,,,,,,,,,,,,,,,,,,,,,,,,,,,,,,,,,,,,,,,,,,,,,,,,,,,,,,,,,,,,,,,,,,,,,,,,,,,,,,,,,,,,,,,,,,,,,,,,,,,,,,,,,,,,,,,,,,,,,,,,,,,,
,,6511e9adc4ba37678f5f1181,2023-12-15_14h41.06.428,kallum_motion_pilot,2023.2.3,Win32,60.0240096,6511e9adc4ba37678f5f1181,657bb317c8798c6608bceb3f,657bcbc420d87e63f1a096e7,0.04,0.04,0,129,129,84,1,sevenfive,,,,,,,,,,,,,,,,,,,,,,,,,,,,,,,,,,,,,,,,,,,,,,,,,,,,,,,,,,,,,,,,,,,,,,,,,,,,,,,,,,,,,,,,,,,,,,,,,,,,,,,,,,,,,,,,,,,,,,,,,,,,,,,,,,,,,,,
,,6511e9adc4ba37678f5f1181,2023-12-15_14h41.06.428,kallum_motion_pilot,2023.2.3,Win32,60.0240096,6511e9adc4ba37678f5f1181,657bb317c8798c6608bceb3f,657bcbc420d87e63f1a096e7,0.04,0.04,0,130,130,102,1,eightsix,,,,,,,,,,,,,,,,,,,,,,,,,,,,,,,,,,,,,,,,,,,,,,,,,,,,,,,,,,,,,,,,,,,,,,,,,,,,,,,,,,,,,,,,,,,,,,,,,,,,,,,,,,,,,,,,,,,,,,,,,,,,,,,,,,,,,,,
,,6511e9adc4ba37678f5f1181,2023-12-15_14h41.06.428,kallum_motion_pilot,2023.2.3,Win32,60.0240096,6511e9adc4ba37678f5f1181,657bb317c8798c6608bceb3f,657bcbc420d87e63f1a096e7,0.04,0.04,0,131,131,9,1,onethree,,,,,,,,,,,,,,,,,,,,,,,,,,,,,,,,,,,,,,,,,,,,,,,,,,,,,,,,,,,,,,,,,,,,,,,,,,,,,,,,,,,,,,,,,,,,,,,,,,,,,,,,,,,,,,,,,,,,,,,,,,,,,,,,,,,,,,,
,,6511e9adc4ba37678f5f1181,2023-12-15_14h41.06.428,kallum_motion_pilot,2023.2.3,Win32,60.0240096,6511e9adc4ba37678f5f1181,657bb317c8798c6608bceb3f,657bcbc420d87e63f1a096e7,0.04,0.04,0,132,132,61,1,threefour,,,,,,,,,,,,,,,,,,,,,,,,,,,,,,,,,,,,,,,,,,,,,,,,,,,,,,,,,,,,,,,,,,,,,,,,,,,,,,,,,,,,,,,,,,,,,,,,,,,,,,,,,,,,,,,,,,,,,,,,,,,,,,,,,,,,,,,
,,6511e9adc4ba37678f5f1181,2023-12-15_14h41.06.428,kallum_motion_pilot,2023.2.3,Win32,60.0240096,6511e9adc4ba37678f5f1181,657bb317c8798c6608bceb3f,657bcbc420d87e63f1a096e7,0.04,0.04,0,133,133,34,1,twoone,,,,,,,,,,,,,,,,,,,,,,,,,,,,,,,,,,,,,,,,,,,,,,,,,,,,,,,,,,,,,,,,,,,,,,,,,,,,,,,,,,,,,,,,,,,,,,,,,,,,,,,,,,,,,,,,,,,,,,,,,,,,,,,,,,,,,,,
,,6511e9adc4ba37678f5f1181,2023-12-15_14h41.06.428,kallum_motion_pilot,2023.2.3,Win32,60.0240096,6511e9adc4ba37678f5f1181,657bb317c8798c6608bceb3f,657bcbc420d87e63f1a096e7,0.04,0.04,0,134,134,51,1,twofour,,,,,,,,,,,,,,,,,,,,,,,,,,,,,,,,,,,,,,,,,,,,,,,,,,,,,,,,,,,,,,,,,,,,,,,,,,,,,,,,,,,,,,,,,,,,,,,,,,,,,,,,,,,,,,,,,,,,,,,,,,,,,,,,,,,,,,,
,,6511e9adc4ba37678f5f1181,2023-12-15_14h41.06.428,kallum_motion_pilot,2023.2.3,Win32,60.0240096,6511e9adc4ba37678f5f1181,657bb317c8798c6608bceb3f,657bcbc420d87e63f1a096e7,0.04,0.04,0,135,135,26,1,twoone,,,,,,,,,,,,,,,,,,,,,,,,,,,,,,,,,,,,,,,,,,,,,,,,,,,,,,,,,,,,,,,,,,,,,,,,,,,,,,,,,,,,,,,,,,,,,,,,,,,,,,,,,,,,,,,,,,,,,,,,,,,,,,,,,,,,,,,
,,6511e9adc4ba37678f5f1181,2023-12-15_14h41.06.428,kallum_motion_pilot,2023.2.3,Win32,60.0240096,6511e9adc4ba37678f5f1181,657bb317c8798c6608bceb3f,657bcbc420d87e63f1a096e7,0.04,0.04,0,136,136,146,1,sixfive,,,,,,,,,,,,,,,,,,,,,,,,,,,,,,,,,,,,,,,,,,,,,,,,,,,,,,,,,,,,,,,,,,,,,,,,,,,,,,,,,,,,,,,,,,,,,,,,,,,,,,,,,,,,,,,,,,,,,,,,,,,,,,,,,,,,,,,
,,6511e9adc4ba37678f5f1181,2023-12-15_14h41.06.428,kallum_motion_pilot,2023.2.3,Win32,60.0240096,6511e9adc4ba37678f5f1181,657bb317c8798c6608bceb3f,657bcbc420d87e63f1a096e7,0.04,0.04,0,137,137,158,1,eightsix,,,,,,,,,,,,,,,,,,,,,,,,,,,,,,,,,,,,,,,,,,,,,,,,,,,,,,,,,,,,,,,,,,,,,,,,,,,,,,,,,,,,,,,,,,,,,,,,,,,,,,,,,,,,,,,,,,,,,,,,,,,,,,,,,,,,,,,
,,6511e9adc4ba37678f5f1181,2023-12-15_14h41.06.428,kallum_motion_pilot,2023.2.3,Win32,60.0240096,6511e9adc4ba37678f5f1181,657bb317c8798c6608bceb3f,657bcbc420d87e63f1a096e7,0.04,0.04,0,138,138,10,1,twoone,,,,,,,,,,,,,,,,,,,,,,,,,,,,,,,,,,,,,,,,,,,,,,,,,,,,,,,,,,,,,,,,,,,,,,,,,,,,,,,,,,,,,,,,,,,,,,,,,,,,,,,,,,,,,,,,,,,,,,,,,,,,,,,,,,,,,,,
,,6511e9adc4ba37678f5f1181,2023-12-15_14h41.06.428,kallum_motion_pilot,2023.2.3,Win32,60.0240096,6511e9adc4ba37678f5f1181,657bb317c8798c6608bceb3f,657bcbc420d87e63f1a096e7,0.04,0.04,0,139,139,118,1,eightsix,,,,,,,,,,,,,,,,,,,,,,,,,,,,,,,,,,,,,,,,,,,,,,,,,,,,,,,,,,,,,,,,,,,,,,,,,,,,,,,,,,,,,,,,,,,,,,,,,,,,,,,,,,,,,,,,,,,,,,,,,,,,,,,,,,,,,,,
,,6511e9adc4ba37678f5f1181,2023-12-15_14h41.06.428,kallum_motion_pilot,2023.2.3,Win32,60.0240096,6511e9adc4ba37678f5f1181,657bb317c8798c6608bceb3f,657bcbc420d87e63f1a096e7,0.041,0.041,0,140,140,73,1,onethree,,,,,,,,,,,,,,,,,,,,,,,,,,,,,,,,,,,,,,,,,,,,,,,,,,,,,,,,,,,,,,,,,,,,,,,,,,,,,,,,,,,,,,,,,,,,,,,,,,,,,,,,,,,,,,,,,,,,,,,,,,,,,,,,,,,,,,,
,,6511e9adc4ba37678f5f1181,2023-12-15_14h41.06.428,kallum_motion_pilot,2023.2.3,Win32,60.0240096,6511e9adc4ba37678f5f1181,657bb317c8798c6608bceb3f,657bcbc420d87e63f1a096e7,0.041,0.041,0,141,141,130,1,sixfive,,,,,,,,,,,,,,,,,,,,,,,,,,,,,,,,,,,,,,,,,,,,,,,,,,,,,,,,,,,,,,,,,,,,,,,,,,,,,,,,,,,,,,,,,,,,,,,,,,,,,,,,,,,,,,,,,,,,,,,,,,,,,,,,,,,,,,,
,,6511e9adc4ba37678f5f1181,2023-12-15_14h41.06.428,kallum_motion_pilot,2023.2.3,Win32,60.0240096,6511e9adc4ba37678f5f1181,657bb317c8798c6608bceb3f,657bcbc420d87e63f1a096e7,0.041,0.041,0,142,142,60,1,threeone,,,,,,,,,,,,,,,,,,,,,,,,,,,,,,,,,,,,,,,,,,,,,,,,,,,,,,,,,,,,,,,,,,,,,,,,,,,,,,,,,,,,,,,,,,,,,,,,,,,,,,,,,,,,,,,,,,,,,,,,,,,,,,,,,,,,,,,
,,6511e9adc4ba37678f5f1181,2023-12-15_14h41.06.428,kallum_motion_pilot,2023.2.3,Win32,60.0240096,6511e9adc4ba37678f5f1181,657bb317c8798c6608bceb3f,657bcbc420d87e63f1a096e7,0.041,0.041,0,143,143,104,1,fivesix,,,,,,,,,,,,,,,,,,,,,,,,,,,,,,,,,,,,,,,,,,,,,,,,,,,,,,,,,,,,,,,,,,,,,,,,,,,,,,,,,,,,,,,,,,,,,,,,,,,,,,,,,,,,,,,,,,,,,,,,,,,,,,,,,,,,,,,
,,6511e9adc4ba37678f5f1181,2023-12-15_14h41.06.428,kallum_motion_pilot,2023.2.3,Win32,60.0240096,6511e9adc4ba37678f5f1181,657bb317c8798c6608bceb3f,657bcbc420d87e63f1a096e7,0.041,0.041,0,144,144,57,1,onethree,,,,,,,,,,,,,,,,,,,,,,,,,,,,,,,,,,,,,,,,,,,,,,,,,,,,,,,,,,,,,,,,,,,,,,,,,,,,,,,,,,,,,,,,,,,,,,,,,,,,,,,,,,,,,,,,,,,,,,,,,,,,,,,,,,,,,,,
,,6511e9adc4ba37678f5f1181,2023-12-15_14h41.06.428,kallum_motion_pilot,2023.2.3,Win32,60.0240096,6511e9adc4ba37678f5f1181,657bb317c8798c6608bceb3f,657bcbc420d87e63f1a096e7,0.041,0.041,0,145,145,63,1,fourthree,,,,,,,,,,,,,,,,,,,,,,,,,,,,,,,,,,,,,,,,,,,,,,,,,,,,,,,,,,,,,,,,,,,,,,,,,,,,,,,,,,,,,,,,,,,,,,,,,,,,,,,,,,,,,,,,,,,,,,,,,,,,,,,,,,,,,,,
,,6511e9adc4ba37678f5f1181,2023-12-15_14h41.06.428,kallum_motion_pilot,2023.2.3,Win32,60.0240096,6511e9adc4ba37678f5f1181,657bb317c8798c6608bceb3f,657bcbc420d87e63f1a096e7,0.041,0.041,0,146,146,23,1,fourthree,,,,,,,,,,,,,,,,,,,,,,,,,,,,,,,,,,,,,,,,,,,,,,,,,,,,,,,,,,,,,,,,,,,,,,,,,,,,,,,,,,,,,,,,,,,,,,,,,,,,,,,,,,,,,,,,,,,,,,,,,,,,,,,,,,,,,,,
,,6511e9adc4ba37678f5f1181,2023-12-15_14h41.06.428,kallum_motion_pilot,2023.2.3,Win32,60.0240096,6511e9adc4ba37678f5f1181,657bb317c8798c6608bceb3f,657bcbc420d87e63f1a096e7,0.041,0.041,0,147,147,55,1,fourthree,,,,,,,,,,,,,,,,,,,,,,,,,,,,,,,,,,,,,,,,,,,,,,,,,,,,,,,,,,,,,,,,,,,,,,,,,,,,,,,,,,,,,,,,,,,,,,,,,,,,,,,,,,,,,,,,,,,,,,,,,,,,,,,,,,,,,,,
,,6511e9adc4ba37678f5f1181,2023-12-15_14h41.06.428,kallum_motion_pilot,2023.2.3,Win32,60.0240096,6511e9adc4ba37678f5f1181,657bb317c8798c6608bceb3f,657bcbc420d87e63f1a096e7,0.041,0.041,0,148,148,120,1,fivesix,,,,,,,,,,,,,,,,,,,,,,,,,,,,,,,,,,,,,,,,,,,,,,,,,,,,,,,,,,,,,,,,,,,,,,,,,,,,,,,,,,,,,,,,,,,,,,,,,,,,,,,,,,,,,,,,,,,,,,,,,,,,,,,,,,,,,,,
,,6511e9adc4ba37678f5f1181,2023-12-15_14h41.06.428,kallum_motion_pilot,2023.2.3,Win32,60.0240096,6511e9adc4ba37678f5f1181,657bb317c8798c6608bceb3f,657bcbc420d87e63f1a096e7,0.041,0.041,0,149,149,32,1,onetwo,,,,,,,,,,,,,,,,,,,,,,,,,,,,,,,,,,,,,,,,,,,,,,,,,,,,,,,,,,,,,,,,,,,,,,,,,,,,,,,,,,,,,,,,,,,,,,,,,,,,,,,,,,,,,,,,,,,,,,,,,,,,,,,,,,,,,,,
,,6511e9adc4ba37678f5f1181,2023-12-15_14h41.06.428,kallum_motion_pilot,2023.2.3,Win32,60.0240096,6511e9adc4ba37678f5f1181,657bb317c8798c6608bceb3f,657bcbc420d87e63f1a096e7,0.041,0.041,0,150,150,20,1,threeone,,,,,,,,,,,,,,,,,,,,,,,,,,,,,,,,,,,,,,,,,,,,,,,,,,,,,,,,,,,,,,,,,,,,,,,,,,,,,,,,,,,,,,,,,,,,,,,,,,,,,,,,,,,,,,,,,,,,,,,,,,,,,,,,,,,,,,,
,,6511e9adc4ba37678f5f1181,2023-12-15_14h41.06.428,kallum_motion_pilot,2023.2.3,Win32,60.0240096,6511e9adc4ba37678f5f1181,657bb317c8798c6608bceb3f,657bcbc420d87e63f1a096e7,0.041,0.041,0,151,151,150,1,eightsix,,,,,,,,,,,,,,,,,,,,,,,,,,,,,,,,,,,,,,,,,,,,,,,,,,,,,,,,,,,,,,,,,,,,,,,,,,,,,,,,,,,,,,,,,,,,,,,,,,,,,,,,,,,,,,,,,,,,,,,,,,,,,,,,,,,,,,,
,,6511e9adc4ba37678f5f1181,2023-12-15_14h41.06.428,kallum_motion_pilot,2023.2.3,Win32,60.0240096,6511e9adc4ba37678f5f1181,657bb317c8798c6608bceb3f,657bcbc420d87e63f1a096e7,0.042,0.042,0,152,152,99,1,sixeight,,,,,,,,,,,,,,,,,,,,,,,,,,,,,,,,,,,,,,,,,,,,,,,,,,,,,,,,,,,,,,,,,,,,,,,,,,,,,,,,,,,,,,,,,,,,,,,,,,,,,,,,,,,,,,,,,,,,,,,,,,,,,,,,,,,,,,,
,,6511e9adc4ba37678f5f1181,2023-12-15_14h41.06.428,kallum_motion_pilot,2023.2.3,Win32,60.0240096,6511e9adc4ba37678f5f1181,657bb317c8798c6608bceb3f,657bcbc420d87e63f1a096e7,0.042,0.042,0,153,153,151,1,eightseven,,,,,,,,,,,,,,,,,,,,,,,,,,,,,,,,,,,,,,,,,,,,,,,,,,,,,,,,,,,,,,,,,,,,,,,,,,,,,,,,,,,,,,,,,,,,,,,,,,,,,,,,,,,,,,,,,,,,,,,,,,,,,,,,,,,,,,,
,,6511e9adc4ba37678f5f1181,2023-12-15_14h41.06.428,kallum_motion_pilot,2023.2.3,Win32,60.0240096,6511e9adc4ba37678f5f1181,657bb317c8798c6608bceb3f,657bcbc420d87e63f1a096e7,0.042,0.042,0,154,154,147,1,sixeight,,,,,,,,,,,,,,,,,,,,,,,,,,,,,,,,,,,,,,,,,,,,,,,,,,,,,,,,,,,,,,,,,,,,,,,,,,,,,,,,,,,,,,,,,,,,,,,,,,,,,,,,,,,,,,,,,,,,,,,,,,,,,,,,,,,,,,,
,,6511e9adc4ba37678f5f1181,2023-12-15_14h41.06.428,kallum_motion_pilot,2023.2.3,Win32,60.0240096,6511e9adc4ba37678f5f1181,657bb317c8798c6608bceb3f,657bcbc420d87e63f1a096e7,0.042,0.042,0,155,155,115,1,sixeight,,,,,,,,,,,,,,,,,,,,,,,,,,,,,,,,,,,,,,,,,,,,,,,,,,,,,,,,,,,,,,,,,,,,,,,,,,,,,,,,,,,,,,,,,,,,,,,,,,,,,,,,,,,,,,,,,,,,,,,,,,,,,,,,,,,,,,,
,,6511e9adc4ba37678f5f1181,2023-12-15_14h41.06.428,kallum_motion_pilot,2023.2.3,Win32,60.0240096,6511e9adc4ba37678f5f1181,657bb317c8798c6608bceb3f,657bcbc420d87e63f1a096e7,0.042,0.042,0,156,156,81,1,fiveseven,,,,,,,,,,,,,,,,,,,,,,,,,,,,,,,,,,,,,,,,,,,,,,,,,,,,,,,,,,,,,,,,,,,,,,,,,,,,,,,,,,,,,,,,,,,,,,,,,,,,,,,,,,,,,,,,,,,,,,,,,,,,,,,,,,,,,,,
,,6511e9adc4ba37678f5f1181,2023-12-15_14h41.06.428,kallum_motion_pilot,2023.2.3,Win32,60.0240096,6511e9adc4ba37678f5f1181,657bb317c8798c6608bceb3f,657bcbc420d87e63f1a096e7,0.042,0.042,0,157,157,111,1,eightseven,,,,,,,,,,,,,,,,,,,,,,,,,,,,,,,,,,,,,,,,,,,,,,,,,,,,,,,,,,,,,,,,,,,,,,,,,,,,,,,,,,,,,,,,,,,,,,,,,,,,,,,,,,,,,,,,,,,,,,,,,,,,,,,,,,,,,,,
,,6511e9adc4ba37678f5f1181,2023-12-15_14h41.06.428,kallum_motion_pilot,2023.2.3,Win32,60.0240096,6511e9adc4ba37678f5f1181,657bb317c8798c6608bceb3f,657bcbc420d87e63f1a096e7,0.042,0.042,0,158,158,17,1,onethree,,,,,,,,,,,,,,,,,,,,,,,,,,,,,,,,,,,,,,,,,,,,,,,,,,,,,,,,,,,,,,,,,,,,,,,,,,,,,,,,,,,,,,,,,,,,,,,,,,,,,,,,,,,,,,,,,,,,,,,,,,,,,,,,,,,,,,,
,,6511e9adc4ba37678f5f1181,2023-12-15_14h41.06.428,kallum_motion_pilot,2023.2.3,Win32,60.0240096,6511e9adc4ba37678f5f1181,657bb317c8798c6608bceb3f,657bcbc420d87e63f1a096e7,0.043,0.043,0,159,159,143,1,eightseven,,,,,,,,,,,,,,,,,,,,,,,,,,,,,,,,,,,,,,,,,,,,,,,,,,,,,,,,,,,,,,,,,,,,,,,,,,,,,,,,,,,,,,,,,,,,,,,,,,,,,,,,,,,,,,,,,,,,,,,,,,,,,,,,,,,,,,,
,,6511e9adc4ba37678f5f1181,2023-12-15_14h41.06.428,kallum_motion_pilot,2023.2.3,Win32,60.0240096,6511e9adc4ba37678f5f1181,657bb317c8798c6608bceb3f,657bcbc420d87e63f1a096e7,0.043,0.043,0,160,160,49,1,onethree,,,,,,,,,,,,,,,,,,,,,,,,,,,,,,,,,,,,,,,,,,,,,,,,,,,,,,,,,,,,,,,,,,,,,,,,,,,,,,,,,,,,,,,,,,,,,,,,,,,,,,,,,,,,,,,,,,,,,,,,,,,,,,,,,,,,,,,
,,6511e9adc4ba37678f5f1181,2023-12-15_14h41.06.428,kallum_motion_pilot,2023.2.3,Win32,60.0240096,6511e9adc4ba37678f5f1181,657bb317c8798c6608bceb3f,657bcbc420d87e63f1a096e7,0.043,0.043,0,161,161,36,1,threeone,,,,,,,,,,,,,,,,,,,,,,,,,,,,,,,,,,,,,,,,,,,,,,,,,,,,,,,,,,,,,,,,,,,,,,,,,,,,,,,,,,,,,,,,,,,,,,,,,,,,,,,,,,,,,,,,,,,,,,,,,,,,,,,,,,,,,,,
,,6511e9adc4ba37678f5f1181,2023-12-15_14h41.06.428,kallum_motion_pilot,2023.2.3,Win32,60.0240096,6511e9adc4ba37678f5f1181,657bb317c8798c6608bceb3f,657bcbc420d87e63f1a096e7,0.043,0.043,1,0,162,14,1,fourtwo,,,,,,,,,,,,,,,,,,,,,,,,,,,,,,,,,,,,,,,,,,,,,,,,,,,,,,,,,,,,,,,,,,,,,,,,,,,,,,,,,,,,,,,,,,,,,,,,,,,,,,,,,,,,,,,,,,,,,,,,,,,,,,,,,,,,,,,
,,6511e9adc4ba37678f5f1181,2023-12-15_14h41.06.428,kallum_motion_pilot,2023.2.3,Win32,60.0240096,6511e9adc4ba37678f5f1181,657bb317c8798c6608bceb3f,657bcbc420d87e63f1a096e7,0.044,0.044,1,1,163,34,1,twoone,,,,,,,,,,,,,,,,,,,,,,,,,,,,,,,,,,,,,,,,,,,,,,,,,,,,,,,,,,,,,,,,,,,,,,,,,,,,,,,,,,,,,,,,,,,,,,,,,,,,,,,,,,,,,,,,,,,,,,,,,,,,,,,,,,,,,,,
,,6511e9adc4ba37678f5f1181,2023-12-15_14h41.06.428,kallum_motion_pilot,2023.2.3,Win32,60.0240096,6511e9adc4ba37678f5f1181,657bb317c8798c6608bceb3f,657bcbc420d87e63f1a096e7,0.044,0.044,1,2,164,117,1,seveneight,,,,,,,,,,,,,,,,,,,,,,,,,,,,,,,,,,,,,,,,,,,,,,,,,,,,,,,,,,,,,,,,,,,,,,,,,,,,,,,,,,,,,,,,,,,,,,,,,,,,,,,,,,,,,,,,,,,,,,,,,,,,,,,,,,,,,,,
,,6511e9adc4ba37678f5f1181,2023-12-15_14h41.06.428,kallum_motion_pilot,2023.2.3,Win32,60.0240096,6511e9adc4ba37678f5f1181,657bb317c8798c6608bceb3f,657bcbc420d87e63f1a096e7,0.044,0.044,1,3,165,151,1,eightseven,,,,,,,,,,,,,,,,,,,,,,,,,,,,,,,,,,,,,,,,,,,,,,,,,,,,,,,,,,,,,,,,,,,,,,,,,,,,,,,,,,,,,,,,,,,,,,,,,,,,,,,,,,,,,,,,,,,,,,,,,,,,,,,,,,,,,,,
,,6511e9adc4ba37678f5f1181,2023-12-15_14h41.06.428,kallum_motion_pilot,2023.2.3,Win32,60.0240096,6511e9adc4ba37678f5f1181,657bb317c8798c6608bceb3f,657bcbc420d87e63f1a096e7,0.044,0.044,1,4,166,37,1,threefour,,,,,,,,,,,,,,,,,,,,,,,,,,,,,,,,,,,,,,,,,,,,,,,,,,,,,,,,,,,,,,,,,,,,,,,,,,,,,,,,,,,,,,,,,,,,,,,,,,,,,,,,,,,,,,,,,,,,,,,,,,,,,,,,,,,,,,,
,,6511e9adc4ba37678f5f1181,2023-12-15_14h41.06.428,kallum_motion_pilot,2023.2.3,Win32,60.0240096,6511e9adc4ba37678f5f1181,657bb317c8798c6608bceb3f,657bcbc420d87e63f1a096e7,0.044,0.044,1,5,167,71,1,fourthree,,,,,,,,,,,,,,,,,,,,,,,,,,,,,,,,,,,,,,,,,,,,,,,,,,,,,,,,,,,,,,,,,,,,,,,,,,,,,,,,,,,,,,,,,,,,,,,,,,,,,,,,,,,,,,,,,,,,,,,,,,,,,,,,,,,,,,,
,,6511e9adc4ba37678f5f1181,2023-12-15_14h41.06.428,kallum_motion_pilot,2023.2.3,Win32,60.0240096,6511e9adc4ba37678f5f1181,657bb317c8798c6608bceb3f,657bcbc420d87e63f1a096e7,0.044,0.044,1,6,168,77,1,threefour,,,,,,,,,,,,,,,,,,,,,,,,,,,,,,,,,,,,,,,,,,,,,,,,,,,,,,,,,,,,,,,,,,,,,,,,,,,,,,,,,,,,,,,,,,,,,,,,,,,,,,,,,,,,,,,,,,,,,,,,,,,,,,,,,,,,,,,
,,6511e9adc4ba37678f5f1181,2023-12-15_14h41.06.428,kallum_motion_pilot,2023.2.3,Win32,60.0240096,6511e9adc4ba37678f5f1181,657bb317c8798c6608bceb3f,657bcbc420d87e63f1a096e7,0.044,0.045,1,7,169,74,1,twoone,,,,,,,,,,,,,,,,,,,,,,,,,,,,,,,,,,,,,,,,,,,,,,,,,,,,,,,,,,,,,,,,,,,,,,,,,,,,,,,,,,,,,,,,,,,,,,,,,,,,,,,,,,,,,,,,,,,,,,,,,,,,,,,,,,,,,,,
,,6511e9adc4ba37678f5f1181,2023-12-15_14h41.06.428,kallum_motion_pilot,2023.2.3,Win32,60.0240096,6511e9adc4ba37678f5f1181,657bb317c8798c6608bceb3f,657bcbc420d87e63f1a096e7,0.045,0.045,1,8,170,88,1,fivesix,,,,,,,,,,,,,,,,,,,,,,,,,,,,,,,,,,,,,,,,,,,,,,,,,,,,,,,,,,,,,,,,,,,,,,,,,,,,,,,,,,,,,,,,,,,,,,,,,,,,,,,,,,,,,,,,,,,,,,,,,,,,,,,,,,,,,,,
,,6511e9adc4ba37678f5f1181,2023-12-15_14h41.06.428,kallum_motion_pilot,2023.2.3,Win32,60.0240096,6511e9adc4ba37678f5f1181,657bb317c8798c6608bceb3f,657bcbc420d87e63f1a096e7,0.045,0.045,1,9,171,17,1,onethree,,,,,,,,,,,,,,,,,,,,,,,,,,,,,,,,,,,,,,,,,,,,,,,,,,,,,,,,,,,,,,,,,,,,,,,,,,,,,,,,,,,,,,,,,,,,,,,,,,,,,,,,,,,,,,,,,,,,,,,,,,,,,,,,,,,,,,,
,,6511e9adc4ba37678f5f1181,2023-12-15_14h41.06.428,kallum_motion_pilot,2023.2.3,Win32,60.0240096,6511e9adc4ba37678f5f1181,657bb317c8798c6608bceb3f,657bcbc420d87e63f1a096e7,0.045,0.045,1,10,172,67,1,twofour,,,,,,,,,,,,,,,,,,,,,,,,,,,,,,,,,,,,,,,,,,,,,,,,,,,,,,,,,,,,,,,,,,,,,,,,,,,,,,,,,,,,,,,,,,,,,,,,,,,,,,,,,,,,,,,,,,,,,,,,,,,,,,,,,,,,,,,
,,6511e9adc4ba37678f5f1181,2023-12-15_14h41.06.428,kallum_motion_pilot,2023.2.3,Win32,60.0240096,6511e9adc4ba37678f5f1181,657bb317c8798c6608bceb3f,657bcbc420d87e63f1a096e7,0.045,0.045,1,11,173,35,1,twofour,,,,,,,,,,,,,,,,,,,,,,,,,,,,,,,,,,,,,,,,,,,,,,,,,,,,,,,,,,,,,,,,,,,,,,,,,,,,,,,,,,,,,,,,,,,,,,,,,,,,,,,,,,,,,,,,,,,,,,,,,,,,,,,,,,,,,,,
,,6511e9adc4ba37678f5f1181,2023-12-15_14h41.06.428,kallum_motion_pilot,2023.2.3,Win32,60.0240096,6511e9adc4ba37678f5f1181,657bb317c8798c6608bceb3f,657bcbc420d87e63f1a096e7,0.045,0.045,1,12,174,18,1,twoone,,,,,,,,,,,,,,,,,,,,,,,,,,,,,,,,,,,,,,,,,,,,,,,,,,,,,,,,,,,,,,,,,,,,,,,,,,,,,,,,,,,,,,,,,,,,,,,,,,,,,,,,,,,,,,,,,,,,,,,,,,,,,,,,,,,,,,,
,,6511e9adc4ba37678f5f1181,2023-12-15_14h41.06.428,kallum_motion_pilot,2023.2.3,Win32,60.0240096,6511e9adc4ba37678f5f1181,657bb317c8798c6608bceb3f,657bcbc420d87e63f1a096e7,0.045,0.045,1,13,175,126,1,eightsix,,,,,,,,,,,,,,,,,,,,,,,,,,,,,,,,,,,,,,,,,,,,,,,,,,,,,,,,,,,,,,,,,,,,,,,,,,,,,,,,,,,,,,,,,,,,,,,,,,,,,,,,,,,,,,,,,,,,,,,,,,,,,,,,,,,,,,,
,,6511e9adc4ba37678f5f1181,2023-12-15_14h41.06.428,kallum_motion_pilot,2023.2.3,Win32,60.0240096,6511e9adc4ba37678f5f1181,657bb317c8798c6608bceb3f,657bcbc420d87e63f1a096e7,0.045,0.045,1,14,176,28,1,threeone,,,,,,,,,,,,,,,,,,,,,,,,,,,,,,,,,,,,,,,,,,,,,,,,,,,,,,,,,,,,,,,,,,,,,,,,,,,,,,,,,,,,,,,,,,,,,,,,,,,,,,,,,,,,,,,,,,,,,,,,,,,,,,,,,,,,,,,
,,6511e9adc4ba37678f5f1181,2023-12-15_14h41.06.428,kallum_motion_pilot,2023.2.3,Win32,60.0240096,6511e9adc4ba37678f5f1181,657bb317c8798c6608bceb3f,657bcbc420d87e63f1a096e7,0.045,0.045,1,15,177,105,1,fiveseven,,,,,,,,,,,,,,,,,,,,,,,,,,,,,,,,,,,,,,,,,,,,,,,,,,,,,,,,,,,,,,,,,,,,,,,,,,,,,,,,,,,,,,,,,,,,,,,,,,,,,,,,,,,,,,,,,,,,,,,,,,,,,,,,,,,,,,,
,,6511e9adc4ba37678f5f1181,2023-12-15_14h41.06.428,kallum_motion_pilot,2023.2.3,Win32,60.0240096,6511e9adc4ba37678f5f1181,657bb317c8798c6608bceb3f,657bcbc420d87e63f1a096e7,0.045,0.045,1,16,178,44,1,threeone,,,,,,,,,,,,,,,,,,,,,,,,,,,,,,,,,,,,,,,,,,,,,,,,,,,,,,,,,,,,,,,,,,,,,,,,,,,,,,,,,,,,,,,,,,,,,,,,,,,,,,,,,,,,,,,,,,,,,,,,,,,,,,,,,,,,,,,
,,6511e9adc4ba37678f5f1181,2023-12-15_14h41.06.428,kallum_motion_pilot,2023.2.3,Win32,60.0240096,6511e9adc4ba37678f5f1181,657bb317c8798c6608bceb3f,657bcbc420d87e63f1a096e7,0.045,0.045,1,17,179,128,1,fivesix,,,,,,,,,,,,,,,,,,,,,,,,,,,,,,,,,,,,,,,,,,,,,,,,,,,,,,,,,,,,,,,,,,,,,,,,,,,,,,,,,,,,,,,,,,,,,,,,,,,,,,,,,,,,,,,,,,,,,,,,,,,,,,,,,,,,,,,
,,6511e9adc4ba37678f5f1181,2023-12-15_14h41.06.428,kallum_motion_pilot,2023.2.3,Win32,60.0240096,6511e9adc4ba37678f5f1181,657bb317c8798c6608bceb3f,657bcbc420d87e63f1a096e7,0.045,0.045,1,18,180,8,1,onetwo,,,,,,,,,,,,,,,,,,,,,,,,,,,,,,,,,,,,,,,,,,,,,,,,,,,,,,,,,,,,,,,,,,,,,,,,,,,,,,,,,,,,,,,,,,,,,,,,,,,,,,,,,,,,,,,,,,,,,,,,,,,,,,,,,,,,,,,
,,6511e9adc4ba37678f5f1181,2023-12-15_14h41.06.428,kallum_motion_pilot,2023.2.3,Win32,60.0240096,6511e9adc4ba37678f5f1181,657bb317c8798c6608bceb3f,657bcbc420d87e63f1a096e7,0.045,0.045,1,19,181,16,1,onetwo,,,,,,,,,,,,,,,,,,,,,,,,,,,,,,,,,,,,,,,,,,,,,,,,,,,,,,,,,,,,,,,,,,,,,,,,,,,,,,,,,,,,,,,,,,,,,,,,,,,,,,,,,,,,,,,,,,,,,,,,,,,,,,,,,,,,,,,
,,6511e9adc4ba37678f5f1181,2023-12-15_14h41.06.428,kallum_motion_pilot,2023.2.3,Win32,60.0240096,6511e9adc4ba37678f5f1181,657bb317c8798c6608bceb3f,657bcbc420d87e63f1a096e7,0.045,0.045,1,20,182,156,1,sevenfive,,,,,,,,,,,,,,,,,,,,,,,,,,,,,,,,,,,,,,,,,,,,,,,,,,,,,,,,,,,,,,,,,,,,,,,,,,,,,,,,,,,,,,,,,,,,,,,,,,,,,,,,,,,,,,,,,,,,,,,,,,,,,,,,,,,,,,,
,,6511e9adc4ba37678f5f1181,2023-12-15_14h41.06.428,kallum_motion_pilot,2023.2.3,Win32,60.0240096,6511e9adc4ba37678f5f1181,657bb317c8798c6608bceb3f,657bcbc420d87e63f1a096e7,0.045,0.045,1,21,183,111,1,eightseven,,,,,,,,,,,,,,,,,,,,,,,,,,,,,,,,,,,,,,,,,,,,,,,,,,,,,,,,,,,,,,,,,,,,,,,,,,,,,,,,,,,,,,,,,,,,,,,,,,,,,,,,,,,,,,,,,,,,,,,,,,,,,,,,,,,,,,,
,,6511e9adc4ba37678f5f1181,2023-12-15_14h41.06.428,kallum_motion_pilot,2023.2.3,Win32,60.0240096,6511e9adc4ba37678f5f1181,657bb317c8798c6608bceb3f,657bcbc420d87e63f1a096e7,0.045,0.045,1,22,184,140,1,sevenfive,,,,,,,,,,,,,,,,,,,,,,,,,,,,,,,,,,,,,,,,,,,,,,,,,,,,,,,,,,,,,,,,,,,,,,,,,,,,,,,,,,,,,,,,,,,,,,,,,,,,,,,,,,,,,,,,,,,,,,,,,,,,,,,,,,,,,,,
,,6511e9adc4ba37678f5f1181,2023-12-15_14h41.06.428,kallum_motion_pilot,2023.2.3,Win32,60.0240096,6511e9adc4ba37678f5f1181,657bb317c8798c6608bceb3f,657bcbc420d87e63f1a096e7,0.045,0.045,1,23,185,104,1,fivesix,,,,,,,,,,,,,,,,,,,,,,,,,,,,,,,,,,,,,,,,,,,,,,,,,,,,,,,,,,,,,,,,,,,,,,,,,,,,,,,,,,,,,,,,,,,,,,,,,,,,,,,,,,,,,,,,,,,,,,,,,,,,,,,,,,,,,,,
,,6511e9adc4ba37678f5f1181,2023-12-15_14h41.06.428,kallum_motion_pilot,2023.2.3,Win32,60.0240096,6511e9adc4ba37678f5f1181,657bb317c8798c6608bceb3f,657bcbc420d87e63f1a096e7,0.045,0.045,1,24,186,43,1,twofour,,,,,,,,,,,,,,,,,,,,,,,,,,,,,,,,,,,,,,,,,,,,,,,,,,,,,,,,,,,,,,,,,,,,,,,,,,,,,,,,,,,,,,,,,,,,,,,,,,,,,,,,,,,,,,,,,,,,,,,,,,,,,,,,,,,,,,,
,,6511e9adc4ba37678f5f1181,2023-12-15_14h41.06.428,kallum_motion_pilot,2023.2.3,Win32,60.0240096,6511e9adc4ba37678f5f1181,657bb317c8798c6608bceb3f,657bcbc420d87e63f1a096e7,0.046,0.046,1,25,187,41,1,onethree,,,,,,,,,,,,,,,,,,,,,,,,,,,,,,,,,,,,,,,,,,,,,,,,,,,,,,,,,,,,,,,,,,,,,,,,,,,,,,,,,,,,,,,,,,,,,,,,,,,,,,,,,,,,,,,,,,,,,,,,,,,,,,,,,,,,,,,
,,6511e9adc4ba37678f5f1181,2023-12-15_14h41.06.428,kallum_motion_pilot,2023.2.3,Win32,60.0240096,6511e9adc4ba37678f5f1181,657bb317c8798c6608bceb3f,657bcbc420d87e63f1a096e7,0.046,0.046,1,26,188,48,1,onetwo,,,,,,,,,,,,,,,,,,,,,,,,,,,,,,,,,,,,,,,,,,,,,,,,,,,,,,,,,,,,,,,,,,,,,,,,,,,,,,,,,,,,,,,,,,,,,,,,,,,,,,,,,,,,,,,,,,,,,,,,,,,,,,,,,,,,,,,
,,6511e9adc4ba37678f5f1181,2023-12-15_14h41.06.428,kallum_motion_pilot,2023.2.3,Win32,60.0240096,6511e9adc4ba37678f5f1181,657bb317c8798c6608bceb3f,657bcbc420d87e63f1a096e7,0.046,0.046,1,27,189,121,1,fiveseven,,,,,,,,,,,,,,,,,,,,,,,,,,,,,,,,,,,,,,,,,,,,,,,,,,,,,,,,,,,,,,,,,,,,,,,,,,,,,,,,,,,,,,,,,,,,,,,,,,,,,,,,,,,,,,,,,,,,,,,,,,,,,,,,,,,,,,,
,,6511e9adc4ba37678f5f1181,2023-12-15_14h41.06.428,kallum_motion_pilot,2023.2.3,Win32,60.0240096,6511e9adc4ba37678f5f1181,657bb317c8798c6608bceb3f,657bcbc420d87e63f1a096e7,0.046,0.046,1,28,190,25,1,onethree,,,,,,,,,,,,,,,,,,,,,,,,,,,,,,,,,,,,,,,,,,,,,,,,,,,,,,,,,,,,,,,,,,,,,,,,,,,,,,,,,,,,,,,,,,,,,,,,,,,,,,,,,,,,,,,,,,,,,,,,,,,,,,,,,,,,,,,
,,6511e9adc4ba37678f5f1181,2023-12-15_14h41.06.428,kallum_motion_pilot,2023.2.3,Win32,60.0240096,6511e9adc4ba37678f5f1181,657bb317c8798c6608bceb3f,657bcbc420d87e63f1a096e7,0.046,0.046,1,29,191,152,1,fivesix,,,,,,,,,,,,,,,,,,,,,,,,,,,,,,,,,,,,,,,,,,,,,,,,,,,,,,,,,,,,,,,,,,,,,,,,,,,,,,,,,,,,,,,,,,,,,,,,,,,,,,,,,,,,,,,,,,,,,,,,,,,,,,,,,,,,,,,
,,6511e9adc4ba37678f5f1181,2023-12-15_14h41.06.428,kallum_motion_pilot,2023.2.3,Win32,60.0240096,6511e9adc4ba37678f5f1181,657bb317c8798c6608bceb3f,657bcbc420d87e63f1a096e7,0.046,0.046,1,30,192,109,1,seveneight,,,,,,,,,,,,,,,,,,,,,,,,,,,,,,,,,,,,,,,,,,,,,,,,,,,,,,,,,,,,,,,,,,,,,,,,,,,,,,,,,,,,,,,,,,,,,,,,,,,,,,,,,,,,,,,,,,,,,,,,,,,,,,,,,,,,,,,
,,6511e9adc4ba37678f5f1181,2023-12-15_14h41.06.428,kallum_motion_pilot,2023.2.3,Win32,60.0240096,6511e9adc4ba37678f5f1181,657bb317c8798c6608bceb3f,657bcbc420d87e63f1a096e7,0.046,0.046,1,31,193,96,1,fivesix,,,,,,,,,,,,,,,,,,,,,,,,,,,,,,,,,,,,,,,,,,,,,,,,,,,,,,,,,,,,,,,,,,,,,,,,,,,,,,,,,,,,,,,,,,,,,,,,,,,,,,,,,,,,,,,,,,,,,,,,,,,,,,,,,,,,,,,
,,6511e9adc4ba37678f5f1181,2023-12-15_14h41.06.428,kallum_motion_pilot,2023.2.3,Win32,60.0240096,6511e9adc4ba37678f5f1181,657bb317c8798c6608bceb3f,657bcbc420d87e63f1a096e7,0.046,0.046,1,32,194,134,1,eightsix,,,,,,,,,,,,,,,,,,,,,,,,,,,,,,,,,,,,,,,,,,,,,,,,,,,,,,,,,,,,,,,,,,,,,,,,,,,,,,,,,,,,,,,,,,,,,,,,,,,,,,,,,,,,,,,,,,,,,,,,,,,,,,,,,,,,,,,
,,6511e9adc4ba37678f5f1181,2023-12-15_14h41.06.428,kallum_motion_pilot,2023.2.3,Win32,60.0240096,6511e9adc4ba37678f5f1181,657bb317c8798c6608bceb3f,657bcbc420d87e63f1a096e7,0.046,0.046,1,33,195,40,1,onetwo,,,,,,,,,,,,,,,,,,,,,,,,,,,,,,,,,,,,,,,,,,,,,,,,,,,,,,,,,,,,,,,,,,,,,,,,,,,,,,,,,,,,,,,,,,,,,,,,,,,,,,,,,,,,,,,,,,,,,,,,,,,,,,,,,,,,,,,
,,6511e9adc4ba37678f5f1181,2023-12-15_14h41.06.428,kallum_motion_pilot,2023.2.3,Win32,60.0240096,6511e9adc4ba37678f5f1181,657bb317c8798c6608bceb3f,657bcbc420d87e63f1a096e7,0.046,0.046,1,34,196,7,1,fourthree,,,,,,,,,,,,,,,,,,,,,,,,,,,,,,,,,,,,,,,,,,,,,,,,,,,,,,,,,,,,,,,,,,,,,,,,,,,,,,,,,,,,,,,,,,,,,,,,,,,,,,,,,,,,,,,,,,,,,,,,,,,,,,,,,,,,,,,
,,6511e9adc4ba37678f5f1181,2023-12-15_14h41.06.428,kallum_motion_pilot,2023.2.3,Win32,60.0240096,6511e9adc4ba37678f5f1181,657bb317c8798c6608bceb3f,657bcbc420d87e63f1a096e7,0.046,0.046,1,35,197,73,1,onethree,,,,,,,,,,,,,,,,,,,,,,,,,,,,,,,,,,,,,,,,,,,,,,,,,,,,,,,,,,,,,,,,,,,,,,,,,,,,,,,,,,,,,,,,,,,,,,,,,,,,,,,,,,,,,,,,,,,,,,,,,,,,,,,,,,,,,,,
,,6511e9adc4ba37678f5f1181,2023-12-15_14h41.06.428,kallum_motion_pilot,2023.2.3,Win32,60.0240096,6511e9adc4ba37678f5f1181,657bb317c8798c6608bceb3f,657bcbc420d87e63f1a096e7,0.046,0.046,1,36,198,133,1,seveneight,,,,,,,,,,,,,,,,,,,,,,,,,,,,,,,,,,,,,,,,,,,,,,,,,,,,,,,,,,,,,,,,,,,,,,,,,,,,,,,,,,,,,,,,,,,,,,,,,,,,,,,,,,,,,,,,,,,,,,,,,,,,,,,,,,,,,,,
,,6511e9adc4ba37678f5f1181,2023-12-15_14h41.06.428,kallum_motion_pilot,2023.2.3,Win32,60.0240096,6511e9adc4ba37678f5f1181,657bb317c8798c6608bceb3f,657bcbc420d87e63f1a096e7,0.046,0.046,1,37,199,89,1,fiveseven,,,,,,,,,,,,,,,,,,,,,,,,,,,,,,,,,,,,,,,,,,,,,,,,,,,,,,,,,,,,,,,,,,,,,,,,,,,,,,,,,,,,,,,,,,,,,,,,,,,,,,,,,,,,,,,,,,,,,,,,,,,,,,,,,,,,,,,
,,6511e9adc4ba37678f5f1181,2023-12-15_14h41.06.428,kallum_motion_pilot,2023.2.3,Win32,60.0240096,6511e9adc4ba37678f5f1181,657bb317c8798c6608bceb3f,657bcbc420d87e63f1a096e7,0.046,0.046,1,38,200,97,1,fiveseven,,,,,,,,,,,,,,,,,,,,,,,,,,,,,,,,,,,,,,,,,,,,,,,,,,,,,,,,,,,,,,,,,,,,,,,,,,,,,,,,,,,,,,,,,,,,,,,,,,,,,,,,,,,,,,,,,,,,,,,,,,,,,,,,,,,,,,,
,,6511e9adc4ba37678f5f1181,2023-12-15_14h41.06.428,kallum_motion_pilot,2023.2.3,Win32,60.0240096,6511e9adc4ba37678f5f1181,657bb317c8798c6608bceb3f,657bcbc420d87e63f1a096e7,0.046,0.046,1,39,201,11,1,twofour,,,,,,,,,,,,,,,,,,,,,,,,,,,,,,,,,,,,,,,,,,,,,,,,,,,,,,,,,,,,,,,,,,,,,,,,,,,,,,,,,,,,,,,,,,,,,,,,,,,,,,,,,,,,,,,,,,,,,,,,,,,,,,,,,,,,,,,
,,6511e9adc4ba37678f5f1181,2023-12-15_14h41.06.428,kallum_motion_pilot,2023.2.3,Win32,60.0240096,6511e9adc4ba37678f5f1181,657bb317c8798c6608bceb3f,657bcbc420d87e63f1a096e7,0.046,0.046,1,40,202,130,1,sixfive,,,,,,,,,,,,,,,,,,,,,,,,,,,,,,,,,,,,,,,,,,,,,,,,,,,,,,,,,,,,,,,,,,,,,,,,,,,,,,,,,,,,,,,,,,,,,,,,,,,,,,,,,,,,,,,,,,,,,,,,,,,,,,,,,,,,,,,
,,6511e9adc4ba37678f5f1181,2023-12-15_14h41.06.428,kallum_motion_pilot,2023.2.3,Win32,60.0240096,6511e9adc4ba37678f5f1181,657bb317c8798c6608bceb3f,657bcbc420d87e63f1a096e7,0.046,0.046,1,41,203,0,1,onetwo,,,,,,,,,,,,,,,,,,,,,,,,,,,,,,,,,,,,,,,,,,,,,,,,,,,,,,,,,,,,,,,,,,,,,,,,,,,,,,,,,,,,,,,,,,,,,,,,,,,,,,,,,,,,,,,,,,,,,,,,,,,,,,,,,,,,,,,
,,6511e9adc4ba37678f5f1181,2023-12-15_14h41.06.428,kallum_motion_pilot,2023.2.3,Win32,60.0240096,6511e9adc4ba37678f5f1181,657bb317c8798c6608bceb3f,657bcbc420d87e63f1a096e7,0.046,0.047,1,42,204,129,1,fiveseven,,,,,,,,,,,,,,,,,,,,,,,,,,,,,,,,,,,,,,,,,,,,,,,,,,,,,,,,,,,,,,,,,,,,,,,,,,,,,,,,,,,,,,,,,,,,,,,,,,,,,,,,,,,,,,,,,,,,,,,,,,,,,,,,,,,,,,,
,,6511e9adc4ba37678f5f1181,2023-12-15_14h41.06.428,kallum_motion_pilot,2023.2.3,Win32,60.0240096,6511e9adc4ba37678f5f1181,657bb317c8798c6608bceb3f,657bcbc420d87e63f1a096e7,0.047,0.047,1,43,205,2,1,twoone,,,,,,,,,,,,,,,,,,,,,,,,,,,,,,,,,,,,,,,,,,,,,,,,,,,,,,,,,,,,,,,,,,,,,,,,,,,,,,,,,,,,,,,,,,,,,,,,,,,,,,,,,,,,,,,,,,,,,,,,,,,,,,,,,,,,,,,
,,6511e9adc4ba37678f5f1181,2023-12-15_14h41.06.428,kallum_motion_pilot,2023.2.3,Win32,60.0240096,6511e9adc4ba37678f5f1181,657bb317c8798c6608bceb3f,657bcbc420d87e63f1a096e7,0.047,0.047,1,44,206,60,1,threeone,,,,,,,,,,,,,,,,,,,,,,,,,,,,,,,,,,,,,,,,,,,,,,,,,,,,,,,,,,,,,,,,,,,,,,,,,,,,,,,,,,,,,,,,,,,,,,,,,,,,,,,,,,,,,,,,,,,,,,,,,,,,,,,,,,,,,,,
,,6511e9adc4ba37678f5f1181,2023-12-15_14h41.06.428,kallum_motion_pilot,2023.2.3,Win32,60.0240096,6511e9adc4ba37678f5f1181,657bb317c8798c6608bceb3f,657bcbc420d87e63f1a096e7,0.047,0.047,1,45,207,21,1,threefour,,,,,,,,,,,,,,,,,,,,,,,,,,,,,,,,,,,,,,,,,,,,,,,,,,,,,,,,,,,,,,,,,,,,,,,,,,,,,,,,,,,,,,,,,,,,,,,,,,,,,,,,,,,,,,,,,,,,,,,,,,,,,,,,,,,,,,,
,,6511e9adc4ba37678f5f1181,2023-12-15_14h41.06.428,kallum_motion_pilot,2023.2.3,Win32,60.0240096,6511e9adc4ba37678f5f1181,657bb317c8798c6608bceb3f,657bcbc420d87e63f1a096e7,0.047,0.047,1,46,208,102,1,eightsix,,,,,,,,,,,,,,,,,,,,,,,,,,,,,,,,,,,,,,,,,,,,,,,,,,,,,,,,,,,,,,,,,,,,,,,,,,,,,,,,,,,,,,,,,,,,,,,,,,,,,,,,,,,,,,,,,,,,,,,,,,,,,,,,,,,,,,,
,,6511e9adc4ba37678f5f1181,2023-12-15_14h41.06.428,kallum_motion_pilot,2023.2.3,Win32,60.0240096,6511e9adc4ba37678f5f1181,657bb317c8798c6608bceb3f,657bcbc420d87e63f1a096e7,0.047,0.047,1,47,209,63,1,fourthree,,,,,,,,,,,,,,,,,,,,,,,,,,,,,,,,,,,,,,,,,,,,,,,,,,,,,,,,,,,,,,,,,,,,,,,,,,,,,,,,,,,,,,,,,,,,,,,,,,,,,,,,,,,,,,,,,,,,,,,,,,,,,,,,,,,,,,,
,,6511e9adc4ba37678f5f1181,2023-12-15_14h41.06.428,kallum_motion_pilot,2023.2.3,Win32,60.0240096,6511e9adc4ba37678f5f1181,657bb317c8798c6608bceb3f,657bcbc420d87e63f1a096e7,0.047,0.047,1,48,210,141,1,seveneight,,,,,,,,,,,,,,,,,,,,,,,,,,,,,,,,,,,,,,,,,,,,,,,,,,,,,,,,,,,,,,,,,,,,,,,,,,,,,,,,,,,,,,,,,,,,,,,,,,,,,,,,,,,,,,,,,,,,,,,,,,,,,,,,,,,,,,,
,,6511e9adc4ba37678f5f1181,2023-12-15_14h41.06.428,kallum_motion_pilot,2023.2.3,Win32,60.0240096,6511e9adc4ba37678f5f1181,657bb317c8798c6608bceb3f,657bcbc420d87e63f1a096e7,0.047,0.047,1,49,211,87,1,eightseven,,,,,,,,,,,,,,,,,,,,,,,,,,,,,,,,,,,,,,,,,,,,,,,,,,,,,,,,,,,,,,,,,,,,,,,,,,,,,,,,,,,,,,,,,,,,,,,,,,,,,,,,,,,,,,,,,,,,,,,,,,,,,,,,,,,,,,,
,,6511e9adc4ba37678f5f1181,2023-12-15_14h41.06.428,kallum_motion_pilot,2023.2.3,Win32,60.0240096,6511e9adc4ba37678f5f1181,657bb317c8798c6608bceb3f,657bcbc420d87e63f1a096e7,0.047,0.047,1,50,212,4,1,threeone,,,,,,,,,,,,,,,,,,,,,,,,,,,,,,,,,,,,,,,,,,,,,,,,,,,,,,,,,,,,,,,,,,,,,,,,,,,,,,,,,,,,,,,,,,,,,,,,,,,,,,,,,,,,,,,,,,,,,,,,,,,,,,,,,,,,,,,
,,6511e9adc4ba37678f5f1181,2023-12-15_14h41.06.428,kallum_motion_pilot,2023.2.3,Win32,60.0240096,6511e9adc4ba37678f5f1181,657bb317c8798c6608bceb3f,657bcbc420d87e63f1a096e7,0.047,0.047,1,51,213,6,1,fourtwo,,,,,,,,,,,,,,,,,,,,,,,,,,,,,,,,,,,,,,,,,,,,,,,,,,,,,,,,,,,,,,,,,,,,,,,,,,,,,,,,,,,,,,,,,,,,,,,,,,,,,,,,,,,,,,,,,,,,,,,,,,,,,,,,,,,,,,,
,,6511e9adc4ba37678f5f1181,2023-12-15_14h41.06.428,kallum_motion_pilot,2023.2.3,Win32,60.0240096,6511e9adc4ba37678f5f1181,657bb317c8798c6608bceb3f,657bcbc420d87e63f1a096e7,0.047,0.047,1,52,214,55,1,fourthree,,,,,,,,,,,,,,,,,,,,,,,,,,,,,,,,,,,,,,,,,,,,,,,,,,,,,,,,,,,,,,,,,,,,,,,,,,,,,,,,,,,,,,,,,,,,,,,,,,,,,,,,,,,,,,,,,,,,,,,,,,,,,,,,,,,,,,,
,,6511e9adc4ba37678f5f1181,2023-12-15_14h41.06.428,kallum_motion_pilot,2023.2.3,Win32,60.0240096,6511e9adc4ba37678f5f1181,657bb317c8798c6608bceb3f,657bcbc420d87e63f1a096e7,0.047,0.047,1,53,215,137,1,fiveseven,,,,,,,,,,,,,,,,,,,,,,,,,,,,,,,,,,,,,,,,,,,,,,,,,,,,,,,,,,,,,,,,,,,,,,,,,,,,,,,,,,,,,,,,,,,,,,,,,,,,,,,,,,,,,,,,,,,,,,,,,,,,,,,,,,,,,,,
,,6511e9adc4ba37678f5f1181,2023-12-15_14h41.06.428,kallum_motion_pilot,2023.2.3,Win32,60.0240096,6511e9adc4ba37678f5f1181,657bb317c8798c6608bceb3f,657bcbc420d87e63f1a096e7,0.047,0.047,1,54,216,49,1,onethree,,,,,,,,,,,,,,,,,,,,,,,,,,,,,,,,,,,,,,,,,,,,,,,,,,,,,,,,,,,,,,,,,,,,,,,,,,,,,,,,,,,,,,,,,,,,,,,,,,,,,,,,,,,,,,,,,,,,,,,,,,,,,,,,,,,,,,,
,,6511e9adc4ba37678f5f1181,2023-12-15_14h41.06.428,kallum_motion_pilot,2023.2.3,Win32,60.0240096,6511e9adc4ba37678f5f1181,657bb317c8798c6608bceb3f,657bcbc420d87e63f1a096e7,0.048,0.048,1,55,217,145,1,fiveseven,,,,,,,,,,,,,,,,,,,,,,,,,,,,,,,,,,,,,,,,,,,,,,,,,,,,,,,,,,,,,,,,,,,,,,,,,,,,,,,,,,,,,,,,,,,,,,,,,,,,,,,,,,,,,,,,,,,,,,,,,,,,,,,,,,,,,,,
,,6511e9adc4ba37678f5f1181,2023-12-15_14h41.06.428,kallum_motion_pilot,2023.2.3,Win32,60.0240096,6511e9adc4ba37678f5f1181,657bb317c8798c6608bceb3f,657bcbc420d87e63f1a096e7,0.048,0.048,1,56,218,9,1,onethree,,,,,,,,,,,,,,,,,,,,,,,,,,,,,,,,,,,,,,,,,,,,,,,,,,,,,,,,,,,,,,,,,,,,,,,,,,,,,,,,,,,,,,,,,,,,,,,,,,,,,,,,,,,,,,,,,,,,,,,,,,,,,,,,,,,,,,,
,,6511e9adc4ba37678f5f1181,2023-12-15_14h41.06.428,kallum_motion_pilot,2023.2.3,Win32,60.0240096,6511e9adc4ba37678f5f1181,657bb317c8798c6608bceb3f,657bcbc420d87e63f1a096e7,0.048,0.048,1,57,219,95,1,eightseven,,,,,,,,,,,,,,,,,,,,,,,,,,,,,,,,,,,,,,,,,,,,,,,,,,,,,,,,,,,,,,,,,,,,,,,,,,,,,,,,,,,,,,,,,,,,,,,,,,,,,,,,,,,,,,,,,,,,,,,,,,,,,,,,,,,,,,,
,,6511e9adc4ba37678f5f1181,2023-12-15_14h41.06.428,kallum_motion_pilot,2023.2.3,Win32,60.0240096,6511e9adc4ba37678f5f1181,657bb317c8798c6608bceb3f,657bcbc420d87e63f1a096e7,0.048,0.048,1,58,220,100,1,sevenfive,,,,,,,,,,,,,,,,,,,,,,,,,,,,,,,,,,,,,,,,,,,,,,,,,,,,,,,,,,,,,,,,,,,,,,,,,,,,,,,,,,,,,,,,,,,,,,,,,,,,,,,,,,,,,,,,,,,,,,,,,,,,,,,,,,,,,,,
,,6511e9adc4ba37678f5f1181,2023-12-15_14h41.06.428,kallum_motion_pilot,2023.2.3,Win32,60.0240096,6511e9adc4ba37678f5f1181,657bb317c8798c6608bceb3f,657bcbc420d87e63f1a096e7,0.048,0.048,1,59,221,45,1,threefour,,,,,,,,,,,,,,,,,,,,,,,,,,,,,,,,,,,,,,,,,,,,,,,,,,,,,,,,,,,,,,,,,,,,,,,,,,,,,,,,,,,,,,,,,,,,,,,,,,,,,,,,,,,,,,,,,,,,,,,,,,,,,,,,,,,,,,,
,,6511e9adc4ba37678f5f1181,2023-12-15_14h41.06.428,kallum_motion_pilot,2023.2.3,Win32,60.0240096,6511e9adc4ba37678f5f1181,657bb317c8798c6608bceb3f,657bcbc420d87e63f1a096e7,0.048,0.048,1,60,222,23,1,fourthree,,,,,,,,,,,,,,,,,,,,,,,,,,,,,,,,,,,,,,,,,,,,,,,,,,,,,,,,,,,,,,,,,,,,,,,,,,,,,,,,,,,,,,,,,,,,,,,,,,,,,,,,,,,,,,,,,,,,,,,,,,,,,,,,,,,,,,,
,,6511e9adc4ba37678f5f1181,2023-12-15_14h41.06.428,kallum_motion_pilot,2023.2.3,Win32,60.0240096,6511e9adc4ba37678f5f1181,657bb317c8798c6608bceb3f,657bcbc420d87e63f1a096e7,0.048,0.048,1,61,223,142,1,eightsix,,,,,,,,,,,,,,,,,,,,,,,,,,,,,,,,,,,,,,,,,,,,,,,,,,,,,,,,,,,,,,,,,,,,,,,,,,,,,,,,,,,,,,,,,,,,,,,,,,,,,,,,,,,,,,,,,,,,,,,,,,,,,,,,,,,,,,,
,,6511e9adc4ba37678f5f1181,2023-12-15_14h41.06.428,kallum_motion_pilot,2023.2.3,Win32,60.0240096,6511e9adc4ba37678f5f1181,657bb317c8798c6608bceb3f,657bcbc420d87e63f1a096e7,0.048,0.048,1,62,224,64,1,onetwo,,,,,,,,,,,,,,,,,,,,,,,,,,,,,,,,,,,,,,,,,,,,,,,,,,,,,,,,,,,,,,,,,,,,,,,,,,,,,,,,,,,,,,,,,,,,,,,,,,,,,,,,,,,,,,,,,,,,,,,,,,,,,,,,,,,,,,,
,,6511e9adc4ba37678f5f1181,2023-12-15_14h41.06.428,kallum_motion_pilot,2023.2.3,Win32,60.0240096,6511e9adc4ba37678f5f1181,657bb317c8798c6608bceb3f,657bcbc420d87e63f1a096e7,0.048,0.048,1,63,225,69,1,threefour,,,,,,,,,,,,,,,,,,,,,,,,,,,,,,,,,,,,,,,,,,,,,,,,,,,,,,,,,,,,,,,,,,,,,,,,,,,,,,,,,,,,,,,,,,,,,,,,,,,,,,,,,,,,,,,,,,,,,,,,,,,,,,,,,,,,,,,
,,6511e9adc4ba37678f5f1181,2023-12-15_14h41.06.428,kallum_motion_pilot,2023.2.3,Win32,60.0240096,6511e9adc4ba37678f5f1181,657bb317c8798c6608bceb3f,657bcbc420d87e63f1a096e7,0.048,0.048,1,64,226,46,1,fourtwo,,,,,,,,,,,,,,,,,,,,,,,,,,,,,,,,,,,,,,,,,,,,,,,,,,,,,,,,,,,,,,,,,,,,,,,,,,,,,,,,,,,,,,,,,,,,,,,,,,,,,,,,,,,,,,,,,,,,,,,,,,,,,,,,,,,,,,,
,,6511e9adc4ba37678f5f1181,2023-12-15_14h41.06.428,kallum_motion_pilot,2023.2.3,Win32,60.0240096,6511e9adc4ba37678f5f1181,657bb317c8798c6608bceb3f,657bcbc420d87e63f1a096e7,0.048,0.048,1,65,227,12,1,threeone,,,,,,,,,,,,,,,,,,,,,,,,,,,,,,,,,,,,,,,,,,,,,,,,,,,,,,,,,,,,,,,,,,,,,,,,,,,,,,,,,,,,,,,,,,,,,,,,,,,,,,,,,,,,,,,,,,,,,,,,,,,,,,,,,,,,,,,
,,6511e9adc4ba37678f5f1181,2023-12-15_14h41.06.428,kallum_motion_pilot,2023.2.3,Win32,60.0240096,6511e9adc4ba37678f5f1181,657bb317c8798c6608bceb3f,657bcbc420d87e63f1a096e7,0.048,0.048,1,66,228,135,1,eightseven,,,,,,,,,,,,,,,,,,,,,,,,,,,,,,,,,,,,,,,,,,,,,,,,,,,,,,,,,,,,,,,,,,,,,,,,,,,,,,,,,,,,,,,,,,,,,,,,,,,,,,,,,,,,,,,,,,,,,,,,,,,,,,,,,,,,,,,
,,6511e9adc4ba37678f5f1181,2023-12-15_14h41.06.428,kallum_motion_pilot,2023.2.3,Win32,60.0240096,6511e9adc4ba37678f5f1181,657bb317c8798c6608bceb3f,657bcbc420d87e63f1a096e7,0.048,0.048,1,67,229,39,1,fourthree,,,,,,,,,,,,,,,,,,,,,,,,,,,,,,,,,,,,,,,,,,,,,,,,,,,,,,,,,,,,,,,,,,,,,,,,,,,,,,,,,,,,,,,,,,,,,,,,,,,,,,,,,,,,,,,,,,,,,,,,,,,,,,,,,,,,,,,
,,6511e9adc4ba37678f5f1181,2023-12-15_14h41.06.428,kallum_motion_pilot,2023.2.3,Win32,60.0240096,6511e9adc4ba37678f5f1181,657bb317c8798c6608bceb3f,657bcbc420d87e63f1a096e7,0.048,0.048,1,68,230,158,1,eightsix,,,,,,,,,,,,,,,,,,,,,,,,,,,,,,,,,,,,,,,,,,,,,,,,,,,,,,,,,,,,,,,,,,,,,,,,,,,,,,,,,,,,,,,,,,,,,,,,,,,,,,,,,,,,,,,,,,,,,,,,,,,,,,,,,,,,,,,
,,6511e9adc4ba37678f5f1181,2023-12-15_14h41.06.428,kallum_motion_pilot,2023.2.3,Win32,60.0240096,6511e9adc4ba37678f5f1181,657bb317c8798c6608bceb3f,657bcbc420d87e63f1a096e7,0.048,0.048,1,69,231,59,1,twofour,,,,,,,,,,,,,,,,,,,,,,,,,,,,,,,,,,,,,,,,,,,,,,,,,,,,,,,,,,,,,,,,,,,,,,,,,,,,,,,,,,,,,,,,,,,,,,,,,,,,,,,,,,,,,,,,,,,,,,,,,,,,,,,,,,,,,,,
,,6511e9adc4ba37678f5f1181,2023-12-15_14h41.06.428,kallum_motion_pilot,2023.2.3,Win32,60.0240096,6511e9adc4ba37678f5f1181,657bb317c8798c6608bceb3f,657bcbc420d87e63f1a096e7,0.049,0.049,1,70,232,13,1,threefour,,,,,,,,,,,,,,,,,,,,,,,,,,,,,,,,,,,,,,,,,,,,,,,,,,,,,,,,,,,,,,,,,,,,,,,,,,,,,,,,,,,,,,,,,,,,,,,,,,,,,,,,,,,,,,,,,,,,,,,,,,,,,,,,,,,,,,,
,,6511e9adc4ba37678f5f1181,2023-12-15_14h41.06.428,kallum_motion_pilot,2023.2.3,Win32,60.0240096,6511e9adc4ba37678f5f1181,657bb317c8798c6608bceb3f,657bcbc420d87e63f1a096e7,0.049,0.049,1,71,233,153,1,fiveseven,,,,,,,,,,,,,,,,,,,,,,,,,,,,,,,,,,,,,,,,,,,,,,,,,,,,,,,,,,,,,,,,,,,,,,,,,,,,,,,,,,,,,,,,,,,,,,,,,,,,,,,,,,,,,,,,,,,,,,,,,,,,,,,,,,,,,,,
,,6511e9adc4ba37678f5f1181,2023-12-15_14h41.06.428,kallum_motion_pilot,2023.2.3,Win32,60.0240096,6511e9adc4ba37678f5f1181,657bb317c8798c6608bceb3f,657bcbc420d87e63f1a096e7,0.049,0.049,1,72,234,94,1,eightsix,,,,,,,,,,,,,,,,,,,,,,,,,,,,,,,,,,,,,,,,,,,,,,,,,,,,,,,,,,,,,,,,,,,,,,,,,,,,,,,,,,,,,,,,,,,,,,,,,,,,,,,,,,,,,,,,,,,,,,,,,,,,,,,,,,,,,,,
,,6511e9adc4ba37678f5f1181,2023-12-15_14h41.06.428,kallum_motion_pilot,2023.2.3,Win32,60.0240096,6511e9adc4ba37678f5f1181,657bb317c8798c6608bceb3f,657bcbc420d87e63f1a096e7,0.049,0.049,1,73,235,148,1,sevenfive,,,,,,,,,,,,,,,,,,,,,,,,,,,,,,,,,,,,,,,,,,,,,,,,,,,,,,,,,,,,,,,,,,,,,,,,,,,,,,,,,,,,,,,,,,,,,,,,,,,,,,,,,,,,,,,,,,,,,,,,,,,,,,,,,,,,,,,
,,6511e9adc4ba37678f5f1181,2023-12-15_14h41.06.428,kallum_motion_pilot,2023.2.3,Win32,60.0240096,6511e9adc4ba37678f5f1181,657bb317c8798c6608bceb3f,657bcbc420d87e63f1a096e7,0.049,0.049,1,74,236,27,1,twofour,,,,,,,,,,,,,,,,,,,,,,,,,,,,,,,,,,,,,,,,,,,,,,,,,,,,,,,,,,,,,,,,,,,,,,,,,,,,,,,,,,,,,,,,,,,,,,,,,,,,,,,,,,,,,,,,,,,,,,,,,,,,,,,,,,,,,,,
,,6511e9adc4ba37678f5f1181,2023-12-15_14h41.06.428,kallum_motion_pilot,2023.2.3,Win32,60.0240096,6511e9adc4ba37678f5f1181,657bb317c8798c6608bceb3f,657bcbc420d87e63f1a096e7,0.049,0.049,1,75,237,61,1,threefour,,,,,,,,,,,,,,,,,,,,,,,,,,,,,,,,,,,,,,,,,,,,,,,,,,,,,,,,,,,,,,,,,,,,,,,,,,,,,,,,,,,,,,,,,,,,,,,,,,,,,,,,,,,,,,,,,,,,,,,,,,,,,,,,,,,,,,,
,,6511e9adc4ba37678f5f1181,2023-12-15_14h41.06.428,kallum_motion_pilot,2023.2.3,Win32,60.0240096,6511e9adc4ba37678f5f1181,657bb317c8798c6608bceb3f,657bcbc420d87e63f1a096e7,0.049,0.049,1,76,238,20,1,threeone,,,,,,,,,,,,,,,,,,,,,,,,,,,,,,,,,,,,,,,,,,,,,,,,,,,,,,,,,,,,,,,,,,,,,,,,,,,,,,,,,,,,,,,,,,,,,,,,,,,,,,,,,,,,,,,,,,,,,,,,,,,,,,,,,,,,,,,
,,6511e9adc4ba37678f5f1181,2023-12-15_14h41.06.428,kallum_motion_pilot,2023.2.3,Win32,60.0240096,6511e9adc4ba37678f5f1181,657bb317c8798c6608bceb3f,657bcbc420d87e63f1a096e7,0.049,0.049,1,77,239,143,1,eightseven,,,,,,,,,,,,,,,,,,,,,,,,,,,,,,,,,,,,,,,,,,,,,,,,,,,,,,,,,,,,,,,,,,,,,,,,,,,,,,,,,,,,,,,,,,,,,,,,,,,,,,,,,,,,,,,,,,,,,,,,,,,,,,,,,,,,,,,
,,6511e9adc4ba37678f5f1181,2023-12-15_14h41.06.428,kallum_motion_pilot,2023.2.3,Win32,60.0240096,6511e9adc4ba37678f5f1181,657bb317c8798c6608bceb3f,657bcbc420d87e63f1a096e7,0.049,0.049,1,78,240,99,1,sixeight,,,,,,,,,,,,,,,,,,,,,,,,,,,,,,,,,,,,,,,,,,,,,,,,,,,,,,,,,,,,,,,,,,,,,,,,,,,,,,,,,,,,,,,,,,,,,,,,,,,,,,,,,,,,,,,,,,,,,,,,,,,,,,,,,,,,,,,
,,6511e9adc4ba37678f5f1181,2023-12-15_14h41.06.428,kallum_motion_pilot,2023.2.3,Win32,60.0240096,6511e9adc4ba37678f5f1181,657bb317c8798c6608bceb3f,657bcbc420d87e63f1a096e7,0.049,0.049,1,79,241,110,1,eightsix,,,,,,,,,,,,,,,,,,,,,,,,,,,,,,,,,,,,,,,,,,,,,,,,,,,,,,,,,,,,,,,,,,,,,,,,,,,,,,,,,,,,,,,,,,,,,,,,,,,,,,,,,,,,,,,,,,,,,,,,,,,,,,,,,,,,,,,
,,6511e9adc4ba37678f5f1181,2023-12-15_14h41.06.428,kallum_motion_pilot,2023.2.3,Win32,60.0240096,6511e9adc4ba37678f5f1181,657bb317c8798c6608bceb3f,657bcbc420d87e63f1a096e7,0.049,0.049,1,80,242,86,1,eightsix,,,,,,,,,,,,,,,,,,,,,,,,,,,,,,,,,,,,,,,,,,,,,,,,,,,,,,,,,,,,,,,,,,,,,,,,,,,,,,,,,,,,,,,,,,,,,,,,,,,,,,,,,,,,,,,,,,,,,,,,,,,,,,,,,,,,,,,
,,6511e9adc4ba37678f5f1181,2023-12-15_14h41.06.428,kallum_motion_pilot,2023.2.3,Win32,60.0240096,6511e9adc4ba37678f5f1181,657bb317c8798c6608bceb3f,657bcbc420d87e63f1a096e7,0.049,0.049,1,81,243,24,1,onetwo,,,,,,,,,,,,,,,,,,,,,,,,,,,,,,,,,,,,,,,,,,,,,,,,,,,,,,,,,,,,,,,,,,,,,,,,,,,,,,,,,,,,,,,,,,,,,,,,,,,,,,,,,,,,,,,,,,,,,,,,,,,,,,,,,,,,,,,
,,6511e9adc4ba37678f5f1181,2023-12-15_14h41.06.428,kallum_motion_pilot,2023.2.3,Win32,60.0240096,6511e9adc4ba37678f5f1181,657bb317c8798c6608bceb3f,657bcbc420d87e63f1a096e7,0.049,0.049,1,82,244,157,1,seveneight,,,,,,,,,,,,,,,,,,,,,,,,,,,,,,,,,,,,,,,,,,,,,,,,,,,,,,,,,,,,,,,,,,,,,,,,,,,,,,,,,,,,,,,,,,,,,,,,,,,,,,,,,,,,,,,,,,,,,,,,,,,,,,,,,,,,,,,
,,6511e9adc4ba37678f5f1181,2023-12-15_14h41.06.428,kallum_motion_pilot,2023.2.3,Win32,60.0240096,6511e9adc4ba37678f5f1181,657bb317c8798c6608bceb3f,657bcbc420d87e63f1a096e7,0.049,0.049,1,83,245,155,1,sixeight,,,,,,,,,,,,,,,,,,,,,,,,,,,,,,,,,,,,,,,,,,,,,,,,,,,,,,,,,,,,,,,,,,,,,,,,,,,,,,,,,,,,,,,,,,,,,,,,,,,,,,,,,,,,,,,,,,,,,,,,,,,,,,,,,,,,,,,
,,6511e9adc4ba37678f5f1181,2023-12-15_14h41.06.428,kallum_motion_pilot,2023.2.3,Win32,60.0240096,6511e9adc4ba37678f5f1181,657bb317c8798c6608bceb3f,657bcbc420d87e63f1a096e7,0.049,0.049,1,84,246,118,1,eightsix,,,,,,,,,,,,,,,,,,,,,,,,,,,,,,,,,,,,,,,,,,,,,,,,,,,,,,,,,,,,,,,,,,,,,,,,,,,,,,,,,,,,,,,,,,,,,,,,,,,,,,,,,,,,,,,,,,,,,,,,,,,,,,,,,,,,,,,
,,6511e9adc4ba37678f5f1181,2023-12-15_14h41.06.428,kallum_motion_pilot,2023.2.3,Win32,60.0240096,6511e9adc4ba37678f5f1181,657bb317c8798c6608bceb3f,657bcbc420d87e63f1a096e7,0.05,0.05,1,85,247,65,1,onethree,,,,,,,,,,,,,,,,,,,,,,,,,,,,,,,,,,,,,,,,,,,,,,,,,,,,,,,,,,,,,,,,,,,,,,,,,,,,,,,,,,,,,,,,,,,,,,,,,,,,,,,,,,,,,,,,,,,,,,,,,,,,,,,,,,,,,,,
,,6511e9adc4ba37678f5f1181,2023-12-15_14h41.06.428,kallum_motion_pilot,2023.2.3,Win32,60.0240096,6511e9adc4ba37678f5f1181,657bb317c8798c6608bceb3f,657bcbc420d87e63f1a096e7,0.05,0.05,1,86,248,80,1,fivesix,,,,,,,,,,,,,,,,,,,,,,,,,,,,,,,,,,,,,,,,,,,,,,,,,,,,,,,,,,,,,,,,,,,,,,,,,,,,,,,,,,,,,,,,,,,,,,,,,,,,,,,,,,,,,,,,,,,,,,,,,,,,,,,,,,,,,,,
,,6511e9adc4ba37678f5f1181,2023-12-15_14h41.06.428,kallum_motion_pilot,2023.2.3,Win32,60.0240096,6511e9adc4ba37678f5f1181,657bb317c8798c6608bceb3f,657bcbc420d87e63f1a096e7,0.05,0.05,1,87,249,161,1,fiveseven,,,,,,,,,,,,,,,,,,,,,,,,,,,,,,,,,,,,,,,,,,,,,,,,,,,,,,,,,,,,,,,,,,,,,,,,,,,,,,,,,,,,,,,,,,,,,,,,,,,,,,,,,,,,,,,,,,,,,,,,,,,,,,,,,,,,,,,
,,6511e9adc4ba37678f5f1181,2023-12-15_14h41.06.428,kallum_motion_pilot,2023.2.3,Win32,60.0240096,6511e9adc4ba37678f5f1181,657bb317c8798c6608bceb3f,657bcbc420d87e63f1a096e7,0.05,0.05,1,88,250,79,1,eightseven,,,,,,,,,,,,,,,,,,,,,,,,,,,,,,,,,,,,,,,,,,,,,,,,,,,,,,,,,,,,,,,,,,,,,,,,,,,,,,,,,,,,,,,,,,,,,,,,,,,,,,,,,,,,,,,,,,,,,,,,,,,,,,,,,,,,,,,
,,6511e9adc4ba37678f5f1181,2023-12-15_14h41.06.428,kallum_motion_pilot,2023.2.3,Win32,60.0240096,6511e9adc4ba37678f5f1181,657bb317c8798c6608bceb3f,657bcbc420d87e63f1a096e7,0.05,0.05,1,89,251,144,1,fivesix,,,,,,,,,,,,,,,,,,,,,,,,,,,,,,,,,,,,,,,,,,,,,,,,,,,,,,,,,,,,,,,,,,,,,,,,,,,,,,,,,,,,,,,,,,,,,,,,,,,,,,,,,,,,,,,,,,,,,,,,,,,,,,,,,,,,,,,
,,6511e9adc4ba37678f5f1181,2023-12-15_14h41.06.428,kallum_motion_pilot,2023.2.3,Win32,60.0240096,6511e9adc4ba37678f5f1181,657bb317c8798c6608bceb3f,657bcbc420d87e63f1a096e7,0.05,0.05,1,90,252,115,1,sixeight,,,,,,,,,,,,,,,,,,,,,,,,,,,,,,,,,,,,,,,,,,,,,,,,,,,,,,,,,,,,,,,,,,,,,,,,,,,,,,,,,,,,,,,,,,,,,,,,,,,,,,,,,,,,,,,,,,,,,,,,,,,,,,,,,,,,,,,
,,6511e9adc4ba37678f5f1181,2023-12-15_14h41.06.428,kallum_motion_pilot,2023.2.3,Win32,60.0240096,6511e9adc4ba37678f5f1181,657bb317c8798c6608bceb3f,657bcbc420d87e63f1a096e7,0.05,0.05,1,91,253,124,1,sevenfive,,,,,,,,,,,,,,,,,,,,,,,,,,,,,,,,,,,,,,,,,,,,,,,,,,,,,,,,,,,,,,,,,,,,,,,,,,,,,,,,,,,,,,,,,,,,,,,,,,,,,,,,,,,,,,,,,,,,,,,,,,,,,,,,,,,,,,,
,,6511e9adc4ba37678f5f1181,2023-12-15_14h41.06.428,kallum_motion_pilot,2023.2.3,Win32,60.0240096,6511e9adc4ba37678f5f1181,657bb317c8798c6608bceb3f,657bcbc420d87e63f1a096e7,0.05,0.05,1,92,254,131,1,sixeight,,,,,,,,,,,,,,,,,,,,,,,,,,,,,,,,,,,,,,,,,,,,,,,,,,,,,,,,,,,,,,,,,,,,,,,,,,,,,,,,,,,,,,,,,,,,,,,,,,,,,,,,,,,,,,,,,,,,,,,,,,,,,,,,,,,,,,,
,,6511e9adc4ba37678f5f1181,2023-12-15_14h41.06.428,kallum_motion_pilot,2023.2.3,Win32,60.0240096,6511e9adc4ba37678f5f1181,657bb317c8798c6608bceb3f,657bcbc420d87e63f1a096e7,0.05,0.05,1,93,255,150,1,eightsix,,,,,,,,,,,,,,,,,,,,,,,,,,,,,,,,,,,,,,,,,,,,,,,,,,,,,,,,,,,,,,,,,,,,,,,,,,,,,,,,,,,,,,,,,,,,,,,,,,,,,,,,,,,,,,,,,,,,,,,,,,,,,,,,,,,,,,,
,,6511e9adc4ba37678f5f1181,2023-12-15_14h41.06.428,kallum_motion_pilot,2023.2.3,Win32,60.0240096,6511e9adc4ba37678f5f1181,657bb317c8798c6608bceb3f,657bcbc420d87e63f1a096e7,0.05,0.05,1,94,256,93,1,seveneight,,,,,,,,,,,,,,,,,,,,,,,,,,,,,,,,,,,,,,,,,,,,,,,,,,,,,,,,,,,,,,,,,,,,,,,,,,,,,,,,,,,,,,,,,,,,,,,,,,,,,,,,,,,,,,,,,,,,,,,,,,,,,,,,,,,,,,,
,,6511e9adc4ba37678f5f1181,2023-12-15_14h41.06.428,kallum_motion_pilot,2023.2.3,Win32,60.0240096,6511e9adc4ba37678f5f1181,657bb317c8798c6608bceb3f,657bcbc420d87e63f1a096e7,0.05,0.05,1,95,257,138,1,sixfive,,,,,,,,,,,,,,,,,,,,,,,,,,,,,,,,,,,,,,,,,,,,,,,,,,,,,,,,,,,,,,,,,,,,,,,,,,,,,,,,,,,,,,,,,,,,,,,,,,,,,,,,,,,,,,,,,,,,,,,,,,,,,,,,,,,,,,,
,,6511e9adc4ba37678f5f1181,2023-12-15_14h41.06.428,kallum_motion_pilot,2023.2.3,Win32,60.0240096,6511e9adc4ba37678f5f1181,657bb317c8798c6608bceb3f,657bcbc420d87e63f1a096e7,0.05,0.05,1,96,258,52,1,threeone,,,,,,,,,,,,,,,,,,,,,,,,,,,,,,,,,,,,,,,,,,,,,,,,,,,,,,,,,,,,,,,,,,,,,,,,,,,,,,,,,,,,,,,,,,,,,,,,,,,,,,,,,,,,,,,,,,,,,,,,,,,,,,,,,,,,,,,
,,6511e9adc4ba37678f5f1181,2023-12-15_14h41.06.428,kallum_motion_pilot,2023.2.3,Win32,60.0240096,6511e9adc4ba37678f5f1181,657bb317c8798c6608bceb3f,657bcbc420d87e63f1a096e7,0.051,0.051,1,97,259,31,1,fourthree,,,,,,,,,,,,,,,,,,,,,,,,,,,,,,,,,,,,,,,,,,,,,,,,,,,,,,,,,,,,,,,,,,,,,,,,,,,,,,,,,,,,,,,,,,,,,,,,,,,,,,,,,,,,,,,,,,,,,,,,,,,,,,,,,,,,,,,
,,6511e9adc4ba37678f5f1181,2023-12-15_14h41.06.428,kallum_motion_pilot,2023.2.3,Win32,60.0240096,6511e9adc4ba37678f5f1181,657bb317c8798c6608bceb3f,657bcbc420d87e63f1a096e7,0.051,0.051,1,98,260,50,1,twoone,,,,,,,,,,,,,,,,,,,,,,,,,,,,,,,,,,,,,,,,,,,,,,,,,,,,,,,,,,,,,,,,,,,,,,,,,,,,,,,,,,,,,,,,,,,,,,,,,,,,,,,,,,,,,,,,,,,,,,,,,,,,,,,,,,,,,,,
,,6511e9adc4ba37678f5f1181,2023-12-15_14h41.06.428,kallum_motion_pilot,2023.2.3,Win32,60.0240096,6511e9adc4ba37678f5f1181,657bb317c8798c6608bceb3f,657bcbc420d87e63f1a096e7,0.051,0.051,1,99,261,42,1,twoone,,,,,,,,,,,,,,,,,,,,,,,,,,,,,,,,,,,,,,,,,,,,,,,,,,,,,,,,,,,,,,,,,,,,,,,,,,,,,,,,,,,,,,,,,,,,,,,,,,,,,,,,,,,,,,,,,,,,,,,,,,,,,,,,,,,,,,,
,,6511e9adc4ba37678f5f1181,2023-12-15_14h41.06.428,kallum_motion_pilot,2023.2.3,Win32,60.0240096,6511e9adc4ba37678f5f1181,657bb317c8798c6608bceb3f,657bcbc420d87e63f1a096e7,0.051,0.051,1,100,262,82,1,sixfive,,,,,,,,,,,,,,,,,,,,,,,,,,,,,,,,,,,,,,,,,,,,,,,,,,,,,,,,,,,,,,,,,,,,,,,,,,,,,,,,,,,,,,,,,,,,,,,,,,,,,,,,,,,,,,,,,,,,,,,,,,,,,,,,,,,,,,,
,,6511e9adc4ba37678f5f1181,2023-12-15_14h41.06.428,kallum_motion_pilot,2023.2.3,Win32,60.0240096,6511e9adc4ba37678f5f1181,657bb317c8798c6608bceb3f,657bcbc420d87e63f1a096e7,0.051,0.051,1,101,263,101,1,seveneight,,,,,,,,,,,,,,,,,,,,,,,,,,,,,,,,,,,,,,,,,,,,,,,,,,,,,,,,,,,,,,,,,,,,,,,,,,,,,,,,,,,,,,,,,,,,,,,,,,,,,,,,,,,,,,,,,,,,,,,,,,,,,,,,,,,,,,,
,,6511e9adc4ba37678f5f1181,2023-12-15_14h41.06.428,kallum_motion_pilot,2023.2.3,Win32,60.0240096,6511e9adc4ba37678f5f1181,657bb317c8798c6608bceb3f,657bcbc420d87e63f1a096e7,0.051,0.051,1,102,264,127,1,eightseven,,,,,,,,,,,,,,,,,,,,,,,,,,,,,,,,,,,,,,,,,,,,,,,,,,,,,,,,,,,,,,,,,,,,,,,,,,,,,,,,,,,,,,,,,,,,,,,,,,,,,,,,,,,,,,,,,,,,,,,,,,,,,,,,,,,,,,,
,,6511e9adc4ba37678f5f1181,2023-12-15_14h41.06.428,kallum_motion_pilot,2023.2.3,Win32,60.0240096,6511e9adc4ba37678f5f1181,657bb317c8798c6608bceb3f,657bcbc420d87e63f1a096e7,0.051,0.051,1,103,265,123,1,sixeight,,,,,,,,,,,,,,,,,,,,,,,,,,,,,,,,,,,,,,,,,,,,,,,,,,,,,,,,,,,,,,,,,,,,,,,,,,,,,,,,,,,,,,,,,,,,,,,,,,,,,,,,,,,,,,,,,,,,,,,,,,,,,,,,,,,,,,,
,,6511e9adc4ba37678f5f1181,2023-12-15_14h41.06.428,kallum_motion_pilot,2023.2.3,Win32,60.0240096,6511e9adc4ba37678f5f1181,657bb317c8798c6608bceb3f,657bcbc420d87e63f1a096e7,0.051,0.051,1,104,266,57,1,onethree,,,,,,,,,,,,,,,,,,,,,,,,,,,,,,,,,,,,,,,,,,,,,,,,,,,,,,,,,,,,,,,,,,,,,,,,,,,,,,,,,,,,,,,,,,,,,,,,,,,,,,,,,,,,,,,,,,,,,,,,,,,,,,,,,,,,,,,
,,6511e9adc4ba37678f5f1181,2023-12-15_14h41.06.428,kallum_motion_pilot,2023.2.3,Win32,60.0240096,6511e9adc4ba37678f5f1181,657bb317c8798c6608bceb3f,657bcbc420d87e63f1a096e7,0.051,0.051,1,105,267,106,1,sixfive,,,,,,,,,,,,,,,,,,,,,,,,,,,,,,,,,,,,,,,,,,,,,,,,,,,,,,,,,,,,,,,,,,,,,,,,,,,,,,,,,,,,,,,,,,,,,,,,,,,,,,,,,,,,,,,,,,,,,,,,,,,,,,,,,,,,,,,
,,6511e9adc4ba37678f5f1181,2023-12-15_14h41.06.428,kallum_motion_pilot,2023.2.3,Win32,60.0240096,6511e9adc4ba37678f5f1181,657bb317c8798c6608bceb3f,657bcbc420d87e63f1a096e7,0.051,0.051,1,106,268,112,1,fivesix,,,,,,,,,,,,,,,,,,,,,,,,,,,,,,,,,,,,,,,,,,,,,,,,,,,,,,,,,,,,,,,,,,,,,,,,,,,,,,,,,,,,,,,,,,,,,,,,,,,,,,,,,,,,,,,,,,,,,,,,,,,,,,,,,,,,,,,
,,6511e9adc4ba37678f5f1181,2023-12-15_14h41.06.428,kallum_motion_pilot,2023.2.3,Win32,60.0240096,6511e9adc4ba37678f5f1181,657bb317c8798c6608bceb3f,657bcbc420d87e63f1a096e7,0.051,0.051,1,107,269,32,1,onetwo,,,,,,,,,,,,,,,,,,,,,,,,,,,,,,,,,,,,,,,,,,,,,,,,,,,,,,,,,,,,,,,,,,,,,,,,,,,,,,,,,,,,,,,,,,,,,,,,,,,,,,,,,,,,,,,,,,,,,,,,,,,,,,,,,,,,,,,
,,6511e9adc4ba37678f5f1181,2023-12-15_14h41.06.428,kallum_motion_pilot,2023.2.3,Win32,60.0240096,6511e9adc4ba37678f5f1181,657bb317c8798c6608bceb3f,657bcbc420d87e63f1a096e7,0.051,0.051,1,108,270,125,1,seveneight,,,,,,,,,,,,,,,,,,,,,,,,,,,,,,,,,,,,,,,,,,,,,,,,,,,,,,,,,,,,,,,,,,,,,,,,,,,,,,,,,,,,,,,,,,,,,,,,,,,,,,,,,,,,,,,,,,,,,,,,,,,,,,,,,,,,,,,
,,6511e9adc4ba37678f5f1181,2023-12-15_14h41.06.428,kallum_motion_pilot,2023.2.3,Win32,60.0240096,6511e9adc4ba37678f5f1181,657bb317c8798c6608bceb3f,657bcbc420d87e63f1a096e7,0.051,0.051,1,109,271,53,1,threefour,,,,,,,,,,,,,,,,,,,,,,,,,,,,,,,,,,,,,,,,,,,,,,,,,,,,,,,,,,,,,,,,,,,,,,,,,,,,,,,,,,,,,,,,,,,,,,,,,,,,,,,,,,,,,,,,,,,,,,,,,,,,,,,,,,,,,,,
,,6511e9adc4ba37678f5f1181,2023-12-15_14h41.06.428,kallum_motion_pilot,2023.2.3,Win32,60.0240096,6511e9adc4ba37678f5f1181,657bb317c8798c6608bceb3f,657bcbc420d87e63f1a096e7,0.051,0.051,1,110,272,30,1,fourtwo,,,,,,,,,,,,,,,,,,,,,,,,,,,,,,,,,,,,,,,,,,,,,,,,,,,,,,,,,,,,,,,,,,,,,,,,,,,,,,,,,,,,,,,,,,,,,,,,,,,,,,,,,,,,,,,,,,,,,,,,,,,,,,,,,,,,,,,
,,6511e9adc4ba37678f5f1181,2023-12-15_14h41.06.428,kallum_motion_pilot,2023.2.3,Win32,60.0240096,6511e9adc4ba37678f5f1181,657bb317c8798c6608bceb3f,657bcbc420d87e63f1a096e7,0.051,0.051,1,111,273,92,1,sevenfive,,,,,,,,,,,,,,,,,,,,,,,,,,,,,,,,,,,,,,,,,,,,,,,,,,,,,,,,,,,,,,,,,,,,,,,,,,,,,,,,,,,,,,,,,,,,,,,,,,,,,,,,,,,,,,,,,,,,,,,,,,,,,,,,,,,,,,,
,,6511e9adc4ba37678f5f1181,2023-12-15_14h41.06.428,kallum_motion_pilot,2023.2.3,Win32,60.0240096,6511e9adc4ba37678f5f1181,657bb317c8798c6608bceb3f,657bcbc420d87e63f1a096e7,0.051,0.051,1,112,274,78,1,fourtwo,,,,,,,,,,,,,,,,,,,,,,,,,,,,,,,,,,,,,,,,,,,,,,,,,,,,,,,,,,,,,,,,,,,,,,,,,,,,,,,,,,,,,,,,,,,,,,,,,,,,,,,,,,,,,,,,,,,,,,,,,,,,,,,,,,,,,,,
,,6511e9adc4ba37678f5f1181,2023-12-15_14h41.06.428,kallum_motion_pilot,2023.2.3,Win32,60.0240096,6511e9adc4ba37678f5f1181,657bb317c8798c6608bceb3f,657bcbc420d87e63f1a096e7,0.051,0.051,1,113,275,114,1,sixfive,,,,,,,,,,,,,,,,,,,,,,,,,,,,,,,,,,,,,,,,,,,,,,,,,,,,,,,,,,,,,,,,,,,,,,,,,,,,,,,,,,,,,,,,,,,,,,,,,,,,,,,,,,,,,,,,,,,,,,,,,,,,,,,,,,,,,,,
,,6511e9adc4ba37678f5f1181,2023-12-15_14h41.06.428,kallum_motion_pilot,2023.2.3,Win32,60.0240096,6511e9adc4ba37678f5f1181,657bb317c8798c6608bceb3f,657bcbc420d87e63f1a096e7,0.052,0.052,1,114,276,70,1,fourtwo,,,,,,,,,,,,,,,,,,,,,,,,,,,,,,,,,,,,,,,,,,,,,,,,,,,,,,,,,,,,,,,,,,,,,,,,,,,,,,,,,,,,,,,,,,,,,,,,,,,,,,,,,,,,,,,,,,,,,,,,,,,,,,,,,,,,,,,
,,6511e9adc4ba37678f5f1181,2023-12-15_14h41.06.428,kallum_motion_pilot,2023.2.3,Win32,60.0240096,6511e9adc4ba37678f5f1181,657bb317c8798c6608bceb3f,657bcbc420d87e63f1a096e7,0.052,0.052,1,115,277,103,1,eightseven,,,,,,,,,,,,,,,,,,,,,,,,,,,,,,,,,,,,,,,,,,,,,,,,,,,,,,,,,,,,,,,,,,,,,,,,,,,,,,,,,,,,,,,,,,,,,,,,,,,,,,,,,,,,,,,,,,,,,,,,,,,,,,,,,,,,,,,
,,6511e9adc4ba37678f5f1181,2023-12-15_14h41.06.428,kallum_motion_pilot,2023.2.3,Win32,60.0240096,6511e9adc4ba37678f5f1181,657bb317c8798c6608bceb3f,657bcbc420d87e63f1a096e7,0.052,0.052,1,116,278,10,1,twoone,,,,,,,,,,,,,,,,,,,,,,,,,,,,,,,,,,,,,,,,,,,,,,,,,,,,,,,,,,,,,,,,,,,,,,,,,,,,,,,,,,,,,,,,,,,,,,,,,,,,,,,,,,,,,,,,,,,,,,,,,,,,,,,,,,,,,,,
,,6511e9adc4ba37678f5f1181,2023-12-15_14h41.06.428,kallum_motion_pilot,2023.2.3,Win32,60.0240096,6511e9adc4ba37678f5f1181,657bb317c8798c6608bceb3f,657bcbc420d87e63f1a096e7,0.052,0.052,1,117,279,76,1,threeone,,,,,,,,,,,,,,,,,,,,,,,,,,,,,,,,,,,,,,,,,,,,,,,,,,,,,,,,,,,,,,,,,,,,,,,,,,,,,,,,,,,,,,,,,,,,,,,,,,,,,,,,,,,,,,,,,,,,,,,,,,,,,,,,,,,,,,,
,,6511e9adc4ba37678f5f1181,2023-12-15_14h41.06.428,kallum_motion_pilot,2023.2.3,Win32,60.0240096,6511e9adc4ba37678f5f1181,657bb317c8798c6608bceb3f,657bcbc420d87e63f1a096e7,0.052,0.052,1,118,280,29,1,threefour,,,,,,,,,,,,,,,,,,,,,,,,,,,,,,,,,,,,,,,,,,,,,,,,,,,,,,,,,,,,,,,,,,,,,,,,,,,,,,,,,,,,,,,,,,,,,,,,,,,,,,,,,,,,,,,,,,,,,,,,,,,,,,,,,,,,,,,
,,6511e9adc4ba37678f5f1181,2023-12-15_14h41.06.428,kallum_motion_pilot,2023.2.3,Win32,60.0240096,6511e9adc4ba37678f5f1181,657bb317c8798c6608bceb3f,657bcbc420d87e63f1a096e7,0.052,0.052,1,119,281,139,1,sixeight,,,,,,,,,,,,,,,,,,,,,,,,,,,,,,,,,,,,,,,,,,,,,,,,,,,,,,,,,,,,,,,,,,,,,,,,,,,,,,,,,,,,,,,,,,,,,,,,,,,,,,,,,,,,,,,,,,,,,,,,,,,,,,,,,,,,,,,
