startup.started,startup.stopped,Prolific ID*,date,expName,psychopyVersion,OS,frameRate,participant,study_id,session,stimpositions.started,stimpositions.stopped,hardcoded_stimulus_positions.thisRepN,hardcoded_stimulus_positions.thisTrialN,hardcoded_stimulus_positions.thisN,hardcoded_stimulus_positions.thisIndex,hardcoded_stimulus_positions.ran,StimulusPos,stimorientation.started,stimorientation.stopped,prac_stimorientation_import_loop.thisRepN,prac_stimorientation_import_loop.thisTrialN,prac_stimorientation_import_loop.thisN,prac_stimorientation_import_loop.thisIndex,prac_stimorientation_import_loop.ran,Stimorientation,welcome_instr.started,welcome_instr.stopped,key_resp.keys,key_resp.rt,key_resp.duration,response_steppedout_1.started,response_steppedout_1.stopped,key_resp_20.keys,key_resp_20.rt,key_resp_20.duration,response_steppedout_2.started,response_steppedout_2.stopped,key_resp_19.keys,key_resp_19.rt,key_resp_19.duration,stim_response_instr.started,stim_response_instr.stopped,key_resp_15.keys,key_resp_15.rt,key_resp_15.duration,direction_instr_2.started,direction_instr_2.stopped,key_resp_9.keys,key_resp_9.rt,key_resp_9.duration,instr_prac.started,instr_prac.stopped,key_resp_10.keys,key_resp_10.rt,key_resp_10.duration,Stim1_display_prac.started,Stim1_display_prac.stopped,Ecc,Circle1_ori,Circle2_ori,response_prac.started,similarity,response_time,response_prac.stopped,mouse_5.x,mouse_5.y,mouse_5.leftButton,mouse_5.midButton,mouse_5.rightButton,mouse_5.clicked_name,responseprac_feedback.started,responseprac_feedback.stopped,summary2_prac.started,summary2_prac.stopped,mouse_6.x,mouse_6.y,mouse_6.leftButton,mouse_6.midButton,mouse_6.rightButton,mouse_6.clicked_name,duringprac.thisRepN,duringprac.thisTrialN,duringprac.thisN,duringprac.thisIndex,duringprac.ran,begin.started,begin.stopped,key_resp_22.keys,key_resp_22.rt,key_resp_22.duration,Stim1_display.started,Stim1_display.stopped,circle1_ori,circle2_ori,blank.started,blank.stopped,response.started,response.stopped,mouse.x,mouse.y,mouse.leftButton,mouse.midButton,mouse.rightButton,mouse.clicked_name,response_2.started,response_2.stopped,mouse_2.x,mouse_2.y,mouse_2.leftButton,mouse_2.midButton,mouse_2.rightButton,mouse_2.clicked_name,special_trial.started,special_trial.stopped,catch_1.started,catch_1.stopped,mouse_3.x,mouse_3.y,mouse_3.leftButton,mouse_3.midButton,mouse_3.rightButton,catchresponse,catchnumber,response_time_catch,Catch,response_sum.started,response_sum.stopped,mouse_11.x,mouse_11.y,mouse_11.leftButton,mouse_11.midButton,mouse_11.rightButton,main_trial.thisRepN,main_trial.thisTrialN,main_trial.thisN,main_trial.thisIndex,main_trial.ran,Orientationtrialno,xcircle1_ori,xcircle2_ori,flip_presentation_sequence_for_double_pass.started,flip_presentation_sequence_for_double_pass.stopped,double_pass.thisRepN,double_pass.thisTrialN,double_pass.thisN,double_pass.thisIndex,double_pass.ran,goodbye.started,goodbye.stopped,key_resp_3.keys,key_resp_3.rt,key_resp_3.duration
0.003,0.0031,652c30c993f3a4a8665cddcb,2023-12-15_15h06.12.768,kallum_motion_pilot,2023.2.3,Win32,72.46376812,652c30c993f3a4a8665cddcb,657bb317c8798c6608bceb3f,657bb472576044e1e7206430,,,,,,,,,,,,,,,,,,,,,,,,,,,,,,,,,,,,,,,,,,,,,,,,,,,,,,,,,,,,,,,,,,,,,,,,,,,,,,,,,,,,,,,,,,,,,,,,,,,,,,,,,,,,,,,,,,,,,,,,,,,,,,,,,,,,,,,,,,,,,,,
,,652c30c993f3a4a8665cddcb,2023-12-15_15h06.12.768,kallum_motion_pilot,2023.2.3,Win32,72.46376812,652c30c993f3a4a8665cddcb,657bb317c8798c6608bceb3f,657bb472576044e1e7206430,0.0201,0.0202,0,0,0,29,1,threefour,,,,,,,,,,,,,,,,,,,,,,,,,,,,,,,,,,,,,,,,,,,,,,,,,,,,,,,,,,,,,,,,,,,,,,,,,,,,,,,,,,,,,,,,,,,,,,,,,,,,,,,,,,,,,,,,,,,,,,,,,,,,,,,,,,,,,,,
,,652c30c993f3a4a8665cddcb,2023-12-15_15h06.12.768,kallum_motion_pilot,2023.2.3,Win32,72.46376812,652c30c993f3a4a8665cddcb,657bb317c8798c6608bceb3f,657bb472576044e1e7206430,0.0204,0.0204,0,1,1,59,1,twofour,,,,,,,,,,,,,,,,,,,,,,,,,,,,,,,,,,,,,,,,,,,,,,,,,,,,,,,,,,,,,,,,,,,,,,,,,,,,,,,,,,,,,,,,,,,,,,,,,,,,,,,,,,,,,,,,,,,,,,,,,,,,,,,,,,,,,,,
,,652c30c993f3a4a8665cddcb,2023-12-15_15h06.12.768,kallum_motion_pilot,2023.2.3,Win32,72.46376812,652c30c993f3a4a8665cddcb,657bb317c8798c6608bceb3f,657bb472576044e1e7206430,0.0205,0.0205,0,2,2,41,1,onethree,,,,,,,,,,,,,,,,,,,,,,,,,,,,,,,,,,,,,,,,,,,,,,,,,,,,,,,,,,,,,,,,,,,,,,,,,,,,,,,,,,,,,,,,,,,,,,,,,,,,,,,,,,,,,,,,,,,,,,,,,,,,,,,,,,,,,,,
,,652c30c993f3a4a8665cddcb,2023-12-15_15h06.12.768,kallum_motion_pilot,2023.2.3,Win32,72.46376812,652c30c993f3a4a8665cddcb,657bb317c8798c6608bceb3f,657bb472576044e1e7206430,0.0205,0.0206,0,3,3,137,1,fiveseven,,,,,,,,,,,,,,,,,,,,,,,,,,,,,,,,,,,,,,,,,,,,,,,,,,,,,,,,,,,,,,,,,,,,,,,,,,,,,,,,,,,,,,,,,,,,,,,,,,,,,,,,,,,,,,,,,,,,,,,,,,,,,,,,,,,,,,,
,,652c30c993f3a4a8665cddcb,2023-12-15_15h06.12.768,kallum_motion_pilot,2023.2.3,Win32,72.46376812,652c30c993f3a4a8665cddcb,657bb317c8798c6608bceb3f,657bb472576044e1e7206430,0.0206,0.0207,0,4,4,38,1,fourtwo,,,,,,,,,,,,,,,,,,,,,,,,,,,,,,,,,,,,,,,,,,,,,,,,,,,,,,,,,,,,,,,,,,,,,,,,,,,,,,,,,,,,,,,,,,,,,,,,,,,,,,,,,,,,,,,,,,,,,,,,,,,,,,,,,,,,,,,
,,652c30c993f3a4a8665cddcb,2023-12-15_15h06.12.768,kallum_motion_pilot,2023.2.3,Win32,72.46376812,652c30c993f3a4a8665cddcb,657bb317c8798c6608bceb3f,657bb472576044e1e7206430,0.0207,0.0208,0,5,5,95,1,eightseven,,,,,,,,,,,,,,,,,,,,,,,,,,,,,,,,,,,,,,,,,,,,,,,,,,,,,,,,,,,,,,,,,,,,,,,,,,,,,,,,,,,,,,,,,,,,,,,,,,,,,,,,,,,,,,,,,,,,,,,,,,,,,,,,,,,,,,,
,,652c30c993f3a4a8665cddcb,2023-12-15_15h06.12.768,kallum_motion_pilot,2023.2.3,Win32,72.46376812,652c30c993f3a4a8665cddcb,657bb317c8798c6608bceb3f,657bb472576044e1e7206430,0.0209,0.0209,0,6,6,50,1,twoone,,,,,,,,,,,,,,,,,,,,,,,,,,,,,,,,,,,,,,,,,,,,,,,,,,,,,,,,,,,,,,,,,,,,,,,,,,,,,,,,,,,,,,,,,,,,,,,,,,,,,,,,,,,,,,,,,,,,,,,,,,,,,,,,,,,,,,,
,,652c30c993f3a4a8665cddcb,2023-12-15_15h06.12.768,kallum_motion_pilot,2023.2.3,Win32,72.46376812,652c30c993f3a4a8665cddcb,657bb317c8798c6608bceb3f,657bb472576044e1e7206430,0.021,0.021,0,7,7,43,1,twofour,,,,,,,,,,,,,,,,,,,,,,,,,,,,,,,,,,,,,,,,,,,,,,,,,,,,,,,,,,,,,,,,,,,,,,,,,,,,,,,,,,,,,,,,,,,,,,,,,,,,,,,,,,,,,,,,,,,,,,,,,,,,,,,,,,,,,,,
,,652c30c993f3a4a8665cddcb,2023-12-15_15h06.12.768,kallum_motion_pilot,2023.2.3,Win32,72.46376812,652c30c993f3a4a8665cddcb,657bb317c8798c6608bceb3f,657bb472576044e1e7206430,0.0211,0.0211,0,8,8,49,1,onethree,,,,,,,,,,,,,,,,,,,,,,,,,,,,,,,,,,,,,,,,,,,,,,,,,,,,,,,,,,,,,,,,,,,,,,,,,,,,,,,,,,,,,,,,,,,,,,,,,,,,,,,,,,,,,,,,,,,,,,,,,,,,,,,,,,,,,,,
,,652c30c993f3a4a8665cddcb,2023-12-15_15h06.12.768,kallum_motion_pilot,2023.2.3,Win32,72.46376812,652c30c993f3a4a8665cddcb,657bb317c8798c6608bceb3f,657bb472576044e1e7206430,0.0211,0.0211,0,9,9,90,1,sixfive,,,,,,,,,,,,,,,,,,,,,,,,,,,,,,,,,,,,,,,,,,,,,,,,,,,,,,,,,,,,,,,,,,,,,,,,,,,,,,,,,,,,,,,,,,,,,,,,,,,,,,,,,,,,,,,,,,,,,,,,,,,,,,,,,,,,,,,
,,652c30c993f3a4a8665cddcb,2023-12-15_15h06.12.768,kallum_motion_pilot,2023.2.3,Win32,72.46376812,652c30c993f3a4a8665cddcb,657bb317c8798c6608bceb3f,657bb472576044e1e7206430,0.0212,0.0212,0,10,10,56,1,onetwo,,,,,,,,,,,,,,,,,,,,,,,,,,,,,,,,,,,,,,,,,,,,,,,,,,,,,,,,,,,,,,,,,,,,,,,,,,,,,,,,,,,,,,,,,,,,,,,,,,,,,,,,,,,,,,,,,,,,,,,,,,,,,,,,,,,,,,,
,,652c30c993f3a4a8665cddcb,2023-12-15_15h06.12.768,kallum_motion_pilot,2023.2.3,Win32,72.46376812,652c30c993f3a4a8665cddcb,657bb317c8798c6608bceb3f,657bb472576044e1e7206430,0.0213,0.0213,0,11,11,67,1,twofour,,,,,,,,,,,,,,,,,,,,,,,,,,,,,,,,,,,,,,,,,,,,,,,,,,,,,,,,,,,,,,,,,,,,,,,,,,,,,,,,,,,,,,,,,,,,,,,,,,,,,,,,,,,,,,,,,,,,,,,,,,,,,,,,,,,,,,,
,,652c30c993f3a4a8665cddcb,2023-12-15_15h06.12.768,kallum_motion_pilot,2023.2.3,Win32,72.46376812,652c30c993f3a4a8665cddcb,657bb317c8798c6608bceb3f,657bb472576044e1e7206430,0.0214,0.0214,0,12,12,87,1,eightseven,,,,,,,,,,,,,,,,,,,,,,,,,,,,,,,,,,,,,,,,,,,,,,,,,,,,,,,,,,,,,,,,,,,,,,,,,,,,,,,,,,,,,,,,,,,,,,,,,,,,,,,,,,,,,,,,,,,,,,,,,,,,,,,,,,,,,,,
,,652c30c993f3a4a8665cddcb,2023-12-15_15h06.12.768,kallum_motion_pilot,2023.2.3,Win32,72.46376812,652c30c993f3a4a8665cddcb,657bb317c8798c6608bceb3f,657bb472576044e1e7206430,0.0214,0.0214,0,13,13,105,1,fiveseven,,,,,,,,,,,,,,,,,,,,,,,,,,,,,,,,,,,,,,,,,,,,,,,,,,,,,,,,,,,,,,,,,,,,,,,,,,,,,,,,,,,,,,,,,,,,,,,,,,,,,,,,,,,,,,,,,,,,,,,,,,,,,,,,,,,,,,,
,,652c30c993f3a4a8665cddcb,2023-12-15_15h06.12.768,kallum_motion_pilot,2023.2.3,Win32,72.46376812,652c30c993f3a4a8665cddcb,657bb317c8798c6608bceb3f,657bb472576044e1e7206430,0.0216,0.0216,0,14,14,133,1,seveneight,,,,,,,,,,,,,,,,,,,,,,,,,,,,,,,,,,,,,,,,,,,,,,,,,,,,,,,,,,,,,,,,,,,,,,,,,,,,,,,,,,,,,,,,,,,,,,,,,,,,,,,,,,,,,,,,,,,,,,,,,,,,,,,,,,,,,,,
,,652c30c993f3a4a8665cddcb,2023-12-15_15h06.12.768,kallum_motion_pilot,2023.2.3,Win32,72.46376812,652c30c993f3a4a8665cddcb,657bb317c8798c6608bceb3f,657bb472576044e1e7206430,0.0216,0.0216,0,15,15,117,1,seveneight,,,,,,,,,,,,,,,,,,,,,,,,,,,,,,,,,,,,,,,,,,,,,,,,,,,,,,,,,,,,,,,,,,,,,,,,,,,,,,,,,,,,,,,,,,,,,,,,,,,,,,,,,,,,,,,,,,,,,,,,,,,,,,,,,,,,,,,
,,652c30c993f3a4a8665cddcb,2023-12-15_15h06.12.768,kallum_motion_pilot,2023.2.3,Win32,72.46376812,652c30c993f3a4a8665cddcb,657bb317c8798c6608bceb3f,657bb472576044e1e7206430,0.0225,0.0226,0,16,16,143,1,eightseven,,,,,,,,,,,,,,,,,,,,,,,,,,,,,,,,,,,,,,,,,,,,,,,,,,,,,,,,,,,,,,,,,,,,,,,,,,,,,,,,,,,,,,,,,,,,,,,,,,,,,,,,,,,,,,,,,,,,,,,,,,,,,,,,,,,,,,,
,,652c30c993f3a4a8665cddcb,2023-12-15_15h06.12.768,kallum_motion_pilot,2023.2.3,Win32,72.46376812,652c30c993f3a4a8665cddcb,657bb317c8798c6608bceb3f,657bb472576044e1e7206430,0.0227,0.0227,0,17,17,21,1,threefour,,,,,,,,,,,,,,,,,,,,,,,,,,,,,,,,,,,,,,,,,,,,,,,,,,,,,,,,,,,,,,,,,,,,,,,,,,,,,,,,,,,,,,,,,,,,,,,,,,,,,,,,,,,,,,,,,,,,,,,,,,,,,,,,,,,,,,,
,,652c30c993f3a4a8665cddcb,2023-12-15_15h06.12.768,kallum_motion_pilot,2023.2.3,Win32,72.46376812,652c30c993f3a4a8665cddcb,657bb317c8798c6608bceb3f,657bb472576044e1e7206430,0.0228,0.0228,0,18,18,4,1,threeone,,,,,,,,,,,,,,,,,,,,,,,,,,,,,,,,,,,,,,,,,,,,,,,,,,,,,,,,,,,,,,,,,,,,,,,,,,,,,,,,,,,,,,,,,,,,,,,,,,,,,,,,,,,,,,,,,,,,,,,,,,,,,,,,,,,,,,,
,,652c30c993f3a4a8665cddcb,2023-12-15_15h06.12.768,kallum_motion_pilot,2023.2.3,Win32,72.46376812,652c30c993f3a4a8665cddcb,657bb317c8798c6608bceb3f,657bb472576044e1e7206430,0.0229,0.0229,0,19,19,148,1,sevenfive,,,,,,,,,,,,,,,,,,,,,,,,,,,,,,,,,,,,,,,,,,,,,,,,,,,,,,,,,,,,,,,,,,,,,,,,,,,,,,,,,,,,,,,,,,,,,,,,,,,,,,,,,,,,,,,,,,,,,,,,,,,,,,,,,,,,,,,
,,652c30c993f3a4a8665cddcb,2023-12-15_15h06.12.768,kallum_motion_pilot,2023.2.3,Win32,72.46376812,652c30c993f3a4a8665cddcb,657bb317c8798c6608bceb3f,657bb472576044e1e7206430,0.0229,0.0229,0,20,20,150,1,eightsix,,,,,,,,,,,,,,,,,,,,,,,,,,,,,,,,,,,,,,,,,,,,,,,,,,,,,,,,,,,,,,,,,,,,,,,,,,,,,,,,,,,,,,,,,,,,,,,,,,,,,,,,,,,,,,,,,,,,,,,,,,,,,,,,,,,,,,,
,,652c30c993f3a4a8665cddcb,2023-12-15_15h06.12.768,kallum_motion_pilot,2023.2.3,Win32,72.46376812,652c30c993f3a4a8665cddcb,657bb317c8798c6608bceb3f,657bb472576044e1e7206430,0.023,0.023,0,21,21,39,1,fourthree,,,,,,,,,,,,,,,,,,,,,,,,,,,,,,,,,,,,,,,,,,,,,,,,,,,,,,,,,,,,,,,,,,,,,,,,,,,,,,,,,,,,,,,,,,,,,,,,,,,,,,,,,,,,,,,,,,,,,,,,,,,,,,,,,,,,,,,
,,652c30c993f3a4a8665cddcb,2023-12-15_15h06.12.768,kallum_motion_pilot,2023.2.3,Win32,72.46376812,652c30c993f3a4a8665cddcb,657bb317c8798c6608bceb3f,657bb472576044e1e7206430,0.023,0.023,0,22,22,157,1,seveneight,,,,,,,,,,,,,,,,,,,,,,,,,,,,,,,,,,,,,,,,,,,,,,,,,,,,,,,,,,,,,,,,,,,,,,,,,,,,,,,,,,,,,,,,,,,,,,,,,,,,,,,,,,,,,,,,,,,,,,,,,,,,,,,,,,,,,,,
,,652c30c993f3a4a8665cddcb,2023-12-15_15h06.12.768,kallum_motion_pilot,2023.2.3,Win32,72.46376812,652c30c993f3a4a8665cddcb,657bb317c8798c6608bceb3f,657bb472576044e1e7206430,0.0232,0.0232,0,23,23,36,1,threeone,,,,,,,,,,,,,,,,,,,,,,,,,,,,,,,,,,,,,,,,,,,,,,,,,,,,,,,,,,,,,,,,,,,,,,,,,,,,,,,,,,,,,,,,,,,,,,,,,,,,,,,,,,,,,,,,,,,,,,,,,,,,,,,,,,,,,,,
,,652c30c993f3a4a8665cddcb,2023-12-15_15h06.12.768,kallum_motion_pilot,2023.2.3,Win32,72.46376812,652c30c993f3a4a8665cddcb,657bb317c8798c6608bceb3f,657bb472576044e1e7206430,0.0232,0.0232,0,24,24,69,1,threefour,,,,,,,,,,,,,,,,,,,,,,,,,,,,,,,,,,,,,,,,,,,,,,,,,,,,,,,,,,,,,,,,,,,,,,,,,,,,,,,,,,,,,,,,,,,,,,,,,,,,,,,,,,,,,,,,,,,,,,,,,,,,,,,,,,,,,,,
,,652c30c993f3a4a8665cddcb,2023-12-15_15h06.12.768,kallum_motion_pilot,2023.2.3,Win32,72.46376812,652c30c993f3a4a8665cddcb,657bb317c8798c6608bceb3f,657bb472576044e1e7206430,0.0232,0.0233,0,25,25,124,1,sevenfive,,,,,,,,,,,,,,,,,,,,,,,,,,,,,,,,,,,,,,,,,,,,,,,,,,,,,,,,,,,,,,,,,,,,,,,,,,,,,,,,,,,,,,,,,,,,,,,,,,,,,,,,,,,,,,,,,,,,,,,,,,,,,,,,,,,,,,,
,,652c30c993f3a4a8665cddcb,2023-12-15_15h06.12.768,kallum_motion_pilot,2023.2.3,Win32,72.46376812,652c30c993f3a4a8665cddcb,657bb317c8798c6608bceb3f,657bb472576044e1e7206430,0.0234,0.0234,0,26,26,37,1,threefour,,,,,,,,,,,,,,,,,,,,,,,,,,,,,,,,,,,,,,,,,,,,,,,,,,,,,,,,,,,,,,,,,,,,,,,,,,,,,,,,,,,,,,,,,,,,,,,,,,,,,,,,,,,,,,,,,,,,,,,,,,,,,,,,,,,,,,,
,,652c30c993f3a4a8665cddcb,2023-12-15_15h06.12.768,kallum_motion_pilot,2023.2.3,Win32,72.46376812,652c30c993f3a4a8665cddcb,657bb317c8798c6608bceb3f,657bb472576044e1e7206430,0.0234,0.0234,0,27,27,0,1,onetwo,,,,,,,,,,,,,,,,,,,,,,,,,,,,,,,,,,,,,,,,,,,,,,,,,,,,,,,,,,,,,,,,,,,,,,,,,,,,,,,,,,,,,,,,,,,,,,,,,,,,,,,,,,,,,,,,,,,,,,,,,,,,,,,,,,,,,,,
,,652c30c993f3a4a8665cddcb,2023-12-15_15h06.12.768,kallum_motion_pilot,2023.2.3,Win32,72.46376812,652c30c993f3a4a8665cddcb,657bb317c8798c6608bceb3f,657bb472576044e1e7206430,0.0235,0.0235,0,28,28,154,1,sixfive,,,,,,,,,,,,,,,,,,,,,,,,,,,,,,,,,,,,,,,,,,,,,,,,,,,,,,,,,,,,,,,,,,,,,,,,,,,,,,,,,,,,,,,,,,,,,,,,,,,,,,,,,,,,,,,,,,,,,,,,,,,,,,,,,,,,,,,
,,652c30c993f3a4a8665cddcb,2023-12-15_15h06.12.768,kallum_motion_pilot,2023.2.3,Win32,72.46376812,652c30c993f3a4a8665cddcb,657bb317c8798c6608bceb3f,657bb472576044e1e7206430,0.0236,0.0236,0,29,29,57,1,onethree,,,,,,,,,,,,,,,,,,,,,,,,,,,,,,,,,,,,,,,,,,,,,,,,,,,,,,,,,,,,,,,,,,,,,,,,,,,,,,,,,,,,,,,,,,,,,,,,,,,,,,,,,,,,,,,,,,,,,,,,,,,,,,,,,,,,,,,
,,652c30c993f3a4a8665cddcb,2023-12-15_15h06.12.768,kallum_motion_pilot,2023.2.3,Win32,72.46376812,652c30c993f3a4a8665cddcb,657bb317c8798c6608bceb3f,657bb472576044e1e7206430,0.0236,0.0236,0,30,30,104,1,fivesix,,,,,,,,,,,,,,,,,,,,,,,,,,,,,,,,,,,,,,,,,,,,,,,,,,,,,,,,,,,,,,,,,,,,,,,,,,,,,,,,,,,,,,,,,,,,,,,,,,,,,,,,,,,,,,,,,,,,,,,,,,,,,,,,,,,,,,,
,,652c30c993f3a4a8665cddcb,2023-12-15_15h06.12.768,kallum_motion_pilot,2023.2.3,Win32,72.46376812,652c30c993f3a4a8665cddcb,657bb317c8798c6608bceb3f,657bb472576044e1e7206430,0.0237,0.0237,0,31,31,136,1,fivesix,,,,,,,,,,,,,,,,,,,,,,,,,,,,,,,,,,,,,,,,,,,,,,,,,,,,,,,,,,,,,,,,,,,,,,,,,,,,,,,,,,,,,,,,,,,,,,,,,,,,,,,,,,,,,,,,,,,,,,,,,,,,,,,,,,,,,,,
,,652c30c993f3a4a8665cddcb,2023-12-15_15h06.12.768,kallum_motion_pilot,2023.2.3,Win32,72.46376812,652c30c993f3a4a8665cddcb,657bb317c8798c6608bceb3f,657bb472576044e1e7206430,0.0237,0.0237,0,32,32,76,1,threeone,,,,,,,,,,,,,,,,,,,,,,,,,,,,,,,,,,,,,,,,,,,,,,,,,,,,,,,,,,,,,,,,,,,,,,,,,,,,,,,,,,,,,,,,,,,,,,,,,,,,,,,,,,,,,,,,,,,,,,,,,,,,,,,,,,,,,,,
,,652c30c993f3a4a8665cddcb,2023-12-15_15h06.12.768,kallum_motion_pilot,2023.2.3,Win32,72.46376812,652c30c993f3a4a8665cddcb,657bb317c8798c6608bceb3f,657bb472576044e1e7206430,0.0238,0.0239,0,33,33,16,1,onetwo,,,,,,,,,,,,,,,,,,,,,,,,,,,,,,,,,,,,,,,,,,,,,,,,,,,,,,,,,,,,,,,,,,,,,,,,,,,,,,,,,,,,,,,,,,,,,,,,,,,,,,,,,,,,,,,,,,,,,,,,,,,,,,,,,,,,,,,
,,652c30c993f3a4a8665cddcb,2023-12-15_15h06.12.768,kallum_motion_pilot,2023.2.3,Win32,72.46376812,652c30c993f3a4a8665cddcb,657bb317c8798c6608bceb3f,657bb472576044e1e7206430,0.0239,0.0239,0,34,34,53,1,threefour,,,,,,,,,,,,,,,,,,,,,,,,,,,,,,,,,,,,,,,,,,,,,,,,,,,,,,,,,,,,,,,,,,,,,,,,,,,,,,,,,,,,,,,,,,,,,,,,,,,,,,,,,,,,,,,,,,,,,,,,,,,,,,,,,,,,,,,
,,652c30c993f3a4a8665cddcb,2023-12-15_15h06.12.768,kallum_motion_pilot,2023.2.3,Win32,72.46376812,652c30c993f3a4a8665cddcb,657bb317c8798c6608bceb3f,657bb472576044e1e7206430,0.024,0.024,0,35,35,2,1,twoone,,,,,,,,,,,,,,,,,,,,,,,,,,,,,,,,,,,,,,,,,,,,,,,,,,,,,,,,,,,,,,,,,,,,,,,,,,,,,,,,,,,,,,,,,,,,,,,,,,,,,,,,,,,,,,,,,,,,,,,,,,,,,,,,,,,,,,,
,,652c30c993f3a4a8665cddcb,2023-12-15_15h06.12.768,kallum_motion_pilot,2023.2.3,Win32,72.46376812,652c30c993f3a4a8665cddcb,657bb317c8798c6608bceb3f,657bb472576044e1e7206430,0.024,0.0241,0,36,36,139,1,sixeight,,,,,,,,,,,,,,,,,,,,,,,,,,,,,,,,,,,,,,,,,,,,,,,,,,,,,,,,,,,,,,,,,,,,,,,,,,,,,,,,,,,,,,,,,,,,,,,,,,,,,,,,,,,,,,,,,,,,,,,,,,,,,,,,,,,,,,,
,,652c30c993f3a4a8665cddcb,2023-12-15_15h06.12.768,kallum_motion_pilot,2023.2.3,Win32,72.46376812,652c30c993f3a4a8665cddcb,657bb317c8798c6608bceb3f,657bb472576044e1e7206430,0.0241,0.0241,0,37,37,46,1,fourtwo,,,,,,,,,,,,,,,,,,,,,,,,,,,,,,,,,,,,,,,,,,,,,,,,,,,,,,,,,,,,,,,,,,,,,,,,,,,,,,,,,,,,,,,,,,,,,,,,,,,,,,,,,,,,,,,,,,,,,,,,,,,,,,,,,,,,,,,
,,652c30c993f3a4a8665cddcb,2023-12-15_15h06.12.768,kallum_motion_pilot,2023.2.3,Win32,72.46376812,652c30c993f3a4a8665cddcb,657bb317c8798c6608bceb3f,657bb472576044e1e7206430,0.0243,0.0243,0,38,38,8,1,onetwo,,,,,,,,,,,,,,,,,,,,,,,,,,,,,,,,,,,,,,,,,,,,,,,,,,,,,,,,,,,,,,,,,,,,,,,,,,,,,,,,,,,,,,,,,,,,,,,,,,,,,,,,,,,,,,,,,,,,,,,,,,,,,,,,,,,,,,,
,,652c30c993f3a4a8665cddcb,2023-12-15_15h06.12.768,kallum_motion_pilot,2023.2.3,Win32,72.46376812,652c30c993f3a4a8665cddcb,657bb317c8798c6608bceb3f,657bb472576044e1e7206430,0.0244,0.0244,0,39,39,79,1,eightseven,,,,,,,,,,,,,,,,,,,,,,,,,,,,,,,,,,,,,,,,,,,,,,,,,,,,,,,,,,,,,,,,,,,,,,,,,,,,,,,,,,,,,,,,,,,,,,,,,,,,,,,,,,,,,,,,,,,,,,,,,,,,,,,,,,,,,,,
,,652c30c993f3a4a8665cddcb,2023-12-15_15h06.12.768,kallum_motion_pilot,2023.2.3,Win32,72.46376812,652c30c993f3a4a8665cddcb,657bb317c8798c6608bceb3f,657bb472576044e1e7206430,0.0244,0.0244,0,40,40,18,1,twoone,,,,,,,,,,,,,,,,,,,,,,,,,,,,,,,,,,,,,,,,,,,,,,,,,,,,,,,,,,,,,,,,,,,,,,,,,,,,,,,,,,,,,,,,,,,,,,,,,,,,,,,,,,,,,,,,,,,,,,,,,,,,,,,,,,,,,,,
,,652c30c993f3a4a8665cddcb,2023-12-15_15h06.12.768,kallum_motion_pilot,2023.2.3,Win32,72.46376812,652c30c993f3a4a8665cddcb,657bb317c8798c6608bceb3f,657bb472576044e1e7206430,0.0245,0.0245,0,41,41,98,1,sixfive,,,,,,,,,,,,,,,,,,,,,,,,,,,,,,,,,,,,,,,,,,,,,,,,,,,,,,,,,,,,,,,,,,,,,,,,,,,,,,,,,,,,,,,,,,,,,,,,,,,,,,,,,,,,,,,,,,,,,,,,,,,,,,,,,,,,,,,
,,652c30c993f3a4a8665cddcb,2023-12-15_15h06.12.768,kallum_motion_pilot,2023.2.3,Win32,72.46376812,652c30c993f3a4a8665cddcb,657bb317c8798c6608bceb3f,657bb472576044e1e7206430,0.0245,0.0245,0,42,42,48,1,onetwo,,,,,,,,,,,,,,,,,,,,,,,,,,,,,,,,,,,,,,,,,,,,,,,,,,,,,,,,,,,,,,,,,,,,,,,,,,,,,,,,,,,,,,,,,,,,,,,,,,,,,,,,,,,,,,,,,,,,,,,,,,,,,,,,,,,,,,,
,,652c30c993f3a4a8665cddcb,2023-12-15_15h06.12.768,kallum_motion_pilot,2023.2.3,Win32,72.46376812,652c30c993f3a4a8665cddcb,657bb317c8798c6608bceb3f,657bb472576044e1e7206430,0.0246,0.0247,0,43,43,101,1,seveneight,,,,,,,,,,,,,,,,,,,,,,,,,,,,,,,,,,,,,,,,,,,,,,,,,,,,,,,,,,,,,,,,,,,,,,,,,,,,,,,,,,,,,,,,,,,,,,,,,,,,,,,,,,,,,,,,,,,,,,,,,,,,,,,,,,,,,,,
,,652c30c993f3a4a8665cddcb,2023-12-15_15h06.12.768,kallum_motion_pilot,2023.2.3,Win32,72.46376812,652c30c993f3a4a8665cddcb,657bb317c8798c6608bceb3f,657bb472576044e1e7206430,0.0247,0.0248,0,44,44,44,1,threeone,,,,,,,,,,,,,,,,,,,,,,,,,,,,,,,,,,,,,,,,,,,,,,,,,,,,,,,,,,,,,,,,,,,,,,,,,,,,,,,,,,,,,,,,,,,,,,,,,,,,,,,,,,,,,,,,,,,,,,,,,,,,,,,,,,,,,,,
,,652c30c993f3a4a8665cddcb,2023-12-15_15h06.12.768,kallum_motion_pilot,2023.2.3,Win32,72.46376812,652c30c993f3a4a8665cddcb,657bb317c8798c6608bceb3f,657bb472576044e1e7206430,0.0248,0.0248,0,45,45,73,1,onethree,,,,,,,,,,,,,,,,,,,,,,,,,,,,,,,,,,,,,,,,,,,,,,,,,,,,,,,,,,,,,,,,,,,,,,,,,,,,,,,,,,,,,,,,,,,,,,,,,,,,,,,,,,,,,,,,,,,,,,,,,,,,,,,,,,,,,,,
,,652c30c993f3a4a8665cddcb,2023-12-15_15h06.12.768,kallum_motion_pilot,2023.2.3,Win32,72.46376812,652c30c993f3a4a8665cddcb,657bb317c8798c6608bceb3f,657bb472576044e1e7206430,0.0248,0.0248,0,46,46,68,1,threeone,,,,,,,,,,,,,,,,,,,,,,,,,,,,,,,,,,,,,,,,,,,,,,,,,,,,,,,,,,,,,,,,,,,,,,,,,,,,,,,,,,,,,,,,,,,,,,,,,,,,,,,,,,,,,,,,,,,,,,,,,,,,,,,,,,,,,,,
,,652c30c993f3a4a8665cddcb,2023-12-15_15h06.12.768,kallum_motion_pilot,2023.2.3,Win32,72.46376812,652c30c993f3a4a8665cddcb,657bb317c8798c6608bceb3f,657bb472576044e1e7206430,0.0249,0.0249,0,47,47,75,1,twofour,,,,,,,,,,,,,,,,,,,,,,,,,,,,,,,,,,,,,,,,,,,,,,,,,,,,,,,,,,,,,,,,,,,,,,,,,,,,,,,,,,,,,,,,,,,,,,,,,,,,,,,,,,,,,,,,,,,,,,,,,,,,,,,,,,,,,,,
,,652c30c993f3a4a8665cddcb,2023-12-15_15h06.12.768,kallum_motion_pilot,2023.2.3,Win32,72.46376812,652c30c993f3a4a8665cddcb,657bb317c8798c6608bceb3f,657bb472576044e1e7206430,0.025,0.025,0,48,48,55,1,fourthree,,,,,,,,,,,,,,,,,,,,,,,,,,,,,,,,,,,,,,,,,,,,,,,,,,,,,,,,,,,,,,,,,,,,,,,,,,,,,,,,,,,,,,,,,,,,,,,,,,,,,,,,,,,,,,,,,,,,,,,,,,,,,,,,,,,,,,,
,,652c30c993f3a4a8665cddcb,2023-12-15_15h06.12.768,kallum_motion_pilot,2023.2.3,Win32,72.46376812,652c30c993f3a4a8665cddcb,657bb317c8798c6608bceb3f,657bb472576044e1e7206430,0.0251,0.0251,0,49,49,5,1,threefour,,,,,,,,,,,,,,,,,,,,,,,,,,,,,,,,,,,,,,,,,,,,,,,,,,,,,,,,,,,,,,,,,,,,,,,,,,,,,,,,,,,,,,,,,,,,,,,,,,,,,,,,,,,,,,,,,,,,,,,,,,,,,,,,,,,,,,,
,,652c30c993f3a4a8665cddcb,2023-12-15_15h06.12.768,kallum_motion_pilot,2023.2.3,Win32,72.46376812,652c30c993f3a4a8665cddcb,657bb317c8798c6608bceb3f,657bb472576044e1e7206430,0.0252,0.0252,0,50,50,141,1,seveneight,,,,,,,,,,,,,,,,,,,,,,,,,,,,,,,,,,,,,,,,,,,,,,,,,,,,,,,,,,,,,,,,,,,,,,,,,,,,,,,,,,,,,,,,,,,,,,,,,,,,,,,,,,,,,,,,,,,,,,,,,,,,,,,,,,,,,,,
,,652c30c993f3a4a8665cddcb,2023-12-15_15h06.12.768,kallum_motion_pilot,2023.2.3,Win32,72.46376812,652c30c993f3a4a8665cddcb,657bb317c8798c6608bceb3f,657bb472576044e1e7206430,0.0252,0.0253,0,51,51,119,1,eightseven,,,,,,,,,,,,,,,,,,,,,,,,,,,,,,,,,,,,,,,,,,,,,,,,,,,,,,,,,,,,,,,,,,,,,,,,,,,,,,,,,,,,,,,,,,,,,,,,,,,,,,,,,,,,,,,,,,,,,,,,,,,,,,,,,,,,,,,
,,652c30c993f3a4a8665cddcb,2023-12-15_15h06.12.768,kallum_motion_pilot,2023.2.3,Win32,72.46376812,652c30c993f3a4a8665cddcb,657bb317c8798c6608bceb3f,657bb472576044e1e7206430,0.0254,0.0254,0,52,52,58,1,twoone,,,,,,,,,,,,,,,,,,,,,,,,,,,,,,,,,,,,,,,,,,,,,,,,,,,,,,,,,,,,,,,,,,,,,,,,,,,,,,,,,,,,,,,,,,,,,,,,,,,,,,,,,,,,,,,,,,,,,,,,,,,,,,,,,,,,,,,
,,652c30c993f3a4a8665cddcb,2023-12-15_15h06.12.768,kallum_motion_pilot,2023.2.3,Win32,72.46376812,652c30c993f3a4a8665cddcb,657bb317c8798c6608bceb3f,657bb472576044e1e7206430,0.0255,0.0255,0,53,53,81,1,fiveseven,,,,,,,,,,,,,,,,,,,,,,,,,,,,,,,,,,,,,,,,,,,,,,,,,,,,,,,,,,,,,,,,,,,,,,,,,,,,,,,,,,,,,,,,,,,,,,,,,,,,,,,,,,,,,,,,,,,,,,,,,,,,,,,,,,,,,,,
,,652c30c993f3a4a8665cddcb,2023-12-15_15h06.12.768,kallum_motion_pilot,2023.2.3,Win32,72.46376812,652c30c993f3a4a8665cddcb,657bb317c8798c6608bceb3f,657bb472576044e1e7206430,0.0256,0.0256,0,54,54,60,1,threeone,,,,,,,,,,,,,,,,,,,,,,,,,,,,,,,,,,,,,,,,,,,,,,,,,,,,,,,,,,,,,,,,,,,,,,,,,,,,,,,,,,,,,,,,,,,,,,,,,,,,,,,,,,,,,,,,,,,,,,,,,,,,,,,,,,,,,,,
,,652c30c993f3a4a8665cddcb,2023-12-15_15h06.12.768,kallum_motion_pilot,2023.2.3,Win32,72.46376812,652c30c993f3a4a8665cddcb,657bb317c8798c6608bceb3f,657bb472576044e1e7206430,0.0258,0.0258,0,55,55,77,1,threefour,,,,,,,,,,,,,,,,,,,,,,,,,,,,,,,,,,,,,,,,,,,,,,,,,,,,,,,,,,,,,,,,,,,,,,,,,,,,,,,,,,,,,,,,,,,,,,,,,,,,,,,,,,,,,,,,,,,,,,,,,,,,,,,,,,,,,,,
,,652c30c993f3a4a8665cddcb,2023-12-15_15h06.12.768,kallum_motion_pilot,2023.2.3,Win32,72.46376812,652c30c993f3a4a8665cddcb,657bb317c8798c6608bceb3f,657bb472576044e1e7206430,0.0258,0.0258,0,56,56,23,1,fourthree,,,,,,,,,,,,,,,,,,,,,,,,,,,,,,,,,,,,,,,,,,,,,,,,,,,,,,,,,,,,,,,,,,,,,,,,,,,,,,,,,,,,,,,,,,,,,,,,,,,,,,,,,,,,,,,,,,,,,,,,,,,,,,,,,,,,,,,
,,652c30c993f3a4a8665cddcb,2023-12-15_15h06.12.768,kallum_motion_pilot,2023.2.3,Win32,72.46376812,652c30c993f3a4a8665cddcb,657bb317c8798c6608bceb3f,657bb472576044e1e7206430,0.0259,0.0259,0,57,57,134,1,eightsix,,,,,,,,,,,,,,,,,,,,,,,,,,,,,,,,,,,,,,,,,,,,,,,,,,,,,,,,,,,,,,,,,,,,,,,,,,,,,,,,,,,,,,,,,,,,,,,,,,,,,,,,,,,,,,,,,,,,,,,,,,,,,,,,,,,,,,,
,,652c30c993f3a4a8665cddcb,2023-12-15_15h06.12.768,kallum_motion_pilot,2023.2.3,Win32,72.46376812,652c30c993f3a4a8665cddcb,657bb317c8798c6608bceb3f,657bb472576044e1e7206430,0.026,0.026,0,58,58,102,1,eightsix,,,,,,,,,,,,,,,,,,,,,,,,,,,,,,,,,,,,,,,,,,,,,,,,,,,,,,,,,,,,,,,,,,,,,,,,,,,,,,,,,,,,,,,,,,,,,,,,,,,,,,,,,,,,,,,,,,,,,,,,,,,,,,,,,,,,,,,
,,652c30c993f3a4a8665cddcb,2023-12-15_15h06.12.768,kallum_motion_pilot,2023.2.3,Win32,72.46376812,652c30c993f3a4a8665cddcb,657bb317c8798c6608bceb3f,657bb472576044e1e7206430,0.0261,0.0261,0,59,59,159,1,eightseven,,,,,,,,,,,,,,,,,,,,,,,,,,,,,,,,,,,,,,,,,,,,,,,,,,,,,,,,,,,,,,,,,,,,,,,,,,,,,,,,,,,,,,,,,,,,,,,,,,,,,,,,,,,,,,,,,,,,,,,,,,,,,,,,,,,,,,,
,,652c30c993f3a4a8665cddcb,2023-12-15_15h06.12.768,kallum_motion_pilot,2023.2.3,Win32,72.46376812,652c30c993f3a4a8665cddcb,657bb317c8798c6608bceb3f,657bb472576044e1e7206430,0.0262,0.0262,0,60,60,129,1,fiveseven,,,,,,,,,,,,,,,,,,,,,,,,,,,,,,,,,,,,,,,,,,,,,,,,,,,,,,,,,,,,,,,,,,,,,,,,,,,,,,,,,,,,,,,,,,,,,,,,,,,,,,,,,,,,,,,,,,,,,,,,,,,,,,,,,,,,,,,
,,652c30c993f3a4a8665cddcb,2023-12-15_15h06.12.768,kallum_motion_pilot,2023.2.3,Win32,72.46376812,652c30c993f3a4a8665cddcb,657bb317c8798c6608bceb3f,657bb472576044e1e7206430,0.0263,0.0263,0,61,61,13,1,threefour,,,,,,,,,,,,,,,,,,,,,,,,,,,,,,,,,,,,,,,,,,,,,,,,,,,,,,,,,,,,,,,,,,,,,,,,,,,,,,,,,,,,,,,,,,,,,,,,,,,,,,,,,,,,,,,,,,,,,,,,,,,,,,,,,,,,,,,
,,652c30c993f3a4a8665cddcb,2023-12-15_15h06.12.768,kallum_motion_pilot,2023.2.3,Win32,72.46376812,652c30c993f3a4a8665cddcb,657bb317c8798c6608bceb3f,657bb472576044e1e7206430,0.0264,0.0264,0,62,62,33,1,onethree,,,,,,,,,,,,,,,,,,,,,,,,,,,,,,,,,,,,,,,,,,,,,,,,,,,,,,,,,,,,,,,,,,,,,,,,,,,,,,,,,,,,,,,,,,,,,,,,,,,,,,,,,,,,,,,,,,,,,,,,,,,,,,,,,,,,,,,
,,652c30c993f3a4a8665cddcb,2023-12-15_15h06.12.768,kallum_motion_pilot,2023.2.3,Win32,72.46376812,652c30c993f3a4a8665cddcb,657bb317c8798c6608bceb3f,657bb472576044e1e7206430,0.0265,0.0265,0,63,63,6,1,fourtwo,,,,,,,,,,,,,,,,,,,,,,,,,,,,,,,,,,,,,,,,,,,,,,,,,,,,,,,,,,,,,,,,,,,,,,,,,,,,,,,,,,,,,,,,,,,,,,,,,,,,,,,,,,,,,,,,,,,,,,,,,,,,,,,,,,,,,,,
,,652c30c993f3a4a8665cddcb,2023-12-15_15h06.12.768,kallum_motion_pilot,2023.2.3,Win32,72.46376812,652c30c993f3a4a8665cddcb,657bb317c8798c6608bceb3f,657bb472576044e1e7206430,0.0265,0.0265,0,64,64,113,1,fiveseven,,,,,,,,,,,,,,,,,,,,,,,,,,,,,,,,,,,,,,,,,,,,,,,,,,,,,,,,,,,,,,,,,,,,,,,,,,,,,,,,,,,,,,,,,,,,,,,,,,,,,,,,,,,,,,,,,,,,,,,,,,,,,,,,,,,,,,,
,,652c30c993f3a4a8665cddcb,2023-12-15_15h06.12.768,kallum_motion_pilot,2023.2.3,Win32,72.46376812,652c30c993f3a4a8665cddcb,657bb317c8798c6608bceb3f,657bb472576044e1e7206430,0.0266,0.0267,0,65,65,120,1,fivesix,,,,,,,,,,,,,,,,,,,,,,,,,,,,,,,,,,,,,,,,,,,,,,,,,,,,,,,,,,,,,,,,,,,,,,,,,,,,,,,,,,,,,,,,,,,,,,,,,,,,,,,,,,,,,,,,,,,,,,,,,,,,,,,,,,,,,,,
,,652c30c993f3a4a8665cddcb,2023-12-15_15h06.12.768,kallum_motion_pilot,2023.2.3,Win32,72.46376812,652c30c993f3a4a8665cddcb,657bb317c8798c6608bceb3f,657bb472576044e1e7206430,0.0267,0.0268,0,66,66,35,1,twofour,,,,,,,,,,,,,,,,,,,,,,,,,,,,,,,,,,,,,,,,,,,,,,,,,,,,,,,,,,,,,,,,,,,,,,,,,,,,,,,,,,,,,,,,,,,,,,,,,,,,,,,,,,,,,,,,,,,,,,,,,,,,,,,,,,,,,,,
,,652c30c993f3a4a8665cddcb,2023-12-15_15h06.12.768,kallum_motion_pilot,2023.2.3,Win32,72.46376812,652c30c993f3a4a8665cddcb,657bb317c8798c6608bceb3f,657bb472576044e1e7206430,0.0268,0.0268,0,67,67,149,1,seveneight,,,,,,,,,,,,,,,,,,,,,,,,,,,,,,,,,,,,,,,,,,,,,,,,,,,,,,,,,,,,,,,,,,,,,,,,,,,,,,,,,,,,,,,,,,,,,,,,,,,,,,,,,,,,,,,,,,,,,,,,,,,,,,,,,,,,,,,
,,652c30c993f3a4a8665cddcb,2023-12-15_15h06.12.768,kallum_motion_pilot,2023.2.3,Win32,72.46376812,652c30c993f3a4a8665cddcb,657bb317c8798c6608bceb3f,657bb472576044e1e7206430,0.0269,0.0269,0,68,68,115,1,sixeight,,,,,,,,,,,,,,,,,,,,,,,,,,,,,,,,,,,,,,,,,,,,,,,,,,,,,,,,,,,,,,,,,,,,,,,,,,,,,,,,,,,,,,,,,,,,,,,,,,,,,,,,,,,,,,,,,,,,,,,,,,,,,,,,,,,,,,,
,,652c30c993f3a4a8665cddcb,2023-12-15_15h06.12.768,kallum_motion_pilot,2023.2.3,Win32,72.46376812,652c30c993f3a4a8665cddcb,657bb317c8798c6608bceb3f,657bb472576044e1e7206430,0.027,0.027,0,69,69,142,1,eightsix,,,,,,,,,,,,,,,,,,,,,,,,,,,,,,,,,,,,,,,,,,,,,,,,,,,,,,,,,,,,,,,,,,,,,,,,,,,,,,,,,,,,,,,,,,,,,,,,,,,,,,,,,,,,,,,,,,,,,,,,,,,,,,,,,,,,,,,
,,652c30c993f3a4a8665cddcb,2023-12-15_15h06.12.768,kallum_motion_pilot,2023.2.3,Win32,72.46376812,652c30c993f3a4a8665cddcb,657bb317c8798c6608bceb3f,657bb472576044e1e7206430,0.027,0.027,0,70,70,161,1,fiveseven,,,,,,,,,,,,,,,,,,,,,,,,,,,,,,,,,,,,,,,,,,,,,,,,,,,,,,,,,,,,,,,,,,,,,,,,,,,,,,,,,,,,,,,,,,,,,,,,,,,,,,,,,,,,,,,,,,,,,,,,,,,,,,,,,,,,,,,
,,652c30c993f3a4a8665cddcb,2023-12-15_15h06.12.768,kallum_motion_pilot,2023.2.3,Win32,72.46376812,652c30c993f3a4a8665cddcb,657bb317c8798c6608bceb3f,657bb472576044e1e7206430,0.0271,0.0272,0,71,71,116,1,sevenfive,,,,,,,,,,,,,,,,,,,,,,,,,,,,,,,,,,,,,,,,,,,,,,,,,,,,,,,,,,,,,,,,,,,,,,,,,,,,,,,,,,,,,,,,,,,,,,,,,,,,,,,,,,,,,,,,,,,,,,,,,,,,,,,,,,,,,,,
,,652c30c993f3a4a8665cddcb,2023-12-15_15h06.12.768,kallum_motion_pilot,2023.2.3,Win32,72.46376812,652c30c993f3a4a8665cddcb,657bb317c8798c6608bceb3f,657bb472576044e1e7206430,0.0272,0.0272,0,72,72,99,1,sixeight,,,,,,,,,,,,,,,,,,,,,,,,,,,,,,,,,,,,,,,,,,,,,,,,,,,,,,,,,,,,,,,,,,,,,,,,,,,,,,,,,,,,,,,,,,,,,,,,,,,,,,,,,,,,,,,,,,,,,,,,,,,,,,,,,,,,,,,
,,652c30c993f3a4a8665cddcb,2023-12-15_15h06.12.768,kallum_motion_pilot,2023.2.3,Win32,72.46376812,652c30c993f3a4a8665cddcb,657bb317c8798c6608bceb3f,657bb472576044e1e7206430,0.0272,0.0273,0,73,73,97,1,fiveseven,,,,,,,,,,,,,,,,,,,,,,,,,,,,,,,,,,,,,,,,,,,,,,,,,,,,,,,,,,,,,,,,,,,,,,,,,,,,,,,,,,,,,,,,,,,,,,,,,,,,,,,,,,,,,,,,,,,,,,,,,,,,,,,,,,,,,,,
,,652c30c993f3a4a8665cddcb,2023-12-15_15h06.12.768,kallum_motion_pilot,2023.2.3,Win32,72.46376812,652c30c993f3a4a8665cddcb,657bb317c8798c6608bceb3f,657bb472576044e1e7206430,0.0274,0.0274,0,74,74,12,1,threeone,,,,,,,,,,,,,,,,,,,,,,,,,,,,,,,,,,,,,,,,,,,,,,,,,,,,,,,,,,,,,,,,,,,,,,,,,,,,,,,,,,,,,,,,,,,,,,,,,,,,,,,,,,,,,,,,,,,,,,,,,,,,,,,,,,,,,,,
,,652c30c993f3a4a8665cddcb,2023-12-15_15h06.12.768,kallum_motion_pilot,2023.2.3,Win32,72.46376812,652c30c993f3a4a8665cddcb,657bb317c8798c6608bceb3f,657bb472576044e1e7206430,0.0275,0.0275,0,75,75,45,1,threefour,,,,,,,,,,,,,,,,,,,,,,,,,,,,,,,,,,,,,,,,,,,,,,,,,,,,,,,,,,,,,,,,,,,,,,,,,,,,,,,,,,,,,,,,,,,,,,,,,,,,,,,,,,,,,,,,,,,,,,,,,,,,,,,,,,,,,,,
,,652c30c993f3a4a8665cddcb,2023-12-15_15h06.12.768,kallum_motion_pilot,2023.2.3,Win32,72.46376812,652c30c993f3a4a8665cddcb,657bb317c8798c6608bceb3f,657bb472576044e1e7206430,0.0275,0.0275,0,76,76,54,1,fourtwo,,,,,,,,,,,,,,,,,,,,,,,,,,,,,,,,,,,,,,,,,,,,,,,,,,,,,,,,,,,,,,,,,,,,,,,,,,,,,,,,,,,,,,,,,,,,,,,,,,,,,,,,,,,,,,,,,,,,,,,,,,,,,,,,,,,,,,,
,,652c30c993f3a4a8665cddcb,2023-12-15_15h06.12.768,kallum_motion_pilot,2023.2.3,Win32,72.46376812,652c30c993f3a4a8665cddcb,657bb317c8798c6608bceb3f,657bb472576044e1e7206430,0.0276,0.0277,0,77,77,145,1,fiveseven,,,,,,,,,,,,,,,,,,,,,,,,,,,,,,,,,,,,,,,,,,,,,,,,,,,,,,,,,,,,,,,,,,,,,,,,,,,,,,,,,,,,,,,,,,,,,,,,,,,,,,,,,,,,,,,,,,,,,,,,,,,,,,,,,,,,,,,
,,652c30c993f3a4a8665cddcb,2023-12-15_15h06.12.768,kallum_motion_pilot,2023.2.3,Win32,72.46376812,652c30c993f3a4a8665cddcb,657bb317c8798c6608bceb3f,657bb472576044e1e7206430,0.0277,0.0277,0,78,78,10,1,twoone,,,,,,,,,,,,,,,,,,,,,,,,,,,,,,,,,,,,,,,,,,,,,,,,,,,,,,,,,,,,,,,,,,,,,,,,,,,,,,,,,,,,,,,,,,,,,,,,,,,,,,,,,,,,,,,,,,,,,,,,,,,,,,,,,,,,,,,
,,652c30c993f3a4a8665cddcb,2023-12-15_15h06.12.768,kallum_motion_pilot,2023.2.3,Win32,72.46376812,652c30c993f3a4a8665cddcb,657bb317c8798c6608bceb3f,657bb472576044e1e7206430,0.0278,0.0278,0,79,79,72,1,onetwo,,,,,,,,,,,,,,,,,,,,,,,,,,,,,,,,,,,,,,,,,,,,,,,,,,,,,,,,,,,,,,,,,,,,,,,,,,,,,,,,,,,,,,,,,,,,,,,,,,,,,,,,,,,,,,,,,,,,,,,,,,,,,,,,,,,,,,,
,,652c30c993f3a4a8665cddcb,2023-12-15_15h06.12.768,kallum_motion_pilot,2023.2.3,Win32,72.46376812,652c30c993f3a4a8665cddcb,657bb317c8798c6608bceb3f,657bb472576044e1e7206430,0.0279,0.0279,0,80,80,15,1,fourthree,,,,,,,,,,,,,,,,,,,,,,,,,,,,,,,,,,,,,,,,,,,,,,,,,,,,,,,,,,,,,,,,,,,,,,,,,,,,,,,,,,,,,,,,,,,,,,,,,,,,,,,,,,,,,,,,,,,,,,,,,,,,,,,,,,,,,,,
,,652c30c993f3a4a8665cddcb,2023-12-15_15h06.12.768,kallum_motion_pilot,2023.2.3,Win32,72.46376812,652c30c993f3a4a8665cddcb,657bb317c8798c6608bceb3f,657bb472576044e1e7206430,0.0279,0.0279,0,81,81,132,1,sevenfive,,,,,,,,,,,,,,,,,,,,,,,,,,,,,,,,,,,,,,,,,,,,,,,,,,,,,,,,,,,,,,,,,,,,,,,,,,,,,,,,,,,,,,,,,,,,,,,,,,,,,,,,,,,,,,,,,,,,,,,,,,,,,,,,,,,,,,,
,,652c30c993f3a4a8665cddcb,2023-12-15_15h06.12.768,kallum_motion_pilot,2023.2.3,Win32,72.46376812,652c30c993f3a4a8665cddcb,657bb317c8798c6608bceb3f,657bb472576044e1e7206430,0.028,0.028,0,82,82,40,1,onetwo,,,,,,,,,,,,,,,,,,,,,,,,,,,,,,,,,,,,,,,,,,,,,,,,,,,,,,,,,,,,,,,,,,,,,,,,,,,,,,,,,,,,,,,,,,,,,,,,,,,,,,,,,,,,,,,,,,,,,,,,,,,,,,,,,,,,,,,
,,652c30c993f3a4a8665cddcb,2023-12-15_15h06.12.768,kallum_motion_pilot,2023.2.3,Win32,72.46376812,652c30c993f3a4a8665cddcb,657bb317c8798c6608bceb3f,657bb472576044e1e7206430,0.0281,0.0282,0,83,83,91,1,sixeight,,,,,,,,,,,,,,,,,,,,,,,,,,,,,,,,,,,,,,,,,,,,,,,,,,,,,,,,,,,,,,,,,,,,,,,,,,,,,,,,,,,,,,,,,,,,,,,,,,,,,,,,,,,,,,,,,,,,,,,,,,,,,,,,,,,,,,,
,,652c30c993f3a4a8665cddcb,2023-12-15_15h06.12.768,kallum_motion_pilot,2023.2.3,Win32,72.46376812,652c30c993f3a4a8665cddcb,657bb317c8798c6608bceb3f,657bb472576044e1e7206430,0.0282,0.0282,0,84,84,108,1,sevenfive,,,,,,,,,,,,,,,,,,,,,,,,,,,,,,,,,,,,,,,,,,,,,,,,,,,,,,,,,,,,,,,,,,,,,,,,,,,,,,,,,,,,,,,,,,,,,,,,,,,,,,,,,,,,,,,,,,,,,,,,,,,,,,,,,,,,,,,
,,652c30c993f3a4a8665cddcb,2023-12-15_15h06.12.768,kallum_motion_pilot,2023.2.3,Win32,72.46376812,652c30c993f3a4a8665cddcb,657bb317c8798c6608bceb3f,657bb472576044e1e7206430,0.0283,0.0283,0,85,85,156,1,sevenfive,,,,,,,,,,,,,,,,,,,,,,,,,,,,,,,,,,,,,,,,,,,,,,,,,,,,,,,,,,,,,,,,,,,,,,,,,,,,,,,,,,,,,,,,,,,,,,,,,,,,,,,,,,,,,,,,,,,,,,,,,,,,,,,,,,,,,,,
,,652c30c993f3a4a8665cddcb,2023-12-15_15h06.12.768,kallum_motion_pilot,2023.2.3,Win32,72.46376812,652c30c993f3a4a8665cddcb,657bb317c8798c6608bceb3f,657bb472576044e1e7206430,0.0283,0.0283,0,86,86,78,1,fourtwo,,,,,,,,,,,,,,,,,,,,,,,,,,,,,,,,,,,,,,,,,,,,,,,,,,,,,,,,,,,,,,,,,,,,,,,,,,,,,,,,,,,,,,,,,,,,,,,,,,,,,,,,,,,,,,,,,,,,,,,,,,,,,,,,,,,,,,,
,,652c30c993f3a4a8665cddcb,2023-12-15_15h06.12.768,kallum_motion_pilot,2023.2.3,Win32,72.46376812,652c30c993f3a4a8665cddcb,657bb317c8798c6608bceb3f,657bb472576044e1e7206430,0.0284,0.0284,0,87,87,64,1,onetwo,,,,,,,,,,,,,,,,,,,,,,,,,,,,,,,,,,,,,,,,,,,,,,,,,,,,,,,,,,,,,,,,,,,,,,,,,,,,,,,,,,,,,,,,,,,,,,,,,,,,,,,,,,,,,,,,,,,,,,,,,,,,,,,,,,,,,,,
,,652c30c993f3a4a8665cddcb,2023-12-15_15h06.12.768,kallum_motion_pilot,2023.2.3,Win32,72.46376812,652c30c993f3a4a8665cddcb,657bb317c8798c6608bceb3f,657bb472576044e1e7206430,0.0285,0.0285,0,88,88,83,1,sixeight,,,,,,,,,,,,,,,,,,,,,,,,,,,,,,,,,,,,,,,,,,,,,,,,,,,,,,,,,,,,,,,,,,,,,,,,,,,,,,,,,,,,,,,,,,,,,,,,,,,,,,,,,,,,,,,,,,,,,,,,,,,,,,,,,,,,,,,
,,652c30c993f3a4a8665cddcb,2023-12-15_15h06.12.768,kallum_motion_pilot,2023.2.3,Win32,72.46376812,652c30c993f3a4a8665cddcb,657bb317c8798c6608bceb3f,657bb472576044e1e7206430,0.0286,0.0286,0,89,89,26,1,twoone,,,,,,,,,,,,,,,,,,,,,,,,,,,,,,,,,,,,,,,,,,,,,,,,,,,,,,,,,,,,,,,,,,,,,,,,,,,,,,,,,,,,,,,,,,,,,,,,,,,,,,,,,,,,,,,,,,,,,,,,,,,,,,,,,,,,,,,
,,652c30c993f3a4a8665cddcb,2023-12-15_15h06.12.768,kallum_motion_pilot,2023.2.3,Win32,72.46376812,652c30c993f3a4a8665cddcb,657bb317c8798c6608bceb3f,657bb472576044e1e7206430,0.0287,0.0287,0,90,90,122,1,sixfive,,,,,,,,,,,,,,,,,,,,,,,,,,,,,,,,,,,,,,,,,,,,,,,,,,,,,,,,,,,,,,,,,,,,,,,,,,,,,,,,,,,,,,,,,,,,,,,,,,,,,,,,,,,,,,,,,,,,,,,,,,,,,,,,,,,,,,,
,,652c30c993f3a4a8665cddcb,2023-12-15_15h06.12.768,kallum_motion_pilot,2023.2.3,Win32,72.46376812,652c30c993f3a4a8665cddcb,657bb317c8798c6608bceb3f,657bb472576044e1e7206430,0.0287,0.0288,0,91,91,86,1,eightsix,,,,,,,,,,,,,,,,,,,,,,,,,,,,,,,,,,,,,,,,,,,,,,,,,,,,,,,,,,,,,,,,,,,,,,,,,,,,,,,,,,,,,,,,,,,,,,,,,,,,,,,,,,,,,,,,,,,,,,,,,,,,,,,,,,,,,,,
,,652c30c993f3a4a8665cddcb,2023-12-15_15h06.12.768,kallum_motion_pilot,2023.2.3,Win32,72.46376812,652c30c993f3a4a8665cddcb,657bb317c8798c6608bceb3f,657bb472576044e1e7206430,0.0289,0.0289,0,92,92,128,1,fivesix,,,,,,,,,,,,,,,,,,,,,,,,,,,,,,,,,,,,,,,,,,,,,,,,,,,,,,,,,,,,,,,,,,,,,,,,,,,,,,,,,,,,,,,,,,,,,,,,,,,,,,,,,,,,,,,,,,,,,,,,,,,,,,,,,,,,,,,
,,652c30c993f3a4a8665cddcb,2023-12-15_15h06.12.768,kallum_motion_pilot,2023.2.3,Win32,72.46376812,652c30c993f3a4a8665cddcb,657bb317c8798c6608bceb3f,657bb472576044e1e7206430,0.029,0.029,0,93,93,9,1,onethree,,,,,,,,,,,,,,,,,,,,,,,,,,,,,,,,,,,,,,,,,,,,,,,,,,,,,,,,,,,,,,,,,,,,,,,,,,,,,,,,,,,,,,,,,,,,,,,,,,,,,,,,,,,,,,,,,,,,,,,,,,,,,,,,,,,,,,,
,,652c30c993f3a4a8665cddcb,2023-12-15_15h06.12.768,kallum_motion_pilot,2023.2.3,Win32,72.46376812,652c30c993f3a4a8665cddcb,657bb317c8798c6608bceb3f,657bb472576044e1e7206430,0.029,0.0291,0,94,94,112,1,fivesix,,,,,,,,,,,,,,,,,,,,,,,,,,,,,,,,,,,,,,,,,,,,,,,,,,,,,,,,,,,,,,,,,,,,,,,,,,,,,,,,,,,,,,,,,,,,,,,,,,,,,,,,,,,,,,,,,,,,,,,,,,,,,,,,,,,,,,,
,,652c30c993f3a4a8665cddcb,2023-12-15_15h06.12.768,kallum_motion_pilot,2023.2.3,Win32,72.46376812,652c30c993f3a4a8665cddcb,657bb317c8798c6608bceb3f,657bb472576044e1e7206430,0.0292,0.0293,0,95,95,42,1,twoone,,,,,,,,,,,,,,,,,,,,,,,,,,,,,,,,,,,,,,,,,,,,,,,,,,,,,,,,,,,,,,,,,,,,,,,,,,,,,,,,,,,,,,,,,,,,,,,,,,,,,,,,,,,,,,,,,,,,,,,,,,,,,,,,,,,,,,,
,,652c30c993f3a4a8665cddcb,2023-12-15_15h06.12.768,kallum_motion_pilot,2023.2.3,Win32,72.46376812,652c30c993f3a4a8665cddcb,657bb317c8798c6608bceb3f,657bb472576044e1e7206430,0.0294,0.0294,0,96,96,1,1,onethree,,,,,,,,,,,,,,,,,,,,,,,,,,,,,,,,,,,,,,,,,,,,,,,,,,,,,,,,,,,,,,,,,,,,,,,,,,,,,,,,,,,,,,,,,,,,,,,,,,,,,,,,,,,,,,,,,,,,,,,,,,,,,,,,,,,,,,,
,,652c30c993f3a4a8665cddcb,2023-12-15_15h06.12.768,kallum_motion_pilot,2023.2.3,Win32,72.46376812,652c30c993f3a4a8665cddcb,657bb317c8798c6608bceb3f,657bb472576044e1e7206430,0.0294,0.0294,0,97,97,71,1,fourthree,,,,,,,,,,,,,,,,,,,,,,,,,,,,,,,,,,,,,,,,,,,,,,,,,,,,,,,,,,,,,,,,,,,,,,,,,,,,,,,,,,,,,,,,,,,,,,,,,,,,,,,,,,,,,,,,,,,,,,,,,,,,,,,,,,,,,,,
,,652c30c993f3a4a8665cddcb,2023-12-15_15h06.12.768,kallum_motion_pilot,2023.2.3,Win32,72.46376812,652c30c993f3a4a8665cddcb,657bb317c8798c6608bceb3f,657bb472576044e1e7206430,0.0296,0.0296,0,98,98,155,1,sixeight,,,,,,,,,,,,,,,,,,,,,,,,,,,,,,,,,,,,,,,,,,,,,,,,,,,,,,,,,,,,,,,,,,,,,,,,,,,,,,,,,,,,,,,,,,,,,,,,,,,,,,,,,,,,,,,,,,,,,,,,,,,,,,,,,,,,,,,
,,652c30c993f3a4a8665cddcb,2023-12-15_15h06.12.768,kallum_motion_pilot,2023.2.3,Win32,72.46376812,652c30c993f3a4a8665cddcb,657bb317c8798c6608bceb3f,657bb472576044e1e7206430,0.0297,0.0297,0,99,99,30,1,fourtwo,,,,,,,,,,,,,,,,,,,,,,,,,,,,,,,,,,,,,,,,,,,,,,,,,,,,,,,,,,,,,,,,,,,,,,,,,,,,,,,,,,,,,,,,,,,,,,,,,,,,,,,,,,,,,,,,,,,,,,,,,,,,,,,,,,,,,,,
,,652c30c993f3a4a8665cddcb,2023-12-15_15h06.12.768,kallum_motion_pilot,2023.2.3,Win32,72.46376812,652c30c993f3a4a8665cddcb,657bb317c8798c6608bceb3f,657bb472576044e1e7206430,0.0298,0.0298,0,100,100,61,1,threefour,,,,,,,,,,,,,,,,,,,,,,,,,,,,,,,,,,,,,,,,,,,,,,,,,,,,,,,,,,,,,,,,,,,,,,,,,,,,,,,,,,,,,,,,,,,,,,,,,,,,,,,,,,,,,,,,,,,,,,,,,,,,,,,,,,,,,,,
,,652c30c993f3a4a8665cddcb,2023-12-15_15h06.12.768,kallum_motion_pilot,2023.2.3,Win32,72.46376812,652c30c993f3a4a8665cddcb,657bb317c8798c6608bceb3f,657bb472576044e1e7206430,0.0298,0.0298,0,101,101,31,1,fourthree,,,,,,,,,,,,,,,,,,,,,,,,,,,,,,,,,,,,,,,,,,,,,,,,,,,,,,,,,,,,,,,,,,,,,,,,,,,,,,,,,,,,,,,,,,,,,,,,,,,,,,,,,,,,,,,,,,,,,,,,,,,,,,,,,,,,,,,
,,652c30c993f3a4a8665cddcb,2023-12-15_15h06.12.768,kallum_motion_pilot,2023.2.3,Win32,72.46376812,652c30c993f3a4a8665cddcb,657bb317c8798c6608bceb3f,657bb472576044e1e7206430,0.0299,0.0299,0,102,102,94,1,eightsix,,,,,,,,,,,,,,,,,,,,,,,,,,,,,,,,,,,,,,,,,,,,,,,,,,,,,,,,,,,,,,,,,,,,,,,,,,,,,,,,,,,,,,,,,,,,,,,,,,,,,,,,,,,,,,,,,,,,,,,,,,,,,,,,,,,,,,,
,,652c30c993f3a4a8665cddcb,2023-12-15_15h06.12.768,kallum_motion_pilot,2023.2.3,Win32,72.46376812,652c30c993f3a4a8665cddcb,657bb317c8798c6608bceb3f,657bb472576044e1e7206430,0.03,0.03,0,103,103,34,1,twoone,,,,,,,,,,,,,,,,,,,,,,,,,,,,,,,,,,,,,,,,,,,,,,,,,,,,,,,,,,,,,,,,,,,,,,,,,,,,,,,,,,,,,,,,,,,,,,,,,,,,,,,,,,,,,,,,,,,,,,,,,,,,,,,,,,,,,,,
,,652c30c993f3a4a8665cddcb,2023-12-15_15h06.12.768,kallum_motion_pilot,2023.2.3,Win32,72.46376812,652c30c993f3a4a8665cddcb,657bb317c8798c6608bceb3f,657bb472576044e1e7206430,0.03,0.0301,0,104,104,25,1,onethree,,,,,,,,,,,,,,,,,,,,,,,,,,,,,,,,,,,,,,,,,,,,,,,,,,,,,,,,,,,,,,,,,,,,,,,,,,,,,,,,,,,,,,,,,,,,,,,,,,,,,,,,,,,,,,,,,,,,,,,,,,,,,,,,,,,,,,,
,,652c30c993f3a4a8665cddcb,2023-12-15_15h06.12.768,kallum_motion_pilot,2023.2.3,Win32,72.46376812,652c30c993f3a4a8665cddcb,657bb317c8798c6608bceb3f,657bb472576044e1e7206430,0.0301,0.0302,0,105,105,127,1,eightseven,,,,,,,,,,,,,,,,,,,,,,,,,,,,,,,,,,,,,,,,,,,,,,,,,,,,,,,,,,,,,,,,,,,,,,,,,,,,,,,,,,,,,,,,,,,,,,,,,,,,,,,,,,,,,,,,,,,,,,,,,,,,,,,,,,,,,,,
,,652c30c993f3a4a8665cddcb,2023-12-15_15h06.12.768,kallum_motion_pilot,2023.2.3,Win32,72.46376812,652c30c993f3a4a8665cddcb,657bb317c8798c6608bceb3f,657bb472576044e1e7206430,0.0303,0.0303,0,106,106,96,1,fivesix,,,,,,,,,,,,,,,,,,,,,,,,,,,,,,,,,,,,,,,,,,,,,,,,,,,,,,,,,,,,,,,,,,,,,,,,,,,,,,,,,,,,,,,,,,,,,,,,,,,,,,,,,,,,,,,,,,,,,,,,,,,,,,,,,,,,,,,
,,652c30c993f3a4a8665cddcb,2023-12-15_15h06.12.768,kallum_motion_pilot,2023.2.3,Win32,72.46376812,652c30c993f3a4a8665cddcb,657bb317c8798c6608bceb3f,657bb472576044e1e7206430,0.0304,0.0304,0,107,107,62,1,fourtwo,,,,,,,,,,,,,,,,,,,,,,,,,,,,,,,,,,,,,,,,,,,,,,,,,,,,,,,,,,,,,,,,,,,,,,,,,,,,,,,,,,,,,,,,,,,,,,,,,,,,,,,,,,,,,,,,,,,,,,,,,,,,,,,,,,,,,,,
,,652c30c993f3a4a8665cddcb,2023-12-15_15h06.12.768,kallum_motion_pilot,2023.2.3,Win32,72.46376812,652c30c993f3a4a8665cddcb,657bb317c8798c6608bceb3f,657bb472576044e1e7206430,0.0305,0.0305,0,108,108,52,1,threeone,,,,,,,,,,,,,,,,,,,,,,,,,,,,,,,,,,,,,,,,,,,,,,,,,,,,,,,,,,,,,,,,,,,,,,,,,,,,,,,,,,,,,,,,,,,,,,,,,,,,,,,,,,,,,,,,,,,,,,,,,,,,,,,,,,,,,,,
,,652c30c993f3a4a8665cddcb,2023-12-15_15h06.12.768,kallum_motion_pilot,2023.2.3,Win32,72.46376812,652c30c993f3a4a8665cddcb,657bb317c8798c6608bceb3f,657bb472576044e1e7206430,0.0305,0.0306,0,109,109,74,1,twoone,,,,,,,,,,,,,,,,,,,,,,,,,,,,,,,,,,,,,,,,,,,,,,,,,,,,,,,,,,,,,,,,,,,,,,,,,,,,,,,,,,,,,,,,,,,,,,,,,,,,,,,,,,,,,,,,,,,,,,,,,,,,,,,,,,,,,,,
,,652c30c993f3a4a8665cddcb,2023-12-15_15h06.12.768,kallum_motion_pilot,2023.2.3,Win32,72.46376812,652c30c993f3a4a8665cddcb,657bb317c8798c6608bceb3f,657bb472576044e1e7206430,0.0307,0.0307,0,110,110,144,1,fivesix,,,,,,,,,,,,,,,,,,,,,,,,,,,,,,,,,,,,,,,,,,,,,,,,,,,,,,,,,,,,,,,,,,,,,,,,,,,,,,,,,,,,,,,,,,,,,,,,,,,,,,,,,,,,,,,,,,,,,,,,,,,,,,,,,,,,,,,
,,652c30c993f3a4a8665cddcb,2023-12-15_15h06.12.768,kallum_motion_pilot,2023.2.3,Win32,72.46376812,652c30c993f3a4a8665cddcb,657bb317c8798c6608bceb3f,657bb472576044e1e7206430,0.0307,0.0307,0,111,111,85,1,seveneight,,,,,,,,,,,,,,,,,,,,,,,,,,,,,,,,,,,,,,,,,,,,,,,,,,,,,,,,,,,,,,,,,,,,,,,,,,,,,,,,,,,,,,,,,,,,,,,,,,,,,,,,,,,,,,,,,,,,,,,,,,,,,,,,,,,,,,,
,,652c30c993f3a4a8665cddcb,2023-12-15_15h06.12.768,kallum_motion_pilot,2023.2.3,Win32,72.46376812,652c30c993f3a4a8665cddcb,657bb317c8798c6608bceb3f,657bb472576044e1e7206430,0.0308,0.0309,0,112,112,153,1,fiveseven,,,,,,,,,,,,,,,,,,,,,,,,,,,,,,,,,,,,,,,,,,,,,,,,,,,,,,,,,,,,,,,,,,,,,,,,,,,,,,,,,,,,,,,,,,,,,,,,,,,,,,,,,,,,,,,,,,,,,,,,,,,,,,,,,,,,,,,
,,652c30c993f3a4a8665cddcb,2023-12-15_15h06.12.768,kallum_motion_pilot,2023.2.3,Win32,72.46376812,652c30c993f3a4a8665cddcb,657bb317c8798c6608bceb3f,657bb472576044e1e7206430,0.0309,0.0309,0,113,113,111,1,eightseven,,,,,,,,,,,,,,,,,,,,,,,,,,,,,,,,,,,,,,,,,,,,,,,,,,,,,,,,,,,,,,,,,,,,,,,,,,,,,,,,,,,,,,,,,,,,,,,,,,,,,,,,,,,,,,,,,,,,,,,,,,,,,,,,,,,,,,,
,,652c30c993f3a4a8665cddcb,2023-12-15_15h06.12.768,kallum_motion_pilot,2023.2.3,Win32,72.46376812,652c30c993f3a4a8665cddcb,657bb317c8798c6608bceb3f,657bb472576044e1e7206430,0.031,0.031,0,114,114,103,1,eightseven,,,,,,,,,,,,,,,,,,,,,,,,,,,,,,,,,,,,,,,,,,,,,,,,,,,,,,,,,,,,,,,,,,,,,,,,,,,,,,,,,,,,,,,,,,,,,,,,,,,,,,,,,,,,,,,,,,,,,,,,,,,,,,,,,,,,,,,
,,652c30c993f3a4a8665cddcb,2023-12-15_15h06.12.768,kallum_motion_pilot,2023.2.3,Win32,72.46376812,652c30c993f3a4a8665cddcb,657bb317c8798c6608bceb3f,657bb472576044e1e7206430,0.031,0.0311,0,115,115,106,1,sixfive,,,,,,,,,,,,,,,,,,,,,,,,,,,,,,,,,,,,,,,,,,,,,,,,,,,,,,,,,,,,,,,,,,,,,,,,,,,,,,,,,,,,,,,,,,,,,,,,,,,,,,,,,,,,,,,,,,,,,,,,,,,,,,,,,,,,,,,
,,652c30c993f3a4a8665cddcb,2023-12-15_15h06.12.768,kallum_motion_pilot,2023.2.3,Win32,72.46376812,652c30c993f3a4a8665cddcb,657bb317c8798c6608bceb3f,657bb472576044e1e7206430,0.0312,0.0312,0,116,116,110,1,eightsix,,,,,,,,,,,,,,,,,,,,,,,,,,,,,,,,,,,,,,,,,,,,,,,,,,,,,,,,,,,,,,,,,,,,,,,,,,,,,,,,,,,,,,,,,,,,,,,,,,,,,,,,,,,,,,,,,,,,,,,,,,,,,,,,,,,,,,,
,,652c30c993f3a4a8665cddcb,2023-12-15_15h06.12.768,kallum_motion_pilot,2023.2.3,Win32,72.46376812,652c30c993f3a4a8665cddcb,657bb317c8798c6608bceb3f,657bb472576044e1e7206430,0.0312,0.0312,0,117,117,80,1,fivesix,,,,,,,,,,,,,,,,,,,,,,,,,,,,,,,,,,,,,,,,,,,,,,,,,,,,,,,,,,,,,,,,,,,,,,,,,,,,,,,,,,,,,,,,,,,,,,,,,,,,,,,,,,,,,,,,,,,,,,,,,,,,,,,,,,,,,,,
,,652c30c993f3a4a8665cddcb,2023-12-15_15h06.12.768,kallum_motion_pilot,2023.2.3,Win32,72.46376812,652c30c993f3a4a8665cddcb,657bb317c8798c6608bceb3f,657bb472576044e1e7206430,0.0313,0.0314,0,118,118,131,1,sixeight,,,,,,,,,,,,,,,,,,,,,,,,,,,,,,,,,,,,,,,,,,,,,,,,,,,,,,,,,,,,,,,,,,,,,,,,,,,,,,,,,,,,,,,,,,,,,,,,,,,,,,,,,,,,,,,,,,,,,,,,,,,,,,,,,,,,,,,
,,652c30c993f3a4a8665cddcb,2023-12-15_15h06.12.768,kallum_motion_pilot,2023.2.3,Win32,72.46376812,652c30c993f3a4a8665cddcb,657bb317c8798c6608bceb3f,657bb472576044e1e7206430,0.0315,0.0315,0,119,119,66,1,twoone,,,,,,,,,,,,,,,,,,,,,,,,,,,,,,,,,,,,,,,,,,,,,,,,,,,,,,,,,,,,,,,,,,,,,,,,,,,,,,,,,,,,,,,,,,,,,,,,,,,,,,,,,,,,,,,,,,,,,,,,,,,,,,,,,,,,,,,
,,652c30c993f3a4a8665cddcb,2023-12-15_15h06.12.768,kallum_motion_pilot,2023.2.3,Win32,72.46376812,652c30c993f3a4a8665cddcb,657bb317c8798c6608bceb3f,657bb472576044e1e7206430,0.0315,0.0315,0,120,120,123,1,sixeight,,,,,,,,,,,,,,,,,,,,,,,,,,,,,,,,,,,,,,,,,,,,,,,,,,,,,,,,,,,,,,,,,,,,,,,,,,,,,,,,,,,,,,,,,,,,,,,,,,,,,,,,,,,,,,,,,,,,,,,,,,,,,,,,,,,,,,,
,,652c30c993f3a4a8665cddcb,2023-12-15_15h06.12.768,kallum_motion_pilot,2023.2.3,Win32,72.46376812,652c30c993f3a4a8665cddcb,657bb317c8798c6608bceb3f,657bb472576044e1e7206430,0.0316,0.0317,0,121,121,47,1,fourthree,,,,,,,,,,,,,,,,,,,,,,,,,,,,,,,,,,,,,,,,,,,,,,,,,,,,,,,,,,,,,,,,,,,,,,,,,,,,,,,,,,,,,,,,,,,,,,,,,,,,,,,,,,,,,,,,,,,,,,,,,,,,,,,,,,,,,,,
,,652c30c993f3a4a8665cddcb,2023-12-15_15h06.12.768,kallum_motion_pilot,2023.2.3,Win32,72.46376812,652c30c993f3a4a8665cddcb,657bb317c8798c6608bceb3f,657bb472576044e1e7206430,0.0317,0.0318,0,122,122,17,1,onethree,,,,,,,,,,,,,,,,,,,,,,,,,,,,,,,,,,,,,,,,,,,,,,,,,,,,,,,,,,,,,,,,,,,,,,,,,,,,,,,,,,,,,,,,,,,,,,,,,,,,,,,,,,,,,,,,,,,,,,,,,,,,,,,,,,,,,,,
,,652c30c993f3a4a8665cddcb,2023-12-15_15h06.12.768,kallum_motion_pilot,2023.2.3,Win32,72.46376812,652c30c993f3a4a8665cddcb,657bb317c8798c6608bceb3f,657bb472576044e1e7206430,0.0318,0.0319,0,123,123,147,1,sixeight,,,,,,,,,,,,,,,,,,,,,,,,,,,,,,,,,,,,,,,,,,,,,,,,,,,,,,,,,,,,,,,,,,,,,,,,,,,,,,,,,,,,,,,,,,,,,,,,,,,,,,,,,,,,,,,,,,,,,,,,,,,,,,,,,,,,,,,
,,652c30c993f3a4a8665cddcb,2023-12-15_15h06.12.768,kallum_motion_pilot,2023.2.3,Win32,72.46376812,652c30c993f3a4a8665cddcb,657bb317c8798c6608bceb3f,657bb472576044e1e7206430,0.0319,0.0319,0,124,124,28,1,threeone,,,,,,,,,,,,,,,,,,,,,,,,,,,,,,,,,,,,,,,,,,,,,,,,,,,,,,,,,,,,,,,,,,,,,,,,,,,,,,,,,,,,,,,,,,,,,,,,,,,,,,,,,,,,,,,,,,,,,,,,,,,,,,,,,,,,,,,
,,652c30c993f3a4a8665cddcb,2023-12-15_15h06.12.768,kallum_motion_pilot,2023.2.3,Win32,72.46376812,652c30c993f3a4a8665cddcb,657bb317c8798c6608bceb3f,657bb472576044e1e7206430,0.032,0.032,0,125,125,121,1,fiveseven,,,,,,,,,,,,,,,,,,,,,,,,,,,,,,,,,,,,,,,,,,,,,,,,,,,,,,,,,,,,,,,,,,,,,,,,,,,,,,,,,,,,,,,,,,,,,,,,,,,,,,,,,,,,,,,,,,,,,,,,,,,,,,,,,,,,,,,
,,652c30c993f3a4a8665cddcb,2023-12-15_15h06.12.768,kallum_motion_pilot,2023.2.3,Win32,72.46376812,652c30c993f3a4a8665cddcb,657bb317c8798c6608bceb3f,657bb472576044e1e7206430,0.0321,0.0322,0,126,126,130,1,sixfive,,,,,,,,,,,,,,,,,,,,,,,,,,,,,,,,,,,,,,,,,,,,,,,,,,,,,,,,,,,,,,,,,,,,,,,,,,,,,,,,,,,,,,,,,,,,,,,,,,,,,,,,,,,,,,,,,,,,,,,,,,,,,,,,,,,,,,,
,,652c30c993f3a4a8665cddcb,2023-12-15_15h06.12.768,kallum_motion_pilot,2023.2.3,Win32,72.46376812,652c30c993f3a4a8665cddcb,657bb317c8798c6608bceb3f,657bb472576044e1e7206430,0.0323,0.0323,0,127,127,152,1,fivesix,,,,,,,,,,,,,,,,,,,,,,,,,,,,,,,,,,,,,,,,,,,,,,,,,,,,,,,,,,,,,,,,,,,,,,,,,,,,,,,,,,,,,,,,,,,,,,,,,,,,,,,,,,,,,,,,,,,,,,,,,,,,,,,,,,,,,,,
,,652c30c993f3a4a8665cddcb,2023-12-15_15h06.12.768,kallum_motion_pilot,2023.2.3,Win32,72.46376812,652c30c993f3a4a8665cddcb,657bb317c8798c6608bceb3f,657bb472576044e1e7206430,0.0324,0.0324,0,128,128,63,1,fourthree,,,,,,,,,,,,,,,,,,,,,,,,,,,,,,,,,,,,,,,,,,,,,,,,,,,,,,,,,,,,,,,,,,,,,,,,,,,,,,,,,,,,,,,,,,,,,,,,,,,,,,,,,,,,,,,,,,,,,,,,,,,,,,,,,,,,,,,
,,652c30c993f3a4a8665cddcb,2023-12-15_15h06.12.768,kallum_motion_pilot,2023.2.3,Win32,72.46376812,652c30c993f3a4a8665cddcb,657bb317c8798c6608bceb3f,657bb472576044e1e7206430,0.0325,0.0326,0,129,129,160,1,fivesix,,,,,,,,,,,,,,,,,,,,,,,,,,,,,,,,,,,,,,,,,,,,,,,,,,,,,,,,,,,,,,,,,,,,,,,,,,,,,,,,,,,,,,,,,,,,,,,,,,,,,,,,,,,,,,,,,,,,,,,,,,,,,,,,,,,,,,,
,,652c30c993f3a4a8665cddcb,2023-12-15_15h06.12.768,kallum_motion_pilot,2023.2.3,Win32,72.46376812,652c30c993f3a4a8665cddcb,657bb317c8798c6608bceb3f,657bb472576044e1e7206430,0.0327,0.0327,0,130,130,89,1,fiveseven,,,,,,,,,,,,,,,,,,,,,,,,,,,,,,,,,,,,,,,,,,,,,,,,,,,,,,,,,,,,,,,,,,,,,,,,,,,,,,,,,,,,,,,,,,,,,,,,,,,,,,,,,,,,,,,,,,,,,,,,,,,,,,,,,,,,,,,
,,652c30c993f3a4a8665cddcb,2023-12-15_15h06.12.768,kallum_motion_pilot,2023.2.3,Win32,72.46376812,652c30c993f3a4a8665cddcb,657bb317c8798c6608bceb3f,657bb472576044e1e7206430,0.0328,0.0328,0,131,131,70,1,fourtwo,,,,,,,,,,,,,,,,,,,,,,,,,,,,,,,,,,,,,,,,,,,,,,,,,,,,,,,,,,,,,,,,,,,,,,,,,,,,,,,,,,,,,,,,,,,,,,,,,,,,,,,,,,,,,,,,,,,,,,,,,,,,,,,,,,,,,,,
,,652c30c993f3a4a8665cddcb,2023-12-15_15h06.12.768,kallum_motion_pilot,2023.2.3,Win32,72.46376812,652c30c993f3a4a8665cddcb,657bb317c8798c6608bceb3f,657bb472576044e1e7206430,0.0329,0.0329,0,132,132,125,1,seveneight,,,,,,,,,,,,,,,,,,,,,,,,,,,,,,,,,,,,,,,,,,,,,,,,,,,,,,,,,,,,,,,,,,,,,,,,,,,,,,,,,,,,,,,,,,,,,,,,,,,,,,,,,,,,,,,,,,,,,,,,,,,,,,,,,,,,,,,
,,652c30c993f3a4a8665cddcb,2023-12-15_15h06.12.768,kallum_motion_pilot,2023.2.3,Win32,72.46376812,652c30c993f3a4a8665cddcb,657bb317c8798c6608bceb3f,657bb472576044e1e7206430,0.0329,0.0329,0,133,133,118,1,eightsix,,,,,,,,,,,,,,,,,,,,,,,,,,,,,,,,,,,,,,,,,,,,,,,,,,,,,,,,,,,,,,,,,,,,,,,,,,,,,,,,,,,,,,,,,,,,,,,,,,,,,,,,,,,,,,,,,,,,,,,,,,,,,,,,,,,,,,,
,,652c30c993f3a4a8665cddcb,2023-12-15_15h06.12.768,kallum_motion_pilot,2023.2.3,Win32,72.46376812,652c30c993f3a4a8665cddcb,657bb317c8798c6608bceb3f,657bb472576044e1e7206430,0.0331,0.0331,0,134,134,3,1,twofour,,,,,,,,,,,,,,,,,,,,,,,,,,,,,,,,,,,,,,,,,,,,,,,,,,,,,,,,,,,,,,,,,,,,,,,,,,,,,,,,,,,,,,,,,,,,,,,,,,,,,,,,,,,,,,,,,,,,,,,,,,,,,,,,,,,,,,,
,,652c30c993f3a4a8665cddcb,2023-12-15_15h06.12.768,kallum_motion_pilot,2023.2.3,Win32,72.46376812,652c30c993f3a4a8665cddcb,657bb317c8798c6608bceb3f,657bb472576044e1e7206430,0.0332,0.0332,0,135,135,100,1,sevenfive,,,,,,,,,,,,,,,,,,,,,,,,,,,,,,,,,,,,,,,,,,,,,,,,,,,,,,,,,,,,,,,,,,,,,,,,,,,,,,,,,,,,,,,,,,,,,,,,,,,,,,,,,,,,,,,,,,,,,,,,,,,,,,,,,,,,,,,
,,652c30c993f3a4a8665cddcb,2023-12-15_15h06.12.768,kallum_motion_pilot,2023.2.3,Win32,72.46376812,652c30c993f3a4a8665cddcb,657bb317c8798c6608bceb3f,657bb472576044e1e7206430,0.0333,0.0333,0,136,136,140,1,sevenfive,,,,,,,,,,,,,,,,,,,,,,,,,,,,,,,,,,,,,,,,,,,,,,,,,,,,,,,,,,,,,,,,,,,,,,,,,,,,,,,,,,,,,,,,,,,,,,,,,,,,,,,,,,,,,,,,,,,,,,,,,,,,,,,,,,,,,,,
,,652c30c993f3a4a8665cddcb,2023-12-15_15h06.12.768,kallum_motion_pilot,2023.2.3,Win32,72.46376812,652c30c993f3a4a8665cddcb,657bb317c8798c6608bceb3f,657bb472576044e1e7206430,0.0334,0.0334,0,137,137,7,1,fourthree,,,,,,,,,,,,,,,,,,,,,,,,,,,,,,,,,,,,,,,,,,,,,,,,,,,,,,,,,,,,,,,,,,,,,,,,,,,,,,,,,,,,,,,,,,,,,,,,,,,,,,,,,,,,,,,,,,,,,,,,,,,,,,,,,,,,,,,
,,652c30c993f3a4a8665cddcb,2023-12-15_15h06.12.768,kallum_motion_pilot,2023.2.3,Win32,72.46376812,652c30c993f3a4a8665cddcb,657bb317c8798c6608bceb3f,657bb472576044e1e7206430,0.0334,0.0334,0,138,138,126,1,eightsix,,,,,,,,,,,,,,,,,,,,,,,,,,,,,,,,,,,,,,,,,,,,,,,,,,,,,,,,,,,,,,,,,,,,,,,,,,,,,,,,,,,,,,,,,,,,,,,,,,,,,,,,,,,,,,,,,,,,,,,,,,,,,,,,,,,,,,,
,,652c30c993f3a4a8665cddcb,2023-12-15_15h06.12.768,kallum_motion_pilot,2023.2.3,Win32,72.46376812,652c30c993f3a4a8665cddcb,657bb317c8798c6608bceb3f,657bb472576044e1e7206430,0.0336,0.0336,0,139,139,51,1,twofour,,,,,,,,,,,,,,,,,,,,,,,,,,,,,,,,,,,,,,,,,,,,,,,,,,,,,,,,,,,,,,,,,,,,,,,,,,,,,,,,,,,,,,,,,,,,,,,,,,,,,,,,,,,,,,,,,,,,,,,,,,,,,,,,,,,,,,,
,,652c30c993f3a4a8665cddcb,2023-12-15_15h06.12.768,kallum_motion_pilot,2023.2.3,Win32,72.46376812,652c30c993f3a4a8665cddcb,657bb317c8798c6608bceb3f,657bb472576044e1e7206430,0.0336,0.0337,0,140,140,151,1,eightseven,,,,,,,,,,,,,,,,,,,,,,,,,,,,,,,,,,,,,,,,,,,,,,,,,,,,,,,,,,,,,,,,,,,,,,,,,,,,,,,,,,,,,,,,,,,,,,,,,,,,,,,,,,,,,,,,,,,,,,,,,,,,,,,,,,,,,,,
,,652c30c993f3a4a8665cddcb,2023-12-15_15h06.12.768,kallum_motion_pilot,2023.2.3,Win32,72.46376812,652c30c993f3a4a8665cddcb,657bb317c8798c6608bceb3f,657bb472576044e1e7206430,0.0337,0.0337,0,141,141,84,1,sevenfive,,,,,,,,,,,,,,,,,,,,,,,,,,,,,,,,,,,,,,,,,,,,,,,,,,,,,,,,,,,,,,,,,,,,,,,,,,,,,,,,,,,,,,,,,,,,,,,,,,,,,,,,,,,,,,,,,,,,,,,,,,,,,,,,,,,,,,,
,,652c30c993f3a4a8665cddcb,2023-12-15_15h06.12.768,kallum_motion_pilot,2023.2.3,Win32,72.46376812,652c30c993f3a4a8665cddcb,657bb317c8798c6608bceb3f,657bb472576044e1e7206430,0.0339,0.0339,0,142,142,138,1,sixfive,,,,,,,,,,,,,,,,,,,,,,,,,,,,,,,,,,,,,,,,,,,,,,,,,,,,,,,,,,,,,,,,,,,,,,,,,,,,,,,,,,,,,,,,,,,,,,,,,,,,,,,,,,,,,,,,,,,,,,,,,,,,,,,,,,,,,,,
,,652c30c993f3a4a8665cddcb,2023-12-15_15h06.12.768,kallum_motion_pilot,2023.2.3,Win32,72.46376812,652c30c993f3a4a8665cddcb,657bb317c8798c6608bceb3f,657bb472576044e1e7206430,0.0339,0.0339,0,143,143,19,1,twofour,,,,,,,,,,,,,,,,,,,,,,,,,,,,,,,,,,,,,,,,,,,,,,,,,,,,,,,,,,,,,,,,,,,,,,,,,,,,,,,,,,,,,,,,,,,,,,,,,,,,,,,,,,,,,,,,,,,,,,,,,,,,,,,,,,,,,,,
,,652c30c993f3a4a8665cddcb,2023-12-15_15h06.12.768,kallum_motion_pilot,2023.2.3,Win32,72.46376812,652c30c993f3a4a8665cddcb,657bb317c8798c6608bceb3f,657bb472576044e1e7206430,0.0341,0.0341,0,144,144,82,1,sixfive,,,,,,,,,,,,,,,,,,,,,,,,,,,,,,,,,,,,,,,,,,,,,,,,,,,,,,,,,,,,,,,,,,,,,,,,,,,,,,,,,,,,,,,,,,,,,,,,,,,,,,,,,,,,,,,,,,,,,,,,,,,,,,,,,,,,,,,
,,652c30c993f3a4a8665cddcb,2023-12-15_15h06.12.768,kallum_motion_pilot,2023.2.3,Win32,72.46376812,652c30c993f3a4a8665cddcb,657bb317c8798c6608bceb3f,657bb472576044e1e7206430,0.0342,0.0342,0,145,145,20,1,threeone,,,,,,,,,,,,,,,,,,,,,,,,,,,,,,,,,,,,,,,,,,,,,,,,,,,,,,,,,,,,,,,,,,,,,,,,,,,,,,,,,,,,,,,,,,,,,,,,,,,,,,,,,,,,,,,,,,,,,,,,,,,,,,,,,,,,,,,
,,652c30c993f3a4a8665cddcb,2023-12-15_15h06.12.768,kallum_motion_pilot,2023.2.3,Win32,72.46376812,652c30c993f3a4a8665cddcb,657bb317c8798c6608bceb3f,657bb472576044e1e7206430,0.0342,0.0343,0,146,146,32,1,onetwo,,,,,,,,,,,,,,,,,,,,,,,,,,,,,,,,,,,,,,,,,,,,,,,,,,,,,,,,,,,,,,,,,,,,,,,,,,,,,,,,,,,,,,,,,,,,,,,,,,,,,,,,,,,,,,,,,,,,,,,,,,,,,,,,,,,,,,,
,,652c30c993f3a4a8665cddcb,2023-12-15_15h06.12.768,kallum_motion_pilot,2023.2.3,Win32,72.46376812,652c30c993f3a4a8665cddcb,657bb317c8798c6608bceb3f,657bb472576044e1e7206430,0.0343,0.0344,0,147,147,65,1,onethree,,,,,,,,,,,,,,,,,,,,,,,,,,,,,,,,,,,,,,,,,,,,,,,,,,,,,,,,,,,,,,,,,,,,,,,,,,,,,,,,,,,,,,,,,,,,,,,,,,,,,,,,,,,,,,,,,,,,,,,,,,,,,,,,,,,,,,,
,,652c30c993f3a4a8665cddcb,2023-12-15_15h06.12.768,kallum_motion_pilot,2023.2.3,Win32,72.46376812,652c30c993f3a4a8665cddcb,657bb317c8798c6608bceb3f,657bb472576044e1e7206430,0.0344,0.0344,0,148,148,92,1,sevenfive,,,,,,,,,,,,,,,,,,,,,,,,,,,,,,,,,,,,,,,,,,,,,,,,,,,,,,,,,,,,,,,,,,,,,,,,,,,,,,,,,,,,,,,,,,,,,,,,,,,,,,,,,,,,,,,,,,,,,,,,,,,,,,,,,,,,,,,
,,652c30c993f3a4a8665cddcb,2023-12-15_15h06.12.768,kallum_motion_pilot,2023.2.3,Win32,72.46376812,652c30c993f3a4a8665cddcb,657bb317c8798c6608bceb3f,657bb472576044e1e7206430,0.0345,0.0345,0,149,149,135,1,eightseven,,,,,,,,,,,,,,,,,,,,,,,,,,,,,,,,,,,,,,,,,,,,,,,,,,,,,,,,,,,,,,,,,,,,,,,,,,,,,,,,,,,,,,,,,,,,,,,,,,,,,,,,,,,,,,,,,,,,,,,,,,,,,,,,,,,,,,,
,,652c30c993f3a4a8665cddcb,2023-12-15_15h06.12.768,kallum_motion_pilot,2023.2.3,Win32,72.46376812,652c30c993f3a4a8665cddcb,657bb317c8798c6608bceb3f,657bb472576044e1e7206430,0.0346,0.0347,0,150,150,114,1,sixfive,,,,,,,,,,,,,,,,,,,,,,,,,,,,,,,,,,,,,,,,,,,,,,,,,,,,,,,,,,,,,,,,,,,,,,,,,,,,,,,,,,,,,,,,,,,,,,,,,,,,,,,,,,,,,,,,,,,,,,,,,,,,,,,,,,,,,,,
,,652c30c993f3a4a8665cddcb,2023-12-15_15h06.12.768,kallum_motion_pilot,2023.2.3,Win32,72.46376812,652c30c993f3a4a8665cddcb,657bb317c8798c6608bceb3f,657bb472576044e1e7206430,0.0347,0.0349,0,151,151,107,1,sixeight,,,,,,,,,,,,,,,,,,,,,,,,,,,,,,,,,,,,,,,,,,,,,,,,,,,,,,,,,,,,,,,,,,,,,,,,,,,,,,,,,,,,,,,,,,,,,,,,,,,,,,,,,,,,,,,,,,,,,,,,,,,,,,,,,,,,,,,
,,652c30c993f3a4a8665cddcb,2023-12-15_15h06.12.768,kallum_motion_pilot,2023.2.3,Win32,72.46376812,652c30c993f3a4a8665cddcb,657bb317c8798c6608bceb3f,657bb472576044e1e7206430,0.0349,0.0349,0,152,152,11,1,twofour,,,,,,,,,,,,,,,,,,,,,,,,,,,,,,,,,,,,,,,,,,,,,,,,,,,,,,,,,,,,,,,,,,,,,,,,,,,,,,,,,,,,,,,,,,,,,,,,,,,,,,,,,,,,,,,,,,,,,,,,,,,,,,,,,,,,,,,
,,652c30c993f3a4a8665cddcb,2023-12-15_15h06.12.768,kallum_motion_pilot,2023.2.3,Win32,72.46376812,652c30c993f3a4a8665cddcb,657bb317c8798c6608bceb3f,657bb472576044e1e7206430,0.035,0.035,0,153,153,109,1,seveneight,,,,,,,,,,,,,,,,,,,,,,,,,,,,,,,,,,,,,,,,,,,,,,,,,,,,,,,,,,,,,,,,,,,,,,,,,,,,,,,,,,,,,,,,,,,,,,,,,,,,,,,,,,,,,,,,,,,,,,,,,,,,,,,,,,,,,,,
,,652c30c993f3a4a8665cddcb,2023-12-15_15h06.12.768,kallum_motion_pilot,2023.2.3,Win32,72.46376812,652c30c993f3a4a8665cddcb,657bb317c8798c6608bceb3f,657bb472576044e1e7206430,0.0351,0.0351,0,154,154,27,1,twofour,,,,,,,,,,,,,,,,,,,,,,,,,,,,,,,,,,,,,,,,,,,,,,,,,,,,,,,,,,,,,,,,,,,,,,,,,,,,,,,,,,,,,,,,,,,,,,,,,,,,,,,,,,,,,,,,,,,,,,,,,,,,,,,,,,,,,,,
,,652c30c993f3a4a8665cddcb,2023-12-15_15h06.12.768,kallum_motion_pilot,2023.2.3,Win32,72.46376812,652c30c993f3a4a8665cddcb,657bb317c8798c6608bceb3f,657bb472576044e1e7206430,0.0352,0.0353,0,155,155,158,1,eightsix,,,,,,,,,,,,,,,,,,,,,,,,,,,,,,,,,,,,,,,,,,,,,,,,,,,,,,,,,,,,,,,,,,,,,,,,,,,,,,,,,,,,,,,,,,,,,,,,,,,,,,,,,,,,,,,,,,,,,,,,,,,,,,,,,,,,,,,
,,652c30c993f3a4a8665cddcb,2023-12-15_15h06.12.768,kallum_motion_pilot,2023.2.3,Win32,72.46376812,652c30c993f3a4a8665cddcb,657bb317c8798c6608bceb3f,657bb472576044e1e7206430,0.0353,0.0354,0,156,156,146,1,sixfive,,,,,,,,,,,,,,,,,,,,,,,,,,,,,,,,,,,,,,,,,,,,,,,,,,,,,,,,,,,,,,,,,,,,,,,,,,,,,,,,,,,,,,,,,,,,,,,,,,,,,,,,,,,,,,,,,,,,,,,,,,,,,,,,,,,,,,,
,,652c30c993f3a4a8665cddcb,2023-12-15_15h06.12.768,kallum_motion_pilot,2023.2.3,Win32,72.46376812,652c30c993f3a4a8665cddcb,657bb317c8798c6608bceb3f,657bb472576044e1e7206430,0.0354,0.0354,0,157,157,24,1,onetwo,,,,,,,,,,,,,,,,,,,,,,,,,,,,,,,,,,,,,,,,,,,,,,,,,,,,,,,,,,,,,,,,,,,,,,,,,,,,,,,,,,,,,,,,,,,,,,,,,,,,,,,,,,,,,,,,,,,,,,,,,,,,,,,,,,,,,,,
,,652c30c993f3a4a8665cddcb,2023-12-15_15h06.12.768,kallum_motion_pilot,2023.2.3,Win32,72.46376812,652c30c993f3a4a8665cddcb,657bb317c8798c6608bceb3f,657bb472576044e1e7206430,0.0356,0.0356,0,158,158,14,1,fourtwo,,,,,,,,,,,,,,,,,,,,,,,,,,,,,,,,,,,,,,,,,,,,,,,,,,,,,,,,,,,,,,,,,,,,,,,,,,,,,,,,,,,,,,,,,,,,,,,,,,,,,,,,,,,,,,,,,,,,,,,,,,,,,,,,,,,,,,,
,,652c30c993f3a4a8665cddcb,2023-12-15_15h06.12.768,kallum_motion_pilot,2023.2.3,Win32,72.46376812,652c30c993f3a4a8665cddcb,657bb317c8798c6608bceb3f,657bb472576044e1e7206430,0.0357,0.0357,0,159,159,22,1,fourtwo,,,,,,,,,,,,,,,,,,,,,,,,,,,,,,,,,,,,,,,,,,,,,,,,,,,,,,,,,,,,,,,,,,,,,,,,,,,,,,,,,,,,,,,,,,,,,,,,,,,,,,,,,,,,,,,,,,,,,,,,,,,,,,,,,,,,,,,
,,652c30c993f3a4a8665cddcb,2023-12-15_15h06.12.768,kallum_motion_pilot,2023.2.3,Win32,72.46376812,652c30c993f3a4a8665cddcb,657bb317c8798c6608bceb3f,657bb472576044e1e7206430,0.0358,0.0358,0,160,160,93,1,seveneight,,,,,,,,,,,,,,,,,,,,,,,,,,,,,,,,,,,,,,,,,,,,,,,,,,,,,,,,,,,,,,,,,,,,,,,,,,,,,,,,,,,,,,,,,,,,,,,,,,,,,,,,,,,,,,,,,,,,,,,,,,,,,,,,,,,,,,,
,,652c30c993f3a4a8665cddcb,2023-12-15_15h06.12.768,kallum_motion_pilot,2023.2.3,Win32,72.46376812,652c30c993f3a4a8665cddcb,657bb317c8798c6608bceb3f,657bb472576044e1e7206430,0.0358,0.0359,0,161,161,88,1,fivesix,,,,,,,,,,,,,,,,,,,,,,,,,,,,,,,,,,,,,,,,,,,,,,,,,,,,,,,,,,,,,,,,,,,,,,,,,,,,,,,,,,,,,,,,,,,,,,,,,,,,,,,,,,,,,,,,,,,,,,,,,,,,,,,,,,,,,,,
,,652c30c993f3a4a8665cddcb,2023-12-15_15h06.12.768,kallum_motion_pilot,2023.2.3,Win32,72.46376812,652c30c993f3a4a8665cddcb,657bb317c8798c6608bceb3f,657bb472576044e1e7206430,0.0359,0.036,1,0,162,74,1,twoone,,,,,,,,,,,,,,,,,,,,,,,,,,,,,,,,,,,,,,,,,,,,,,,,,,,,,,,,,,,,,,,,,,,,,,,,,,,,,,,,,,,,,,,,,,,,,,,,,,,,,,,,,,,,,,,,,,,,,,,,,,,,,,,,,,,,,,,
,,652c30c993f3a4a8665cddcb,2023-12-15_15h06.12.768,kallum_motion_pilot,2023.2.3,Win32,72.46376812,652c30c993f3a4a8665cddcb,657bb317c8798c6608bceb3f,657bb472576044e1e7206430,0.0361,0.0361,1,1,163,28,1,threeone,,,,,,,,,,,,,,,,,,,,,,,,,,,,,,,,,,,,,,,,,,,,,,,,,,,,,,,,,,,,,,,,,,,,,,,,,,,,,,,,,,,,,,,,,,,,,,,,,,,,,,,,,,,,,,,,,,,,,,,,,,,,,,,,,,,,,,,
,,652c30c993f3a4a8665cddcb,2023-12-15_15h06.12.768,kallum_motion_pilot,2023.2.3,Win32,72.46376812,652c30c993f3a4a8665cddcb,657bb317c8798c6608bceb3f,657bb472576044e1e7206430,0.0362,0.0362,1,2,164,54,1,fourtwo,,,,,,,,,,,,,,,,,,,,,,,,,,,,,,,,,,,,,,,,,,,,,,,,,,,,,,,,,,,,,,,,,,,,,,,,,,,,,,,,,,,,,,,,,,,,,,,,,,,,,,,,,,,,,,,,,,,,,,,,,,,,,,,,,,,,,,,
,,652c30c993f3a4a8665cddcb,2023-12-15_15h06.12.768,kallum_motion_pilot,2023.2.3,Win32,72.46376812,652c30c993f3a4a8665cddcb,657bb317c8798c6608bceb3f,657bb472576044e1e7206430,0.0363,0.0363,1,3,165,128,1,fivesix,,,,,,,,,,,,,,,,,,,,,,,,,,,,,,,,,,,,,,,,,,,,,,,,,,,,,,,,,,,,,,,,,,,,,,,,,,,,,,,,,,,,,,,,,,,,,,,,,,,,,,,,,,,,,,,,,,,,,,,,,,,,,,,,,,,,,,,
,,652c30c993f3a4a8665cddcb,2023-12-15_15h06.12.768,kallum_motion_pilot,2023.2.3,Win32,72.46376812,652c30c993f3a4a8665cddcb,657bb317c8798c6608bceb3f,657bb472576044e1e7206430,0.0363,0.0364,1,4,166,129,1,fiveseven,,,,,,,,,,,,,,,,,,,,,,,,,,,,,,,,,,,,,,,,,,,,,,,,,,,,,,,,,,,,,,,,,,,,,,,,,,,,,,,,,,,,,,,,,,,,,,,,,,,,,,,,,,,,,,,,,,,,,,,,,,,,,,,,,,,,,,,
,,652c30c993f3a4a8665cddcb,2023-12-15_15h06.12.768,kallum_motion_pilot,2023.2.3,Win32,72.46376812,652c30c993f3a4a8665cddcb,657bb317c8798c6608bceb3f,657bb472576044e1e7206430,0.0365,0.0365,1,5,167,57,1,onethree,,,,,,,,,,,,,,,,,,,,,,,,,,,,,,,,,,,,,,,,,,,,,,,,,,,,,,,,,,,,,,,,,,,,,,,,,,,,,,,,,,,,,,,,,,,,,,,,,,,,,,,,,,,,,,,,,,,,,,,,,,,,,,,,,,,,,,,
,,652c30c993f3a4a8665cddcb,2023-12-15_15h06.12.768,kallum_motion_pilot,2023.2.3,Win32,72.46376812,652c30c993f3a4a8665cddcb,657bb317c8798c6608bceb3f,657bb472576044e1e7206430,0.0365,0.0367,1,6,168,152,1,fivesix,,,,,,,,,,,,,,,,,,,,,,,,,,,,,,,,,,,,,,,,,,,,,,,,,,,,,,,,,,,,,,,,,,,,,,,,,,,,,,,,,,,,,,,,,,,,,,,,,,,,,,,,,,,,,,,,,,,,,,,,,,,,,,,,,,,,,,,
,,652c30c993f3a4a8665cddcb,2023-12-15_15h06.12.768,kallum_motion_pilot,2023.2.3,Win32,72.46376812,652c30c993f3a4a8665cddcb,657bb317c8798c6608bceb3f,657bb472576044e1e7206430,0.0374,0.0375,1,7,169,126,1,eightsix,,,,,,,,,,,,,,,,,,,,,,,,,,,,,,,,,,,,,,,,,,,,,,,,,,,,,,,,,,,,,,,,,,,,,,,,,,,,,,,,,,,,,,,,,,,,,,,,,,,,,,,,,,,,,,,,,,,,,,,,,,,,,,,,,,,,,,,
,,652c30c993f3a4a8665cddcb,2023-12-15_15h06.12.768,kallum_motion_pilot,2023.2.3,Win32,72.46376812,652c30c993f3a4a8665cddcb,657bb317c8798c6608bceb3f,657bb472576044e1e7206430,0.0376,0.0377,1,8,170,0,1,onetwo,,,,,,,,,,,,,,,,,,,,,,,,,,,,,,,,,,,,,,,,,,,,,,,,,,,,,,,,,,,,,,,,,,,,,,,,,,,,,,,,,,,,,,,,,,,,,,,,,,,,,,,,,,,,,,,,,,,,,,,,,,,,,,,,,,,,,,,
,,652c30c993f3a4a8665cddcb,2023-12-15_15h06.12.768,kallum_motion_pilot,2023.2.3,Win32,72.46376812,652c30c993f3a4a8665cddcb,657bb317c8798c6608bceb3f,657bb472576044e1e7206430,0.0378,0.0378,1,9,171,12,1,threeone,,,,,,,,,,,,,,,,,,,,,,,,,,,,,,,,,,,,,,,,,,,,,,,,,,,,,,,,,,,,,,,,,,,,,,,,,,,,,,,,,,,,,,,,,,,,,,,,,,,,,,,,,,,,,,,,,,,,,,,,,,,,,,,,,,,,,,,
,,652c30c993f3a4a8665cddcb,2023-12-15_15h06.12.768,kallum_motion_pilot,2023.2.3,Win32,72.46376812,652c30c993f3a4a8665cddcb,657bb317c8798c6608bceb3f,657bb472576044e1e7206430,0.0379,0.0379,1,10,172,62,1,fourtwo,,,,,,,,,,,,,,,,,,,,,,,,,,,,,,,,,,,,,,,,,,,,,,,,,,,,,,,,,,,,,,,,,,,,,,,,,,,,,,,,,,,,,,,,,,,,,,,,,,,,,,,,,,,,,,,,,,,,,,,,,,,,,,,,,,,,,,,
,,652c30c993f3a4a8665cddcb,2023-12-15_15h06.12.768,kallum_motion_pilot,2023.2.3,Win32,72.46376812,652c30c993f3a4a8665cddcb,657bb317c8798c6608bceb3f,657bb472576044e1e7206430,0.038,0.0381,1,11,173,160,1,fivesix,,,,,,,,,,,,,,,,,,,,,,,,,,,,,,,,,,,,,,,,,,,,,,,,,,,,,,,,,,,,,,,,,,,,,,,,,,,,,,,,,,,,,,,,,,,,,,,,,,,,,,,,,,,,,,,,,,,,,,,,,,,,,,,,,,,,,,,
,,652c30c993f3a4a8665cddcb,2023-12-15_15h06.12.768,kallum_motion_pilot,2023.2.3,Win32,72.46376812,652c30c993f3a4a8665cddcb,657bb317c8798c6608bceb3f,657bb472576044e1e7206430,0.0381,0.0383,1,12,174,75,1,twofour,,,,,,,,,,,,,,,,,,,,,,,,,,,,,,,,,,,,,,,,,,,,,,,,,,,,,,,,,,,,,,,,,,,,,,,,,,,,,,,,,,,,,,,,,,,,,,,,,,,,,,,,,,,,,,,,,,,,,,,,,,,,,,,,,,,,,,,
,,652c30c993f3a4a8665cddcb,2023-12-15_15h06.12.768,kallum_motion_pilot,2023.2.3,Win32,72.46376812,652c30c993f3a4a8665cddcb,657bb317c8798c6608bceb3f,657bb472576044e1e7206430,0.0383,0.0384,1,13,175,139,1,sixeight,,,,,,,,,,,,,,,,,,,,,,,,,,,,,,,,,,,,,,,,,,,,,,,,,,,,,,,,,,,,,,,,,,,,,,,,,,,,,,,,,,,,,,,,,,,,,,,,,,,,,,,,,,,,,,,,,,,,,,,,,,,,,,,,,,,,,,,
,,652c30c993f3a4a8665cddcb,2023-12-15_15h06.12.768,kallum_motion_pilot,2023.2.3,Win32,72.46376812,652c30c993f3a4a8665cddcb,657bb317c8798c6608bceb3f,657bb472576044e1e7206430,0.0385,0.0385,1,14,176,84,1,sevenfive,,,,,,,,,,,,,,,,,,,,,,,,,,,,,,,,,,,,,,,,,,,,,,,,,,,,,,,,,,,,,,,,,,,,,,,,,,,,,,,,,,,,,,,,,,,,,,,,,,,,,,,,,,,,,,,,,,,,,,,,,,,,,,,,,,,,,,,
,,652c30c993f3a4a8665cddcb,2023-12-15_15h06.12.768,kallum_motion_pilot,2023.2.3,Win32,72.46376812,652c30c993f3a4a8665cddcb,657bb317c8798c6608bceb3f,657bb472576044e1e7206430,0.0386,0.0387,1,15,177,60,1,threeone,,,,,,,,,,,,,,,,,,,,,,,,,,,,,,,,,,,,,,,,,,,,,,,,,,,,,,,,,,,,,,,,,,,,,,,,,,,,,,,,,,,,,,,,,,,,,,,,,,,,,,,,,,,,,,,,,,,,,,,,,,,,,,,,,,,,,,,
,,652c30c993f3a4a8665cddcb,2023-12-15_15h06.12.768,kallum_motion_pilot,2023.2.3,Win32,72.46376812,652c30c993f3a4a8665cddcb,657bb317c8798c6608bceb3f,657bb472576044e1e7206430,0.0387,0.0388,1,16,178,53,1,threefour,,,,,,,,,,,,,,,,,,,,,,,,,,,,,,,,,,,,,,,,,,,,,,,,,,,,,,,,,,,,,,,,,,,,,,,,,,,,,,,,,,,,,,,,,,,,,,,,,,,,,,,,,,,,,,,,,,,,,,,,,,,,,,,,,,,,,,,
,,652c30c993f3a4a8665cddcb,2023-12-15_15h06.12.768,kallum_motion_pilot,2023.2.3,Win32,72.46376812,652c30c993f3a4a8665cddcb,657bb317c8798c6608bceb3f,657bb472576044e1e7206430,0.0388,0.0388,1,17,179,24,1,onetwo,,,,,,,,,,,,,,,,,,,,,,,,,,,,,,,,,,,,,,,,,,,,,,,,,,,,,,,,,,,,,,,,,,,,,,,,,,,,,,,,,,,,,,,,,,,,,,,,,,,,,,,,,,,,,,,,,,,,,,,,,,,,,,,,,,,,,,,
,,652c30c993f3a4a8665cddcb,2023-12-15_15h06.12.768,kallum_motion_pilot,2023.2.3,Win32,72.46376812,652c30c993f3a4a8665cddcb,657bb317c8798c6608bceb3f,657bb472576044e1e7206430,0.0389,0.039,1,18,180,26,1,twoone,,,,,,,,,,,,,,,,,,,,,,,,,,,,,,,,,,,,,,,,,,,,,,,,,,,,,,,,,,,,,,,,,,,,,,,,,,,,,,,,,,,,,,,,,,,,,,,,,,,,,,,,,,,,,,,,,,,,,,,,,,,,,,,,,,,,,,,
,,652c30c993f3a4a8665cddcb,2023-12-15_15h06.12.768,kallum_motion_pilot,2023.2.3,Win32,72.46376812,652c30c993f3a4a8665cddcb,657bb317c8798c6608bceb3f,657bb472576044e1e7206430,0.0391,0.0392,1,19,181,39,1,fourthree,,,,,,,,,,,,,,,,,,,,,,,,,,,,,,,,,,,,,,,,,,,,,,,,,,,,,,,,,,,,,,,,,,,,,,,,,,,,,,,,,,,,,,,,,,,,,,,,,,,,,,,,,,,,,,,,,,,,,,,,,,,,,,,,,,,,,,,
,,652c30c993f3a4a8665cddcb,2023-12-15_15h06.12.768,kallum_motion_pilot,2023.2.3,Win32,72.46376812,652c30c993f3a4a8665cddcb,657bb317c8798c6608bceb3f,657bb472576044e1e7206430,0.0393,0.0393,1,20,182,114,1,sixfive,,,,,,,,,,,,,,,,,,,,,,,,,,,,,,,,,,,,,,,,,,,,,,,,,,,,,,,,,,,,,,,,,,,,,,,,,,,,,,,,,,,,,,,,,,,,,,,,,,,,,,,,,,,,,,,,,,,,,,,,,,,,,,,,,,,,,,,
,,652c30c993f3a4a8665cddcb,2023-12-15_15h06.12.768,kallum_motion_pilot,2023.2.3,Win32,72.46376812,652c30c993f3a4a8665cddcb,657bb317c8798c6608bceb3f,657bb472576044e1e7206430,0.0393,0.0394,1,21,183,32,1,onetwo,,,,,,,,,,,,,,,,,,,,,,,,,,,,,,,,,,,,,,,,,,,,,,,,,,,,,,,,,,,,,,,,,,,,,,,,,,,,,,,,,,,,,,,,,,,,,,,,,,,,,,,,,,,,,,,,,,,,,,,,,,,,,,,,,,,,,,,
,,652c30c993f3a4a8665cddcb,2023-12-15_15h06.12.768,kallum_motion_pilot,2023.2.3,Win32,72.46376812,652c30c993f3a4a8665cddcb,657bb317c8798c6608bceb3f,657bb472576044e1e7206430,0.0395,0.0396,1,22,184,25,1,onethree,,,,,,,,,,,,,,,,,,,,,,,,,,,,,,,,,,,,,,,,,,,,,,,,,,,,,,,,,,,,,,,,,,,,,,,,,,,,,,,,,,,,,,,,,,,,,,,,,,,,,,,,,,,,,,,,,,,,,,,,,,,,,,,,,,,,,,,
,,652c30c993f3a4a8665cddcb,2023-12-15_15h06.12.768,kallum_motion_pilot,2023.2.3,Win32,72.46376812,652c30c993f3a4a8665cddcb,657bb317c8798c6608bceb3f,657bb472576044e1e7206430,0.0396,0.0397,1,23,185,55,1,fourthree,,,,,,,,,,,,,,,,,,,,,,,,,,,,,,,,,,,,,,,,,,,,,,,,,,,,,,,,,,,,,,,,,,,,,,,,,,,,,,,,,,,,,,,,,,,,,,,,,,,,,,,,,,,,,,,,,,,,,,,,,,,,,,,,,,,,,,,
,,652c30c993f3a4a8665cddcb,2023-12-15_15h06.12.768,kallum_motion_pilot,2023.2.3,Win32,72.46376812,652c30c993f3a4a8665cddcb,657bb317c8798c6608bceb3f,657bb472576044e1e7206430,0.0397,0.0397,1,24,186,131,1,sixeight,,,,,,,,,,,,,,,,,,,,,,,,,,,,,,,,,,,,,,,,,,,,,,,,,,,,,,,,,,,,,,,,,,,,,,,,,,,,,,,,,,,,,,,,,,,,,,,,,,,,,,,,,,,,,,,,,,,,,,,,,,,,,,,,,,,,,,,
,,652c30c993f3a4a8665cddcb,2023-12-15_15h06.12.768,kallum_motion_pilot,2023.2.3,Win32,72.46376812,652c30c993f3a4a8665cddcb,657bb317c8798c6608bceb3f,657bb472576044e1e7206430,0.0399,0.0399,1,25,187,36,1,threeone,,,,,,,,,,,,,,,,,,,,,,,,,,,,,,,,,,,,,,,,,,,,,,,,,,,,,,,,,,,,,,,,,,,,,,,,,,,,,,,,,,,,,,,,,,,,,,,,,,,,,,,,,,,,,,,,,,,,,,,,,,,,,,,,,,,,,,,
,,652c30c993f3a4a8665cddcb,2023-12-15_15h06.12.768,kallum_motion_pilot,2023.2.3,Win32,72.46376812,652c30c993f3a4a8665cddcb,657bb317c8798c6608bceb3f,657bb472576044e1e7206430,0.0399,0.04,1,26,188,118,1,eightsix,,,,,,,,,,,,,,,,,,,,,,,,,,,,,,,,,,,,,,,,,,,,,,,,,,,,,,,,,,,,,,,,,,,,,,,,,,,,,,,,,,,,,,,,,,,,,,,,,,,,,,,,,,,,,,,,,,,,,,,,,,,,,,,,,,,,,,,
,,652c30c993f3a4a8665cddcb,2023-12-15_15h06.12.768,kallum_motion_pilot,2023.2.3,Win32,72.46376812,652c30c993f3a4a8665cddcb,657bb317c8798c6608bceb3f,657bb472576044e1e7206430,0.0401,0.0401,1,27,189,14,1,fourtwo,,,,,,,,,,,,,,,,,,,,,,,,,,,,,,,,,,,,,,,,,,,,,,,,,,,,,,,,,,,,,,,,,,,,,,,,,,,,,,,,,,,,,,,,,,,,,,,,,,,,,,,,,,,,,,,,,,,,,,,,,,,,,,,,,,,,,,,
,,652c30c993f3a4a8665cddcb,2023-12-15_15h06.12.768,kallum_motion_pilot,2023.2.3,Win32,72.46376812,652c30c993f3a4a8665cddcb,657bb317c8798c6608bceb3f,657bb472576044e1e7206430,0.0402,0.0403,1,28,190,77,1,threefour,,,,,,,,,,,,,,,,,,,,,,,,,,,,,,,,,,,,,,,,,,,,,,,,,,,,,,,,,,,,,,,,,,,,,,,,,,,,,,,,,,,,,,,,,,,,,,,,,,,,,,,,,,,,,,,,,,,,,,,,,,,,,,,,,,,,,,,
,,652c30c993f3a4a8665cddcb,2023-12-15_15h06.12.768,kallum_motion_pilot,2023.2.3,Win32,72.46376812,652c30c993f3a4a8665cddcb,657bb317c8798c6608bceb3f,657bb472576044e1e7206430,0.0404,0.0404,1,29,191,132,1,sevenfive,,,,,,,,,,,,,,,,,,,,,,,,,,,,,,,,,,,,,,,,,,,,,,,,,,,,,,,,,,,,,,,,,,,,,,,,,,,,,,,,,,,,,,,,,,,,,,,,,,,,,,,,,,,,,,,,,,,,,,,,,,,,,,,,,,,,,,,
,,652c30c993f3a4a8665cddcb,2023-12-15_15h06.12.768,kallum_motion_pilot,2023.2.3,Win32,72.46376812,652c30c993f3a4a8665cddcb,657bb317c8798c6608bceb3f,657bb472576044e1e7206430,0.0404,0.0405,1,30,192,65,1,onethree,,,,,,,,,,,,,,,,,,,,,,,,,,,,,,,,,,,,,,,,,,,,,,,,,,,,,,,,,,,,,,,,,,,,,,,,,,,,,,,,,,,,,,,,,,,,,,,,,,,,,,,,,,,,,,,,,,,,,,,,,,,,,,,,,,,,,,,
,,652c30c993f3a4a8665cddcb,2023-12-15_15h06.12.768,kallum_motion_pilot,2023.2.3,Win32,72.46376812,652c30c993f3a4a8665cddcb,657bb317c8798c6608bceb3f,657bb472576044e1e7206430,0.0406,0.0406,1,31,193,82,1,sixfive,,,,,,,,,,,,,,,,,,,,,,,,,,,,,,,,,,,,,,,,,,,,,,,,,,,,,,,,,,,,,,,,,,,,,,,,,,,,,,,,,,,,,,,,,,,,,,,,,,,,,,,,,,,,,,,,,,,,,,,,,,,,,,,,,,,,,,,
,,652c30c993f3a4a8665cddcb,2023-12-15_15h06.12.768,kallum_motion_pilot,2023.2.3,Win32,72.46376812,652c30c993f3a4a8665cddcb,657bb317c8798c6608bceb3f,657bb472576044e1e7206430,0.0407,0.0407,1,32,194,138,1,sixfive,,,,,,,,,,,,,,,,,,,,,,,,,,,,,,,,,,,,,,,,,,,,,,,,,,,,,,,,,,,,,,,,,,,,,,,,,,,,,,,,,,,,,,,,,,,,,,,,,,,,,,,,,,,,,,,,,,,,,,,,,,,,,,,,,,,,,,,
,,652c30c993f3a4a8665cddcb,2023-12-15_15h06.12.768,kallum_motion_pilot,2023.2.3,Win32,72.46376812,652c30c993f3a4a8665cddcb,657bb317c8798c6608bceb3f,657bb472576044e1e7206430,0.0407,0.0408,1,33,195,59,1,twofour,,,,,,,,,,,,,,,,,,,,,,,,,,,,,,,,,,,,,,,,,,,,,,,,,,,,,,,,,,,,,,,,,,,,,,,,,,,,,,,,,,,,,,,,,,,,,,,,,,,,,,,,,,,,,,,,,,,,,,,,,,,,,,,,,,,,,,,
,,652c30c993f3a4a8665cddcb,2023-12-15_15h06.12.768,kallum_motion_pilot,2023.2.3,Win32,72.46376812,652c30c993f3a4a8665cddcb,657bb317c8798c6608bceb3f,657bb472576044e1e7206430,0.0409,0.041,1,34,196,67,1,twofour,,,,,,,,,,,,,,,,,,,,,,,,,,,,,,,,,,,,,,,,,,,,,,,,,,,,,,,,,,,,,,,,,,,,,,,,,,,,,,,,,,,,,,,,,,,,,,,,,,,,,,,,,,,,,,,,,,,,,,,,,,,,,,,,,,,,,,,
,,652c30c993f3a4a8665cddcb,2023-12-15_15h06.12.768,kallum_motion_pilot,2023.2.3,Win32,72.46376812,652c30c993f3a4a8665cddcb,657bb317c8798c6608bceb3f,657bb472576044e1e7206430,0.041,0.041,1,35,197,10,1,twoone,,,,,,,,,,,,,,,,,,,,,,,,,,,,,,,,,,,,,,,,,,,,,,,,,,,,,,,,,,,,,,,,,,,,,,,,,,,,,,,,,,,,,,,,,,,,,,,,,,,,,,,,,,,,,,,,,,,,,,,,,,,,,,,,,,,,,,,
,,652c30c993f3a4a8665cddcb,2023-12-15_15h06.12.768,kallum_motion_pilot,2023.2.3,Win32,72.46376812,652c30c993f3a4a8665cddcb,657bb317c8798c6608bceb3f,657bb472576044e1e7206430,0.0412,0.0412,1,36,198,151,1,eightseven,,,,,,,,,,,,,,,,,,,,,,,,,,,,,,,,,,,,,,,,,,,,,,,,,,,,,,,,,,,,,,,,,,,,,,,,,,,,,,,,,,,,,,,,,,,,,,,,,,,,,,,,,,,,,,,,,,,,,,,,,,,,,,,,,,,,,,,
,,652c30c993f3a4a8665cddcb,2023-12-15_15h06.12.768,kallum_motion_pilot,2023.2.3,Win32,72.46376812,652c30c993f3a4a8665cddcb,657bb317c8798c6608bceb3f,657bb472576044e1e7206430,0.0413,0.0413,1,37,199,22,1,fourtwo,,,,,,,,,,,,,,,,,,,,,,,,,,,,,,,,,,,,,,,,,,,,,,,,,,,,,,,,,,,,,,,,,,,,,,,,,,,,,,,,,,,,,,,,,,,,,,,,,,,,,,,,,,,,,,,,,,,,,,,,,,,,,,,,,,,,,,,
,,652c30c993f3a4a8665cddcb,2023-12-15_15h06.12.768,kallum_motion_pilot,2023.2.3,Win32,72.46376812,652c30c993f3a4a8665cddcb,657bb317c8798c6608bceb3f,657bb472576044e1e7206430,0.0413,0.0413,1,38,200,35,1,twofour,,,,,,,,,,,,,,,,,,,,,,,,,,,,,,,,,,,,,,,,,,,,,,,,,,,,,,,,,,,,,,,,,,,,,,,,,,,,,,,,,,,,,,,,,,,,,,,,,,,,,,,,,,,,,,,,,,,,,,,,,,,,,,,,,,,,,,,
,,652c30c993f3a4a8665cddcb,2023-12-15_15h06.12.768,kallum_motion_pilot,2023.2.3,Win32,72.46376812,652c30c993f3a4a8665cddcb,657bb317c8798c6608bceb3f,657bb472576044e1e7206430,0.0414,0.0414,1,39,201,108,1,sevenfive,,,,,,,,,,,,,,,,,,,,,,,,,,,,,,,,,,,,,,,,,,,,,,,,,,,,,,,,,,,,,,,,,,,,,,,,,,,,,,,,,,,,,,,,,,,,,,,,,,,,,,,,,,,,,,,,,,,,,,,,,,,,,,,,,,,,,,,
,,652c30c993f3a4a8665cddcb,2023-12-15_15h06.12.768,kallum_motion_pilot,2023.2.3,Win32,72.46376812,652c30c993f3a4a8665cddcb,657bb317c8798c6608bceb3f,657bb472576044e1e7206430,0.0415,0.0416,1,40,202,68,1,threeone,,,,,,,,,,,,,,,,,,,,,,,,,,,,,,,,,,,,,,,,,,,,,,,,,,,,,,,,,,,,,,,,,,,,,,,,,,,,,,,,,,,,,,,,,,,,,,,,,,,,,,,,,,,,,,,,,,,,,,,,,,,,,,,,,,,,,,,
,,652c30c993f3a4a8665cddcb,2023-12-15_15h06.12.768,kallum_motion_pilot,2023.2.3,Win32,72.46376812,652c30c993f3a4a8665cddcb,657bb317c8798c6608bceb3f,657bb472576044e1e7206430,0.0416,0.0417,1,41,203,100,1,sevenfive,,,,,,,,,,,,,,,,,,,,,,,,,,,,,,,,,,,,,,,,,,,,,,,,,,,,,,,,,,,,,,,,,,,,,,,,,,,,,,,,,,,,,,,,,,,,,,,,,,,,,,,,,,,,,,,,,,,,,,,,,,,,,,,,,,,,,,,
,,652c30c993f3a4a8665cddcb,2023-12-15_15h06.12.768,kallum_motion_pilot,2023.2.3,Win32,72.46376812,652c30c993f3a4a8665cddcb,657bb317c8798c6608bceb3f,657bb472576044e1e7206430,0.0417,0.0418,1,42,204,79,1,eightseven,,,,,,,,,,,,,,,,,,,,,,,,,,,,,,,,,,,,,,,,,,,,,,,,,,,,,,,,,,,,,,,,,,,,,,,,,,,,,,,,,,,,,,,,,,,,,,,,,,,,,,,,,,,,,,,,,,,,,,,,,,,,,,,,,,,,,,,
,,652c30c993f3a4a8665cddcb,2023-12-15_15h06.12.768,kallum_motion_pilot,2023.2.3,Win32,72.46376812,652c30c993f3a4a8665cddcb,657bb317c8798c6608bceb3f,657bb472576044e1e7206430,0.0419,0.0419,1,43,205,157,1,seveneight,,,,,,,,,,,,,,,,,,,,,,,,,,,,,,,,,,,,,,,,,,,,,,,,,,,,,,,,,,,,,,,,,,,,,,,,,,,,,,,,,,,,,,,,,,,,,,,,,,,,,,,,,,,,,,,,,,,,,,,,,,,,,,,,,,,,,,,
,,652c30c993f3a4a8665cddcb,2023-12-15_15h06.12.768,kallum_motion_pilot,2023.2.3,Win32,72.46376812,652c30c993f3a4a8665cddcb,657bb317c8798c6608bceb3f,657bb472576044e1e7206430,0.042,0.042,1,44,206,95,1,eightseven,,,,,,,,,,,,,,,,,,,,,,,,,,,,,,,,,,,,,,,,,,,,,,,,,,,,,,,,,,,,,,,,,,,,,,,,,,,,,,,,,,,,,,,,,,,,,,,,,,,,,,,,,,,,,,,,,,,,,,,,,,,,,,,,,,,,,,,
,,652c30c993f3a4a8665cddcb,2023-12-15_15h06.12.768,kallum_motion_pilot,2023.2.3,Win32,72.46376812,652c30c993f3a4a8665cddcb,657bb317c8798c6608bceb3f,657bb472576044e1e7206430,0.0421,0.0422,1,45,207,127,1,eightseven,,,,,,,,,,,,,,,,,,,,,,,,,,,,,,,,,,,,,,,,,,,,,,,,,,,,,,,,,,,,,,,,,,,,,,,,,,,,,,,,,,,,,,,,,,,,,,,,,,,,,,,,,,,,,,,,,,,,,,,,,,,,,,,,,,,,,,,
,,652c30c993f3a4a8665cddcb,2023-12-15_15h06.12.768,kallum_motion_pilot,2023.2.3,Win32,72.46376812,652c30c993f3a4a8665cddcb,657bb317c8798c6608bceb3f,657bb472576044e1e7206430,0.0422,0.0423,1,46,208,70,1,fourtwo,,,,,,,,,,,,,,,,,,,,,,,,,,,,,,,,,,,,,,,,,,,,,,,,,,,,,,,,,,,,,,,,,,,,,,,,,,,,,,,,,,,,,,,,,,,,,,,,,,,,,,,,,,,,,,,,,,,,,,,,,,,,,,,,,,,,,,,
,,652c30c993f3a4a8665cddcb,2023-12-15_15h06.12.768,kallum_motion_pilot,2023.2.3,Win32,72.46376812,652c30c993f3a4a8665cddcb,657bb317c8798c6608bceb3f,657bb472576044e1e7206430,0.0423,0.0423,1,47,209,93,1,seveneight,,,,,,,,,,,,,,,,,,,,,,,,,,,,,,,,,,,,,,,,,,,,,,,,,,,,,,,,,,,,,,,,,,,,,,,,,,,,,,,,,,,,,,,,,,,,,,,,,,,,,,,,,,,,,,,,,,,,,,,,,,,,,,,,,,,,,,,
,,652c30c993f3a4a8665cddcb,2023-12-15_15h06.12.768,kallum_motion_pilot,2023.2.3,Win32,72.46376812,652c30c993f3a4a8665cddcb,657bb317c8798c6608bceb3f,657bb472576044e1e7206430,0.0424,0.0424,1,48,210,23,1,fourthree,,,,,,,,,,,,,,,,,,,,,,,,,,,,,,,,,,,,,,,,,,,,,,,,,,,,,,,,,,,,,,,,,,,,,,,,,,,,,,,,,,,,,,,,,,,,,,,,,,,,,,,,,,,,,,,,,,,,,,,,,,,,,,,,,,,,,,,
,,652c30c993f3a4a8665cddcb,2023-12-15_15h06.12.768,kallum_motion_pilot,2023.2.3,Win32,72.46376812,652c30c993f3a4a8665cddcb,657bb317c8798c6608bceb3f,657bb472576044e1e7206430,0.0425,0.0426,1,49,211,120,1,fivesix,,,,,,,,,,,,,,,,,,,,,,,,,,,,,,,,,,,,,,,,,,,,,,,,,,,,,,,,,,,,,,,,,,,,,,,,,,,,,,,,,,,,,,,,,,,,,,,,,,,,,,,,,,,,,,,,,,,,,,,,,,,,,,,,,,,,,,,
,,652c30c993f3a4a8665cddcb,2023-12-15_15h06.12.768,kallum_motion_pilot,2023.2.3,Win32,72.46376812,652c30c993f3a4a8665cddcb,657bb317c8798c6608bceb3f,657bb472576044e1e7206430,0.0426,0.0426,1,50,212,80,1,fivesix,,,,,,,,,,,,,,,,,,,,,,,,,,,,,,,,,,,,,,,,,,,,,,,,,,,,,,,,,,,,,,,,,,,,,,,,,,,,,,,,,,,,,,,,,,,,,,,,,,,,,,,,,,,,,,,,,,,,,,,,,,,,,,,,,,,,,,,
,,652c30c993f3a4a8665cddcb,2023-12-15_15h06.12.768,kallum_motion_pilot,2023.2.3,Win32,72.46376812,652c30c993f3a4a8665cddcb,657bb317c8798c6608bceb3f,657bb472576044e1e7206430,0.0427,0.0428,1,51,213,92,1,sevenfive,,,,,,,,,,,,,,,,,,,,,,,,,,,,,,,,,,,,,,,,,,,,,,,,,,,,,,,,,,,,,,,,,,,,,,,,,,,,,,,,,,,,,,,,,,,,,,,,,,,,,,,,,,,,,,,,,,,,,,,,,,,,,,,,,,,,,,,
,,652c30c993f3a4a8665cddcb,2023-12-15_15h06.12.768,kallum_motion_pilot,2023.2.3,Win32,72.46376812,652c30c993f3a4a8665cddcb,657bb317c8798c6608bceb3f,657bb472576044e1e7206430,0.0429,0.0429,1,52,214,1,1,onethree,,,,,,,,,,,,,,,,,,,,,,,,,,,,,,,,,,,,,,,,,,,,,,,,,,,,,,,,,,,,,,,,,,,,,,,,,,,,,,,,,,,,,,,,,,,,,,,,,,,,,,,,,,,,,,,,,,,,,,,,,,,,,,,,,,,,,,,
,,652c30c993f3a4a8665cddcb,2023-12-15_15h06.12.768,kallum_motion_pilot,2023.2.3,Win32,72.46376812,652c30c993f3a4a8665cddcb,657bb317c8798c6608bceb3f,657bb472576044e1e7206430,0.043,0.043,1,53,215,76,1,threeone,,,,,,,,,,,,,,,,,,,,,,,,,,,,,,,,,,,,,,,,,,,,,,,,,,,,,,,,,,,,,,,,,,,,,,,,,,,,,,,,,,,,,,,,,,,,,,,,,,,,,,,,,,,,,,,,,,,,,,,,,,,,,,,,,,,,,,,
,,652c30c993f3a4a8665cddcb,2023-12-15_15h06.12.768,kallum_motion_pilot,2023.2.3,Win32,72.46376812,652c30c993f3a4a8665cddcb,657bb317c8798c6608bceb3f,657bb472576044e1e7206430,0.043,0.0432,1,54,216,88,1,fivesix,,,,,,,,,,,,,,,,,,,,,,,,,,,,,,,,,,,,,,,,,,,,,,,,,,,,,,,,,,,,,,,,,,,,,,,,,,,,,,,,,,,,,,,,,,,,,,,,,,,,,,,,,,,,,,,,,,,,,,,,,,,,,,,,,,,,,,,
,,652c30c993f3a4a8665cddcb,2023-12-15_15h06.12.768,kallum_motion_pilot,2023.2.3,Win32,72.46376812,652c30c993f3a4a8665cddcb,657bb317c8798c6608bceb3f,657bb472576044e1e7206430,0.0432,0.0432,1,55,217,78,1,fourtwo,,,,,,,,,,,,,,,,,,,,,,,,,,,,,,,,,,,,,,,,,,,,,,,,,,,,,,,,,,,,,,,,,,,,,,,,,,,,,,,,,,,,,,,,,,,,,,,,,,,,,,,,,,,,,,,,,,,,,,,,,,,,,,,,,,,,,,,
,,652c30c993f3a4a8665cddcb,2023-12-15_15h06.12.768,kallum_motion_pilot,2023.2.3,Win32,72.46376812,652c30c993f3a4a8665cddcb,657bb317c8798c6608bceb3f,657bb472576044e1e7206430,0.0434,0.0434,1,56,218,115,1,sixeight,,,,,,,,,,,,,,,,,,,,,,,,,,,,,,,,,,,,,,,,,,,,,,,,,,,,,,,,,,,,,,,,,,,,,,,,,,,,,,,,,,,,,,,,,,,,,,,,,,,,,,,,,,,,,,,,,,,,,,,,,,,,,,,,,,,,,,,
,,652c30c993f3a4a8665cddcb,2023-12-15_15h06.12.768,kallum_motion_pilot,2023.2.3,Win32,72.46376812,652c30c993f3a4a8665cddcb,657bb317c8798c6608bceb3f,657bb472576044e1e7206430,0.0434,0.0435,1,57,219,49,1,onethree,,,,,,,,,,,,,,,,,,,,,,,,,,,,,,,,,,,,,,,,,,,,,,,,,,,,,,,,,,,,,,,,,,,,,,,,,,,,,,,,,,,,,,,,,,,,,,,,,,,,,,,,,,,,,,,,,,,,,,,,,,,,,,,,,,,,,,,
,,652c30c993f3a4a8665cddcb,2023-12-15_15h06.12.768,kallum_motion_pilot,2023.2.3,Win32,72.46376812,652c30c993f3a4a8665cddcb,657bb317c8798c6608bceb3f,657bb472576044e1e7206430,0.0435,0.0435,1,58,220,69,1,threefour,,,,,,,,,,,,,,,,,,,,,,,,,,,,,,,,,,,,,,,,,,,,,,,,,,,,,,,,,,,,,,,,,,,,,,,,,,,,,,,,,,,,,,,,,,,,,,,,,,,,,,,,,,,,,,,,,,,,,,,,,,,,,,,,,,,,,,,
,,652c30c993f3a4a8665cddcb,2023-12-15_15h06.12.768,kallum_motion_pilot,2023.2.3,Win32,72.46376812,652c30c993f3a4a8665cddcb,657bb317c8798c6608bceb3f,657bb472576044e1e7206430,0.0437,0.0437,1,59,221,103,1,eightseven,,,,,,,,,,,,,,,,,,,,,,,,,,,,,,,,,,,,,,,,,,,,,,,,,,,,,,,,,,,,,,,,,,,,,,,,,,,,,,,,,,,,,,,,,,,,,,,,,,,,,,,,,,,,,,,,,,,,,,,,,,,,,,,,,,,,,,,
,,652c30c993f3a4a8665cddcb,2023-12-15_15h06.12.768,kallum_motion_pilot,2023.2.3,Win32,72.46376812,652c30c993f3a4a8665cddcb,657bb317c8798c6608bceb3f,657bb472576044e1e7206430,0.0438,0.0438,1,60,222,52,1,threeone,,,,,,,,,,,,,,,,,,,,,,,,,,,,,,,,,,,,,,,,,,,,,,,,,,,,,,,,,,,,,,,,,,,,,,,,,,,,,,,,,,,,,,,,,,,,,,,,,,,,,,,,,,,,,,,,,,,,,,,,,,,,,,,,,,,,,,,
,,652c30c993f3a4a8665cddcb,2023-12-15_15h06.12.768,kallum_motion_pilot,2023.2.3,Win32,72.46376812,652c30c993f3a4a8665cddcb,657bb317c8798c6608bceb3f,657bb472576044e1e7206430,0.0439,0.0439,1,61,223,107,1,sixeight,,,,,,,,,,,,,,,,,,,,,,,,,,,,,,,,,,,,,,,,,,,,,,,,,,,,,,,,,,,,,,,,,,,,,,,,,,,,,,,,,,,,,,,,,,,,,,,,,,,,,,,,,,,,,,,,,,,,,,,,,,,,,,,,,,,,,,,
,,652c30c993f3a4a8665cddcb,2023-12-15_15h06.12.768,kallum_motion_pilot,2023.2.3,Win32,72.46376812,652c30c993f3a4a8665cddcb,657bb317c8798c6608bceb3f,657bb472576044e1e7206430,0.044,0.044,1,62,224,85,1,seveneight,,,,,,,,,,,,,,,,,,,,,,,,,,,,,,,,,,,,,,,,,,,,,,,,,,,,,,,,,,,,,,,,,,,,,,,,,,,,,,,,,,,,,,,,,,,,,,,,,,,,,,,,,,,,,,,,,,,,,,,,,,,,,,,,,,,,,,,
,,652c30c993f3a4a8665cddcb,2023-12-15_15h06.12.768,kallum_motion_pilot,2023.2.3,Win32,72.46376812,652c30c993f3a4a8665cddcb,657bb317c8798c6608bceb3f,657bb472576044e1e7206430,0.044,0.0441,1,63,225,161,1,fiveseven,,,,,,,,,,,,,,,,,,,,,,,,,,,,,,,,,,,,,,,,,,,,,,,,,,,,,,,,,,,,,,,,,,,,,,,,,,,,,,,,,,,,,,,,,,,,,,,,,,,,,,,,,,,,,,,,,,,,,,,,,,,,,,,,,,,,,,,
,,652c30c993f3a4a8665cddcb,2023-12-15_15h06.12.768,kallum_motion_pilot,2023.2.3,Win32,72.46376812,652c30c993f3a4a8665cddcb,657bb317c8798c6608bceb3f,657bb472576044e1e7206430,0.0441,0.0443,1,64,226,2,1,twoone,,,,,,,,,,,,,,,,,,,,,,,,,,,,,,,,,,,,,,,,,,,,,,,,,,,,,,,,,,,,,,,,,,,,,,,,,,,,,,,,,,,,,,,,,,,,,,,,,,,,,,,,,,,,,,,,,,,,,,,,,,,,,,,,,,,,,,,
,,652c30c993f3a4a8665cddcb,2023-12-15_15h06.12.768,kallum_motion_pilot,2023.2.3,Win32,72.46376812,652c30c993f3a4a8665cddcb,657bb317c8798c6608bceb3f,657bb472576044e1e7206430,0.0443,0.0444,1,65,227,137,1,fiveseven,,,,,,,,,,,,,,,,,,,,,,,,,,,,,,,,,,,,,,,,,,,,,,,,,,,,,,,,,,,,,,,,,,,,,,,,,,,,,,,,,,,,,,,,,,,,,,,,,,,,,,,,,,,,,,,,,,,,,,,,,,,,,,,,,,,,,,,
,,652c30c993f3a4a8665cddcb,2023-12-15_15h06.12.768,kallum_motion_pilot,2023.2.3,Win32,72.46376812,652c30c993f3a4a8665cddcb,657bb317c8798c6608bceb3f,657bb472576044e1e7206430,0.0444,0.0444,1,66,228,8,1,onetwo,,,,,,,,,,,,,,,,,,,,,,,,,,,,,,,,,,,,,,,,,,,,,,,,,,,,,,,,,,,,,,,,,,,,,,,,,,,,,,,,,,,,,,,,,,,,,,,,,,,,,,,,,,,,,,,,,,,,,,,,,,,,,,,,,,,,,,,
,,652c30c993f3a4a8665cddcb,2023-12-15_15h06.12.768,kallum_motion_pilot,2023.2.3,Win32,72.46376812,652c30c993f3a4a8665cddcb,657bb317c8798c6608bceb3f,657bb472576044e1e7206430,0.0445,0.0445,1,67,229,102,1,eightsix,,,,,,,,,,,,,,,,,,,,,,,,,,,,,,,,,,,,,,,,,,,,,,,,,,,,,,,,,,,,,,,,,,,,,,,,,,,,,,,,,,,,,,,,,,,,,,,,,,,,,,,,,,,,,,,,,,,,,,,,,,,,,,,,,,,,,,,
,,652c30c993f3a4a8665cddcb,2023-12-15_15h06.12.768,kallum_motion_pilot,2023.2.3,Win32,72.46376812,652c30c993f3a4a8665cddcb,657bb317c8798c6608bceb3f,657bb472576044e1e7206430,0.0447,0.0448,1,68,230,113,1,fiveseven,,,,,,,,,,,,,,,,,,,,,,,,,,,,,,,,,,,,,,,,,,,,,,,,,,,,,,,,,,,,,,,,,,,,,,,,,,,,,,,,,,,,,,,,,,,,,,,,,,,,,,,,,,,,,,,,,,,,,,,,,,,,,,,,,,,,,,,
,,652c30c993f3a4a8665cddcb,2023-12-15_15h06.12.768,kallum_motion_pilot,2023.2.3,Win32,72.46376812,652c30c993f3a4a8665cddcb,657bb317c8798c6608bceb3f,657bb472576044e1e7206430,0.0449,0.045,1,69,231,141,1,seveneight,,,,,,,,,,,,,,,,,,,,,,,,,,,,,,,,,,,,,,,,,,,,,,,,,,,,,,,,,,,,,,,,,,,,,,,,,,,,,,,,,,,,,,,,,,,,,,,,,,,,,,,,,,,,,,,,,,,,,,,,,,,,,,,,,,,,,,,
,,652c30c993f3a4a8665cddcb,2023-12-15_15h06.12.768,kallum_motion_pilot,2023.2.3,Win32,72.46376812,652c30c993f3a4a8665cddcb,657bb317c8798c6608bceb3f,657bb472576044e1e7206430,0.0452,0.0453,1,70,232,97,1,fiveseven,,,,,,,,,,,,,,,,,,,,,,,,,,,,,,,,,,,,,,,,,,,,,,,,,,,,,,,,,,,,,,,,,,,,,,,,,,,,,,,,,,,,,,,,,,,,,,,,,,,,,,,,,,,,,,,,,,,,,,,,,,,,,,,,,,,,,,,
,,652c30c993f3a4a8665cddcb,2023-12-15_15h06.12.768,kallum_motion_pilot,2023.2.3,Win32,72.46376812,652c30c993f3a4a8665cddcb,657bb317c8798c6608bceb3f,657bb472576044e1e7206430,0.0454,0.0455,1,71,233,116,1,sevenfive,,,,,,,,,,,,,,,,,,,,,,,,,,,,,,,,,,,,,,,,,,,,,,,,,,,,,,,,,,,,,,,,,,,,,,,,,,,,,,,,,,,,,,,,,,,,,,,,,,,,,,,,,,,,,,,,,,,,,,,,,,,,,,,,,,,,,,,
,,652c30c993f3a4a8665cddcb,2023-12-15_15h06.12.768,kallum_motion_pilot,2023.2.3,Win32,72.46376812,652c30c993f3a4a8665cddcb,657bb317c8798c6608bceb3f,657bb472576044e1e7206430,0.0456,0.0456,1,72,234,73,1,onethree,,,,,,,,,,,,,,,,,,,,,,,,,,,,,,,,,,,,,,,,,,,,,,,,,,,,,,,,,,,,,,,,,,,,,,,,,,,,,,,,,,,,,,,,,,,,,,,,,,,,,,,,,,,,,,,,,,,,,,,,,,,,,,,,,,,,,,,
,,652c30c993f3a4a8665cddcb,2023-12-15_15h06.12.768,kallum_motion_pilot,2023.2.3,Win32,72.46376812,652c30c993f3a4a8665cddcb,657bb317c8798c6608bceb3f,657bb472576044e1e7206430,0.0458,0.0458,1,73,235,20,1,threeone,,,,,,,,,,,,,,,,,,,,,,,,,,,,,,,,,,,,,,,,,,,,,,,,,,,,,,,,,,,,,,,,,,,,,,,,,,,,,,,,,,,,,,,,,,,,,,,,,,,,,,,,,,,,,,,,,,,,,,,,,,,,,,,,,,,,,,,
,,652c30c993f3a4a8665cddcb,2023-12-15_15h06.12.768,kallum_motion_pilot,2023.2.3,Win32,72.46376812,652c30c993f3a4a8665cddcb,657bb317c8798c6608bceb3f,657bb472576044e1e7206430,0.046,0.046,1,74,236,81,1,fiveseven,,,,,,,,,,,,,,,,,,,,,,,,,,,,,,,,,,,,,,,,,,,,,,,,,,,,,,,,,,,,,,,,,,,,,,,,,,,,,,,,,,,,,,,,,,,,,,,,,,,,,,,,,,,,,,,,,,,,,,,,,,,,,,,,,,,,,,,
,,652c30c993f3a4a8665cddcb,2023-12-15_15h06.12.768,kallum_motion_pilot,2023.2.3,Win32,72.46376812,652c30c993f3a4a8665cddcb,657bb317c8798c6608bceb3f,657bb472576044e1e7206430,0.0461,0.0461,1,75,237,140,1,sevenfive,,,,,,,,,,,,,,,,,,,,,,,,,,,,,,,,,,,,,,,,,,,,,,,,,,,,,,,,,,,,,,,,,,,,,,,,,,,,,,,,,,,,,,,,,,,,,,,,,,,,,,,,,,,,,,,,,,,,,,,,,,,,,,,,,,,,,,,
,,652c30c993f3a4a8665cddcb,2023-12-15_15h06.12.768,kallum_motion_pilot,2023.2.3,Win32,72.46376812,652c30c993f3a4a8665cddcb,657bb317c8798c6608bceb3f,657bb472576044e1e7206430,0.0462,0.0463,1,76,238,72,1,onetwo,,,,,,,,,,,,,,,,,,,,,,,,,,,,,,,,,,,,,,,,,,,,,,,,,,,,,,,,,,,,,,,,,,,,,,,,,,,,,,,,,,,,,,,,,,,,,,,,,,,,,,,,,,,,,,,,,,,,,,,,,,,,,,,,,,,,,,,
,,652c30c993f3a4a8665cddcb,2023-12-15_15h06.12.768,kallum_motion_pilot,2023.2.3,Win32,72.46376812,652c30c993f3a4a8665cddcb,657bb317c8798c6608bceb3f,657bb472576044e1e7206430,0.0463,0.0464,1,77,239,17,1,onethree,,,,,,,,,,,,,,,,,,,,,,,,,,,,,,,,,,,,,,,,,,,,,,,,,,,,,,,,,,,,,,,,,,,,,,,,,,,,,,,,,,,,,,,,,,,,,,,,,,,,,,,,,,,,,,,,,,,,,,,,,,,,,,,,,,,,,,,
,,652c30c993f3a4a8665cddcb,2023-12-15_15h06.12.768,kallum_motion_pilot,2023.2.3,Win32,72.46376812,652c30c993f3a4a8665cddcb,657bb317c8798c6608bceb3f,657bb472576044e1e7206430,0.0465,0.0465,1,78,240,37,1,threefour,,,,,,,,,,,,,,,,,,,,,,,,,,,,,,,,,,,,,,,,,,,,,,,,,,,,,,,,,,,,,,,,,,,,,,,,,,,,,,,,,,,,,,,,,,,,,,,,,,,,,,,,,,,,,,,,,,,,,,,,,,,,,,,,,,,,,,,
,,652c30c993f3a4a8665cddcb,2023-12-15_15h06.12.768,kallum_motion_pilot,2023.2.3,Win32,72.46376812,652c30c993f3a4a8665cddcb,657bb317c8798c6608bceb3f,657bb472576044e1e7206430,0.0466,0.0467,1,79,241,91,1,sixeight,,,,,,,,,,,,,,,,,,,,,,,,,,,,,,,,,,,,,,,,,,,,,,,,,,,,,,,,,,,,,,,,,,,,,,,,,,,,,,,,,,,,,,,,,,,,,,,,,,,,,,,,,,,,,,,,,,,,,,,,,,,,,,,,,,,,,,,
,,652c30c993f3a4a8665cddcb,2023-12-15_15h06.12.768,kallum_motion_pilot,2023.2.3,Win32,72.46376812,652c30c993f3a4a8665cddcb,657bb317c8798c6608bceb3f,657bb472576044e1e7206430,0.0467,0.0468,1,80,242,106,1,sixfive,,,,,,,,,,,,,,,,,,,,,,,,,,,,,,,,,,,,,,,,,,,,,,,,,,,,,,,,,,,,,,,,,,,,,,,,,,,,,,,,,,,,,,,,,,,,,,,,,,,,,,,,,,,,,,,,,,,,,,,,,,,,,,,,,,,,,,,
,,652c30c993f3a4a8665cddcb,2023-12-15_15h06.12.768,kallum_motion_pilot,2023.2.3,Win32,72.46376812,652c30c993f3a4a8665cddcb,657bb317c8798c6608bceb3f,657bb472576044e1e7206430,0.0468,0.0469,1,81,243,71,1,fourthree,,,,,,,,,,,,,,,,,,,,,,,,,,,,,,,,,,,,,,,,,,,,,,,,,,,,,,,,,,,,,,,,,,,,,,,,,,,,,,,,,,,,,,,,,,,,,,,,,,,,,,,,,,,,,,,,,,,,,,,,,,,,,,,,,,,,,,,
,,652c30c993f3a4a8665cddcb,2023-12-15_15h06.12.768,kallum_motion_pilot,2023.2.3,Win32,72.46376812,652c30c993f3a4a8665cddcb,657bb317c8798c6608bceb3f,657bb472576044e1e7206430,0.047,0.047,1,82,244,34,1,twoone,,,,,,,,,,,,,,,,,,,,,,,,,,,,,,,,,,,,,,,,,,,,,,,,,,,,,,,,,,,,,,,,,,,,,,,,,,,,,,,,,,,,,,,,,,,,,,,,,,,,,,,,,,,,,,,,,,,,,,,,,,,,,,,,,,,,,,,
,,652c30c993f3a4a8665cddcb,2023-12-15_15h06.12.768,kallum_motion_pilot,2023.2.3,Win32,72.46376812,652c30c993f3a4a8665cddcb,657bb317c8798c6608bceb3f,657bb472576044e1e7206430,0.0471,0.0472,1,83,245,149,1,seveneight,,,,,,,,,,,,,,,,,,,,,,,,,,,,,,,,,,,,,,,,,,,,,,,,,,,,,,,,,,,,,,,,,,,,,,,,,,,,,,,,,,,,,,,,,,,,,,,,,,,,,,,,,,,,,,,,,,,,,,,,,,,,,,,,,,,,,,,
,,652c30c993f3a4a8665cddcb,2023-12-15_15h06.12.768,kallum_motion_pilot,2023.2.3,Win32,72.46376812,652c30c993f3a4a8665cddcb,657bb317c8798c6608bceb3f,657bb472576044e1e7206430,0.0472,0.0473,1,84,246,11,1,twofour,,,,,,,,,,,,,,,,,,,,,,,,,,,,,,,,,,,,,,,,,,,,,,,,,,,,,,,,,,,,,,,,,,,,,,,,,,,,,,,,,,,,,,,,,,,,,,,,,,,,,,,,,,,,,,,,,,,,,,,,,,,,,,,,,,,,,,,
,,652c30c993f3a4a8665cddcb,2023-12-15_15h06.12.768,kallum_motion_pilot,2023.2.3,Win32,72.46376812,652c30c993f3a4a8665cddcb,657bb317c8798c6608bceb3f,657bb472576044e1e7206430,0.0473,0.0473,1,85,247,146,1,sixfive,,,,,,,,,,,,,,,,,,,,,,,,,,,,,,,,,,,,,,,,,,,,,,,,,,,,,,,,,,,,,,,,,,,,,,,,,,,,,,,,,,,,,,,,,,,,,,,,,,,,,,,,,,,,,,,,,,,,,,,,,,,,,,,,,,,,,,,
,,652c30c993f3a4a8665cddcb,2023-12-15_15h06.12.768,kallum_motion_pilot,2023.2.3,Win32,72.46376812,652c30c993f3a4a8665cddcb,657bb317c8798c6608bceb3f,657bb472576044e1e7206430,0.0474,0.0475,1,86,248,41,1,onethree,,,,,,,,,,,,,,,,,,,,,,,,,,,,,,,,,,,,,,,,,,,,,,,,,,,,,,,,,,,,,,,,,,,,,,,,,,,,,,,,,,,,,,,,,,,,,,,,,,,,,,,,,,,,,,,,,,,,,,,,,,,,,,,,,,,,,,,
,,652c30c993f3a4a8665cddcb,2023-12-15_15h06.12.768,kallum_motion_pilot,2023.2.3,Win32,72.46376812,652c30c993f3a4a8665cddcb,657bb317c8798c6608bceb3f,657bb472576044e1e7206430,0.0475,0.0476,1,87,249,61,1,threefour,,,,,,,,,,,,,,,,,,,,,,,,,,,,,,,,,,,,,,,,,,,,,,,,,,,,,,,,,,,,,,,,,,,,,,,,,,,,,,,,,,,,,,,,,,,,,,,,,,,,,,,,,,,,,,,,,,,,,,,,,,,,,,,,,,,,,,,
,,652c30c993f3a4a8665cddcb,2023-12-15_15h06.12.768,kallum_motion_pilot,2023.2.3,Win32,72.46376812,652c30c993f3a4a8665cddcb,657bb317c8798c6608bceb3f,657bb472576044e1e7206430,0.0477,0.0477,1,88,250,99,1,sixeight,,,,,,,,,,,,,,,,,,,,,,,,,,,,,,,,,,,,,,,,,,,,,,,,,,,,,,,,,,,,,,,,,,,,,,,,,,,,,,,,,,,,,,,,,,,,,,,,,,,,,,,,,,,,,,,,,,,,,,,,,,,,,,,,,,,,,,,
,,652c30c993f3a4a8665cddcb,2023-12-15_15h06.12.768,kallum_motion_pilot,2023.2.3,Win32,72.46376812,652c30c993f3a4a8665cddcb,657bb317c8798c6608bceb3f,657bb472576044e1e7206430,0.0477,0.0478,1,89,251,134,1,eightsix,,,,,,,,,,,,,,,,,,,,,,,,,,,,,,,,,,,,,,,,,,,,,,,,,,,,,,,,,,,,,,,,,,,,,,,,,,,,,,,,,,,,,,,,,,,,,,,,,,,,,,,,,,,,,,,,,,,,,,,,,,,,,,,,,,,,,,,
,,652c30c993f3a4a8665cddcb,2023-12-15_15h06.12.768,kallum_motion_pilot,2023.2.3,Win32,72.46376812,652c30c993f3a4a8665cddcb,657bb317c8798c6608bceb3f,657bb472576044e1e7206430,0.0479,0.0479,1,90,252,29,1,threefour,,,,,,,,,,,,,,,,,,,,,,,,,,,,,,,,,,,,,,,,,,,,,,,,,,,,,,,,,,,,,,,,,,,,,,,,,,,,,,,,,,,,,,,,,,,,,,,,,,,,,,,,,,,,,,,,,,,,,,,,,,,,,,,,,,,,,,,
,,652c30c993f3a4a8665cddcb,2023-12-15_15h06.12.768,kallum_motion_pilot,2023.2.3,Win32,72.46376812,652c30c993f3a4a8665cddcb,657bb317c8798c6608bceb3f,657bb472576044e1e7206430,0.0479,0.048,1,91,253,19,1,twofour,,,,,,,,,,,,,,,,,,,,,,,,,,,,,,,,,,,,,,,,,,,,,,,,,,,,,,,,,,,,,,,,,,,,,,,,,,,,,,,,,,,,,,,,,,,,,,,,,,,,,,,,,,,,,,,,,,,,,,,,,,,,,,,,,,,,,,,
,,652c30c993f3a4a8665cddcb,2023-12-15_15h06.12.768,kallum_motion_pilot,2023.2.3,Win32,72.46376812,652c30c993f3a4a8665cddcb,657bb317c8798c6608bceb3f,657bb472576044e1e7206430,0.0481,0.0481,1,92,254,153,1,fiveseven,,,,,,,,,,,,,,,,,,,,,,,,,,,,,,,,,,,,,,,,,,,,,,,,,,,,,,,,,,,,,,,,,,,,,,,,,,,,,,,,,,,,,,,,,,,,,,,,,,,,,,,,,,,,,,,,,,,,,,,,,,,,,,,,,,,,,,,
,,652c30c993f3a4a8665cddcb,2023-12-15_15h06.12.768,kallum_motion_pilot,2023.2.3,Win32,72.46376812,652c30c993f3a4a8665cddcb,657bb317c8798c6608bceb3f,657bb472576044e1e7206430,0.0482,0.0483,1,93,255,40,1,onetwo,,,,,,,,,,,,,,,,,,,,,,,,,,,,,,,,,,,,,,,,,,,,,,,,,,,,,,,,,,,,,,,,,,,,,,,,,,,,,,,,,,,,,,,,,,,,,,,,,,,,,,,,,,,,,,,,,,,,,,,,,,,,,,,,,,,,,,,
,,652c30c993f3a4a8665cddcb,2023-12-15_15h06.12.768,kallum_motion_pilot,2023.2.3,Win32,72.46376812,652c30c993f3a4a8665cddcb,657bb317c8798c6608bceb3f,657bb472576044e1e7206430,0.0484,0.0484,1,94,256,125,1,seveneight,,,,,,,,,,,,,,,,,,,,,,,,,,,,,,,,,,,,,,,,,,,,,,,,,,,,,,,,,,,,,,,,,,,,,,,,,,,,,,,,,,,,,,,,,,,,,,,,,,,,,,,,,,,,,,,,,,,,,,,,,,,,,,,,,,,,,,,
,,652c30c993f3a4a8665cddcb,2023-12-15_15h06.12.768,kallum_motion_pilot,2023.2.3,Win32,72.46376812,652c30c993f3a4a8665cddcb,657bb317c8798c6608bceb3f,657bb472576044e1e7206430,0.0484,0.0486,1,95,257,51,1,twofour,,,,,,,,,,,,,,,,,,,,,,,,,,,,,,,,,,,,,,,,,,,,,,,,,,,,,,,,,,,,,,,,,,,,,,,,,,,,,,,,,,,,,,,,,,,,,,,,,,,,,,,,,,,,,,,,,,,,,,,,,,,,,,,,,,,,,,,
,,652c30c993f3a4a8665cddcb,2023-12-15_15h06.12.768,kallum_motion_pilot,2023.2.3,Win32,72.46376812,652c30c993f3a4a8665cddcb,657bb317c8798c6608bceb3f,657bb472576044e1e7206430,0.0486,0.0487,1,96,258,109,1,seveneight,,,,,,,,,,,,,,,,,,,,,,,,,,,,,,,,,,,,,,,,,,,,,,,,,,,,,,,,,,,,,,,,,,,,,,,,,,,,,,,,,,,,,,,,,,,,,,,,,,,,,,,,,,,,,,,,,,,,,,,,,,,,,,,,,,,,,,,
,,652c30c993f3a4a8665cddcb,2023-12-15_15h06.12.768,kallum_motion_pilot,2023.2.3,Win32,72.46376812,652c30c993f3a4a8665cddcb,657bb317c8798c6608bceb3f,657bb472576044e1e7206430,0.0487,0.0488,1,97,259,158,1,eightsix,,,,,,,,,,,,,,,,,,,,,,,,,,,,,,,,,,,,,,,,,,,,,,,,,,,,,,,,,,,,,,,,,,,,,,,,,,,,,,,,,,,,,,,,,,,,,,,,,,,,,,,,,,,,,,,,,,,,,,,,,,,,,,,,,,,,,,,
,,652c30c993f3a4a8665cddcb,2023-12-15_15h06.12.768,kallum_motion_pilot,2023.2.3,Win32,72.46376812,652c30c993f3a4a8665cddcb,657bb317c8798c6608bceb3f,657bb472576044e1e7206430,0.0489,0.0489,1,98,260,117,1,seveneight,,,,,,,,,,,,,,,,,,,,,,,,,,,,,,,,,,,,,,,,,,,,,,,,,,,,,,,,,,,,,,,,,,,,,,,,,,,,,,,,,,,,,,,,,,,,,,,,,,,,,,,,,,,,,,,,,,,,,,,,,,,,,,,,,,,,,,,
,,652c30c993f3a4a8665cddcb,2023-12-15_15h06.12.768,kallum_motion_pilot,2023.2.3,Win32,72.46376812,652c30c993f3a4a8665cddcb,657bb317c8798c6608bceb3f,657bb472576044e1e7206430,0.0489,0.0491,1,99,261,9,1,onethree,,,,,,,,,,,,,,,,,,,,,,,,,,,,,,,,,,,,,,,,,,,,,,,,,,,,,,,,,,,,,,,,,,,,,,,,,,,,,,,,,,,,,,,,,,,,,,,,,,,,,,,,,,,,,,,,,,,,,,,,,,,,,,,,,,,,,,,
,,652c30c993f3a4a8665cddcb,2023-12-15_15h06.12.768,kallum_motion_pilot,2023.2.3,Win32,72.46376812,652c30c993f3a4a8665cddcb,657bb317c8798c6608bceb3f,657bb472576044e1e7206430,0.0491,0.0492,1,100,262,156,1,sevenfive,,,,,,,,,,,,,,,,,,,,,,,,,,,,,,,,,,,,,,,,,,,,,,,,,,,,,,,,,,,,,,,,,,,,,,,,,,,,,,,,,,,,,,,,,,,,,,,,,,,,,,,,,,,,,,,,,,,,,,,,,,,,,,,,,,,,,,,
,,652c30c993f3a4a8665cddcb,2023-12-15_15h06.12.768,kallum_motion_pilot,2023.2.3,Win32,72.46376812,652c30c993f3a4a8665cddcb,657bb317c8798c6608bceb3f,657bb472576044e1e7206430,0.0492,0.0492,1,101,263,30,1,fourtwo,,,,,,,,,,,,,,,,,,,,,,,,,,,,,,,,,,,,,,,,,,,,,,,,,,,,,,,,,,,,,,,,,,,,,,,,,,,,,,,,,,,,,,,,,,,,,,,,,,,,,,,,,,,,,,,,,,,,,,,,,,,,,,,,,,,,,,,
,,652c30c993f3a4a8665cddcb,2023-12-15_15h06.12.768,kallum_motion_pilot,2023.2.3,Win32,72.46376812,652c30c993f3a4a8665cddcb,657bb317c8798c6608bceb3f,657bb472576044e1e7206430,0.0493,0.0494,1,102,264,123,1,sixeight,,,,,,,,,,,,,,,,,,,,,,,,,,,,,,,,,,,,,,,,,,,,,,,,,,,,,,,,,,,,,,,,,,,,,,,,,,,,,,,,,,,,,,,,,,,,,,,,,,,,,,,,,,,,,,,,,,,,,,,,,,,,,,,,,,,,,,,
,,652c30c993f3a4a8665cddcb,2023-12-15_15h06.12.768,kallum_motion_pilot,2023.2.3,Win32,72.46376812,652c30c993f3a4a8665cddcb,657bb317c8798c6608bceb3f,657bb472576044e1e7206430,0.0494,0.0495,1,103,265,33,1,onethree,,,,,,,,,,,,,,,,,,,,,,,,,,,,,,,,,,,,,,,,,,,,,,,,,,,,,,,,,,,,,,,,,,,,,,,,,,,,,,,,,,,,,,,,,,,,,,,,,,,,,,,,,,,,,,,,,,,,,,,,,,,,,,,,,,,,,,,
,,652c30c993f3a4a8665cddcb,2023-12-15_15h06.12.768,kallum_motion_pilot,2023.2.3,Win32,72.46376812,652c30c993f3a4a8665cddcb,657bb317c8798c6608bceb3f,657bb472576044e1e7206430,0.0496,0.0497,1,104,266,145,1,fiveseven,,,,,,,,,,,,,,,,,,,,,,,,,,,,,,,,,,,,,,,,,,,,,,,,,,,,,,,,,,,,,,,,,,,,,,,,,,,,,,,,,,,,,,,,,,,,,,,,,,,,,,,,,,,,,,,,,,,,,,,,,,,,,,,,,,,,,,,
,,652c30c993f3a4a8665cddcb,2023-12-15_15h06.12.768,kallum_motion_pilot,2023.2.3,Win32,72.46376812,652c30c993f3a4a8665cddcb,657bb317c8798c6608bceb3f,657bb472576044e1e7206430,0.0497,0.0498,1,105,267,150,1,eightsix,,,,,,,,,,,,,,,,,,,,,,,,,,,,,,,,,,,,,,,,,,,,,,,,,,,,,,,,,,,,,,,,,,,,,,,,,,,,,,,,,,,,,,,,,,,,,,,,,,,,,,,,,,,,,,,,,,,,,,,,,,,,,,,,,,,,,,,
,,652c30c993f3a4a8665cddcb,2023-12-15_15h06.12.768,kallum_motion_pilot,2023.2.3,Win32,72.46376812,652c30c993f3a4a8665cddcb,657bb317c8798c6608bceb3f,657bb472576044e1e7206430,0.0498,0.0498,1,106,268,112,1,fivesix,,,,,,,,,,,,,,,,,,,,,,,,,,,,,,,,,,,,,,,,,,,,,,,,,,,,,,,,,,,,,,,,,,,,,,,,,,,,,,,,,,,,,,,,,,,,,,,,,,,,,,,,,,,,,,,,,,,,,,,,,,,,,,,,,,,,,,,
,,652c30c993f3a4a8665cddcb,2023-12-15_15h06.12.768,kallum_motion_pilot,2023.2.3,Win32,72.46376812,652c30c993f3a4a8665cddcb,657bb317c8798c6608bceb3f,657bb472576044e1e7206430,0.0499,0.05,1,107,269,155,1,sixeight,,,,,,,,,,,,,,,,,,,,,,,,,,,,,,,,,,,,,,,,,,,,,,,,,,,,,,,,,,,,,,,,,,,,,,,,,,,,,,,,,,,,,,,,,,,,,,,,,,,,,,,,,,,,,,,,,,,,,,,,,,,,,,,,,,,,,,,
,,652c30c993f3a4a8665cddcb,2023-12-15_15h06.12.768,kallum_motion_pilot,2023.2.3,Win32,72.46376812,652c30c993f3a4a8665cddcb,657bb317c8798c6608bceb3f,657bb472576044e1e7206430,0.0501,0.0501,1,108,270,154,1,sixfive,,,,,,,,,,,,,,,,,,,,,,,,,,,,,,,,,,,,,,,,,,,,,,,,,,,,,,,,,,,,,,,,,,,,,,,,,,,,,,,,,,,,,,,,,,,,,,,,,,,,,,,,,,,,,,,,,,,,,,,,,,,,,,,,,,,,,,,
,,652c30c993f3a4a8665cddcb,2023-12-15_15h06.12.768,kallum_motion_pilot,2023.2.3,Win32,72.46376812,652c30c993f3a4a8665cddcb,657bb317c8798c6608bceb3f,657bb472576044e1e7206430,0.0501,0.0502,1,109,271,16,1,onetwo,,,,,,,,,,,,,,,,,,,,,,,,,,,,,,,,,,,,,,,,,,,,,,,,,,,,,,,,,,,,,,,,,,,,,,,,,,,,,,,,,,,,,,,,,,,,,,,,,,,,,,,,,,,,,,,,,,,,,,,,,,,,,,,,,,,,,,,
,,652c30c993f3a4a8665cddcb,2023-12-15_15h06.12.768,kallum_motion_pilot,2023.2.3,Win32,72.46376812,652c30c993f3a4a8665cddcb,657bb317c8798c6608bceb3f,657bb472576044e1e7206430,0.0503,0.0504,1,110,272,56,1,onetwo,,,,,,,,,,,,,,,,,,,,,,,,,,,,,,,,,,,,,,,,,,,,,,,,,,,,,,,,,,,,,,,,,,,,,,,,,,,,,,,,,,,,,,,,,,,,,,,,,,,,,,,,,,,,,,,,,,,,,,,,,,,,,,,,,,,,,,,
,,652c30c993f3a4a8665cddcb,2023-12-15_15h06.12.768,kallum_motion_pilot,2023.2.3,Win32,72.46376812,652c30c993f3a4a8665cddcb,657bb317c8798c6608bceb3f,657bb472576044e1e7206430,0.0504,0.0505,1,111,273,31,1,fourthree,,,,,,,,,,,,,,,,,,,,,,,,,,,,,,,,,,,,,,,,,,,,,,,,,,,,,,,,,,,,,,,,,,,,,,,,,,,,,,,,,,,,,,,,,,,,,,,,,,,,,,,,,,,,,,,,,,,,,,,,,,,,,,,,,,,,,,,
,,652c30c993f3a4a8665cddcb,2023-12-15_15h06.12.768,kallum_motion_pilot,2023.2.3,Win32,72.46376812,652c30c993f3a4a8665cddcb,657bb317c8798c6608bceb3f,657bb472576044e1e7206430,0.0505,0.0505,1,112,274,94,1,eightsix,,,,,,,,,,,,,,,,,,,,,,,,,,,,,,,,,,,,,,,,,,,,,,,,,,,,,,,,,,,,,,,,,,,,,,,,,,,,,,,,,,,,,,,,,,,,,,,,,,,,,,,,,,,,,,,,,,,,,,,,,,,,,,,,,,,,,,,
,,652c30c993f3a4a8665cddcb,2023-12-15_15h06.12.768,kallum_motion_pilot,2023.2.3,Win32,72.46376812,652c30c993f3a4a8665cddcb,657bb317c8798c6608bceb3f,657bb472576044e1e7206430,0.0506,0.0507,1,113,275,15,1,fourthree,,,,,,,,,,,,,,,,,,,,,,,,,,,,,,,,,,,,,,,,,,,,,,,,,,,,,,,,,,,,,,,,,,,,,,,,,,,,,,,,,,,,,,,,,,,,,,,,,,,,,,,,,,,,,,,,,,,,,,,,,,,,,,,,,,,,,,,
,,652c30c993f3a4a8665cddcb,2023-12-15_15h06.12.768,kallum_motion_pilot,2023.2.3,Win32,72.46376812,652c30c993f3a4a8665cddcb,657bb317c8798c6608bceb3f,657bb472576044e1e7206430,0.0507,0.0508,1,114,276,46,1,fourtwo,,,,,,,,,,,,,,,,,,,,,,,,,,,,,,,,,,,,,,,,,,,,,,,,,,,,,,,,,,,,,,,,,,,,,,,,,,,,,,,,,,,,,,,,,,,,,,,,,,,,,,,,,,,,,,,,,,,,,,,,,,,,,,,,,,,,,,,
,,652c30c993f3a4a8665cddcb,2023-12-15_15h06.12.768,kallum_motion_pilot,2023.2.3,Win32,72.46376812,652c30c993f3a4a8665cddcb,657bb317c8798c6608bceb3f,657bb472576044e1e7206430,0.0508,0.0509,1,115,277,4,1,threeone,,,,,,,,,,,,,,,,,,,,,,,,,,,,,,,,,,,,,,,,,,,,,,,,,,,,,,,,,,,,,,,,,,,,,,,,,,,,,,,,,,,,,,,,,,,,,,,,,,,,,,,,,,,,,,,,,,,,,,,,,,,,,,,,,,,,,,,
,,652c30c993f3a4a8665cddcb,2023-12-15_15h06.12.768,kallum_motion_pilot,2023.2.3,Win32,72.46376812,652c30c993f3a4a8665cddcb,657bb317c8798c6608bceb3f,657bb472576044e1e7206430,0.051,0.0511,1,116,278,121,1,fiveseven,,,,,,,,,,,,,,,,,,,,,,,,,,,,,,,,,,,,,,,,,,,,,,,,,,,,,,,,,,,,,,,,,,,,,,,,,,,,,,,,,,,,,,,,,,,,,,,,,,,,,,,,,,,,,,,,,,,,,,,,,,,,,,,,,,,,,,,
,,652c30c993f3a4a8665cddcb,2023-12-15_15h06.12.768,kallum_motion_pilot,2023.2.3,Win32,72.46376812,652c30c993f3a4a8665cddcb,657bb317c8798c6608bceb3f,657bb472576044e1e7206430,0.0512,0.0512,1,117,279,122,1,sixfive,,,,,,,,,,,,,,,,,,,,,,,,,,,,,,,,,,,,,,,,,,,,,,,,,,,,,,,,,,,,,,,,,,,,,,,,,,,,,,,,,,,,,,,,,,,,,,,,,,,,,,,,,,,,,,,,,,,,,,,,,,,,,,,,,,,,,,,
