startup.started,startup.stopped,Prolific ID*,date,expName,psychopyVersion,OS,frameRate,participant,study_id,session,stimpositions.started,stimpositions.stopped,hardcoded_stimulus_positions.thisRepN,hardcoded_stimulus_positions.thisTrialN,hardcoded_stimulus_positions.thisN,hardcoded_stimulus_positions.thisIndex,hardcoded_stimulus_positions.ran,StimulusPos,stimorientation.started,stimorientation.stopped,prac_stimorientation_import_loop.thisRepN,prac_stimorientation_import_loop.thisTrialN,prac_stimorientation_import_loop.thisN,prac_stimorientation_import_loop.thisIndex,prac_stimorientation_import_loop.ran,Stimorientation,welcome_instr.started,welcome_instr.stopped,key_resp.keys,key_resp.rt,key_resp.duration,response_steppedout_1.started,response_steppedout_1.stopped,key_resp_20.keys,key_resp_20.rt,key_resp_20.duration,response_steppedout_2.started,response_steppedout_2.stopped,key_resp_19.keys,key_resp_19.rt,key_resp_19.duration,stim_response_instr.started,stim_response_instr.stopped,key_resp_15.keys,key_resp_15.rt,key_resp_15.duration,direction_instr_2.started,direction_instr_2.stopped,key_resp_9.keys,key_resp_9.rt,key_resp_9.duration,instr_prac.started,instr_prac.stopped,key_resp_10.keys,key_resp_10.rt,key_resp_10.duration,Stim1_display_prac.started,Stim1_display_prac.stopped,Ecc,Circle1_ori,Circle2_ori,response_prac.started,similarity,response_time,response_prac.stopped,mouse_5.x,mouse_5.y,mouse_5.leftButton,mouse_5.midButton,mouse_5.rightButton,mouse_5.clicked_name,responseprac_feedback.started,responseprac_feedback.stopped,summary2_prac.started,summary2_prac.stopped,mouse_6.x,mouse_6.y,mouse_6.leftButton,mouse_6.midButton,mouse_6.rightButton,mouse_6.clicked_name,duringprac.thisRepN,duringprac.thisTrialN,duringprac.thisN,duringprac.thisIndex,duringprac.ran,begin.started,begin.stopped,key_resp_22.keys,key_resp_22.rt,key_resp_22.duration,Stim1_display.started,Stim1_display.stopped,circle1_ori,circle2_ori,blank.started,blank.stopped,response.started,response.stopped,mouse.x,mouse.y,mouse.leftButton,mouse.midButton,mouse.rightButton,mouse.clicked_name,response_2.started,response_2.stopped,mouse_2.x,mouse_2.y,mouse_2.leftButton,mouse_2.midButton,mouse_2.rightButton,mouse_2.clicked_name,special_trial.started,special_trial.stopped,catch_1.started,catch_1.stopped,mouse_3.x,mouse_3.y,mouse_3.leftButton,mouse_3.midButton,mouse_3.rightButton,catchresponse,catchnumber,response_time_catch,Catch,response_sum.started,response_sum.stopped,mouse_11.x,mouse_11.y,mouse_11.leftButton,mouse_11.midButton,mouse_11.rightButton,main_trial.thisRepN,main_trial.thisTrialN,main_trial.thisN,main_trial.thisIndex,main_trial.ran,Orientationtrialno,xcircle1_ori,xcircle2_ori,flip_presentation_sequence_for_double_pass.started,flip_presentation_sequence_for_double_pass.stopped,double_pass.thisRepN,double_pass.thisTrialN,double_pass.thisN,double_pass.thisIndex,double_pass.ran,goodbye.started,goodbye.stopped,key_resp_3.keys,key_resp_3.rt,key_resp_3.duration
0.001,0.002,6563617d6c7549dfa0c5e854,2023-12-14_20h05.52.401,kallum_motion_pilot,2023.2.3,Win32,45.45454545,6563617d6c7549dfa0c5e854,657bb317c8798c6608bceb3f,657bb46df98be90186afd73b,,,,,,,,,,,,,,,,,,,,,,,,,,,,,,,,,,,,,,,,,,,,,,,,,,,,,,,,,,,,,,,,,,,,,,,,,,,,,,,,,,,,,,,,,,,,,,,,,,,,,,,,,,,,,,,,,,,,,,,,,,,,,,,,,,,,,,,,,,,,,,,
,,6563617d6c7549dfa0c5e854,2023-12-14_20h05.52.401,kallum_motion_pilot,2023.2.3,Win32,45.45454545,6563617d6c7549dfa0c5e854,657bb317c8798c6608bceb3f,657bb46df98be90186afd73b,0.06,0.061,0,0,0,74,1,twoone,,,,,,,,,,,,,,,,,,,,,,,,,,,,,,,,,,,,,,,,,,,,,,,,,,,,,,,,,,,,,,,,,,,,,,,,,,,,,,,,,,,,,,,,,,,,,,,,,,,,,,,,,,,,,,,,,,,,,,,,,,,,,,,,,,,,,,,
,,6563617d6c7549dfa0c5e854,2023-12-14_20h05.52.401,kallum_motion_pilot,2023.2.3,Win32,45.45454545,6563617d6c7549dfa0c5e854,657bb317c8798c6608bceb3f,657bb46df98be90186afd73b,0.061,0.061,0,1,1,83,1,sixeight,,,,,,,,,,,,,,,,,,,,,,,,,,,,,,,,,,,,,,,,,,,,,,,,,,,,,,,,,,,,,,,,,,,,,,,,,,,,,,,,,,,,,,,,,,,,,,,,,,,,,,,,,,,,,,,,,,,,,,,,,,,,,,,,,,,,,,,
,,6563617d6c7549dfa0c5e854,2023-12-14_20h05.52.401,kallum_motion_pilot,2023.2.3,Win32,45.45454545,6563617d6c7549dfa0c5e854,657bb317c8798c6608bceb3f,657bb46df98be90186afd73b,0.062,0.062,0,2,2,102,1,eightsix,,,,,,,,,,,,,,,,,,,,,,,,,,,,,,,,,,,,,,,,,,,,,,,,,,,,,,,,,,,,,,,,,,,,,,,,,,,,,,,,,,,,,,,,,,,,,,,,,,,,,,,,,,,,,,,,,,,,,,,,,,,,,,,,,,,,,,,
,,6563617d6c7549dfa0c5e854,2023-12-14_20h05.52.401,kallum_motion_pilot,2023.2.3,Win32,45.45454545,6563617d6c7549dfa0c5e854,657bb317c8798c6608bceb3f,657bb46df98be90186afd73b,0.062,0.063,0,3,3,29,1,threefour,,,,,,,,,,,,,,,,,,,,,,,,,,,,,,,,,,,,,,,,,,,,,,,,,,,,,,,,,,,,,,,,,,,,,,,,,,,,,,,,,,,,,,,,,,,,,,,,,,,,,,,,,,,,,,,,,,,,,,,,,,,,,,,,,,,,,,,
,,6563617d6c7549dfa0c5e854,2023-12-14_20h05.52.401,kallum_motion_pilot,2023.2.3,Win32,45.45454545,6563617d6c7549dfa0c5e854,657bb317c8798c6608bceb3f,657bb46df98be90186afd73b,0.063,0.063,0,4,4,133,1,seveneight,,,,,,,,,,,,,,,,,,,,,,,,,,,,,,,,,,,,,,,,,,,,,,,,,,,,,,,,,,,,,,,,,,,,,,,,,,,,,,,,,,,,,,,,,,,,,,,,,,,,,,,,,,,,,,,,,,,,,,,,,,,,,,,,,,,,,,,
,,6563617d6c7549dfa0c5e854,2023-12-14_20h05.52.401,kallum_motion_pilot,2023.2.3,Win32,45.45454545,6563617d6c7549dfa0c5e854,657bb317c8798c6608bceb3f,657bb46df98be90186afd73b,0.063,0.063,0,5,5,116,1,sevenfive,,,,,,,,,,,,,,,,,,,,,,,,,,,,,,,,,,,,,,,,,,,,,,,,,,,,,,,,,,,,,,,,,,,,,,,,,,,,,,,,,,,,,,,,,,,,,,,,,,,,,,,,,,,,,,,,,,,,,,,,,,,,,,,,,,,,,,,
,,6563617d6c7549dfa0c5e854,2023-12-14_20h05.52.401,kallum_motion_pilot,2023.2.3,Win32,45.45454545,6563617d6c7549dfa0c5e854,657bb317c8798c6608bceb3f,657bb46df98be90186afd73b,0.063,0.063,0,6,6,117,1,seveneight,,,,,,,,,,,,,,,,,,,,,,,,,,,,,,,,,,,,,,,,,,,,,,,,,,,,,,,,,,,,,,,,,,,,,,,,,,,,,,,,,,,,,,,,,,,,,,,,,,,,,,,,,,,,,,,,,,,,,,,,,,,,,,,,,,,,,,,
,,6563617d6c7549dfa0c5e854,2023-12-14_20h05.52.401,kallum_motion_pilot,2023.2.3,Win32,45.45454545,6563617d6c7549dfa0c5e854,657bb317c8798c6608bceb3f,657bb46df98be90186afd73b,0.064,0.064,0,7,7,131,1,sixeight,,,,,,,,,,,,,,,,,,,,,,,,,,,,,,,,,,,,,,,,,,,,,,,,,,,,,,,,,,,,,,,,,,,,,,,,,,,,,,,,,,,,,,,,,,,,,,,,,,,,,,,,,,,,,,,,,,,,,,,,,,,,,,,,,,,,,,,
,,6563617d6c7549dfa0c5e854,2023-12-14_20h05.52.401,kallum_motion_pilot,2023.2.3,Win32,45.45454545,6563617d6c7549dfa0c5e854,657bb317c8798c6608bceb3f,657bb46df98be90186afd73b,0.064,0.065,0,8,8,35,1,twofour,,,,,,,,,,,,,,,,,,,,,,,,,,,,,,,,,,,,,,,,,,,,,,,,,,,,,,,,,,,,,,,,,,,,,,,,,,,,,,,,,,,,,,,,,,,,,,,,,,,,,,,,,,,,,,,,,,,,,,,,,,,,,,,,,,,,,,,
,,6563617d6c7549dfa0c5e854,2023-12-14_20h05.52.401,kallum_motion_pilot,2023.2.3,Win32,45.45454545,6563617d6c7549dfa0c5e854,657bb317c8798c6608bceb3f,657bb46df98be90186afd73b,0.065,0.065,0,9,9,160,1,fivesix,,,,,,,,,,,,,,,,,,,,,,,,,,,,,,,,,,,,,,,,,,,,,,,,,,,,,,,,,,,,,,,,,,,,,,,,,,,,,,,,,,,,,,,,,,,,,,,,,,,,,,,,,,,,,,,,,,,,,,,,,,,,,,,,,,,,,,,
,,6563617d6c7549dfa0c5e854,2023-12-14_20h05.52.401,kallum_motion_pilot,2023.2.3,Win32,45.45454545,6563617d6c7549dfa0c5e854,657bb317c8798c6608bceb3f,657bb46df98be90186afd73b,0.065,0.065,0,10,10,57,1,onethree,,,,,,,,,,,,,,,,,,,,,,,,,,,,,,,,,,,,,,,,,,,,,,,,,,,,,,,,,,,,,,,,,,,,,,,,,,,,,,,,,,,,,,,,,,,,,,,,,,,,,,,,,,,,,,,,,,,,,,,,,,,,,,,,,,,,,,,
,,6563617d6c7549dfa0c5e854,2023-12-14_20h05.52.401,kallum_motion_pilot,2023.2.3,Win32,45.45454545,6563617d6c7549dfa0c5e854,657bb317c8798c6608bceb3f,657bb46df98be90186afd73b,0.066,0.066,0,11,11,20,1,threeone,,,,,,,,,,,,,,,,,,,,,,,,,,,,,,,,,,,,,,,,,,,,,,,,,,,,,,,,,,,,,,,,,,,,,,,,,,,,,,,,,,,,,,,,,,,,,,,,,,,,,,,,,,,,,,,,,,,,,,,,,,,,,,,,,,,,,,,
,,6563617d6c7549dfa0c5e854,2023-12-14_20h05.52.401,kallum_motion_pilot,2023.2.3,Win32,45.45454545,6563617d6c7549dfa0c5e854,657bb317c8798c6608bceb3f,657bb46df98be90186afd73b,0.066,0.066,0,12,12,54,1,fourtwo,,,,,,,,,,,,,,,,,,,,,,,,,,,,,,,,,,,,,,,,,,,,,,,,,,,,,,,,,,,,,,,,,,,,,,,,,,,,,,,,,,,,,,,,,,,,,,,,,,,,,,,,,,,,,,,,,,,,,,,,,,,,,,,,,,,,,,,
,,6563617d6c7549dfa0c5e854,2023-12-14_20h05.52.401,kallum_motion_pilot,2023.2.3,Win32,45.45454545,6563617d6c7549dfa0c5e854,657bb317c8798c6608bceb3f,657bb46df98be90186afd73b,0.066,0.066,0,13,13,90,1,sixfive,,,,,,,,,,,,,,,,,,,,,,,,,,,,,,,,,,,,,,,,,,,,,,,,,,,,,,,,,,,,,,,,,,,,,,,,,,,,,,,,,,,,,,,,,,,,,,,,,,,,,,,,,,,,,,,,,,,,,,,,,,,,,,,,,,,,,,,
,,6563617d6c7549dfa0c5e854,2023-12-14_20h05.52.401,kallum_motion_pilot,2023.2.3,Win32,45.45454545,6563617d6c7549dfa0c5e854,657bb317c8798c6608bceb3f,657bb46df98be90186afd73b,0.067,0.067,0,14,14,0,1,onetwo,,,,,,,,,,,,,,,,,,,,,,,,,,,,,,,,,,,,,,,,,,,,,,,,,,,,,,,,,,,,,,,,,,,,,,,,,,,,,,,,,,,,,,,,,,,,,,,,,,,,,,,,,,,,,,,,,,,,,,,,,,,,,,,,,,,,,,,
,,6563617d6c7549dfa0c5e854,2023-12-14_20h05.52.401,kallum_motion_pilot,2023.2.3,Win32,45.45454545,6563617d6c7549dfa0c5e854,657bb317c8798c6608bceb3f,657bb46df98be90186afd73b,0.067,0.068,0,15,15,25,1,onethree,,,,,,,,,,,,,,,,,,,,,,,,,,,,,,,,,,,,,,,,,,,,,,,,,,,,,,,,,,,,,,,,,,,,,,,,,,,,,,,,,,,,,,,,,,,,,,,,,,,,,,,,,,,,,,,,,,,,,,,,,,,,,,,,,,,,,,,
,,6563617d6c7549dfa0c5e854,2023-12-14_20h05.52.401,kallum_motion_pilot,2023.2.3,Win32,45.45454545,6563617d6c7549dfa0c5e854,657bb317c8798c6608bceb3f,657bb46df98be90186afd73b,0.068,0.068,0,16,16,123,1,sixeight,,,,,,,,,,,,,,,,,,,,,,,,,,,,,,,,,,,,,,,,,,,,,,,,,,,,,,,,,,,,,,,,,,,,,,,,,,,,,,,,,,,,,,,,,,,,,,,,,,,,,,,,,,,,,,,,,,,,,,,,,,,,,,,,,,,,,,,
,,6563617d6c7549dfa0c5e854,2023-12-14_20h05.52.401,kallum_motion_pilot,2023.2.3,Win32,45.45454545,6563617d6c7549dfa0c5e854,657bb317c8798c6608bceb3f,657bb46df98be90186afd73b,0.068,0.068,0,17,17,130,1,sixfive,,,,,,,,,,,,,,,,,,,,,,,,,,,,,,,,,,,,,,,,,,,,,,,,,,,,,,,,,,,,,,,,,,,,,,,,,,,,,,,,,,,,,,,,,,,,,,,,,,,,,,,,,,,,,,,,,,,,,,,,,,,,,,,,,,,,,,,
,,6563617d6c7549dfa0c5e854,2023-12-14_20h05.52.401,kallum_motion_pilot,2023.2.3,Win32,45.45454545,6563617d6c7549dfa0c5e854,657bb317c8798c6608bceb3f,657bb46df98be90186afd73b,0.068,0.068,0,18,18,19,1,twofour,,,,,,,,,,,,,,,,,,,,,,,,,,,,,,,,,,,,,,,,,,,,,,,,,,,,,,,,,,,,,,,,,,,,,,,,,,,,,,,,,,,,,,,,,,,,,,,,,,,,,,,,,,,,,,,,,,,,,,,,,,,,,,,,,,,,,,,
,,6563617d6c7549dfa0c5e854,2023-12-14_20h05.52.401,kallum_motion_pilot,2023.2.3,Win32,45.45454545,6563617d6c7549dfa0c5e854,657bb317c8798c6608bceb3f,657bb46df98be90186afd73b,0.068,0.069,0,19,19,21,1,threefour,,,,,,,,,,,,,,,,,,,,,,,,,,,,,,,,,,,,,,,,,,,,,,,,,,,,,,,,,,,,,,,,,,,,,,,,,,,,,,,,,,,,,,,,,,,,,,,,,,,,,,,,,,,,,,,,,,,,,,,,,,,,,,,,,,,,,,,
,,6563617d6c7549dfa0c5e854,2023-12-14_20h05.52.401,kallum_motion_pilot,2023.2.3,Win32,45.45454545,6563617d6c7549dfa0c5e854,657bb317c8798c6608bceb3f,657bb46df98be90186afd73b,0.07,0.07,0,20,20,127,1,eightseven,,,,,,,,,,,,,,,,,,,,,,,,,,,,,,,,,,,,,,,,,,,,,,,,,,,,,,,,,,,,,,,,,,,,,,,,,,,,,,,,,,,,,,,,,,,,,,,,,,,,,,,,,,,,,,,,,,,,,,,,,,,,,,,,,,,,,,,
,,6563617d6c7549dfa0c5e854,2023-12-14_20h05.52.401,kallum_motion_pilot,2023.2.3,Win32,45.45454545,6563617d6c7549dfa0c5e854,657bb317c8798c6608bceb3f,657bb46df98be90186afd73b,0.07,0.07,0,21,21,62,1,fourtwo,,,,,,,,,,,,,,,,,,,,,,,,,,,,,,,,,,,,,,,,,,,,,,,,,,,,,,,,,,,,,,,,,,,,,,,,,,,,,,,,,,,,,,,,,,,,,,,,,,,,,,,,,,,,,,,,,,,,,,,,,,,,,,,,,,,,,,,
,,6563617d6c7549dfa0c5e854,2023-12-14_20h05.52.401,kallum_motion_pilot,2023.2.3,Win32,45.45454545,6563617d6c7549dfa0c5e854,657bb317c8798c6608bceb3f,657bb46df98be90186afd73b,0.07,0.071,0,22,22,14,1,fourtwo,,,,,,,,,,,,,,,,,,,,,,,,,,,,,,,,,,,,,,,,,,,,,,,,,,,,,,,,,,,,,,,,,,,,,,,,,,,,,,,,,,,,,,,,,,,,,,,,,,,,,,,,,,,,,,,,,,,,,,,,,,,,,,,,,,,,,,,
,,6563617d6c7549dfa0c5e854,2023-12-14_20h05.52.401,kallum_motion_pilot,2023.2.3,Win32,45.45454545,6563617d6c7549dfa0c5e854,657bb317c8798c6608bceb3f,657bb46df98be90186afd73b,0.071,0.071,0,23,23,114,1,sixfive,,,,,,,,,,,,,,,,,,,,,,,,,,,,,,,,,,,,,,,,,,,,,,,,,,,,,,,,,,,,,,,,,,,,,,,,,,,,,,,,,,,,,,,,,,,,,,,,,,,,,,,,,,,,,,,,,,,,,,,,,,,,,,,,,,,,,,,
,,6563617d6c7549dfa0c5e854,2023-12-14_20h05.52.401,kallum_motion_pilot,2023.2.3,Win32,45.45454545,6563617d6c7549dfa0c5e854,657bb317c8798c6608bceb3f,657bb46df98be90186afd73b,0.072,0.072,0,24,24,28,1,threeone,,,,,,,,,,,,,,,,,,,,,,,,,,,,,,,,,,,,,,,,,,,,,,,,,,,,,,,,,,,,,,,,,,,,,,,,,,,,,,,,,,,,,,,,,,,,,,,,,,,,,,,,,,,,,,,,,,,,,,,,,,,,,,,,,,,,,,,
,,6563617d6c7549dfa0c5e854,2023-12-14_20h05.52.401,kallum_motion_pilot,2023.2.3,Win32,45.45454545,6563617d6c7549dfa0c5e854,657bb317c8798c6608bceb3f,657bb46df98be90186afd73b,0.072,0.072,0,25,25,59,1,twofour,,,,,,,,,,,,,,,,,,,,,,,,,,,,,,,,,,,,,,,,,,,,,,,,,,,,,,,,,,,,,,,,,,,,,,,,,,,,,,,,,,,,,,,,,,,,,,,,,,,,,,,,,,,,,,,,,,,,,,,,,,,,,,,,,,,,,,,
,,6563617d6c7549dfa0c5e854,2023-12-14_20h05.52.401,kallum_motion_pilot,2023.2.3,Win32,45.45454545,6563617d6c7549dfa0c5e854,657bb317c8798c6608bceb3f,657bb46df98be90186afd73b,0.072,0.072,0,26,26,76,1,threeone,,,,,,,,,,,,,,,,,,,,,,,,,,,,,,,,,,,,,,,,,,,,,,,,,,,,,,,,,,,,,,,,,,,,,,,,,,,,,,,,,,,,,,,,,,,,,,,,,,,,,,,,,,,,,,,,,,,,,,,,,,,,,,,,,,,,,,,
,,6563617d6c7549dfa0c5e854,2023-12-14_20h05.52.401,kallum_motion_pilot,2023.2.3,Win32,45.45454545,6563617d6c7549dfa0c5e854,657bb317c8798c6608bceb3f,657bb46df98be90186afd73b,0.072,0.072,0,27,27,134,1,eightsix,,,,,,,,,,,,,,,,,,,,,,,,,,,,,,,,,,,,,,,,,,,,,,,,,,,,,,,,,,,,,,,,,,,,,,,,,,,,,,,,,,,,,,,,,,,,,,,,,,,,,,,,,,,,,,,,,,,,,,,,,,,,,,,,,,,,,,,
,,6563617d6c7549dfa0c5e854,2023-12-14_20h05.52.401,kallum_motion_pilot,2023.2.3,Win32,45.45454545,6563617d6c7549dfa0c5e854,657bb317c8798c6608bceb3f,657bb46df98be90186afd73b,0.072,0.073,0,28,28,146,1,sixfive,,,,,,,,,,,,,,,,,,,,,,,,,,,,,,,,,,,,,,,,,,,,,,,,,,,,,,,,,,,,,,,,,,,,,,,,,,,,,,,,,,,,,,,,,,,,,,,,,,,,,,,,,,,,,,,,,,,,,,,,,,,,,,,,,,,,,,,
,,6563617d6c7549dfa0c5e854,2023-12-14_20h05.52.401,kallum_motion_pilot,2023.2.3,Win32,45.45454545,6563617d6c7549dfa0c5e854,657bb317c8798c6608bceb3f,657bb46df98be90186afd73b,0.073,0.073,0,29,29,92,1,sevenfive,,,,,,,,,,,,,,,,,,,,,,,,,,,,,,,,,,,,,,,,,,,,,,,,,,,,,,,,,,,,,,,,,,,,,,,,,,,,,,,,,,,,,,,,,,,,,,,,,,,,,,,,,,,,,,,,,,,,,,,,,,,,,,,,,,,,,,,
,,6563617d6c7549dfa0c5e854,2023-12-14_20h05.52.401,kallum_motion_pilot,2023.2.3,Win32,45.45454545,6563617d6c7549dfa0c5e854,657bb317c8798c6608bceb3f,657bb46df98be90186afd73b,0.074,0.074,0,30,30,24,1,onetwo,,,,,,,,,,,,,,,,,,,,,,,,,,,,,,,,,,,,,,,,,,,,,,,,,,,,,,,,,,,,,,,,,,,,,,,,,,,,,,,,,,,,,,,,,,,,,,,,,,,,,,,,,,,,,,,,,,,,,,,,,,,,,,,,,,,,,,,
,,6563617d6c7549dfa0c5e854,2023-12-14_20h05.52.401,kallum_motion_pilot,2023.2.3,Win32,45.45454545,6563617d6c7549dfa0c5e854,657bb317c8798c6608bceb3f,657bb46df98be90186afd73b,0.074,0.074,0,31,31,86,1,eightsix,,,,,,,,,,,,,,,,,,,,,,,,,,,,,,,,,,,,,,,,,,,,,,,,,,,,,,,,,,,,,,,,,,,,,,,,,,,,,,,,,,,,,,,,,,,,,,,,,,,,,,,,,,,,,,,,,,,,,,,,,,,,,,,,,,,,,,,
,,6563617d6c7549dfa0c5e854,2023-12-14_20h05.52.401,kallum_motion_pilot,2023.2.3,Win32,45.45454545,6563617d6c7549dfa0c5e854,657bb317c8798c6608bceb3f,657bb46df98be90186afd73b,0.074,0.075,0,32,32,105,1,fiveseven,,,,,,,,,,,,,,,,,,,,,,,,,,,,,,,,,,,,,,,,,,,,,,,,,,,,,,,,,,,,,,,,,,,,,,,,,,,,,,,,,,,,,,,,,,,,,,,,,,,,,,,,,,,,,,,,,,,,,,,,,,,,,,,,,,,,,,,
,,6563617d6c7549dfa0c5e854,2023-12-14_20h05.52.401,kallum_motion_pilot,2023.2.3,Win32,45.45454545,6563617d6c7549dfa0c5e854,657bb317c8798c6608bceb3f,657bb46df98be90186afd73b,0.075,0.075,0,33,33,159,1,eightseven,,,,,,,,,,,,,,,,,,,,,,,,,,,,,,,,,,,,,,,,,,,,,,,,,,,,,,,,,,,,,,,,,,,,,,,,,,,,,,,,,,,,,,,,,,,,,,,,,,,,,,,,,,,,,,,,,,,,,,,,,,,,,,,,,,,,,,,
,,6563617d6c7549dfa0c5e854,2023-12-14_20h05.52.401,kallum_motion_pilot,2023.2.3,Win32,45.45454545,6563617d6c7549dfa0c5e854,657bb317c8798c6608bceb3f,657bb46df98be90186afd73b,0.075,0.075,0,34,34,121,1,fiveseven,,,,,,,,,,,,,,,,,,,,,,,,,,,,,,,,,,,,,,,,,,,,,,,,,,,,,,,,,,,,,,,,,,,,,,,,,,,,,,,,,,,,,,,,,,,,,,,,,,,,,,,,,,,,,,,,,,,,,,,,,,,,,,,,,,,,,,,
,,6563617d6c7549dfa0c5e854,2023-12-14_20h05.52.401,kallum_motion_pilot,2023.2.3,Win32,45.45454545,6563617d6c7549dfa0c5e854,657bb317c8798c6608bceb3f,657bb46df98be90186afd73b,0.076,0.076,0,35,35,72,1,onetwo,,,,,,,,,,,,,,,,,,,,,,,,,,,,,,,,,,,,,,,,,,,,,,,,,,,,,,,,,,,,,,,,,,,,,,,,,,,,,,,,,,,,,,,,,,,,,,,,,,,,,,,,,,,,,,,,,,,,,,,,,,,,,,,,,,,,,,,
,,6563617d6c7549dfa0c5e854,2023-12-14_20h05.52.401,kallum_motion_pilot,2023.2.3,Win32,45.45454545,6563617d6c7549dfa0c5e854,657bb317c8798c6608bceb3f,657bb46df98be90186afd73b,0.076,0.076,0,36,36,145,1,fiveseven,,,,,,,,,,,,,,,,,,,,,,,,,,,,,,,,,,,,,,,,,,,,,,,,,,,,,,,,,,,,,,,,,,,,,,,,,,,,,,,,,,,,,,,,,,,,,,,,,,,,,,,,,,,,,,,,,,,,,,,,,,,,,,,,,,,,,,,
,,6563617d6c7549dfa0c5e854,2023-12-14_20h05.52.401,kallum_motion_pilot,2023.2.3,Win32,45.45454545,6563617d6c7549dfa0c5e854,657bb317c8798c6608bceb3f,657bb46df98be90186afd73b,0.076,0.077,0,37,37,41,1,onethree,,,,,,,,,,,,,,,,,,,,,,,,,,,,,,,,,,,,,,,,,,,,,,,,,,,,,,,,,,,,,,,,,,,,,,,,,,,,,,,,,,,,,,,,,,,,,,,,,,,,,,,,,,,,,,,,,,,,,,,,,,,,,,,,,,,,,,,
,,6563617d6c7549dfa0c5e854,2023-12-14_20h05.52.401,kallum_motion_pilot,2023.2.3,Win32,45.45454545,6563617d6c7549dfa0c5e854,657bb317c8798c6608bceb3f,657bb46df98be90186afd73b,0.077,0.078,0,38,38,7,1,fourthree,,,,,,,,,,,,,,,,,,,,,,,,,,,,,,,,,,,,,,,,,,,,,,,,,,,,,,,,,,,,,,,,,,,,,,,,,,,,,,,,,,,,,,,,,,,,,,,,,,,,,,,,,,,,,,,,,,,,,,,,,,,,,,,,,,,,,,,
,,6563617d6c7549dfa0c5e854,2023-12-14_20h05.52.401,kallum_motion_pilot,2023.2.3,Win32,45.45454545,6563617d6c7549dfa0c5e854,657bb317c8798c6608bceb3f,657bb46df98be90186afd73b,0.078,0.079,0,39,39,22,1,fourtwo,,,,,,,,,,,,,,,,,,,,,,,,,,,,,,,,,,,,,,,,,,,,,,,,,,,,,,,,,,,,,,,,,,,,,,,,,,,,,,,,,,,,,,,,,,,,,,,,,,,,,,,,,,,,,,,,,,,,,,,,,,,,,,,,,,,,,,,
,,6563617d6c7549dfa0c5e854,2023-12-14_20h05.52.401,kallum_motion_pilot,2023.2.3,Win32,45.45454545,6563617d6c7549dfa0c5e854,657bb317c8798c6608bceb3f,657bb46df98be90186afd73b,0.079,0.079,0,40,40,106,1,sixfive,,,,,,,,,,,,,,,,,,,,,,,,,,,,,,,,,,,,,,,,,,,,,,,,,,,,,,,,,,,,,,,,,,,,,,,,,,,,,,,,,,,,,,,,,,,,,,,,,,,,,,,,,,,,,,,,,,,,,,,,,,,,,,,,,,,,,,,
,,6563617d6c7549dfa0c5e854,2023-12-14_20h05.52.401,kallum_motion_pilot,2023.2.3,Win32,45.45454545,6563617d6c7549dfa0c5e854,657bb317c8798c6608bceb3f,657bb46df98be90186afd73b,0.079,0.079,0,41,41,147,1,sixeight,,,,,,,,,,,,,,,,,,,,,,,,,,,,,,,,,,,,,,,,,,,,,,,,,,,,,,,,,,,,,,,,,,,,,,,,,,,,,,,,,,,,,,,,,,,,,,,,,,,,,,,,,,,,,,,,,,,,,,,,,,,,,,,,,,,,,,,
,,6563617d6c7549dfa0c5e854,2023-12-14_20h05.52.401,kallum_motion_pilot,2023.2.3,Win32,45.45454545,6563617d6c7549dfa0c5e854,657bb317c8798c6608bceb3f,657bb46df98be90186afd73b,0.079,0.08,0,42,42,58,1,twoone,,,,,,,,,,,,,,,,,,,,,,,,,,,,,,,,,,,,,,,,,,,,,,,,,,,,,,,,,,,,,,,,,,,,,,,,,,,,,,,,,,,,,,,,,,,,,,,,,,,,,,,,,,,,,,,,,,,,,,,,,,,,,,,,,,,,,,,
,,6563617d6c7549dfa0c5e854,2023-12-14_20h05.52.401,kallum_motion_pilot,2023.2.3,Win32,45.45454545,6563617d6c7549dfa0c5e854,657bb317c8798c6608bceb3f,657bb46df98be90186afd73b,0.08,0.08,0,43,43,97,1,fiveseven,,,,,,,,,,,,,,,,,,,,,,,,,,,,,,,,,,,,,,,,,,,,,,,,,,,,,,,,,,,,,,,,,,,,,,,,,,,,,,,,,,,,,,,,,,,,,,,,,,,,,,,,,,,,,,,,,,,,,,,,,,,,,,,,,,,,,,,
,,6563617d6c7549dfa0c5e854,2023-12-14_20h05.52.401,kallum_motion_pilot,2023.2.3,Win32,45.45454545,6563617d6c7549dfa0c5e854,657bb317c8798c6608bceb3f,657bb46df98be90186afd73b,0.08,0.08,0,44,44,98,1,sixfive,,,,,,,,,,,,,,,,,,,,,,,,,,,,,,,,,,,,,,,,,,,,,,,,,,,,,,,,,,,,,,,,,,,,,,,,,,,,,,,,,,,,,,,,,,,,,,,,,,,,,,,,,,,,,,,,,,,,,,,,,,,,,,,,,,,,,,,
,,6563617d6c7549dfa0c5e854,2023-12-14_20h05.52.401,kallum_motion_pilot,2023.2.3,Win32,45.45454545,6563617d6c7549dfa0c5e854,657bb317c8798c6608bceb3f,657bb46df98be90186afd73b,0.08,0.08,0,45,45,67,1,twofour,,,,,,,,,,,,,,,,,,,,,,,,,,,,,,,,,,,,,,,,,,,,,,,,,,,,,,,,,,,,,,,,,,,,,,,,,,,,,,,,,,,,,,,,,,,,,,,,,,,,,,,,,,,,,,,,,,,,,,,,,,,,,,,,,,,,,,,
,,6563617d6c7549dfa0c5e854,2023-12-14_20h05.52.401,kallum_motion_pilot,2023.2.3,Win32,45.45454545,6563617d6c7549dfa0c5e854,657bb317c8798c6608bceb3f,657bb46df98be90186afd73b,0.08,0.08,0,46,46,61,1,threefour,,,,,,,,,,,,,,,,,,,,,,,,,,,,,,,,,,,,,,,,,,,,,,,,,,,,,,,,,,,,,,,,,,,,,,,,,,,,,,,,,,,,,,,,,,,,,,,,,,,,,,,,,,,,,,,,,,,,,,,,,,,,,,,,,,,,,,,
,,6563617d6c7549dfa0c5e854,2023-12-14_20h05.52.401,kallum_motion_pilot,2023.2.3,Win32,45.45454545,6563617d6c7549dfa0c5e854,657bb317c8798c6608bceb3f,657bb46df98be90186afd73b,0.081,0.081,0,47,47,34,1,twoone,,,,,,,,,,,,,,,,,,,,,,,,,,,,,,,,,,,,,,,,,,,,,,,,,,,,,,,,,,,,,,,,,,,,,,,,,,,,,,,,,,,,,,,,,,,,,,,,,,,,,,,,,,,,,,,,,,,,,,,,,,,,,,,,,,,,,,,
,,6563617d6c7549dfa0c5e854,2023-12-14_20h05.52.401,kallum_motion_pilot,2023.2.3,Win32,45.45454545,6563617d6c7549dfa0c5e854,657bb317c8798c6608bceb3f,657bb46df98be90186afd73b,0.081,0.082,0,48,48,88,1,fivesix,,,,,,,,,,,,,,,,,,,,,,,,,,,,,,,,,,,,,,,,,,,,,,,,,,,,,,,,,,,,,,,,,,,,,,,,,,,,,,,,,,,,,,,,,,,,,,,,,,,,,,,,,,,,,,,,,,,,,,,,,,,,,,,,,,,,,,,
,,6563617d6c7549dfa0c5e854,2023-12-14_20h05.52.401,kallum_motion_pilot,2023.2.3,Win32,45.45454545,6563617d6c7549dfa0c5e854,657bb317c8798c6608bceb3f,657bb46df98be90186afd73b,0.082,0.082,0,49,49,104,1,fivesix,,,,,,,,,,,,,,,,,,,,,,,,,,,,,,,,,,,,,,,,,,,,,,,,,,,,,,,,,,,,,,,,,,,,,,,,,,,,,,,,,,,,,,,,,,,,,,,,,,,,,,,,,,,,,,,,,,,,,,,,,,,,,,,,,,,,,,,
,,6563617d6c7549dfa0c5e854,2023-12-14_20h05.52.401,kallum_motion_pilot,2023.2.3,Win32,45.45454545,6563617d6c7549dfa0c5e854,657bb317c8798c6608bceb3f,657bb46df98be90186afd73b,0.082,0.082,0,50,50,3,1,twofour,,,,,,,,,,,,,,,,,,,,,,,,,,,,,,,,,,,,,,,,,,,,,,,,,,,,,,,,,,,,,,,,,,,,,,,,,,,,,,,,,,,,,,,,,,,,,,,,,,,,,,,,,,,,,,,,,,,,,,,,,,,,,,,,,,,,,,,
,,6563617d6c7549dfa0c5e854,2023-12-14_20h05.52.401,kallum_motion_pilot,2023.2.3,Win32,45.45454545,6563617d6c7549dfa0c5e854,657bb317c8798c6608bceb3f,657bb46df98be90186afd73b,0.083,0.083,0,51,51,49,1,onethree,,,,,,,,,,,,,,,,,,,,,,,,,,,,,,,,,,,,,,,,,,,,,,,,,,,,,,,,,,,,,,,,,,,,,,,,,,,,,,,,,,,,,,,,,,,,,,,,,,,,,,,,,,,,,,,,,,,,,,,,,,,,,,,,,,,,,,,
,,6563617d6c7549dfa0c5e854,2023-12-14_20h05.52.401,kallum_motion_pilot,2023.2.3,Win32,45.45454545,6563617d6c7549dfa0c5e854,657bb317c8798c6608bceb3f,657bb46df98be90186afd73b,0.083,0.084,0,52,52,109,1,seveneight,,,,,,,,,,,,,,,,,,,,,,,,,,,,,,,,,,,,,,,,,,,,,,,,,,,,,,,,,,,,,,,,,,,,,,,,,,,,,,,,,,,,,,,,,,,,,,,,,,,,,,,,,,,,,,,,,,,,,,,,,,,,,,,,,,,,,,,
,,6563617d6c7549dfa0c5e854,2023-12-14_20h05.52.401,kallum_motion_pilot,2023.2.3,Win32,45.45454545,6563617d6c7549dfa0c5e854,657bb317c8798c6608bceb3f,657bb46df98be90186afd73b,0.084,0.084,0,53,53,150,1,eightsix,,,,,,,,,,,,,,,,,,,,,,,,,,,,,,,,,,,,,,,,,,,,,,,,,,,,,,,,,,,,,,,,,,,,,,,,,,,,,,,,,,,,,,,,,,,,,,,,,,,,,,,,,,,,,,,,,,,,,,,,,,,,,,,,,,,,,,,
,,6563617d6c7549dfa0c5e854,2023-12-14_20h05.52.401,kallum_motion_pilot,2023.2.3,Win32,45.45454545,6563617d6c7549dfa0c5e854,657bb317c8798c6608bceb3f,657bb46df98be90186afd73b,0.084,0.084,0,54,54,11,1,twofour,,,,,,,,,,,,,,,,,,,,,,,,,,,,,,,,,,,,,,,,,,,,,,,,,,,,,,,,,,,,,,,,,,,,,,,,,,,,,,,,,,,,,,,,,,,,,,,,,,,,,,,,,,,,,,,,,,,,,,,,,,,,,,,,,,,,,,,
,,6563617d6c7549dfa0c5e854,2023-12-14_20h05.52.401,kallum_motion_pilot,2023.2.3,Win32,45.45454545,6563617d6c7549dfa0c5e854,657bb317c8798c6608bceb3f,657bb46df98be90186afd73b,0.084,0.085,0,55,55,52,1,threeone,,,,,,,,,,,,,,,,,,,,,,,,,,,,,,,,,,,,,,,,,,,,,,,,,,,,,,,,,,,,,,,,,,,,,,,,,,,,,,,,,,,,,,,,,,,,,,,,,,,,,,,,,,,,,,,,,,,,,,,,,,,,,,,,,,,,,,,
,,6563617d6c7549dfa0c5e854,2023-12-14_20h05.52.401,kallum_motion_pilot,2023.2.3,Win32,45.45454545,6563617d6c7549dfa0c5e854,657bb317c8798c6608bceb3f,657bb46df98be90186afd73b,0.085,0.085,0,56,56,129,1,fiveseven,,,,,,,,,,,,,,,,,,,,,,,,,,,,,,,,,,,,,,,,,,,,,,,,,,,,,,,,,,,,,,,,,,,,,,,,,,,,,,,,,,,,,,,,,,,,,,,,,,,,,,,,,,,,,,,,,,,,,,,,,,,,,,,,,,,,,,,
,,6563617d6c7549dfa0c5e854,2023-12-14_20h05.52.401,kallum_motion_pilot,2023.2.3,Win32,45.45454545,6563617d6c7549dfa0c5e854,657bb317c8798c6608bceb3f,657bb46df98be90186afd73b,0.086,0.086,0,57,57,140,1,sevenfive,,,,,,,,,,,,,,,,,,,,,,,,,,,,,,,,,,,,,,,,,,,,,,,,,,,,,,,,,,,,,,,,,,,,,,,,,,,,,,,,,,,,,,,,,,,,,,,,,,,,,,,,,,,,,,,,,,,,,,,,,,,,,,,,,,,,,,,
,,6563617d6c7549dfa0c5e854,2023-12-14_20h05.52.401,kallum_motion_pilot,2023.2.3,Win32,45.45454545,6563617d6c7549dfa0c5e854,657bb317c8798c6608bceb3f,657bb46df98be90186afd73b,0.086,0.086,0,58,58,157,1,seveneight,,,,,,,,,,,,,,,,,,,,,,,,,,,,,,,,,,,,,,,,,,,,,,,,,,,,,,,,,,,,,,,,,,,,,,,,,,,,,,,,,,,,,,,,,,,,,,,,,,,,,,,,,,,,,,,,,,,,,,,,,,,,,,,,,,,,,,,
,,6563617d6c7549dfa0c5e854,2023-12-14_20h05.52.401,kallum_motion_pilot,2023.2.3,Win32,45.45454545,6563617d6c7549dfa0c5e854,657bb317c8798c6608bceb3f,657bb46df98be90186afd73b,0.087,0.087,0,59,59,51,1,twofour,,,,,,,,,,,,,,,,,,,,,,,,,,,,,,,,,,,,,,,,,,,,,,,,,,,,,,,,,,,,,,,,,,,,,,,,,,,,,,,,,,,,,,,,,,,,,,,,,,,,,,,,,,,,,,,,,,,,,,,,,,,,,,,,,,,,,,,
,,6563617d6c7549dfa0c5e854,2023-12-14_20h05.52.401,kallum_motion_pilot,2023.2.3,Win32,45.45454545,6563617d6c7549dfa0c5e854,657bb317c8798c6608bceb3f,657bb46df98be90186afd73b,0.087,0.087,0,60,60,139,1,sixeight,,,,,,,,,,,,,,,,,,,,,,,,,,,,,,,,,,,,,,,,,,,,,,,,,,,,,,,,,,,,,,,,,,,,,,,,,,,,,,,,,,,,,,,,,,,,,,,,,,,,,,,,,,,,,,,,,,,,,,,,,,,,,,,,,,,,,,,
,,6563617d6c7549dfa0c5e854,2023-12-14_20h05.52.401,kallum_motion_pilot,2023.2.3,Win32,45.45454545,6563617d6c7549dfa0c5e854,657bb317c8798c6608bceb3f,657bb46df98be90186afd73b,0.087,0.088,0,61,61,94,1,eightsix,,,,,,,,,,,,,,,,,,,,,,,,,,,,,,,,,,,,,,,,,,,,,,,,,,,,,,,,,,,,,,,,,,,,,,,,,,,,,,,,,,,,,,,,,,,,,,,,,,,,,,,,,,,,,,,,,,,,,,,,,,,,,,,,,,,,,,,
,,6563617d6c7549dfa0c5e854,2023-12-14_20h05.52.401,kallum_motion_pilot,2023.2.3,Win32,45.45454545,6563617d6c7549dfa0c5e854,657bb317c8798c6608bceb3f,657bb46df98be90186afd73b,0.089,0.089,0,62,62,128,1,fivesix,,,,,,,,,,,,,,,,,,,,,,,,,,,,,,,,,,,,,,,,,,,,,,,,,,,,,,,,,,,,,,,,,,,,,,,,,,,,,,,,,,,,,,,,,,,,,,,,,,,,,,,,,,,,,,,,,,,,,,,,,,,,,,,,,,,,,,,
,,6563617d6c7549dfa0c5e854,2023-12-14_20h05.52.401,kallum_motion_pilot,2023.2.3,Win32,45.45454545,6563617d6c7549dfa0c5e854,657bb317c8798c6608bceb3f,657bb46df98be90186afd73b,0.089,0.089,0,63,63,70,1,fourtwo,,,,,,,,,,,,,,,,,,,,,,,,,,,,,,,,,,,,,,,,,,,,,,,,,,,,,,,,,,,,,,,,,,,,,,,,,,,,,,,,,,,,,,,,,,,,,,,,,,,,,,,,,,,,,,,,,,,,,,,,,,,,,,,,,,,,,,,
,,6563617d6c7549dfa0c5e854,2023-12-14_20h05.52.401,kallum_motion_pilot,2023.2.3,Win32,45.45454545,6563617d6c7549dfa0c5e854,657bb317c8798c6608bceb3f,657bb46df98be90186afd73b,0.089,0.089,0,64,64,156,1,sevenfive,,,,,,,,,,,,,,,,,,,,,,,,,,,,,,,,,,,,,,,,,,,,,,,,,,,,,,,,,,,,,,,,,,,,,,,,,,,,,,,,,,,,,,,,,,,,,,,,,,,,,,,,,,,,,,,,,,,,,,,,,,,,,,,,,,,,,,,
,,6563617d6c7549dfa0c5e854,2023-12-14_20h05.52.401,kallum_motion_pilot,2023.2.3,Win32,45.45454545,6563617d6c7549dfa0c5e854,657bb317c8798c6608bceb3f,657bb46df98be90186afd73b,0.089,0.09,0,65,65,69,1,threefour,,,,,,,,,,,,,,,,,,,,,,,,,,,,,,,,,,,,,,,,,,,,,,,,,,,,,,,,,,,,,,,,,,,,,,,,,,,,,,,,,,,,,,,,,,,,,,,,,,,,,,,,,,,,,,,,,,,,,,,,,,,,,,,,,,,,,,,
,,6563617d6c7549dfa0c5e854,2023-12-14_20h05.52.401,kallum_motion_pilot,2023.2.3,Win32,45.45454545,6563617d6c7549dfa0c5e854,657bb317c8798c6608bceb3f,657bb46df98be90186afd73b,0.091,0.091,0,66,66,68,1,threeone,,,,,,,,,,,,,,,,,,,,,,,,,,,,,,,,,,,,,,,,,,,,,,,,,,,,,,,,,,,,,,,,,,,,,,,,,,,,,,,,,,,,,,,,,,,,,,,,,,,,,,,,,,,,,,,,,,,,,,,,,,,,,,,,,,,,,,,
,,6563617d6c7549dfa0c5e854,2023-12-14_20h05.52.401,kallum_motion_pilot,2023.2.3,Win32,45.45454545,6563617d6c7549dfa0c5e854,657bb317c8798c6608bceb3f,657bb46df98be90186afd73b,0.091,0.091,0,67,67,91,1,sixeight,,,,,,,,,,,,,,,,,,,,,,,,,,,,,,,,,,,,,,,,,,,,,,,,,,,,,,,,,,,,,,,,,,,,,,,,,,,,,,,,,,,,,,,,,,,,,,,,,,,,,,,,,,,,,,,,,,,,,,,,,,,,,,,,,,,,,,,
,,6563617d6c7549dfa0c5e854,2023-12-14_20h05.52.401,kallum_motion_pilot,2023.2.3,Win32,45.45454545,6563617d6c7549dfa0c5e854,657bb317c8798c6608bceb3f,657bb46df98be90186afd73b,0.091,0.091,0,68,68,107,1,sixeight,,,,,,,,,,,,,,,,,,,,,,,,,,,,,,,,,,,,,,,,,,,,,,,,,,,,,,,,,,,,,,,,,,,,,,,,,,,,,,,,,,,,,,,,,,,,,,,,,,,,,,,,,,,,,,,,,,,,,,,,,,,,,,,,,,,,,,,
,,6563617d6c7549dfa0c5e854,2023-12-14_20h05.52.401,kallum_motion_pilot,2023.2.3,Win32,45.45454545,6563617d6c7549dfa0c5e854,657bb317c8798c6608bceb3f,657bb46df98be90186afd73b,0.091,0.092,0,69,69,119,1,eightseven,,,,,,,,,,,,,,,,,,,,,,,,,,,,,,,,,,,,,,,,,,,,,,,,,,,,,,,,,,,,,,,,,,,,,,,,,,,,,,,,,,,,,,,,,,,,,,,,,,,,,,,,,,,,,,,,,,,,,,,,,,,,,,,,,,,,,,,
,,6563617d6c7549dfa0c5e854,2023-12-14_20h05.52.401,kallum_motion_pilot,2023.2.3,Win32,45.45454545,6563617d6c7549dfa0c5e854,657bb317c8798c6608bceb3f,657bb46df98be90186afd73b,0.092,0.092,0,70,70,8,1,onetwo,,,,,,,,,,,,,,,,,,,,,,,,,,,,,,,,,,,,,,,,,,,,,,,,,,,,,,,,,,,,,,,,,,,,,,,,,,,,,,,,,,,,,,,,,,,,,,,,,,,,,,,,,,,,,,,,,,,,,,,,,,,,,,,,,,,,,,,
,,6563617d6c7549dfa0c5e854,2023-12-14_20h05.52.401,kallum_motion_pilot,2023.2.3,Win32,45.45454545,6563617d6c7549dfa0c5e854,657bb317c8798c6608bceb3f,657bb46df98be90186afd73b,0.093,0.093,0,71,71,56,1,onetwo,,,,,,,,,,,,,,,,,,,,,,,,,,,,,,,,,,,,,,,,,,,,,,,,,,,,,,,,,,,,,,,,,,,,,,,,,,,,,,,,,,,,,,,,,,,,,,,,,,,,,,,,,,,,,,,,,,,,,,,,,,,,,,,,,,,,,,,
,,6563617d6c7549dfa0c5e854,2023-12-14_20h05.52.401,kallum_motion_pilot,2023.2.3,Win32,45.45454545,6563617d6c7549dfa0c5e854,657bb317c8798c6608bceb3f,657bb46df98be90186afd73b,0.093,0.093,0,72,72,42,1,twoone,,,,,,,,,,,,,,,,,,,,,,,,,,,,,,,,,,,,,,,,,,,,,,,,,,,,,,,,,,,,,,,,,,,,,,,,,,,,,,,,,,,,,,,,,,,,,,,,,,,,,,,,,,,,,,,,,,,,,,,,,,,,,,,,,,,,,,,
,,6563617d6c7549dfa0c5e854,2023-12-14_20h05.52.401,kallum_motion_pilot,2023.2.3,Win32,45.45454545,6563617d6c7549dfa0c5e854,657bb317c8798c6608bceb3f,657bb46df98be90186afd73b,0.093,0.093,0,73,73,53,1,threefour,,,,,,,,,,,,,,,,,,,,,,,,,,,,,,,,,,,,,,,,,,,,,,,,,,,,,,,,,,,,,,,,,,,,,,,,,,,,,,,,,,,,,,,,,,,,,,,,,,,,,,,,,,,,,,,,,,,,,,,,,,,,,,,,,,,,,,,
,,6563617d6c7549dfa0c5e854,2023-12-14_20h05.52.401,kallum_motion_pilot,2023.2.3,Win32,45.45454545,6563617d6c7549dfa0c5e854,657bb317c8798c6608bceb3f,657bb46df98be90186afd73b,0.094,0.094,0,74,74,18,1,twoone,,,,,,,,,,,,,,,,,,,,,,,,,,,,,,,,,,,,,,,,,,,,,,,,,,,,,,,,,,,,,,,,,,,,,,,,,,,,,,,,,,,,,,,,,,,,,,,,,,,,,,,,,,,,,,,,,,,,,,,,,,,,,,,,,,,,,,,
,,6563617d6c7549dfa0c5e854,2023-12-14_20h05.52.401,kallum_motion_pilot,2023.2.3,Win32,45.45454545,6563617d6c7549dfa0c5e854,657bb317c8798c6608bceb3f,657bb46df98be90186afd73b,0.094,0.094,0,75,75,110,1,eightsix,,,,,,,,,,,,,,,,,,,,,,,,,,,,,,,,,,,,,,,,,,,,,,,,,,,,,,,,,,,,,,,,,,,,,,,,,,,,,,,,,,,,,,,,,,,,,,,,,,,,,,,,,,,,,,,,,,,,,,,,,,,,,,,,,,,,,,,
,,6563617d6c7549dfa0c5e854,2023-12-14_20h05.52.401,kallum_motion_pilot,2023.2.3,Win32,45.45454545,6563617d6c7549dfa0c5e854,657bb317c8798c6608bceb3f,657bb46df98be90186afd73b,0.094,0.094,0,76,76,60,1,threeone,,,,,,,,,,,,,,,,,,,,,,,,,,,,,,,,,,,,,,,,,,,,,,,,,,,,,,,,,,,,,,,,,,,,,,,,,,,,,,,,,,,,,,,,,,,,,,,,,,,,,,,,,,,,,,,,,,,,,,,,,,,,,,,,,,,,,,,
,,6563617d6c7549dfa0c5e854,2023-12-14_20h05.52.401,kallum_motion_pilot,2023.2.3,Win32,45.45454545,6563617d6c7549dfa0c5e854,657bb317c8798c6608bceb3f,657bb46df98be90186afd73b,0.095,0.095,0,77,77,4,1,threeone,,,,,,,,,,,,,,,,,,,,,,,,,,,,,,,,,,,,,,,,,,,,,,,,,,,,,,,,,,,,,,,,,,,,,,,,,,,,,,,,,,,,,,,,,,,,,,,,,,,,,,,,,,,,,,,,,,,,,,,,,,,,,,,,,,,,,,,
,,6563617d6c7549dfa0c5e854,2023-12-14_20h05.52.401,kallum_motion_pilot,2023.2.3,Win32,45.45454545,6563617d6c7549dfa0c5e854,657bb317c8798c6608bceb3f,657bb46df98be90186afd73b,0.095,0.095,0,78,78,36,1,threeone,,,,,,,,,,,,,,,,,,,,,,,,,,,,,,,,,,,,,,,,,,,,,,,,,,,,,,,,,,,,,,,,,,,,,,,,,,,,,,,,,,,,,,,,,,,,,,,,,,,,,,,,,,,,,,,,,,,,,,,,,,,,,,,,,,,,,,,
,,6563617d6c7549dfa0c5e854,2023-12-14_20h05.52.401,kallum_motion_pilot,2023.2.3,Win32,45.45454545,6563617d6c7549dfa0c5e854,657bb317c8798c6608bceb3f,657bb46df98be90186afd73b,0.095,0.096,0,79,79,64,1,onetwo,,,,,,,,,,,,,,,,,,,,,,,,,,,,,,,,,,,,,,,,,,,,,,,,,,,,,,,,,,,,,,,,,,,,,,,,,,,,,,,,,,,,,,,,,,,,,,,,,,,,,,,,,,,,,,,,,,,,,,,,,,,,,,,,,,,,,,,
,,6563617d6c7549dfa0c5e854,2023-12-14_20h05.52.401,kallum_motion_pilot,2023.2.3,Win32,45.45454545,6563617d6c7549dfa0c5e854,657bb317c8798c6608bceb3f,657bb46df98be90186afd73b,0.096,0.096,0,80,80,95,1,eightseven,,,,,,,,,,,,,,,,,,,,,,,,,,,,,,,,,,,,,,,,,,,,,,,,,,,,,,,,,,,,,,,,,,,,,,,,,,,,,,,,,,,,,,,,,,,,,,,,,,,,,,,,,,,,,,,,,,,,,,,,,,,,,,,,,,,,,,,
,,6563617d6c7549dfa0c5e854,2023-12-14_20h05.52.401,kallum_motion_pilot,2023.2.3,Win32,45.45454545,6563617d6c7549dfa0c5e854,657bb317c8798c6608bceb3f,657bb46df98be90186afd73b,0.097,0.097,0,81,81,47,1,fourthree,,,,,,,,,,,,,,,,,,,,,,,,,,,,,,,,,,,,,,,,,,,,,,,,,,,,,,,,,,,,,,,,,,,,,,,,,,,,,,,,,,,,,,,,,,,,,,,,,,,,,,,,,,,,,,,,,,,,,,,,,,,,,,,,,,,,,,,
,,6563617d6c7549dfa0c5e854,2023-12-14_20h05.52.401,kallum_motion_pilot,2023.2.3,Win32,45.45454545,6563617d6c7549dfa0c5e854,657bb317c8798c6608bceb3f,657bb46df98be90186afd73b,0.099,0.1,0,82,82,118,1,eightsix,,,,,,,,,,,,,,,,,,,,,,,,,,,,,,,,,,,,,,,,,,,,,,,,,,,,,,,,,,,,,,,,,,,,,,,,,,,,,,,,,,,,,,,,,,,,,,,,,,,,,,,,,,,,,,,,,,,,,,,,,,,,,,,,,,,,,,,
,,6563617d6c7549dfa0c5e854,2023-12-14_20h05.52.401,kallum_motion_pilot,2023.2.3,Win32,45.45454545,6563617d6c7549dfa0c5e854,657bb317c8798c6608bceb3f,657bb46df98be90186afd73b,0.1,0.1,0,83,83,84,1,sevenfive,,,,,,,,,,,,,,,,,,,,,,,,,,,,,,,,,,,,,,,,,,,,,,,,,,,,,,,,,,,,,,,,,,,,,,,,,,,,,,,,,,,,,,,,,,,,,,,,,,,,,,,,,,,,,,,,,,,,,,,,,,,,,,,,,,,,,,,
,,6563617d6c7549dfa0c5e854,2023-12-14_20h05.52.401,kallum_motion_pilot,2023.2.3,Win32,45.45454545,6563617d6c7549dfa0c5e854,657bb317c8798c6608bceb3f,657bb46df98be90186afd73b,0.1,0.101,0,84,84,132,1,sevenfive,,,,,,,,,,,,,,,,,,,,,,,,,,,,,,,,,,,,,,,,,,,,,,,,,,,,,,,,,,,,,,,,,,,,,,,,,,,,,,,,,,,,,,,,,,,,,,,,,,,,,,,,,,,,,,,,,,,,,,,,,,,,,,,,,,,,,,,
,,6563617d6c7549dfa0c5e854,2023-12-14_20h05.52.401,kallum_motion_pilot,2023.2.3,Win32,45.45454545,6563617d6c7549dfa0c5e854,657bb317c8798c6608bceb3f,657bb46df98be90186afd73b,0.102,0.102,0,85,85,93,1,seveneight,,,,,,,,,,,,,,,,,,,,,,,,,,,,,,,,,,,,,,,,,,,,,,,,,,,,,,,,,,,,,,,,,,,,,,,,,,,,,,,,,,,,,,,,,,,,,,,,,,,,,,,,,,,,,,,,,,,,,,,,,,,,,,,,,,,,,,,
,,6563617d6c7549dfa0c5e854,2023-12-14_20h05.52.401,kallum_motion_pilot,2023.2.3,Win32,45.45454545,6563617d6c7549dfa0c5e854,657bb317c8798c6608bceb3f,657bb46df98be90186afd73b,0.102,0.102,0,86,86,152,1,fivesix,,,,,,,,,,,,,,,,,,,,,,,,,,,,,,,,,,,,,,,,,,,,,,,,,,,,,,,,,,,,,,,,,,,,,,,,,,,,,,,,,,,,,,,,,,,,,,,,,,,,,,,,,,,,,,,,,,,,,,,,,,,,,,,,,,,,,,,
,,6563617d6c7549dfa0c5e854,2023-12-14_20h05.52.401,kallum_motion_pilot,2023.2.3,Win32,45.45454545,6563617d6c7549dfa0c5e854,657bb317c8798c6608bceb3f,657bb46df98be90186afd73b,0.103,0.103,0,87,87,6,1,fourtwo,,,,,,,,,,,,,,,,,,,,,,,,,,,,,,,,,,,,,,,,,,,,,,,,,,,,,,,,,,,,,,,,,,,,,,,,,,,,,,,,,,,,,,,,,,,,,,,,,,,,,,,,,,,,,,,,,,,,,,,,,,,,,,,,,,,,,,,
,,6563617d6c7549dfa0c5e854,2023-12-14_20h05.52.401,kallum_motion_pilot,2023.2.3,Win32,45.45454545,6563617d6c7549dfa0c5e854,657bb317c8798c6608bceb3f,657bb46df98be90186afd73b,0.103,0.103,0,88,88,43,1,twofour,,,,,,,,,,,,,,,,,,,,,,,,,,,,,,,,,,,,,,,,,,,,,,,,,,,,,,,,,,,,,,,,,,,,,,,,,,,,,,,,,,,,,,,,,,,,,,,,,,,,,,,,,,,,,,,,,,,,,,,,,,,,,,,,,,,,,,,
,,6563617d6c7549dfa0c5e854,2023-12-14_20h05.52.401,kallum_motion_pilot,2023.2.3,Win32,45.45454545,6563617d6c7549dfa0c5e854,657bb317c8798c6608bceb3f,657bb46df98be90186afd73b,0.104,0.105,0,89,89,126,1,eightsix,,,,,,,,,,,,,,,,,,,,,,,,,,,,,,,,,,,,,,,,,,,,,,,,,,,,,,,,,,,,,,,,,,,,,,,,,,,,,,,,,,,,,,,,,,,,,,,,,,,,,,,,,,,,,,,,,,,,,,,,,,,,,,,,,,,,,,,
,,6563617d6c7549dfa0c5e854,2023-12-14_20h05.52.401,kallum_motion_pilot,2023.2.3,Win32,45.45454545,6563617d6c7549dfa0c5e854,657bb317c8798c6608bceb3f,657bb46df98be90186afd73b,0.105,0.105,0,90,90,2,1,twoone,,,,,,,,,,,,,,,,,,,,,,,,,,,,,,,,,,,,,,,,,,,,,,,,,,,,,,,,,,,,,,,,,,,,,,,,,,,,,,,,,,,,,,,,,,,,,,,,,,,,,,,,,,,,,,,,,,,,,,,,,,,,,,,,,,,,,,,
,,6563617d6c7549dfa0c5e854,2023-12-14_20h05.52.401,kallum_motion_pilot,2023.2.3,Win32,45.45454545,6563617d6c7549dfa0c5e854,657bb317c8798c6608bceb3f,657bb46df98be90186afd73b,0.105,0.105,0,91,91,40,1,onetwo,,,,,,,,,,,,,,,,,,,,,,,,,,,,,,,,,,,,,,,,,,,,,,,,,,,,,,,,,,,,,,,,,,,,,,,,,,,,,,,,,,,,,,,,,,,,,,,,,,,,,,,,,,,,,,,,,,,,,,,,,,,,,,,,,,,,,,,
,,6563617d6c7549dfa0c5e854,2023-12-14_20h05.52.401,kallum_motion_pilot,2023.2.3,Win32,45.45454545,6563617d6c7549dfa0c5e854,657bb317c8798c6608bceb3f,657bb46df98be90186afd73b,0.105,0.105,0,92,92,46,1,fourtwo,,,,,,,,,,,,,,,,,,,,,,,,,,,,,,,,,,,,,,,,,,,,,,,,,,,,,,,,,,,,,,,,,,,,,,,,,,,,,,,,,,,,,,,,,,,,,,,,,,,,,,,,,,,,,,,,,,,,,,,,,,,,,,,,,,,,,,,
,,6563617d6c7549dfa0c5e854,2023-12-14_20h05.52.401,kallum_motion_pilot,2023.2.3,Win32,45.45454545,6563617d6c7549dfa0c5e854,657bb317c8798c6608bceb3f,657bb46df98be90186afd73b,0.105,0.106,0,93,93,142,1,eightsix,,,,,,,,,,,,,,,,,,,,,,,,,,,,,,,,,,,,,,,,,,,,,,,,,,,,,,,,,,,,,,,,,,,,,,,,,,,,,,,,,,,,,,,,,,,,,,,,,,,,,,,,,,,,,,,,,,,,,,,,,,,,,,,,,,,,,,,
,,6563617d6c7549dfa0c5e854,2023-12-14_20h05.52.401,kallum_motion_pilot,2023.2.3,Win32,45.45454545,6563617d6c7549dfa0c5e854,657bb317c8798c6608bceb3f,657bb46df98be90186afd73b,0.106,0.107,0,94,94,103,1,eightseven,,,,,,,,,,,,,,,,,,,,,,,,,,,,,,,,,,,,,,,,,,,,,,,,,,,,,,,,,,,,,,,,,,,,,,,,,,,,,,,,,,,,,,,,,,,,,,,,,,,,,,,,,,,,,,,,,,,,,,,,,,,,,,,,,,,,,,,
,,6563617d6c7549dfa0c5e854,2023-12-14_20h05.52.401,kallum_motion_pilot,2023.2.3,Win32,45.45454545,6563617d6c7549dfa0c5e854,657bb317c8798c6608bceb3f,657bb46df98be90186afd73b,0.107,0.108,0,95,95,30,1,fourtwo,,,,,,,,,,,,,,,,,,,,,,,,,,,,,,,,,,,,,,,,,,,,,,,,,,,,,,,,,,,,,,,,,,,,,,,,,,,,,,,,,,,,,,,,,,,,,,,,,,,,,,,,,,,,,,,,,,,,,,,,,,,,,,,,,,,,,,,
,,6563617d6c7549dfa0c5e854,2023-12-14_20h05.52.401,kallum_motion_pilot,2023.2.3,Win32,45.45454545,6563617d6c7549dfa0c5e854,657bb317c8798c6608bceb3f,657bb46df98be90186afd73b,0.109,0.109,0,96,96,149,1,seveneight,,,,,,,,,,,,,,,,,,,,,,,,,,,,,,,,,,,,,,,,,,,,,,,,,,,,,,,,,,,,,,,,,,,,,,,,,,,,,,,,,,,,,,,,,,,,,,,,,,,,,,,,,,,,,,,,,,,,,,,,,,,,,,,,,,,,,,,
,,6563617d6c7549dfa0c5e854,2023-12-14_20h05.52.401,kallum_motion_pilot,2023.2.3,Win32,45.45454545,6563617d6c7549dfa0c5e854,657bb317c8798c6608bceb3f,657bb46df98be90186afd73b,0.109,0.109,0,97,97,81,1,fiveseven,,,,,,,,,,,,,,,,,,,,,,,,,,,,,,,,,,,,,,,,,,,,,,,,,,,,,,,,,,,,,,,,,,,,,,,,,,,,,,,,,,,,,,,,,,,,,,,,,,,,,,,,,,,,,,,,,,,,,,,,,,,,,,,,,,,,,,,
,,6563617d6c7549dfa0c5e854,2023-12-14_20h05.52.401,kallum_motion_pilot,2023.2.3,Win32,45.45454545,6563617d6c7549dfa0c5e854,657bb317c8798c6608bceb3f,657bb46df98be90186afd73b,0.109,0.109,0,98,98,124,1,sevenfive,,,,,,,,,,,,,,,,,,,,,,,,,,,,,,,,,,,,,,,,,,,,,,,,,,,,,,,,,,,,,,,,,,,,,,,,,,,,,,,,,,,,,,,,,,,,,,,,,,,,,,,,,,,,,,,,,,,,,,,,,,,,,,,,,,,,,,,
,,6563617d6c7549dfa0c5e854,2023-12-14_20h05.52.401,kallum_motion_pilot,2023.2.3,Win32,45.45454545,6563617d6c7549dfa0c5e854,657bb317c8798c6608bceb3f,657bb46df98be90186afd73b,0.109,0.11,0,99,99,13,1,threefour,,,,,,,,,,,,,,,,,,,,,,,,,,,,,,,,,,,,,,,,,,,,,,,,,,,,,,,,,,,,,,,,,,,,,,,,,,,,,,,,,,,,,,,,,,,,,,,,,,,,,,,,,,,,,,,,,,,,,,,,,,,,,,,,,,,,,,,
,,6563617d6c7549dfa0c5e854,2023-12-14_20h05.52.401,kallum_motion_pilot,2023.2.3,Win32,45.45454545,6563617d6c7549dfa0c5e854,657bb317c8798c6608bceb3f,657bb46df98be90186afd73b,0.11,0.11,0,100,100,78,1,fourtwo,,,,,,,,,,,,,,,,,,,,,,,,,,,,,,,,,,,,,,,,,,,,,,,,,,,,,,,,,,,,,,,,,,,,,,,,,,,,,,,,,,,,,,,,,,,,,,,,,,,,,,,,,,,,,,,,,,,,,,,,,,,,,,,,,,,,,,,
,,6563617d6c7549dfa0c5e854,2023-12-14_20h05.52.401,kallum_motion_pilot,2023.2.3,Win32,45.45454545,6563617d6c7549dfa0c5e854,657bb317c8798c6608bceb3f,657bb46df98be90186afd73b,0.11,0.11,0,101,101,9,1,onethree,,,,,,,,,,,,,,,,,,,,,,,,,,,,,,,,,,,,,,,,,,,,,,,,,,,,,,,,,,,,,,,,,,,,,,,,,,,,,,,,,,,,,,,,,,,,,,,,,,,,,,,,,,,,,,,,,,,,,,,,,,,,,,,,,,,,,,,
,,6563617d6c7549dfa0c5e854,2023-12-14_20h05.52.401,kallum_motion_pilot,2023.2.3,Win32,45.45454545,6563617d6c7549dfa0c5e854,657bb317c8798c6608bceb3f,657bb46df98be90186afd73b,0.111,0.111,0,102,102,125,1,seveneight,,,,,,,,,,,,,,,,,,,,,,,,,,,,,,,,,,,,,,,,,,,,,,,,,,,,,,,,,,,,,,,,,,,,,,,,,,,,,,,,,,,,,,,,,,,,,,,,,,,,,,,,,,,,,,,,,,,,,,,,,,,,,,,,,,,,,,,
,,6563617d6c7549dfa0c5e854,2023-12-14_20h05.52.401,kallum_motion_pilot,2023.2.3,Win32,45.45454545,6563617d6c7549dfa0c5e854,657bb317c8798c6608bceb3f,657bb46df98be90186afd73b,0.111,0.112,0,103,103,16,1,onetwo,,,,,,,,,,,,,,,,,,,,,,,,,,,,,,,,,,,,,,,,,,,,,,,,,,,,,,,,,,,,,,,,,,,,,,,,,,,,,,,,,,,,,,,,,,,,,,,,,,,,,,,,,,,,,,,,,,,,,,,,,,,,,,,,,,,,,,,
,,6563617d6c7549dfa0c5e854,2023-12-14_20h05.52.401,kallum_motion_pilot,2023.2.3,Win32,45.45454545,6563617d6c7549dfa0c5e854,657bb317c8798c6608bceb3f,657bb46df98be90186afd73b,0.112,0.112,0,104,104,26,1,twoone,,,,,,,,,,,,,,,,,,,,,,,,,,,,,,,,,,,,,,,,,,,,,,,,,,,,,,,,,,,,,,,,,,,,,,,,,,,,,,,,,,,,,,,,,,,,,,,,,,,,,,,,,,,,,,,,,,,,,,,,,,,,,,,,,,,,,,,
,,6563617d6c7549dfa0c5e854,2023-12-14_20h05.52.401,kallum_motion_pilot,2023.2.3,Win32,45.45454545,6563617d6c7549dfa0c5e854,657bb317c8798c6608bceb3f,657bb46df98be90186afd73b,0.112,0.112,0,105,105,73,1,onethree,,,,,,,,,,,,,,,,,,,,,,,,,,,,,,,,,,,,,,,,,,,,,,,,,,,,,,,,,,,,,,,,,,,,,,,,,,,,,,,,,,,,,,,,,,,,,,,,,,,,,,,,,,,,,,,,,,,,,,,,,,,,,,,,,,,,,,,
,,6563617d6c7549dfa0c5e854,2023-12-14_20h05.52.401,kallum_motion_pilot,2023.2.3,Win32,45.45454545,6563617d6c7549dfa0c5e854,657bb317c8798c6608bceb3f,657bb46df98be90186afd73b,0.112,0.113,0,106,106,23,1,fourthree,,,,,,,,,,,,,,,,,,,,,,,,,,,,,,,,,,,,,,,,,,,,,,,,,,,,,,,,,,,,,,,,,,,,,,,,,,,,,,,,,,,,,,,,,,,,,,,,,,,,,,,,,,,,,,,,,,,,,,,,,,,,,,,,,,,,,,,
,,6563617d6c7549dfa0c5e854,2023-12-14_20h05.52.401,kallum_motion_pilot,2023.2.3,Win32,45.45454545,6563617d6c7549dfa0c5e854,657bb317c8798c6608bceb3f,657bb46df98be90186afd73b,0.113,0.113,0,107,107,144,1,fivesix,,,,,,,,,,,,,,,,,,,,,,,,,,,,,,,,,,,,,,,,,,,,,,,,,,,,,,,,,,,,,,,,,,,,,,,,,,,,,,,,,,,,,,,,,,,,,,,,,,,,,,,,,,,,,,,,,,,,,,,,,,,,,,,,,,,,,,,
,,6563617d6c7549dfa0c5e854,2023-12-14_20h05.52.401,kallum_motion_pilot,2023.2.3,Win32,45.45454545,6563617d6c7549dfa0c5e854,657bb317c8798c6608bceb3f,657bb46df98be90186afd73b,0.113,0.114,0,108,108,87,1,eightseven,,,,,,,,,,,,,,,,,,,,,,,,,,,,,,,,,,,,,,,,,,,,,,,,,,,,,,,,,,,,,,,,,,,,,,,,,,,,,,,,,,,,,,,,,,,,,,,,,,,,,,,,,,,,,,,,,,,,,,,,,,,,,,,,,,,,,,,
,,6563617d6c7549dfa0c5e854,2023-12-14_20h05.52.401,kallum_motion_pilot,2023.2.3,Win32,45.45454545,6563617d6c7549dfa0c5e854,657bb317c8798c6608bceb3f,657bb46df98be90186afd73b,0.114,0.114,0,109,109,5,1,threefour,,,,,,,,,,,,,,,,,,,,,,,,,,,,,,,,,,,,,,,,,,,,,,,,,,,,,,,,,,,,,,,,,,,,,,,,,,,,,,,,,,,,,,,,,,,,,,,,,,,,,,,,,,,,,,,,,,,,,,,,,,,,,,,,,,,,,,,
,,6563617d6c7549dfa0c5e854,2023-12-14_20h05.52.401,kallum_motion_pilot,2023.2.3,Win32,45.45454545,6563617d6c7549dfa0c5e854,657bb317c8798c6608bceb3f,657bb46df98be90186afd73b,0.115,0.115,0,110,110,55,1,fourthree,,,,,,,,,,,,,,,,,,,,,,,,,,,,,,,,,,,,,,,,,,,,,,,,,,,,,,,,,,,,,,,,,,,,,,,,,,,,,,,,,,,,,,,,,,,,,,,,,,,,,,,,,,,,,,,,,,,,,,,,,,,,,,,,,,,,,,,
,,6563617d6c7549dfa0c5e854,2023-12-14_20h05.52.401,kallum_motion_pilot,2023.2.3,Win32,45.45454545,6563617d6c7549dfa0c5e854,657bb317c8798c6608bceb3f,657bb46df98be90186afd73b,0.115,0.115,0,111,111,50,1,twoone,,,,,,,,,,,,,,,,,,,,,,,,,,,,,,,,,,,,,,,,,,,,,,,,,,,,,,,,,,,,,,,,,,,,,,,,,,,,,,,,,,,,,,,,,,,,,,,,,,,,,,,,,,,,,,,,,,,,,,,,,,,,,,,,,,,,,,,
,,6563617d6c7549dfa0c5e854,2023-12-14_20h05.52.401,kallum_motion_pilot,2023.2.3,Win32,45.45454545,6563617d6c7549dfa0c5e854,657bb317c8798c6608bceb3f,657bb46df98be90186afd73b,0.116,0.116,0,112,112,75,1,twofour,,,,,,,,,,,,,,,,,,,,,,,,,,,,,,,,,,,,,,,,,,,,,,,,,,,,,,,,,,,,,,,,,,,,,,,,,,,,,,,,,,,,,,,,,,,,,,,,,,,,,,,,,,,,,,,,,,,,,,,,,,,,,,,,,,,,,,,
,,6563617d6c7549dfa0c5e854,2023-12-14_20h05.52.401,kallum_motion_pilot,2023.2.3,Win32,45.45454545,6563617d6c7549dfa0c5e854,657bb317c8798c6608bceb3f,657bb46df98be90186afd73b,0.116,0.116,0,113,113,122,1,sixfive,,,,,,,,,,,,,,,,,,,,,,,,,,,,,,,,,,,,,,,,,,,,,,,,,,,,,,,,,,,,,,,,,,,,,,,,,,,,,,,,,,,,,,,,,,,,,,,,,,,,,,,,,,,,,,,,,,,,,,,,,,,,,,,,,,,,,,,
,,6563617d6c7549dfa0c5e854,2023-12-14_20h05.52.401,kallum_motion_pilot,2023.2.3,Win32,45.45454545,6563617d6c7549dfa0c5e854,657bb317c8798c6608bceb3f,657bb46df98be90186afd73b,0.117,0.117,0,114,114,111,1,eightseven,,,,,,,,,,,,,,,,,,,,,,,,,,,,,,,,,,,,,,,,,,,,,,,,,,,,,,,,,,,,,,,,,,,,,,,,,,,,,,,,,,,,,,,,,,,,,,,,,,,,,,,,,,,,,,,,,,,,,,,,,,,,,,,,,,,,,,,
,,6563617d6c7549dfa0c5e854,2023-12-14_20h05.52.401,kallum_motion_pilot,2023.2.3,Win32,45.45454545,6563617d6c7549dfa0c5e854,657bb317c8798c6608bceb3f,657bb46df98be90186afd73b,0.117,0.117,0,115,115,161,1,fiveseven,,,,,,,,,,,,,,,,,,,,,,,,,,,,,,,,,,,,,,,,,,,,,,,,,,,,,,,,,,,,,,,,,,,,,,,,,,,,,,,,,,,,,,,,,,,,,,,,,,,,,,,,,,,,,,,,,,,,,,,,,,,,,,,,,,,,,,,
,,6563617d6c7549dfa0c5e854,2023-12-14_20h05.52.401,kallum_motion_pilot,2023.2.3,Win32,45.45454545,6563617d6c7549dfa0c5e854,657bb317c8798c6608bceb3f,657bb46df98be90186afd73b,0.118,0.118,0,116,116,154,1,sixfive,,,,,,,,,,,,,,,,,,,,,,,,,,,,,,,,,,,,,,,,,,,,,,,,,,,,,,,,,,,,,,,,,,,,,,,,,,,,,,,,,,,,,,,,,,,,,,,,,,,,,,,,,,,,,,,,,,,,,,,,,,,,,,,,,,,,,,,
,,6563617d6c7549dfa0c5e854,2023-12-14_20h05.52.401,kallum_motion_pilot,2023.2.3,Win32,45.45454545,6563617d6c7549dfa0c5e854,657bb317c8798c6608bceb3f,657bb46df98be90186afd73b,0.118,0.118,0,117,117,39,1,fourthree,,,,,,,,,,,,,,,,,,,,,,,,,,,,,,,,,,,,,,,,,,,,,,,,,,,,,,,,,,,,,,,,,,,,,,,,,,,,,,,,,,,,,,,,,,,,,,,,,,,,,,,,,,,,,,,,,,,,,,,,,,,,,,,,,,,,,,,
,,6563617d6c7549dfa0c5e854,2023-12-14_20h05.52.401,kallum_motion_pilot,2023.2.3,Win32,45.45454545,6563617d6c7549dfa0c5e854,657bb317c8798c6608bceb3f,657bb46df98be90186afd73b,0.118,0.118,0,118,118,135,1,eightseven,,,,,,,,,,,,,,,,,,,,,,,,,,,,,,,,,,,,,,,,,,,,,,,,,,,,,,,,,,,,,,,,,,,,,,,,,,,,,,,,,,,,,,,,,,,,,,,,,,,,,,,,,,,,,,,,,,,,,,,,,,,,,,,,,,,,,,,
,,6563617d6c7549dfa0c5e854,2023-12-14_20h05.52.401,kallum_motion_pilot,2023.2.3,Win32,45.45454545,6563617d6c7549dfa0c5e854,657bb317c8798c6608bceb3f,657bb46df98be90186afd73b,0.119,0.119,0,119,119,33,1,onethree,,,,,,,,,,,,,,,,,,,,,,,,,,,,,,,,,,,,,,,,,,,,,,,,,,,,,,,,,,,,,,,,,,,,,,,,,,,,,,,,,,,,,,,,,,,,,,,,,,,,,,,,,,,,,,,,,,,,,,,,,,,,,,,,,,,,,,,
,,6563617d6c7549dfa0c5e854,2023-12-14_20h05.52.401,kallum_motion_pilot,2023.2.3,Win32,45.45454545,6563617d6c7549dfa0c5e854,657bb317c8798c6608bceb3f,657bb46df98be90186afd73b,0.119,0.119,0,120,120,120,1,fivesix,,,,,,,,,,,,,,,,,,,,,,,,,,,,,,,,,,,,,,,,,,,,,,,,,,,,,,,,,,,,,,,,,,,,,,,,,,,,,,,,,,,,,,,,,,,,,,,,,,,,,,,,,,,,,,,,,,,,,,,,,,,,,,,,,,,,,,,
,,6563617d6c7549dfa0c5e854,2023-12-14_20h05.52.401,kallum_motion_pilot,2023.2.3,Win32,45.45454545,6563617d6c7549dfa0c5e854,657bb317c8798c6608bceb3f,657bb46df98be90186afd73b,0.121,0.121,0,121,121,138,1,sixfive,,,,,,,,,,,,,,,,,,,,,,,,,,,,,,,,,,,,,,,,,,,,,,,,,,,,,,,,,,,,,,,,,,,,,,,,,,,,,,,,,,,,,,,,,,,,,,,,,,,,,,,,,,,,,,,,,,,,,,,,,,,,,,,,,,,,,,,
,,6563617d6c7549dfa0c5e854,2023-12-14_20h05.52.401,kallum_motion_pilot,2023.2.3,Win32,45.45454545,6563617d6c7549dfa0c5e854,657bb317c8798c6608bceb3f,657bb46df98be90186afd73b,0.121,0.121,0,122,122,101,1,seveneight,,,,,,,,,,,,,,,,,,,,,,,,,,,,,,,,,,,,,,,,,,,,,,,,,,,,,,,,,,,,,,,,,,,,,,,,,,,,,,,,,,,,,,,,,,,,,,,,,,,,,,,,,,,,,,,,,,,,,,,,,,,,,,,,,,,,,,,
,,6563617d6c7549dfa0c5e854,2023-12-14_20h05.52.401,kallum_motion_pilot,2023.2.3,Win32,45.45454545,6563617d6c7549dfa0c5e854,657bb317c8798c6608bceb3f,657bb46df98be90186afd73b,0.121,0.121,0,123,123,155,1,sixeight,,,,,,,,,,,,,,,,,,,,,,,,,,,,,,,,,,,,,,,,,,,,,,,,,,,,,,,,,,,,,,,,,,,,,,,,,,,,,,,,,,,,,,,,,,,,,,,,,,,,,,,,,,,,,,,,,,,,,,,,,,,,,,,,,,,,,,,
,,6563617d6c7549dfa0c5e854,2023-12-14_20h05.52.401,kallum_motion_pilot,2023.2.3,Win32,45.45454545,6563617d6c7549dfa0c5e854,657bb317c8798c6608bceb3f,657bb46df98be90186afd73b,0.121,0.121,0,124,124,37,1,threefour,,,,,,,,,,,,,,,,,,,,,,,,,,,,,,,,,,,,,,,,,,,,,,,,,,,,,,,,,,,,,,,,,,,,,,,,,,,,,,,,,,,,,,,,,,,,,,,,,,,,,,,,,,,,,,,,,,,,,,,,,,,,,,,,,,,,,,,
,,6563617d6c7549dfa0c5e854,2023-12-14_20h05.52.401,kallum_motion_pilot,2023.2.3,Win32,45.45454545,6563617d6c7549dfa0c5e854,657bb317c8798c6608bceb3f,657bb46df98be90186afd73b,0.122,0.122,0,125,125,71,1,fourthree,,,,,,,,,,,,,,,,,,,,,,,,,,,,,,,,,,,,,,,,,,,,,,,,,,,,,,,,,,,,,,,,,,,,,,,,,,,,,,,,,,,,,,,,,,,,,,,,,,,,,,,,,,,,,,,,,,,,,,,,,,,,,,,,,,,,,,,
,,6563617d6c7549dfa0c5e854,2023-12-14_20h05.52.401,kallum_motion_pilot,2023.2.3,Win32,45.45454545,6563617d6c7549dfa0c5e854,657bb317c8798c6608bceb3f,657bb46df98be90186afd73b,0.123,0.123,0,126,126,100,1,sevenfive,,,,,,,,,,,,,,,,,,,,,,,,,,,,,,,,,,,,,,,,,,,,,,,,,,,,,,,,,,,,,,,,,,,,,,,,,,,,,,,,,,,,,,,,,,,,,,,,,,,,,,,,,,,,,,,,,,,,,,,,,,,,,,,,,,,,,,,
,,6563617d6c7549dfa0c5e854,2023-12-14_20h05.52.401,kallum_motion_pilot,2023.2.3,Win32,45.45454545,6563617d6c7549dfa0c5e854,657bb317c8798c6608bceb3f,657bb46df98be90186afd73b,0.123,0.123,0,127,127,85,1,seveneight,,,,,,,,,,,,,,,,,,,,,,,,,,,,,,,,,,,,,,,,,,,,,,,,,,,,,,,,,,,,,,,,,,,,,,,,,,,,,,,,,,,,,,,,,,,,,,,,,,,,,,,,,,,,,,,,,,,,,,,,,,,,,,,,,,,,,,,
,,6563617d6c7549dfa0c5e854,2023-12-14_20h05.52.401,kallum_motion_pilot,2023.2.3,Win32,45.45454545,6563617d6c7549dfa0c5e854,657bb317c8798c6608bceb3f,657bb46df98be90186afd73b,0.123,0.123,0,128,128,38,1,fourtwo,,,,,,,,,,,,,,,,,,,,,,,,,,,,,,,,,,,,,,,,,,,,,,,,,,,,,,,,,,,,,,,,,,,,,,,,,,,,,,,,,,,,,,,,,,,,,,,,,,,,,,,,,,,,,,,,,,,,,,,,,,,,,,,,,,,,,,,
,,6563617d6c7549dfa0c5e854,2023-12-14_20h05.52.401,kallum_motion_pilot,2023.2.3,Win32,45.45454545,6563617d6c7549dfa0c5e854,657bb317c8798c6608bceb3f,657bb46df98be90186afd73b,0.124,0.124,0,129,129,31,1,fourthree,,,,,,,,,,,,,,,,,,,,,,,,,,,,,,,,,,,,,,,,,,,,,,,,,,,,,,,,,,,,,,,,,,,,,,,,,,,,,,,,,,,,,,,,,,,,,,,,,,,,,,,,,,,,,,,,,,,,,,,,,,,,,,,,,,,,,,,
,,6563617d6c7549dfa0c5e854,2023-12-14_20h05.52.401,kallum_motion_pilot,2023.2.3,Win32,45.45454545,6563617d6c7549dfa0c5e854,657bb317c8798c6608bceb3f,657bb46df98be90186afd73b,0.124,0.124,0,130,130,143,1,eightseven,,,,,,,,,,,,,,,,,,,,,,,,,,,,,,,,,,,,,,,,,,,,,,,,,,,,,,,,,,,,,,,,,,,,,,,,,,,,,,,,,,,,,,,,,,,,,,,,,,,,,,,,,,,,,,,,,,,,,,,,,,,,,,,,,,,,,,,
,,6563617d6c7549dfa0c5e854,2023-12-14_20h05.52.401,kallum_motion_pilot,2023.2.3,Win32,45.45454545,6563617d6c7549dfa0c5e854,657bb317c8798c6608bceb3f,657bb46df98be90186afd73b,0.124,0.124,0,131,131,65,1,onethree,,,,,,,,,,,,,,,,,,,,,,,,,,,,,,,,,,,,,,,,,,,,,,,,,,,,,,,,,,,,,,,,,,,,,,,,,,,,,,,,,,,,,,,,,,,,,,,,,,,,,,,,,,,,,,,,,,,,,,,,,,,,,,,,,,,,,,,
,,6563617d6c7549dfa0c5e854,2023-12-14_20h05.52.401,kallum_motion_pilot,2023.2.3,Win32,45.45454545,6563617d6c7549dfa0c5e854,657bb317c8798c6608bceb3f,657bb46df98be90186afd73b,0.125,0.125,0,132,132,44,1,threeone,,,,,,,,,,,,,,,,,,,,,,,,,,,,,,,,,,,,,,,,,,,,,,,,,,,,,,,,,,,,,,,,,,,,,,,,,,,,,,,,,,,,,,,,,,,,,,,,,,,,,,,,,,,,,,,,,,,,,,,,,,,,,,,,,,,,,,,
,,6563617d6c7549dfa0c5e854,2023-12-14_20h05.52.401,kallum_motion_pilot,2023.2.3,Win32,45.45454545,6563617d6c7549dfa0c5e854,657bb317c8798c6608bceb3f,657bb46df98be90186afd73b,0.126,0.126,0,133,133,27,1,twofour,,,,,,,,,,,,,,,,,,,,,,,,,,,,,,,,,,,,,,,,,,,,,,,,,,,,,,,,,,,,,,,,,,,,,,,,,,,,,,,,,,,,,,,,,,,,,,,,,,,,,,,,,,,,,,,,,,,,,,,,,,,,,,,,,,,,,,,
,,6563617d6c7549dfa0c5e854,2023-12-14_20h05.52.401,kallum_motion_pilot,2023.2.3,Win32,45.45454545,6563617d6c7549dfa0c5e854,657bb317c8798c6608bceb3f,657bb46df98be90186afd73b,0.126,0.127,0,134,134,158,1,eightsix,,,,,,,,,,,,,,,,,,,,,,,,,,,,,,,,,,,,,,,,,,,,,,,,,,,,,,,,,,,,,,,,,,,,,,,,,,,,,,,,,,,,,,,,,,,,,,,,,,,,,,,,,,,,,,,,,,,,,,,,,,,,,,,,,,,,,,,
,,6563617d6c7549dfa0c5e854,2023-12-14_20h05.52.401,kallum_motion_pilot,2023.2.3,Win32,45.45454545,6563617d6c7549dfa0c5e854,657bb317c8798c6608bceb3f,657bb46df98be90186afd73b,0.127,0.127,0,135,135,136,1,fivesix,,,,,,,,,,,,,,,,,,,,,,,,,,,,,,,,,,,,,,,,,,,,,,,,,,,,,,,,,,,,,,,,,,,,,,,,,,,,,,,,,,,,,,,,,,,,,,,,,,,,,,,,,,,,,,,,,,,,,,,,,,,,,,,,,,,,,,,
,,6563617d6c7549dfa0c5e854,2023-12-14_20h05.52.401,kallum_motion_pilot,2023.2.3,Win32,45.45454545,6563617d6c7549dfa0c5e854,657bb317c8798c6608bceb3f,657bb46df98be90186afd73b,0.127,0.127,0,136,136,1,1,onethree,,,,,,,,,,,,,,,,,,,,,,,,,,,,,,,,,,,,,,,,,,,,,,,,,,,,,,,,,,,,,,,,,,,,,,,,,,,,,,,,,,,,,,,,,,,,,,,,,,,,,,,,,,,,,,,,,,,,,,,,,,,,,,,,,,,,,,,
,,6563617d6c7549dfa0c5e854,2023-12-14_20h05.52.401,kallum_motion_pilot,2023.2.3,Win32,45.45454545,6563617d6c7549dfa0c5e854,657bb317c8798c6608bceb3f,657bb46df98be90186afd73b,0.127,0.128,0,137,137,89,1,fiveseven,,,,,,,,,,,,,,,,,,,,,,,,,,,,,,,,,,,,,,,,,,,,,,,,,,,,,,,,,,,,,,,,,,,,,,,,,,,,,,,,,,,,,,,,,,,,,,,,,,,,,,,,,,,,,,,,,,,,,,,,,,,,,,,,,,,,,,,
,,6563617d6c7549dfa0c5e854,2023-12-14_20h05.52.401,kallum_motion_pilot,2023.2.3,Win32,45.45454545,6563617d6c7549dfa0c5e854,657bb317c8798c6608bceb3f,657bb46df98be90186afd73b,0.128,0.129,0,138,138,12,1,threeone,,,,,,,,,,,,,,,,,,,,,,,,,,,,,,,,,,,,,,,,,,,,,,,,,,,,,,,,,,,,,,,,,,,,,,,,,,,,,,,,,,,,,,,,,,,,,,,,,,,,,,,,,,,,,,,,,,,,,,,,,,,,,,,,,,,,,,,
,,6563617d6c7549dfa0c5e854,2023-12-14_20h05.52.401,kallum_motion_pilot,2023.2.3,Win32,45.45454545,6563617d6c7549dfa0c5e854,657bb317c8798c6608bceb3f,657bb46df98be90186afd73b,0.129,0.129,0,139,139,151,1,eightseven,,,,,,,,,,,,,,,,,,,,,,,,,,,,,,,,,,,,,,,,,,,,,,,,,,,,,,,,,,,,,,,,,,,,,,,,,,,,,,,,,,,,,,,,,,,,,,,,,,,,,,,,,,,,,,,,,,,,,,,,,,,,,,,,,,,,,,,
,,6563617d6c7549dfa0c5e854,2023-12-14_20h05.52.401,kallum_motion_pilot,2023.2.3,Win32,45.45454545,6563617d6c7549dfa0c5e854,657bb317c8798c6608bceb3f,657bb46df98be90186afd73b,0.13,0.13,0,140,140,79,1,eightseven,,,,,,,,,,,,,,,,,,,,,,,,,,,,,,,,,,,,,,,,,,,,,,,,,,,,,,,,,,,,,,,,,,,,,,,,,,,,,,,,,,,,,,,,,,,,,,,,,,,,,,,,,,,,,,,,,,,,,,,,,,,,,,,,,,,,,,,
,,6563617d6c7549dfa0c5e854,2023-12-14_20h05.52.401,kallum_motion_pilot,2023.2.3,Win32,45.45454545,6563617d6c7549dfa0c5e854,657bb317c8798c6608bceb3f,657bb46df98be90186afd73b,0.13,0.13,0,141,141,113,1,fiveseven,,,,,,,,,,,,,,,,,,,,,,,,,,,,,,,,,,,,,,,,,,,,,,,,,,,,,,,,,,,,,,,,,,,,,,,,,,,,,,,,,,,,,,,,,,,,,,,,,,,,,,,,,,,,,,,,,,,,,,,,,,,,,,,,,,,,,,,
,,6563617d6c7549dfa0c5e854,2023-12-14_20h05.52.401,kallum_motion_pilot,2023.2.3,Win32,45.45454545,6563617d6c7549dfa0c5e854,657bb317c8798c6608bceb3f,657bb46df98be90186afd73b,0.13,0.131,0,142,142,45,1,threefour,,,,,,,,,,,,,,,,,,,,,,,,,,,,,,,,,,,,,,,,,,,,,,,,,,,,,,,,,,,,,,,,,,,,,,,,,,,,,,,,,,,,,,,,,,,,,,,,,,,,,,,,,,,,,,,,,,,,,,,,,,,,,,,,,,,,,,,
,,6563617d6c7549dfa0c5e854,2023-12-14_20h05.52.401,kallum_motion_pilot,2023.2.3,Win32,45.45454545,6563617d6c7549dfa0c5e854,657bb317c8798c6608bceb3f,657bb46df98be90186afd73b,0.131,0.131,0,143,143,77,1,threefour,,,,,,,,,,,,,,,,,,,,,,,,,,,,,,,,,,,,,,,,,,,,,,,,,,,,,,,,,,,,,,,,,,,,,,,,,,,,,,,,,,,,,,,,,,,,,,,,,,,,,,,,,,,,,,,,,,,,,,,,,,,,,,,,,,,,,,,
,,6563617d6c7549dfa0c5e854,2023-12-14_20h05.52.401,kallum_motion_pilot,2023.2.3,Win32,45.45454545,6563617d6c7549dfa0c5e854,657bb317c8798c6608bceb3f,657bb46df98be90186afd73b,0.132,0.132,0,144,144,99,1,sixeight,,,,,,,,,,,,,,,,,,,,,,,,,,,,,,,,,,,,,,,,,,,,,,,,,,,,,,,,,,,,,,,,,,,,,,,,,,,,,,,,,,,,,,,,,,,,,,,,,,,,,,,,,,,,,,,,,,,,,,,,,,,,,,,,,,,,,,,
,,6563617d6c7549dfa0c5e854,2023-12-14_20h05.52.401,kallum_motion_pilot,2023.2.3,Win32,45.45454545,6563617d6c7549dfa0c5e854,657bb317c8798c6608bceb3f,657bb46df98be90186afd73b,0.132,0.132,0,145,145,15,1,fourthree,,,,,,,,,,,,,,,,,,,,,,,,,,,,,,,,,,,,,,,,,,,,,,,,,,,,,,,,,,,,,,,,,,,,,,,,,,,,,,,,,,,,,,,,,,,,,,,,,,,,,,,,,,,,,,,,,,,,,,,,,,,,,,,,,,,,,,,
,,6563617d6c7549dfa0c5e854,2023-12-14_20h05.52.401,kallum_motion_pilot,2023.2.3,Win32,45.45454545,6563617d6c7549dfa0c5e854,657bb317c8798c6608bceb3f,657bb46df98be90186afd73b,0.133,0.133,0,146,146,115,1,sixeight,,,,,,,,,,,,,,,,,,,,,,,,,,,,,,,,,,,,,,,,,,,,,,,,,,,,,,,,,,,,,,,,,,,,,,,,,,,,,,,,,,,,,,,,,,,,,,,,,,,,,,,,,,,,,,,,,,,,,,,,,,,,,,,,,,,,,,,
,,6563617d6c7549dfa0c5e854,2023-12-14_20h05.52.401,kallum_motion_pilot,2023.2.3,Win32,45.45454545,6563617d6c7549dfa0c5e854,657bb317c8798c6608bceb3f,657bb46df98be90186afd73b,0.133,0.133,0,147,147,108,1,sevenfive,,,,,,,,,,,,,,,,,,,,,,,,,,,,,,,,,,,,,,,,,,,,,,,,,,,,,,,,,,,,,,,,,,,,,,,,,,,,,,,,,,,,,,,,,,,,,,,,,,,,,,,,,,,,,,,,,,,,,,,,,,,,,,,,,,,,,,,
,,6563617d6c7549dfa0c5e854,2023-12-14_20h05.52.401,kallum_motion_pilot,2023.2.3,Win32,45.45454545,6563617d6c7549dfa0c5e854,657bb317c8798c6608bceb3f,657bb46df98be90186afd73b,0.133,0.133,0,148,148,137,1,fiveseven,,,,,,,,,,,,,,,,,,,,,,,,,,,,,,,,,,,,,,,,,,,,,,,,,,,,,,,,,,,,,,,,,,,,,,,,,,,,,,,,,,,,,,,,,,,,,,,,,,,,,,,,,,,,,,,,,,,,,,,,,,,,,,,,,,,,,,,
,,6563617d6c7549dfa0c5e854,2023-12-14_20h05.52.401,kallum_motion_pilot,2023.2.3,Win32,45.45454545,6563617d6c7549dfa0c5e854,657bb317c8798c6608bceb3f,657bb46df98be90186afd73b,0.134,0.134,0,149,149,153,1,fiveseven,,,,,,,,,,,,,,,,,,,,,,,,,,,,,,,,,,,,,,,,,,,,,,,,,,,,,,,,,,,,,,,,,,,,,,,,,,,,,,,,,,,,,,,,,,,,,,,,,,,,,,,,,,,,,,,,,,,,,,,,,,,,,,,,,,,,,,,
,,6563617d6c7549dfa0c5e854,2023-12-14_20h05.52.401,kallum_motion_pilot,2023.2.3,Win32,45.45454545,6563617d6c7549dfa0c5e854,657bb317c8798c6608bceb3f,657bb46df98be90186afd73b,0.135,0.136,0,150,150,112,1,fivesix,,,,,,,,,,,,,,,,,,,,,,,,,,,,,,,,,,,,,,,,,,,,,,,,,,,,,,,,,,,,,,,,,,,,,,,,,,,,,,,,,,,,,,,,,,,,,,,,,,,,,,,,,,,,,,,,,,,,,,,,,,,,,,,,,,,,,,,
,,6563617d6c7549dfa0c5e854,2023-12-14_20h05.52.401,kallum_motion_pilot,2023.2.3,Win32,45.45454545,6563617d6c7549dfa0c5e854,657bb317c8798c6608bceb3f,657bb46df98be90186afd73b,0.136,0.136,0,151,151,10,1,twoone,,,,,,,,,,,,,,,,,,,,,,,,,,,,,,,,,,,,,,,,,,,,,,,,,,,,,,,,,,,,,,,,,,,,,,,,,,,,,,,,,,,,,,,,,,,,,,,,,,,,,,,,,,,,,,,,,,,,,,,,,,,,,,,,,,,,,,,
,,6563617d6c7549dfa0c5e854,2023-12-14_20h05.52.401,kallum_motion_pilot,2023.2.3,Win32,45.45454545,6563617d6c7549dfa0c5e854,657bb317c8798c6608bceb3f,657bb46df98be90186afd73b,0.136,0.137,0,152,152,80,1,fivesix,,,,,,,,,,,,,,,,,,,,,,,,,,,,,,,,,,,,,,,,,,,,,,,,,,,,,,,,,,,,,,,,,,,,,,,,,,,,,,,,,,,,,,,,,,,,,,,,,,,,,,,,,,,,,,,,,,,,,,,,,,,,,,,,,,,,,,,
,,6563617d6c7549dfa0c5e854,2023-12-14_20h05.52.401,kallum_motion_pilot,2023.2.3,Win32,45.45454545,6563617d6c7549dfa0c5e854,657bb317c8798c6608bceb3f,657bb46df98be90186afd73b,0.138,0.138,0,153,153,48,1,onetwo,,,,,,,,,,,,,,,,,,,,,,,,,,,,,,,,,,,,,,,,,,,,,,,,,,,,,,,,,,,,,,,,,,,,,,,,,,,,,,,,,,,,,,,,,,,,,,,,,,,,,,,,,,,,,,,,,,,,,,,,,,,,,,,,,,,,,,,
,,6563617d6c7549dfa0c5e854,2023-12-14_20h05.52.401,kallum_motion_pilot,2023.2.3,Win32,45.45454545,6563617d6c7549dfa0c5e854,657bb317c8798c6608bceb3f,657bb46df98be90186afd73b,0.138,0.138,0,154,154,82,1,sixfive,,,,,,,,,,,,,,,,,,,,,,,,,,,,,,,,,,,,,,,,,,,,,,,,,,,,,,,,,,,,,,,,,,,,,,,,,,,,,,,,,,,,,,,,,,,,,,,,,,,,,,,,,,,,,,,,,,,,,,,,,,,,,,,,,,,,,,,
,,6563617d6c7549dfa0c5e854,2023-12-14_20h05.52.401,kallum_motion_pilot,2023.2.3,Win32,45.45454545,6563617d6c7549dfa0c5e854,657bb317c8798c6608bceb3f,657bb46df98be90186afd73b,0.139,0.139,0,155,155,32,1,onetwo,,,,,,,,,,,,,,,,,,,,,,,,,,,,,,,,,,,,,,,,,,,,,,,,,,,,,,,,,,,,,,,,,,,,,,,,,,,,,,,,,,,,,,,,,,,,,,,,,,,,,,,,,,,,,,,,,,,,,,,,,,,,,,,,,,,,,,,
,,6563617d6c7549dfa0c5e854,2023-12-14_20h05.52.401,kallum_motion_pilot,2023.2.3,Win32,45.45454545,6563617d6c7549dfa0c5e854,657bb317c8798c6608bceb3f,657bb46df98be90186afd73b,0.14,0.14,0,156,156,66,1,twoone,,,,,,,,,,,,,,,,,,,,,,,,,,,,,,,,,,,,,,,,,,,,,,,,,,,,,,,,,,,,,,,,,,,,,,,,,,,,,,,,,,,,,,,,,,,,,,,,,,,,,,,,,,,,,,,,,,,,,,,,,,,,,,,,,,,,,,,
,,6563617d6c7549dfa0c5e854,2023-12-14_20h05.52.401,kallum_motion_pilot,2023.2.3,Win32,45.45454545,6563617d6c7549dfa0c5e854,657bb317c8798c6608bceb3f,657bb46df98be90186afd73b,0.141,0.141,0,157,157,148,1,sevenfive,,,,,,,,,,,,,,,,,,,,,,,,,,,,,,,,,,,,,,,,,,,,,,,,,,,,,,,,,,,,,,,,,,,,,,,,,,,,,,,,,,,,,,,,,,,,,,,,,,,,,,,,,,,,,,,,,,,,,,,,,,,,,,,,,,,,,,,
,,6563617d6c7549dfa0c5e854,2023-12-14_20h05.52.401,kallum_motion_pilot,2023.2.3,Win32,45.45454545,6563617d6c7549dfa0c5e854,657bb317c8798c6608bceb3f,657bb46df98be90186afd73b,0.142,0.142,0,158,158,96,1,fivesix,,,,,,,,,,,,,,,,,,,,,,,,,,,,,,,,,,,,,,,,,,,,,,,,,,,,,,,,,,,,,,,,,,,,,,,,,,,,,,,,,,,,,,,,,,,,,,,,,,,,,,,,,,,,,,,,,,,,,,,,,,,,,,,,,,,,,,,
,,6563617d6c7549dfa0c5e854,2023-12-14_20h05.52.401,kallum_motion_pilot,2023.2.3,Win32,45.45454545,6563617d6c7549dfa0c5e854,657bb317c8798c6608bceb3f,657bb46df98be90186afd73b,0.142,0.143,0,159,159,141,1,seveneight,,,,,,,,,,,,,,,,,,,,,,,,,,,,,,,,,,,,,,,,,,,,,,,,,,,,,,,,,,,,,,,,,,,,,,,,,,,,,,,,,,,,,,,,,,,,,,,,,,,,,,,,,,,,,,,,,,,,,,,,,,,,,,,,,,,,,,,
,,6563617d6c7549dfa0c5e854,2023-12-14_20h05.52.401,kallum_motion_pilot,2023.2.3,Win32,45.45454545,6563617d6c7549dfa0c5e854,657bb317c8798c6608bceb3f,657bb46df98be90186afd73b,0.143,0.143,0,160,160,17,1,onethree,,,,,,,,,,,,,,,,,,,,,,,,,,,,,,,,,,,,,,,,,,,,,,,,,,,,,,,,,,,,,,,,,,,,,,,,,,,,,,,,,,,,,,,,,,,,,,,,,,,,,,,,,,,,,,,,,,,,,,,,,,,,,,,,,,,,,,,
,,6563617d6c7549dfa0c5e854,2023-12-14_20h05.52.401,kallum_motion_pilot,2023.2.3,Win32,45.45454545,6563617d6c7549dfa0c5e854,657bb317c8798c6608bceb3f,657bb46df98be90186afd73b,0.144,0.144,0,161,161,63,1,fourthree,,,,,,,,,,,,,,,,,,,,,,,,,,,,,,,,,,,,,,,,,,,,,,,,,,,,,,,,,,,,,,,,,,,,,,,,,,,,,,,,,,,,,,,,,,,,,,,,,,,,,,,,,,,,,,,,,,,,,,,,,,,,,,,,,,,,,,,
,,6563617d6c7549dfa0c5e854,2023-12-14_20h05.52.401,kallum_motion_pilot,2023.2.3,Win32,45.45454545,6563617d6c7549dfa0c5e854,657bb317c8798c6608bceb3f,657bb46df98be90186afd73b,0.144,0.144,1,0,162,54,1,fourtwo,,,,,,,,,,,,,,,,,,,,,,,,,,,,,,,,,,,,,,,,,,,,,,,,,,,,,,,,,,,,,,,,,,,,,,,,,,,,,,,,,,,,,,,,,,,,,,,,,,,,,,,,,,,,,,,,,,,,,,,,,,,,,,,,,,,,,,,
,,6563617d6c7549dfa0c5e854,2023-12-14_20h05.52.401,kallum_motion_pilot,2023.2.3,Win32,45.45454545,6563617d6c7549dfa0c5e854,657bb317c8798c6608bceb3f,657bb46df98be90186afd73b,0.144,0.144,1,1,163,8,1,onetwo,,,,,,,,,,,,,,,,,,,,,,,,,,,,,,,,,,,,,,,,,,,,,,,,,,,,,,,,,,,,,,,,,,,,,,,,,,,,,,,,,,,,,,,,,,,,,,,,,,,,,,,,,,,,,,,,,,,,,,,,,,,,,,,,,,,,,,,
,,6563617d6c7549dfa0c5e854,2023-12-14_20h05.52.401,kallum_motion_pilot,2023.2.3,Win32,45.45454545,6563617d6c7549dfa0c5e854,657bb317c8798c6608bceb3f,657bb46df98be90186afd73b,0.144,0.145,1,2,164,97,1,fiveseven,,,,,,,,,,,,,,,,,,,,,,,,,,,,,,,,,,,,,,,,,,,,,,,,,,,,,,,,,,,,,,,,,,,,,,,,,,,,,,,,,,,,,,,,,,,,,,,,,,,,,,,,,,,,,,,,,,,,,,,,,,,,,,,,,,,,,,,
,,6563617d6c7549dfa0c5e854,2023-12-14_20h05.52.401,kallum_motion_pilot,2023.2.3,Win32,45.45454545,6563617d6c7549dfa0c5e854,657bb317c8798c6608bceb3f,657bb46df98be90186afd73b,0.146,0.146,1,3,165,66,1,twoone,,,,,,,,,,,,,,,,,,,,,,,,,,,,,,,,,,,,,,,,,,,,,,,,,,,,,,,,,,,,,,,,,,,,,,,,,,,,,,,,,,,,,,,,,,,,,,,,,,,,,,,,,,,,,,,,,,,,,,,,,,,,,,,,,,,,,,,
,,6563617d6c7549dfa0c5e854,2023-12-14_20h05.52.401,kallum_motion_pilot,2023.2.3,Win32,45.45454545,6563617d6c7549dfa0c5e854,657bb317c8798c6608bceb3f,657bb46df98be90186afd73b,0.146,0.146,1,4,166,104,1,fivesix,,,,,,,,,,,,,,,,,,,,,,,,,,,,,,,,,,,,,,,,,,,,,,,,,,,,,,,,,,,,,,,,,,,,,,,,,,,,,,,,,,,,,,,,,,,,,,,,,,,,,,,,,,,,,,,,,,,,,,,,,,,,,,,,,,,,,,,
,,6563617d6c7549dfa0c5e854,2023-12-14_20h05.52.401,kallum_motion_pilot,2023.2.3,Win32,45.45454545,6563617d6c7549dfa0c5e854,657bb317c8798c6608bceb3f,657bb46df98be90186afd73b,0.146,0.146,1,5,167,120,1,fivesix,,,,,,,,,,,,,,,,,,,,,,,,,,,,,,,,,,,,,,,,,,,,,,,,,,,,,,,,,,,,,,,,,,,,,,,,,,,,,,,,,,,,,,,,,,,,,,,,,,,,,,,,,,,,,,,,,,,,,,,,,,,,,,,,,,,,,,,
,,6563617d6c7549dfa0c5e854,2023-12-14_20h05.52.401,kallum_motion_pilot,2023.2.3,Win32,45.45454545,6563617d6c7549dfa0c5e854,657bb317c8798c6608bceb3f,657bb46df98be90186afd73b,0.147,0.147,1,6,168,48,1,onetwo,,,,,,,,,,,,,,,,,,,,,,,,,,,,,,,,,,,,,,,,,,,,,,,,,,,,,,,,,,,,,,,,,,,,,,,,,,,,,,,,,,,,,,,,,,,,,,,,,,,,,,,,,,,,,,,,,,,,,,,,,,,,,,,,,,,,,,,
,,6563617d6c7549dfa0c5e854,2023-12-14_20h05.52.401,kallum_motion_pilot,2023.2.3,Win32,45.45454545,6563617d6c7549dfa0c5e854,657bb317c8798c6608bceb3f,657bb46df98be90186afd73b,0.148,0.148,1,7,169,75,1,twofour,,,,,,,,,,,,,,,,,,,,,,,,,,,,,,,,,,,,,,,,,,,,,,,,,,,,,,,,,,,,,,,,,,,,,,,,,,,,,,,,,,,,,,,,,,,,,,,,,,,,,,,,,,,,,,,,,,,,,,,,,,,,,,,,,,,,,,,
,,6563617d6c7549dfa0c5e854,2023-12-14_20h05.52.401,kallum_motion_pilot,2023.2.3,Win32,45.45454545,6563617d6c7549dfa0c5e854,657bb317c8798c6608bceb3f,657bb46df98be90186afd73b,0.149,0.149,1,8,170,13,1,threefour,,,,,,,,,,,,,,,,,,,,,,,,,,,,,,,,,,,,,,,,,,,,,,,,,,,,,,,,,,,,,,,,,,,,,,,,,,,,,,,,,,,,,,,,,,,,,,,,,,,,,,,,,,,,,,,,,,,,,,,,,,,,,,,,,,,,,,,
,,6563617d6c7549dfa0c5e854,2023-12-14_20h05.52.401,kallum_motion_pilot,2023.2.3,Win32,45.45454545,6563617d6c7549dfa0c5e854,657bb317c8798c6608bceb3f,657bb46df98be90186afd73b,0.15,0.15,1,9,171,77,1,threefour,,,,,,,,,,,,,,,,,,,,,,,,,,,,,,,,,,,,,,,,,,,,,,,,,,,,,,,,,,,,,,,,,,,,,,,,,,,,,,,,,,,,,,,,,,,,,,,,,,,,,,,,,,,,,,,,,,,,,,,,,,,,,,,,,,,,,,,
,,6563617d6c7549dfa0c5e854,2023-12-14_20h05.52.401,kallum_motion_pilot,2023.2.3,Win32,45.45454545,6563617d6c7549dfa0c5e854,657bb317c8798c6608bceb3f,657bb46df98be90186afd73b,0.15,0.151,1,10,172,69,1,threefour,,,,,,,,,,,,,,,,,,,,,,,,,,,,,,,,,,,,,,,,,,,,,,,,,,,,,,,,,,,,,,,,,,,,,,,,,,,,,,,,,,,,,,,,,,,,,,,,,,,,,,,,,,,,,,,,,,,,,,,,,,,,,,,,,,,,,,,
,,6563617d6c7549dfa0c5e854,2023-12-14_20h05.52.401,kallum_motion_pilot,2023.2.3,Win32,45.45454545,6563617d6c7549dfa0c5e854,657bb317c8798c6608bceb3f,657bb46df98be90186afd73b,0.151,0.151,1,11,173,55,1,fourthree,,,,,,,,,,,,,,,,,,,,,,,,,,,,,,,,,,,,,,,,,,,,,,,,,,,,,,,,,,,,,,,,,,,,,,,,,,,,,,,,,,,,,,,,,,,,,,,,,,,,,,,,,,,,,,,,,,,,,,,,,,,,,,,,,,,,,,,
,,6563617d6c7549dfa0c5e854,2023-12-14_20h05.52.401,kallum_motion_pilot,2023.2.3,Win32,45.45454545,6563617d6c7549dfa0c5e854,657bb317c8798c6608bceb3f,657bb46df98be90186afd73b,0.151,0.151,1,12,174,65,1,onethree,,,,,,,,,,,,,,,,,,,,,,,,,,,,,,,,,,,,,,,,,,,,,,,,,,,,,,,,,,,,,,,,,,,,,,,,,,,,,,,,,,,,,,,,,,,,,,,,,,,,,,,,,,,,,,,,,,,,,,,,,,,,,,,,,,,,,,,
,,6563617d6c7549dfa0c5e854,2023-12-14_20h05.52.401,kallum_motion_pilot,2023.2.3,Win32,45.45454545,6563617d6c7549dfa0c5e854,657bb317c8798c6608bceb3f,657bb46df98be90186afd73b,0.152,0.152,1,13,175,93,1,seveneight,,,,,,,,,,,,,,,,,,,,,,,,,,,,,,,,,,,,,,,,,,,,,,,,,,,,,,,,,,,,,,,,,,,,,,,,,,,,,,,,,,,,,,,,,,,,,,,,,,,,,,,,,,,,,,,,,,,,,,,,,,,,,,,,,,,,,,,
,,6563617d6c7549dfa0c5e854,2023-12-14_20h05.52.401,kallum_motion_pilot,2023.2.3,Win32,45.45454545,6563617d6c7549dfa0c5e854,657bb317c8798c6608bceb3f,657bb46df98be90186afd73b,0.152,0.153,1,14,176,88,1,fivesix,,,,,,,,,,,,,,,,,,,,,,,,,,,,,,,,,,,,,,,,,,,,,,,,,,,,,,,,,,,,,,,,,,,,,,,,,,,,,,,,,,,,,,,,,,,,,,,,,,,,,,,,,,,,,,,,,,,,,,,,,,,,,,,,,,,,,,,
,,6563617d6c7549dfa0c5e854,2023-12-14_20h05.52.401,kallum_motion_pilot,2023.2.3,Win32,45.45454545,6563617d6c7549dfa0c5e854,657bb317c8798c6608bceb3f,657bb46df98be90186afd73b,0.153,0.153,1,15,177,79,1,eightseven,,,,,,,,,,,,,,,,,,,,,,,,,,,,,,,,,,,,,,,,,,,,,,,,,,,,,,,,,,,,,,,,,,,,,,,,,,,,,,,,,,,,,,,,,,,,,,,,,,,,,,,,,,,,,,,,,,,,,,,,,,,,,,,,,,,,,,,
,,6563617d6c7549dfa0c5e854,2023-12-14_20h05.52.401,kallum_motion_pilot,2023.2.3,Win32,45.45454545,6563617d6c7549dfa0c5e854,657bb317c8798c6608bceb3f,657bb46df98be90186afd73b,0.153,0.153,1,16,178,20,1,threeone,,,,,,,,,,,,,,,,,,,,,,,,,,,,,,,,,,,,,,,,,,,,,,,,,,,,,,,,,,,,,,,,,,,,,,,,,,,,,,,,,,,,,,,,,,,,,,,,,,,,,,,,,,,,,,,,,,,,,,,,,,,,,,,,,,,,,,,
,,6563617d6c7549dfa0c5e854,2023-12-14_20h05.52.401,kallum_motion_pilot,2023.2.3,Win32,45.45454545,6563617d6c7549dfa0c5e854,657bb317c8798c6608bceb3f,657bb46df98be90186afd73b,0.154,0.154,1,17,179,158,1,eightsix,,,,,,,,,,,,,,,,,,,,,,,,,,,,,,,,,,,,,,,,,,,,,,,,,,,,,,,,,,,,,,,,,,,,,,,,,,,,,,,,,,,,,,,,,,,,,,,,,,,,,,,,,,,,,,,,,,,,,,,,,,,,,,,,,,,,,,,
,,6563617d6c7549dfa0c5e854,2023-12-14_20h05.52.401,kallum_motion_pilot,2023.2.3,Win32,45.45454545,6563617d6c7549dfa0c5e854,657bb317c8798c6608bceb3f,657bb46df98be90186afd73b,0.154,0.155,1,18,180,12,1,threeone,,,,,,,,,,,,,,,,,,,,,,,,,,,,,,,,,,,,,,,,,,,,,,,,,,,,,,,,,,,,,,,,,,,,,,,,,,,,,,,,,,,,,,,,,,,,,,,,,,,,,,,,,,,,,,,,,,,,,,,,,,,,,,,,,,,,,,,
,,6563617d6c7549dfa0c5e854,2023-12-14_20h05.52.401,kallum_motion_pilot,2023.2.3,Win32,45.45454545,6563617d6c7549dfa0c5e854,657bb317c8798c6608bceb3f,657bb46df98be90186afd73b,0.155,0.155,1,19,181,118,1,eightsix,,,,,,,,,,,,,,,,,,,,,,,,,,,,,,,,,,,,,,,,,,,,,,,,,,,,,,,,,,,,,,,,,,,,,,,,,,,,,,,,,,,,,,,,,,,,,,,,,,,,,,,,,,,,,,,,,,,,,,,,,,,,,,,,,,,,,,,
,,6563617d6c7549dfa0c5e854,2023-12-14_20h05.52.401,kallum_motion_pilot,2023.2.3,Win32,45.45454545,6563617d6c7549dfa0c5e854,657bb317c8798c6608bceb3f,657bb46df98be90186afd73b,0.155,0.156,1,20,182,98,1,sixfive,,,,,,,,,,,,,,,,,,,,,,,,,,,,,,,,,,,,,,,,,,,,,,,,,,,,,,,,,,,,,,,,,,,,,,,,,,,,,,,,,,,,,,,,,,,,,,,,,,,,,,,,,,,,,,,,,,,,,,,,,,,,,,,,,,,,,,,
,,6563617d6c7549dfa0c5e854,2023-12-14_20h05.52.401,kallum_motion_pilot,2023.2.3,Win32,45.45454545,6563617d6c7549dfa0c5e854,657bb317c8798c6608bceb3f,657bb46df98be90186afd73b,0.156,0.156,1,21,183,72,1,onetwo,,,,,,,,,,,,,,,,,,,,,,,,,,,,,,,,,,,,,,,,,,,,,,,,,,,,,,,,,,,,,,,,,,,,,,,,,,,,,,,,,,,,,,,,,,,,,,,,,,,,,,,,,,,,,,,,,,,,,,,,,,,,,,,,,,,,,,,
,,6563617d6c7549dfa0c5e854,2023-12-14_20h05.52.401,kallum_motion_pilot,2023.2.3,Win32,45.45454545,6563617d6c7549dfa0c5e854,657bb317c8798c6608bceb3f,657bb46df98be90186afd73b,0.156,0.157,1,22,184,130,1,sixfive,,,,,,,,,,,,,,,,,,,,,,,,,,,,,,,,,,,,,,,,,,,,,,,,,,,,,,,,,,,,,,,,,,,,,,,,,,,,,,,,,,,,,,,,,,,,,,,,,,,,,,,,,,,,,,,,,,,,,,,,,,,,,,,,,,,,,,,
,,6563617d6c7549dfa0c5e854,2023-12-14_20h05.52.401,kallum_motion_pilot,2023.2.3,Win32,45.45454545,6563617d6c7549dfa0c5e854,657bb317c8798c6608bceb3f,657bb46df98be90186afd73b,0.157,0.157,1,23,185,134,1,eightsix,,,,,,,,,,,,,,,,,,,,,,,,,,,,,,,,,,,,,,,,,,,,,,,,,,,,,,,,,,,,,,,,,,,,,,,,,,,,,,,,,,,,,,,,,,,,,,,,,,,,,,,,,,,,,,,,,,,,,,,,,,,,,,,,,,,,,,,
,,6563617d6c7549dfa0c5e854,2023-12-14_20h05.52.401,kallum_motion_pilot,2023.2.3,Win32,45.45454545,6563617d6c7549dfa0c5e854,657bb317c8798c6608bceb3f,657bb46df98be90186afd73b,0.158,0.159,1,24,186,101,1,seveneight,,,,,,,,,,,,,,,,,,,,,,,,,,,,,,,,,,,,,,,,,,,,,,,,,,,,,,,,,,,,,,,,,,,,,,,,,,,,,,,,,,,,,,,,,,,,,,,,,,,,,,,,,,,,,,,,,,,,,,,,,,,,,,,,,,,,,,,
,,6563617d6c7549dfa0c5e854,2023-12-14_20h05.52.401,kallum_motion_pilot,2023.2.3,Win32,45.45454545,6563617d6c7549dfa0c5e854,657bb317c8798c6608bceb3f,657bb46df98be90186afd73b,0.159,0.159,1,25,187,84,1,sevenfive,,,,,,,,,,,,,,,,,,,,,,,,,,,,,,,,,,,,,,,,,,,,,,,,,,,,,,,,,,,,,,,,,,,,,,,,,,,,,,,,,,,,,,,,,,,,,,,,,,,,,,,,,,,,,,,,,,,,,,,,,,,,,,,,,,,,,,,
,,6563617d6c7549dfa0c5e854,2023-12-14_20h05.52.401,kallum_motion_pilot,2023.2.3,Win32,45.45454545,6563617d6c7549dfa0c5e854,657bb317c8798c6608bceb3f,657bb46df98be90186afd73b,0.159,0.16,1,26,188,71,1,fourthree,,,,,,,,,,,,,,,,,,,,,,,,,,,,,,,,,,,,,,,,,,,,,,,,,,,,,,,,,,,,,,,,,,,,,,,,,,,,,,,,,,,,,,,,,,,,,,,,,,,,,,,,,,,,,,,,,,,,,,,,,,,,,,,,,,,,,,,
,,6563617d6c7549dfa0c5e854,2023-12-14_20h05.52.401,kallum_motion_pilot,2023.2.3,Win32,45.45454545,6563617d6c7549dfa0c5e854,657bb317c8798c6608bceb3f,657bb46df98be90186afd73b,0.16,0.16,1,27,189,62,1,fourtwo,,,,,,,,,,,,,,,,,,,,,,,,,,,,,,,,,,,,,,,,,,,,,,,,,,,,,,,,,,,,,,,,,,,,,,,,,,,,,,,,,,,,,,,,,,,,,,,,,,,,,,,,,,,,,,,,,,,,,,,,,,,,,,,,,,,,,,,
,,6563617d6c7549dfa0c5e854,2023-12-14_20h05.52.401,kallum_motion_pilot,2023.2.3,Win32,45.45454545,6563617d6c7549dfa0c5e854,657bb317c8798c6608bceb3f,657bb46df98be90186afd73b,0.161,0.161,1,28,190,121,1,fiveseven,,,,,,,,,,,,,,,,,,,,,,,,,,,,,,,,,,,,,,,,,,,,,,,,,,,,,,,,,,,,,,,,,,,,,,,,,,,,,,,,,,,,,,,,,,,,,,,,,,,,,,,,,,,,,,,,,,,,,,,,,,,,,,,,,,,,,,,
,,6563617d6c7549dfa0c5e854,2023-12-14_20h05.52.401,kallum_motion_pilot,2023.2.3,Win32,45.45454545,6563617d6c7549dfa0c5e854,657bb317c8798c6608bceb3f,657bb46df98be90186afd73b,0.161,0.161,1,29,191,60,1,threeone,,,,,,,,,,,,,,,,,,,,,,,,,,,,,,,,,,,,,,,,,,,,,,,,,,,,,,,,,,,,,,,,,,,,,,,,,,,,,,,,,,,,,,,,,,,,,,,,,,,,,,,,,,,,,,,,,,,,,,,,,,,,,,,,,,,,,,,
,,6563617d6c7549dfa0c5e854,2023-12-14_20h05.52.401,kallum_motion_pilot,2023.2.3,Win32,45.45454545,6563617d6c7549dfa0c5e854,657bb317c8798c6608bceb3f,657bb46df98be90186afd73b,0.161,0.162,1,30,192,148,1,sevenfive,,,,,,,,,,,,,,,,,,,,,,,,,,,,,,,,,,,,,,,,,,,,,,,,,,,,,,,,,,,,,,,,,,,,,,,,,,,,,,,,,,,,,,,,,,,,,,,,,,,,,,,,,,,,,,,,,,,,,,,,,,,,,,,,,,,,,,,
,,6563617d6c7549dfa0c5e854,2023-12-14_20h05.52.401,kallum_motion_pilot,2023.2.3,Win32,45.45454545,6563617d6c7549dfa0c5e854,657bb317c8798c6608bceb3f,657bb46df98be90186afd73b,0.162,0.163,1,31,193,57,1,onethree,,,,,,,,,,,,,,,,,,,,,,,,,,,,,,,,,,,,,,,,,,,,,,,,,,,,,,,,,,,,,,,,,,,,,,,,,,,,,,,,,,,,,,,,,,,,,,,,,,,,,,,,,,,,,,,,,,,,,,,,,,,,,,,,,,,,,,,
,,6563617d6c7549dfa0c5e854,2023-12-14_20h05.52.401,kallum_motion_pilot,2023.2.3,Win32,45.45454545,6563617d6c7549dfa0c5e854,657bb317c8798c6608bceb3f,657bb46df98be90186afd73b,0.163,0.163,1,32,194,86,1,eightsix,,,,,,,,,,,,,,,,,,,,,,,,,,,,,,,,,,,,,,,,,,,,,,,,,,,,,,,,,,,,,,,,,,,,,,,,,,,,,,,,,,,,,,,,,,,,,,,,,,,,,,,,,,,,,,,,,,,,,,,,,,,,,,,,,,,,,,,
,,6563617d6c7549dfa0c5e854,2023-12-14_20h05.52.401,kallum_motion_pilot,2023.2.3,Win32,45.45454545,6563617d6c7549dfa0c5e854,657bb317c8798c6608bceb3f,657bb46df98be90186afd73b,0.164,0.164,1,33,195,7,1,fourthree,,,,,,,,,,,,,,,,,,,,,,,,,,,,,,,,,,,,,,,,,,,,,,,,,,,,,,,,,,,,,,,,,,,,,,,,,,,,,,,,,,,,,,,,,,,,,,,,,,,,,,,,,,,,,,,,,,,,,,,,,,,,,,,,,,,,,,,
,,6563617d6c7549dfa0c5e854,2023-12-14_20h05.52.401,kallum_motion_pilot,2023.2.3,Win32,45.45454545,6563617d6c7549dfa0c5e854,657bb317c8798c6608bceb3f,657bb46df98be90186afd73b,0.164,0.164,1,34,196,115,1,sixeight,,,,,,,,,,,,,,,,,,,,,,,,,,,,,,,,,,,,,,,,,,,,,,,,,,,,,,,,,,,,,,,,,,,,,,,,,,,,,,,,,,,,,,,,,,,,,,,,,,,,,,,,,,,,,,,,,,,,,,,,,,,,,,,,,,,,,,,
,,6563617d6c7549dfa0c5e854,2023-12-14_20h05.52.401,kallum_motion_pilot,2023.2.3,Win32,45.45454545,6563617d6c7549dfa0c5e854,657bb317c8798c6608bceb3f,657bb46df98be90186afd73b,0.164,0.165,1,35,197,138,1,sixfive,,,,,,,,,,,,,,,,,,,,,,,,,,,,,,,,,,,,,,,,,,,,,,,,,,,,,,,,,,,,,,,,,,,,,,,,,,,,,,,,,,,,,,,,,,,,,,,,,,,,,,,,,,,,,,,,,,,,,,,,,,,,,,,,,,,,,,,
,,6563617d6c7549dfa0c5e854,2023-12-14_20h05.52.401,kallum_motion_pilot,2023.2.3,Win32,45.45454545,6563617d6c7549dfa0c5e854,657bb317c8798c6608bceb3f,657bb46df98be90186afd73b,0.165,0.166,1,36,198,123,1,sixeight,,,,,,,,,,,,,,,,,,,,,,,,,,,,,,,,,,,,,,,,,,,,,,,,,,,,,,,,,,,,,,,,,,,,,,,,,,,,,,,,,,,,,,,,,,,,,,,,,,,,,,,,,,,,,,,,,,,,,,,,,,,,,,,,,,,,,,,
,,6563617d6c7549dfa0c5e854,2023-12-14_20h05.52.401,kallum_motion_pilot,2023.2.3,Win32,45.45454545,6563617d6c7549dfa0c5e854,657bb317c8798c6608bceb3f,657bb46df98be90186afd73b,0.166,0.166,1,37,199,70,1,fourtwo,,,,,,,,,,,,,,,,,,,,,,,,,,,,,,,,,,,,,,,,,,,,,,,,,,,,,,,,,,,,,,,,,,,,,,,,,,,,,,,,,,,,,,,,,,,,,,,,,,,,,,,,,,,,,,,,,,,,,,,,,,,,,,,,,,,,,,,
,,6563617d6c7549dfa0c5e854,2023-12-14_20h05.52.401,kallum_motion_pilot,2023.2.3,Win32,45.45454545,6563617d6c7549dfa0c5e854,657bb317c8798c6608bceb3f,657bb46df98be90186afd73b,0.167,0.167,1,38,200,22,1,fourtwo,,,,,,,,,,,,,,,,,,,,,,,,,,,,,,,,,,,,,,,,,,,,,,,,,,,,,,,,,,,,,,,,,,,,,,,,,,,,,,,,,,,,,,,,,,,,,,,,,,,,,,,,,,,,,,,,,,,,,,,,,,,,,,,,,,,,,,,
,,6563617d6c7549dfa0c5e854,2023-12-14_20h05.52.401,kallum_motion_pilot,2023.2.3,Win32,45.45454545,6563617d6c7549dfa0c5e854,657bb317c8798c6608bceb3f,657bb46df98be90186afd73b,0.167,0.168,1,39,201,51,1,twofour,,,,,,,,,,,,,,,,,,,,,,,,,,,,,,,,,,,,,,,,,,,,,,,,,,,,,,,,,,,,,,,,,,,,,,,,,,,,,,,,,,,,,,,,,,,,,,,,,,,,,,,,,,,,,,,,,,,,,,,,,,,,,,,,,,,,,,,
,,6563617d6c7549dfa0c5e854,2023-12-14_20h05.52.401,kallum_motion_pilot,2023.2.3,Win32,45.45454545,6563617d6c7549dfa0c5e854,657bb317c8798c6608bceb3f,657bb46df98be90186afd73b,0.168,0.168,1,40,202,61,1,threefour,,,,,,,,,,,,,,,,,,,,,,,,,,,,,,,,,,,,,,,,,,,,,,,,,,,,,,,,,,,,,,,,,,,,,,,,,,,,,,,,,,,,,,,,,,,,,,,,,,,,,,,,,,,,,,,,,,,,,,,,,,,,,,,,,,,,,,,
,,6563617d6c7549dfa0c5e854,2023-12-14_20h05.52.401,kallum_motion_pilot,2023.2.3,Win32,45.45454545,6563617d6c7549dfa0c5e854,657bb317c8798c6608bceb3f,657bb46df98be90186afd73b,0.168,0.168,1,41,203,95,1,eightseven,,,,,,,,,,,,,,,,,,,,,,,,,,,,,,,,,,,,,,,,,,,,,,,,,,,,,,,,,,,,,,,,,,,,,,,,,,,,,,,,,,,,,,,,,,,,,,,,,,,,,,,,,,,,,,,,,,,,,,,,,,,,,,,,,,,,,,,
,,6563617d6c7549dfa0c5e854,2023-12-14_20h05.52.401,kallum_motion_pilot,2023.2.3,Win32,45.45454545,6563617d6c7549dfa0c5e854,657bb317c8798c6608bceb3f,657bb46df98be90186afd73b,0.168,0.168,1,42,204,136,1,fivesix,,,,,,,,,,,,,,,,,,,,,,,,,,,,,,,,,,,,,,,,,,,,,,,,,,,,,,,,,,,,,,,,,,,,,,,,,,,,,,,,,,,,,,,,,,,,,,,,,,,,,,,,,,,,,,,,,,,,,,,,,,,,,,,,,,,,,,,
,,6563617d6c7549dfa0c5e854,2023-12-14_20h05.52.401,kallum_motion_pilot,2023.2.3,Win32,45.45454545,6563617d6c7549dfa0c5e854,657bb317c8798c6608bceb3f,657bb46df98be90186afd73b,0.169,0.17,1,43,205,106,1,sixfive,,,,,,,,,,,,,,,,,,,,,,,,,,,,,,,,,,,,,,,,,,,,,,,,,,,,,,,,,,,,,,,,,,,,,,,,,,,,,,,,,,,,,,,,,,,,,,,,,,,,,,,,,,,,,,,,,,,,,,,,,,,,,,,,,,,,,,,
,,6563617d6c7549dfa0c5e854,2023-12-14_20h05.52.401,kallum_motion_pilot,2023.2.3,Win32,45.45454545,6563617d6c7549dfa0c5e854,657bb317c8798c6608bceb3f,657bb46df98be90186afd73b,0.171,0.171,1,44,206,30,1,fourtwo,,,,,,,,,,,,,,,,,,,,,,,,,,,,,,,,,,,,,,,,,,,,,,,,,,,,,,,,,,,,,,,,,,,,,,,,,,,,,,,,,,,,,,,,,,,,,,,,,,,,,,,,,,,,,,,,,,,,,,,,,,,,,,,,,,,,,,,
,,6563617d6c7549dfa0c5e854,2023-12-14_20h05.52.401,kallum_motion_pilot,2023.2.3,Win32,45.45454545,6563617d6c7549dfa0c5e854,657bb317c8798c6608bceb3f,657bb46df98be90186afd73b,0.171,0.172,1,45,207,2,1,twoone,,,,,,,,,,,,,,,,,,,,,,,,,,,,,,,,,,,,,,,,,,,,,,,,,,,,,,,,,,,,,,,,,,,,,,,,,,,,,,,,,,,,,,,,,,,,,,,,,,,,,,,,,,,,,,,,,,,,,,,,,,,,,,,,,,,,,,,
,,6563617d6c7549dfa0c5e854,2023-12-14_20h05.52.401,kallum_motion_pilot,2023.2.3,Win32,45.45454545,6563617d6c7549dfa0c5e854,657bb317c8798c6608bceb3f,657bb46df98be90186afd73b,0.172,0.172,1,46,208,67,1,twofour,,,,,,,,,,,,,,,,,,,,,,,,,,,,,,,,,,,,,,,,,,,,,,,,,,,,,,,,,,,,,,,,,,,,,,,,,,,,,,,,,,,,,,,,,,,,,,,,,,,,,,,,,,,,,,,,,,,,,,,,,,,,,,,,,,,,,,,
,,6563617d6c7549dfa0c5e854,2023-12-14_20h05.52.401,kallum_motion_pilot,2023.2.3,Win32,45.45454545,6563617d6c7549dfa0c5e854,657bb317c8798c6608bceb3f,657bb46df98be90186afd73b,0.172,0.173,1,47,209,90,1,sixfive,,,,,,,,,,,,,,,,,,,,,,,,,,,,,,,,,,,,,,,,,,,,,,,,,,,,,,,,,,,,,,,,,,,,,,,,,,,,,,,,,,,,,,,,,,,,,,,,,,,,,,,,,,,,,,,,,,,,,,,,,,,,,,,,,,,,,,,
,,6563617d6c7549dfa0c5e854,2023-12-14_20h05.52.401,kallum_motion_pilot,2023.2.3,Win32,45.45454545,6563617d6c7549dfa0c5e854,657bb317c8798c6608bceb3f,657bb46df98be90186afd73b,0.173,0.173,1,48,210,80,1,fivesix,,,,,,,,,,,,,,,,,,,,,,,,,,,,,,,,,,,,,,,,,,,,,,,,,,,,,,,,,,,,,,,,,,,,,,,,,,,,,,,,,,,,,,,,,,,,,,,,,,,,,,,,,,,,,,,,,,,,,,,,,,,,,,,,,,,,,,,
,,6563617d6c7549dfa0c5e854,2023-12-14_20h05.52.401,kallum_motion_pilot,2023.2.3,Win32,45.45454545,6563617d6c7549dfa0c5e854,657bb317c8798c6608bceb3f,657bb46df98be90186afd73b,0.173,0.173,1,49,211,46,1,fourtwo,,,,,,,,,,,,,,,,,,,,,,,,,,,,,,,,,,,,,,,,,,,,,,,,,,,,,,,,,,,,,,,,,,,,,,,,,,,,,,,,,,,,,,,,,,,,,,,,,,,,,,,,,,,,,,,,,,,,,,,,,,,,,,,,,,,,,,,
,,6563617d6c7549dfa0c5e854,2023-12-14_20h05.52.401,kallum_motion_pilot,2023.2.3,Win32,45.45454545,6563617d6c7549dfa0c5e854,657bb317c8798c6608bceb3f,657bb46df98be90186afd73b,0.173,0.174,1,50,212,144,1,fivesix,,,,,,,,,,,,,,,,,,,,,,,,,,,,,,,,,,,,,,,,,,,,,,,,,,,,,,,,,,,,,,,,,,,,,,,,,,,,,,,,,,,,,,,,,,,,,,,,,,,,,,,,,,,,,,,,,,,,,,,,,,,,,,,,,,,,,,,
,,6563617d6c7549dfa0c5e854,2023-12-14_20h05.52.401,kallum_motion_pilot,2023.2.3,Win32,45.45454545,6563617d6c7549dfa0c5e854,657bb317c8798c6608bceb3f,657bb46df98be90186afd73b,0.175,0.175,1,51,213,6,1,fourtwo,,,,,,,,,,,,,,,,,,,,,,,,,,,,,,,,,,,,,,,,,,,,,,,,,,,,,,,,,,,,,,,,,,,,,,,,,,,,,,,,,,,,,,,,,,,,,,,,,,,,,,,,,,,,,,,,,,,,,,,,,,,,,,,,,,,,,,,
,,6563617d6c7549dfa0c5e854,2023-12-14_20h05.52.401,kallum_motion_pilot,2023.2.3,Win32,45.45454545,6563617d6c7549dfa0c5e854,657bb317c8798c6608bceb3f,657bb46df98be90186afd73b,0.175,0.175,1,52,214,24,1,onetwo,,,,,,,,,,,,,,,,,,,,,,,,,,,,,,,,,,,,,,,,,,,,,,,,,,,,,,,,,,,,,,,,,,,,,,,,,,,,,,,,,,,,,,,,,,,,,,,,,,,,,,,,,,,,,,,,,,,,,,,,,,,,,,,,,,,,,,,
,,6563617d6c7549dfa0c5e854,2023-12-14_20h05.52.401,kallum_motion_pilot,2023.2.3,Win32,45.45454545,6563617d6c7549dfa0c5e854,657bb317c8798c6608bceb3f,657bb46df98be90186afd73b,0.176,0.176,1,53,215,150,1,eightsix,,,,,,,,,,,,,,,,,,,,,,,,,,,,,,,,,,,,,,,,,,,,,,,,,,,,,,,,,,,,,,,,,,,,,,,,,,,,,,,,,,,,,,,,,,,,,,,,,,,,,,,,,,,,,,,,,,,,,,,,,,,,,,,,,,,,,,,
,,6563617d6c7549dfa0c5e854,2023-12-14_20h05.52.401,kallum_motion_pilot,2023.2.3,Win32,45.45454545,6563617d6c7549dfa0c5e854,657bb317c8798c6608bceb3f,657bb46df98be90186afd73b,0.177,0.177,1,54,216,127,1,eightseven,,,,,,,,,,,,,,,,,,,,,,,,,,,,,,,,,,,,,,,,,,,,,,,,,,,,,,,,,,,,,,,,,,,,,,,,,,,,,,,,,,,,,,,,,,,,,,,,,,,,,,,,,,,,,,,,,,,,,,,,,,,,,,,,,,,,,,,
,,6563617d6c7549dfa0c5e854,2023-12-14_20h05.52.401,kallum_motion_pilot,2023.2.3,Win32,45.45454545,6563617d6c7549dfa0c5e854,657bb317c8798c6608bceb3f,657bb46df98be90186afd73b,0.177,0.177,1,55,217,129,1,fiveseven,,,,,,,,,,,,,,,,,,,,,,,,,,,,,,,,,,,,,,,,,,,,,,,,,,,,,,,,,,,,,,,,,,,,,,,,,,,,,,,,,,,,,,,,,,,,,,,,,,,,,,,,,,,,,,,,,,,,,,,,,,,,,,,,,,,,,,,
,,6563617d6c7549dfa0c5e854,2023-12-14_20h05.52.401,kallum_motion_pilot,2023.2.3,Win32,45.45454545,6563617d6c7549dfa0c5e854,657bb317c8798c6608bceb3f,657bb46df98be90186afd73b,0.177,0.178,1,56,218,63,1,fourthree,,,,,,,,,,,,,,,,,,,,,,,,,,,,,,,,,,,,,,,,,,,,,,,,,,,,,,,,,,,,,,,,,,,,,,,,,,,,,,,,,,,,,,,,,,,,,,,,,,,,,,,,,,,,,,,,,,,,,,,,,,,,,,,,,,,,,,,
,,6563617d6c7549dfa0c5e854,2023-12-14_20h05.52.401,kallum_motion_pilot,2023.2.3,Win32,45.45454545,6563617d6c7549dfa0c5e854,657bb317c8798c6608bceb3f,657bb46df98be90186afd73b,0.178,0.178,1,57,219,27,1,twofour,,,,,,,,,,,,,,,,,,,,,,,,,,,,,,,,,,,,,,,,,,,,,,,,,,,,,,,,,,,,,,,,,,,,,,,,,,,,,,,,,,,,,,,,,,,,,,,,,,,,,,,,,,,,,,,,,,,,,,,,,,,,,,,,,,,,,,,
,,6563617d6c7549dfa0c5e854,2023-12-14_20h05.52.401,kallum_motion_pilot,2023.2.3,Win32,45.45454545,6563617d6c7549dfa0c5e854,657bb317c8798c6608bceb3f,657bb46df98be90186afd73b,0.179,0.179,1,58,220,137,1,fiveseven,,,,,,,,,,,,,,,,,,,,,,,,,,,,,,,,,,,,,,,,,,,,,,,,,,,,,,,,,,,,,,,,,,,,,,,,,,,,,,,,,,,,,,,,,,,,,,,,,,,,,,,,,,,,,,,,,,,,,,,,,,,,,,,,,,,,,,,
,,6563617d6c7549dfa0c5e854,2023-12-14_20h05.52.401,kallum_motion_pilot,2023.2.3,Win32,45.45454545,6563617d6c7549dfa0c5e854,657bb317c8798c6608bceb3f,657bb46df98be90186afd73b,0.179,0.179,1,59,221,140,1,sevenfive,,,,,,,,,,,,,,,,,,,,,,,,,,,,,,,,,,,,,,,,,,,,,,,,,,,,,,,,,,,,,,,,,,,,,,,,,,,,,,,,,,,,,,,,,,,,,,,,,,,,,,,,,,,,,,,,,,,,,,,,,,,,,,,,,,,,,,,
,,6563617d6c7549dfa0c5e854,2023-12-14_20h05.52.401,kallum_motion_pilot,2023.2.3,Win32,45.45454545,6563617d6c7549dfa0c5e854,657bb317c8798c6608bceb3f,657bb46df98be90186afd73b,0.179,0.179,1,60,222,16,1,onetwo,,,,,,,,,,,,,,,,,,,,,,,,,,,,,,,,,,,,,,,,,,,,,,,,,,,,,,,,,,,,,,,,,,,,,,,,,,,,,,,,,,,,,,,,,,,,,,,,,,,,,,,,,,,,,,,,,,,,,,,,,,,,,,,,,,,,,,,
,,6563617d6c7549dfa0c5e854,2023-12-14_20h05.52.401,kallum_motion_pilot,2023.2.3,Win32,45.45454545,6563617d6c7549dfa0c5e854,657bb317c8798c6608bceb3f,657bb46df98be90186afd73b,0.18,0.18,1,61,223,157,1,seveneight,,,,,,,,,,,,,,,,,,,,,,,,,,,,,,,,,,,,,,,,,,,,,,,,,,,,,,,,,,,,,,,,,,,,,,,,,,,,,,,,,,,,,,,,,,,,,,,,,,,,,,,,,,,,,,,,,,,,,,,,,,,,,,,,,,,,,,,
,,6563617d6c7549dfa0c5e854,2023-12-14_20h05.52.401,kallum_motion_pilot,2023.2.3,Win32,45.45454545,6563617d6c7549dfa0c5e854,657bb317c8798c6608bceb3f,657bb46df98be90186afd73b,0.181,0.181,1,62,224,142,1,eightsix,,,,,,,,,,,,,,,,,,,,,,,,,,,,,,,,,,,,,,,,,,,,,,,,,,,,,,,,,,,,,,,,,,,,,,,,,,,,,,,,,,,,,,,,,,,,,,,,,,,,,,,,,,,,,,,,,,,,,,,,,,,,,,,,,,,,,,,
,,6563617d6c7549dfa0c5e854,2023-12-14_20h05.52.401,kallum_motion_pilot,2023.2.3,Win32,45.45454545,6563617d6c7549dfa0c5e854,657bb317c8798c6608bceb3f,657bb46df98be90186afd73b,0.182,0.182,1,63,225,10,1,twoone,,,,,,,,,,,,,,,,,,,,,,,,,,,,,,,,,,,,,,,,,,,,,,,,,,,,,,,,,,,,,,,,,,,,,,,,,,,,,,,,,,,,,,,,,,,,,,,,,,,,,,,,,,,,,,,,,,,,,,,,,,,,,,,,,,,,,,,
,,6563617d6c7549dfa0c5e854,2023-12-14_20h05.52.401,kallum_motion_pilot,2023.2.3,Win32,45.45454545,6563617d6c7549dfa0c5e854,657bb317c8798c6608bceb3f,657bb46df98be90186afd73b,0.182,0.182,1,64,226,145,1,fiveseven,,,,,,,,,,,,,,,,,,,,,,,,,,,,,,,,,,,,,,,,,,,,,,,,,,,,,,,,,,,,,,,,,,,,,,,,,,,,,,,,,,,,,,,,,,,,,,,,,,,,,,,,,,,,,,,,,,,,,,,,,,,,,,,,,,,,,,,
,,6563617d6c7549dfa0c5e854,2023-12-14_20h05.52.401,kallum_motion_pilot,2023.2.3,Win32,45.45454545,6563617d6c7549dfa0c5e854,657bb317c8798c6608bceb3f,657bb46df98be90186afd73b,0.183,0.183,1,65,227,85,1,seveneight,,,,,,,,,,,,,,,,,,,,,,,,,,,,,,,,,,,,,,,,,,,,,,,,,,,,,,,,,,,,,,,,,,,,,,,,,,,,,,,,,,,,,,,,,,,,,,,,,,,,,,,,,,,,,,,,,,,,,,,,,,,,,,,,,,,,,,,
,,6563617d6c7549dfa0c5e854,2023-12-14_20h05.52.401,kallum_motion_pilot,2023.2.3,Win32,45.45454545,6563617d6c7549dfa0c5e854,657bb317c8798c6608bceb3f,657bb46df98be90186afd73b,0.183,0.184,1,66,228,161,1,fiveseven,,,,,,,,,,,,,,,,,,,,,,,,,,,,,,,,,,,,,,,,,,,,,,,,,,,,,,,,,,,,,,,,,,,,,,,,,,,,,,,,,,,,,,,,,,,,,,,,,,,,,,,,,,,,,,,,,,,,,,,,,,,,,,,,,,,,,,,
,,6563617d6c7549dfa0c5e854,2023-12-14_20h05.52.401,kallum_motion_pilot,2023.2.3,Win32,45.45454545,6563617d6c7549dfa0c5e854,657bb317c8798c6608bceb3f,657bb46df98be90186afd73b,0.185,0.185,1,67,229,9,1,onethree,,,,,,,,,,,,,,,,,,,,,,,,,,,,,,,,,,,,,,,,,,,,,,,,,,,,,,,,,,,,,,,,,,,,,,,,,,,,,,,,,,,,,,,,,,,,,,,,,,,,,,,,,,,,,,,,,,,,,,,,,,,,,,,,,,,,,,,
,,6563617d6c7549dfa0c5e854,2023-12-14_20h05.52.401,kallum_motion_pilot,2023.2.3,Win32,45.45454545,6563617d6c7549dfa0c5e854,657bb317c8798c6608bceb3f,657bb46df98be90186afd73b,0.185,0.185,1,68,230,96,1,fivesix,,,,,,,,,,,,,,,,,,,,,,,,,,,,,,,,,,,,,,,,,,,,,,,,,,,,,,,,,,,,,,,,,,,,,,,,,,,,,,,,,,,,,,,,,,,,,,,,,,,,,,,,,,,,,,,,,,,,,,,,,,,,,,,,,,,,,,,
,,6563617d6c7549dfa0c5e854,2023-12-14_20h05.52.401,kallum_motion_pilot,2023.2.3,Win32,45.45454545,6563617d6c7549dfa0c5e854,657bb317c8798c6608bceb3f,657bb46df98be90186afd73b,0.186,0.186,1,69,231,74,1,twoone,,,,,,,,,,,,,,,,,,,,,,,,,,,,,,,,,,,,,,,,,,,,,,,,,,,,,,,,,,,,,,,,,,,,,,,,,,,,,,,,,,,,,,,,,,,,,,,,,,,,,,,,,,,,,,,,,,,,,,,,,,,,,,,,,,,,,,,
,,6563617d6c7549dfa0c5e854,2023-12-14_20h05.52.401,kallum_motion_pilot,2023.2.3,Win32,45.45454545,6563617d6c7549dfa0c5e854,657bb317c8798c6608bceb3f,657bb46df98be90186afd73b,0.186,0.187,1,70,232,68,1,threeone,,,,,,,,,,,,,,,,,,,,,,,,,,,,,,,,,,,,,,,,,,,,,,,,,,,,,,,,,,,,,,,,,,,,,,,,,,,,,,,,,,,,,,,,,,,,,,,,,,,,,,,,,,,,,,,,,,,,,,,,,,,,,,,,,,,,,,,
,,6563617d6c7549dfa0c5e854,2023-12-14_20h05.52.401,kallum_motion_pilot,2023.2.3,Win32,45.45454545,6563617d6c7549dfa0c5e854,657bb317c8798c6608bceb3f,657bb46df98be90186afd73b,0.187,0.187,1,71,233,36,1,threeone,,,,,,,,,,,,,,,,,,,,,,,,,,,,,,,,,,,,,,,,,,,,,,,,,,,,,,,,,,,,,,,,,,,,,,,,,,,,,,,,,,,,,,,,,,,,,,,,,,,,,,,,,,,,,,,,,,,,,,,,,,,,,,,,,,,,,,,
,,6563617d6c7549dfa0c5e854,2023-12-14_20h05.52.401,kallum_motion_pilot,2023.2.3,Win32,45.45454545,6563617d6c7549dfa0c5e854,657bb317c8798c6608bceb3f,657bb46df98be90186afd73b,0.187,0.188,1,72,234,19,1,twofour,,,,,,,,,,,,,,,,,,,,,,,,,,,,,,,,,,,,,,,,,,,,,,,,,,,,,,,,,,,,,,,,,,,,,,,,,,,,,,,,,,,,,,,,,,,,,,,,,,,,,,,,,,,,,,,,,,,,,,,,,,,,,,,,,,,,,,,
,,6563617d6c7549dfa0c5e854,2023-12-14_20h05.52.401,kallum_motion_pilot,2023.2.3,Win32,45.45454545,6563617d6c7549dfa0c5e854,657bb317c8798c6608bceb3f,657bb46df98be90186afd73b,0.188,0.188,1,73,235,29,1,threefour,,,,,,,,,,,,,,,,,,,,,,,,,,,,,,,,,,,,,,,,,,,,,,,,,,,,,,,,,,,,,,,,,,,,,,,,,,,,,,,,,,,,,,,,,,,,,,,,,,,,,,,,,,,,,,,,,,,,,,,,,,,,,,,,,,,,,,,
,,6563617d6c7549dfa0c5e854,2023-12-14_20h05.52.401,kallum_motion_pilot,2023.2.3,Win32,45.45454545,6563617d6c7549dfa0c5e854,657bb317c8798c6608bceb3f,657bb46df98be90186afd73b,0.188,0.188,1,74,236,152,1,fivesix,,,,,,,,,,,,,,,,,,,,,,,,,,,,,,,,,,,,,,,,,,,,,,,,,,,,,,,,,,,,,,,,,,,,,,,,,,,,,,,,,,,,,,,,,,,,,,,,,,,,,,,,,,,,,,,,,,,,,,,,,,,,,,,,,,,,,,,
,,6563617d6c7549dfa0c5e854,2023-12-14_20h05.52.401,kallum_motion_pilot,2023.2.3,Win32,45.45454545,6563617d6c7549dfa0c5e854,657bb317c8798c6608bceb3f,657bb46df98be90186afd73b,0.189,0.189,1,75,237,52,1,threeone,,,,,,,,,,,,,,,,,,,,,,,,,,,,,,,,,,,,,,,,,,,,,,,,,,,,,,,,,,,,,,,,,,,,,,,,,,,,,,,,,,,,,,,,,,,,,,,,,,,,,,,,,,,,,,,,,,,,,,,,,,,,,,,,,,,,,,,
,,6563617d6c7549dfa0c5e854,2023-12-14_20h05.52.401,kallum_motion_pilot,2023.2.3,Win32,45.45454545,6563617d6c7549dfa0c5e854,657bb317c8798c6608bceb3f,657bb46df98be90186afd73b,0.189,0.189,1,76,238,131,1,sixeight,,,,,,,,,,,,,,,,,,,,,,,,,,,,,,,,,,,,,,,,,,,,,,,,,,,,,,,,,,,,,,,,,,,,,,,,,,,,,,,,,,,,,,,,,,,,,,,,,,,,,,,,,,,,,,,,,,,,,,,,,,,,,,,,,,,,,,,
,,6563617d6c7549dfa0c5e854,2023-12-14_20h05.52.401,kallum_motion_pilot,2023.2.3,Win32,45.45454545,6563617d6c7549dfa0c5e854,657bb317c8798c6608bceb3f,657bb46df98be90186afd73b,0.189,0.191,1,77,239,83,1,sixeight,,,,,,,,,,,,,,,,,,,,,,,,,,,,,,,,,,,,,,,,,,,,,,,,,,,,,,,,,,,,,,,,,,,,,,,,,,,,,,,,,,,,,,,,,,,,,,,,,,,,,,,,,,,,,,,,,,,,,,,,,,,,,,,,,,,,,,,
,,6563617d6c7549dfa0c5e854,2023-12-14_20h05.52.401,kallum_motion_pilot,2023.2.3,Win32,45.45454545,6563617d6c7549dfa0c5e854,657bb317c8798c6608bceb3f,657bb46df98be90186afd73b,0.191,0.191,1,78,240,64,1,onetwo,,,,,,,,,,,,,,,,,,,,,,,,,,,,,,,,,,,,,,,,,,,,,,,,,,,,,,,,,,,,,,,,,,,,,,,,,,,,,,,,,,,,,,,,,,,,,,,,,,,,,,,,,,,,,,,,,,,,,,,,,,,,,,,,,,,,,,,
,,6563617d6c7549dfa0c5e854,2023-12-14_20h05.52.401,kallum_motion_pilot,2023.2.3,Win32,45.45454545,6563617d6c7549dfa0c5e854,657bb317c8798c6608bceb3f,657bb46df98be90186afd73b,0.192,0.193,1,79,241,35,1,twofour,,,,,,,,,,,,,,,,,,,,,,,,,,,,,,,,,,,,,,,,,,,,,,,,,,,,,,,,,,,,,,,,,,,,,,,,,,,,,,,,,,,,,,,,,,,,,,,,,,,,,,,,,,,,,,,,,,,,,,,,,,,,,,,,,,,,,,,
,,6563617d6c7549dfa0c5e854,2023-12-14_20h05.52.401,kallum_motion_pilot,2023.2.3,Win32,45.45454545,6563617d6c7549dfa0c5e854,657bb317c8798c6608bceb3f,657bb46df98be90186afd73b,0.193,0.193,1,80,242,113,1,fiveseven,,,,,,,,,,,,,,,,,,,,,,,,,,,,,,,,,,,,,,,,,,,,,,,,,,,,,,,,,,,,,,,,,,,,,,,,,,,,,,,,,,,,,,,,,,,,,,,,,,,,,,,,,,,,,,,,,,,,,,,,,,,,,,,,,,,,,,,
,,6563617d6c7549dfa0c5e854,2023-12-14_20h05.52.401,kallum_motion_pilot,2023.2.3,Win32,45.45454545,6563617d6c7549dfa0c5e854,657bb317c8798c6608bceb3f,657bb46df98be90186afd73b,0.193,0.193,1,81,243,105,1,fiveseven,,,,,,,,,,,,,,,,,,,,,,,,,,,,,,,,,,,,,,,,,,,,,,,,,,,,,,,,,,,,,,,,,,,,,,,,,,,,,,,,,,,,,,,,,,,,,,,,,,,,,,,,,,,,,,,,,,,,,,,,,,,,,,,,,,,,,,,
,,6563617d6c7549dfa0c5e854,2023-12-14_20h05.52.401,kallum_motion_pilot,2023.2.3,Win32,45.45454545,6563617d6c7549dfa0c5e854,657bb317c8798c6608bceb3f,657bb46df98be90186afd73b,0.193,0.194,1,82,244,37,1,threefour,,,,,,,,,,,,,,,,,,,,,,,,,,,,,,,,,,,,,,,,,,,,,,,,,,,,,,,,,,,,,,,,,,,,,,,,,,,,,,,,,,,,,,,,,,,,,,,,,,,,,,,,,,,,,,,,,,,,,,,,,,,,,,,,,,,,,,,
,,6563617d6c7549dfa0c5e854,2023-12-14_20h05.52.401,kallum_motion_pilot,2023.2.3,Win32,45.45454545,6563617d6c7549dfa0c5e854,657bb317c8798c6608bceb3f,657bb46df98be90186afd73b,0.194,0.195,1,83,245,82,1,sixfive,,,,,,,,,,,,,,,,,,,,,,,,,,,,,,,,,,,,,,,,,,,,,,,,,,,,,,,,,,,,,,,,,,,,,,,,,,,,,,,,,,,,,,,,,,,,,,,,,,,,,,,,,,,,,,,,,,,,,,,,,,,,,,,,,,,,,,,
,,6563617d6c7549dfa0c5e854,2023-12-14_20h05.52.401,kallum_motion_pilot,2023.2.3,Win32,45.45454545,6563617d6c7549dfa0c5e854,657bb317c8798c6608bceb3f,657bb46df98be90186afd73b,0.195,0.195,1,84,246,119,1,eightseven,,,,,,,,,,,,,,,,,,,,,,,,,,,,,,,,,,,,,,,,,,,,,,,,,,,,,,,,,,,,,,,,,,,,,,,,,,,,,,,,,,,,,,,,,,,,,,,,,,,,,,,,,,,,,,,,,,,,,,,,,,,,,,,,,,,,,,,
,,6563617d6c7549dfa0c5e854,2023-12-14_20h05.52.401,kallum_motion_pilot,2023.2.3,Win32,45.45454545,6563617d6c7549dfa0c5e854,657bb317c8798c6608bceb3f,657bb46df98be90186afd73b,0.195,0.195,1,85,247,109,1,seveneight,,,,,,,,,,,,,,,,,,,,,,,,,,,,,,,,,,,,,,,,,,,,,,,,,,,,,,,,,,,,,,,,,,,,,,,,,,,,,,,,,,,,,,,,,,,,,,,,,,,,,,,,,,,,,,,,,,,,,,,,,,,,,,,,,,,,,,,
,,6563617d6c7549dfa0c5e854,2023-12-14_20h05.52.401,kallum_motion_pilot,2023.2.3,Win32,45.45454545,6563617d6c7549dfa0c5e854,657bb317c8798c6608bceb3f,657bb46df98be90186afd73b,0.195,0.195,1,86,248,133,1,seveneight,,,,,,,,,,,,,,,,,,,,,,,,,,,,,,,,,,,,,,,,,,,,,,,,,,,,,,,,,,,,,,,,,,,,,,,,,,,,,,,,,,,,,,,,,,,,,,,,,,,,,,,,,,,,,,,,,,,,,,,,,,,,,,,,,,,,,,,
,,6563617d6c7549dfa0c5e854,2023-12-14_20h05.52.401,kallum_motion_pilot,2023.2.3,Win32,45.45454545,6563617d6c7549dfa0c5e854,657bb317c8798c6608bceb3f,657bb46df98be90186afd73b,0.196,0.197,1,87,249,59,1,twofour,,,,,,,,,,,,,,,,,,,,,,,,,,,,,,,,,,,,,,,,,,,,,,,,,,,,,,,,,,,,,,,,,,,,,,,,,,,,,,,,,,,,,,,,,,,,,,,,,,,,,,,,,,,,,,,,,,,,,,,,,,,,,,,,,,,,,,,
,,6563617d6c7549dfa0c5e854,2023-12-14_20h05.52.401,kallum_motion_pilot,2023.2.3,Win32,45.45454545,6563617d6c7549dfa0c5e854,657bb317c8798c6608bceb3f,657bb46df98be90186afd73b,0.197,0.197,1,88,250,40,1,onetwo,,,,,,,,,,,,,,,,,,,,,,,,,,,,,,,,,,,,,,,,,,,,,,,,,,,,,,,,,,,,,,,,,,,,,,,,,,,,,,,,,,,,,,,,,,,,,,,,,,,,,,,,,,,,,,,,,,,,,,,,,,,,,,,,,,,,,,,
,,6563617d6c7549dfa0c5e854,2023-12-14_20h05.52.401,kallum_motion_pilot,2023.2.3,Win32,45.45454545,6563617d6c7549dfa0c5e854,657bb317c8798c6608bceb3f,657bb46df98be90186afd73b,0.198,0.199,1,89,251,28,1,threeone,,,,,,,,,,,,,,,,,,,,,,,,,,,,,,,,,,,,,,,,,,,,,,,,,,,,,,,,,,,,,,,,,,,,,,,,,,,,,,,,,,,,,,,,,,,,,,,,,,,,,,,,,,,,,,,,,,,,,,,,,,,,,,,,,,,,,,,
,,6563617d6c7549dfa0c5e854,2023-12-14_20h05.52.401,kallum_motion_pilot,2023.2.3,Win32,45.45454545,6563617d6c7549dfa0c5e854,657bb317c8798c6608bceb3f,657bb46df98be90186afd73b,0.199,0.199,1,90,252,45,1,threefour,,,,,,,,,,,,,,,,,,,,,,,,,,,,,,,,,,,,,,,,,,,,,,,,,,,,,,,,,,,,,,,,,,,,,,,,,,,,,,,,,,,,,,,,,,,,,,,,,,,,,,,,,,,,,,,,,,,,,,,,,,,,,,,,,,,,,,,
,,6563617d6c7549dfa0c5e854,2023-12-14_20h05.52.401,kallum_motion_pilot,2023.2.3,Win32,45.45454545,6563617d6c7549dfa0c5e854,657bb317c8798c6608bceb3f,657bb46df98be90186afd73b,0.199,0.2,1,91,253,154,1,sixfive,,,,,,,,,,,,,,,,,,,,,,,,,,,,,,,,,,,,,,,,,,,,,,,,,,,,,,,,,,,,,,,,,,,,,,,,,,,,,,,,,,,,,,,,,,,,,,,,,,,,,,,,,,,,,,,,,,,,,,,,,,,,,,,,,,,,,,,
,,6563617d6c7549dfa0c5e854,2023-12-14_20h05.52.401,kallum_motion_pilot,2023.2.3,Win32,45.45454545,6563617d6c7549dfa0c5e854,657bb317c8798c6608bceb3f,657bb46df98be90186afd73b,0.202,0.203,1,92,254,143,1,eightseven,,,,,,,,,,,,,,,,,,,,,,,,,,,,,,,,,,,,,,,,,,,,,,,,,,,,,,,,,,,,,,,,,,,,,,,,,,,,,,,,,,,,,,,,,,,,,,,,,,,,,,,,,,,,,,,,,,,,,,,,,,,,,,,,,,,,,,,
,,6563617d6c7549dfa0c5e854,2023-12-14_20h05.52.401,kallum_motion_pilot,2023.2.3,Win32,45.45454545,6563617d6c7549dfa0c5e854,657bb317c8798c6608bceb3f,657bb46df98be90186afd73b,0.203,0.204,1,93,255,147,1,sixeight,,,,,,,,,,,,,,,,,,,,,,,,,,,,,,,,,,,,,,,,,,,,,,,,,,,,,,,,,,,,,,,,,,,,,,,,,,,,,,,,,,,,,,,,,,,,,,,,,,,,,,,,,,,,,,,,,,,,,,,,,,,,,,,,,,,,,,,
,,6563617d6c7549dfa0c5e854,2023-12-14_20h05.52.401,kallum_motion_pilot,2023.2.3,Win32,45.45454545,6563617d6c7549dfa0c5e854,657bb317c8798c6608bceb3f,657bb46df98be90186afd73b,0.204,0.204,1,94,256,102,1,eightsix,,,,,,,,,,,,,,,,,,,,,,,,,,,,,,,,,,,,,,,,,,,,,,,,,,,,,,,,,,,,,,,,,,,,,,,,,,,,,,,,,,,,,,,,,,,,,,,,,,,,,,,,,,,,,,,,,,,,,,,,,,,,,,,,,,,,,,,
,,6563617d6c7549dfa0c5e854,2023-12-14_20h05.52.401,kallum_motion_pilot,2023.2.3,Win32,45.45454545,6563617d6c7549dfa0c5e854,657bb317c8798c6608bceb3f,657bb46df98be90186afd73b,0.204,0.204,1,95,257,53,1,threefour,,,,,,,,,,,,,,,,,,,,,,,,,,,,,,,,,,,,,,,,,,,,,,,,,,,,,,,,,,,,,,,,,,,,,,,,,,,,,,,,,,,,,,,,,,,,,,,,,,,,,,,,,,,,,,,,,,,,,,,,,,,,,,,,,,,,,,,
,,6563617d6c7549dfa0c5e854,2023-12-14_20h05.52.401,kallum_motion_pilot,2023.2.3,Win32,45.45454545,6563617d6c7549dfa0c5e854,657bb317c8798c6608bceb3f,657bb46df98be90186afd73b,0.205,0.205,1,96,258,39,1,fourthree,,,,,,,,,,,,,,,,,,,,,,,,,,,,,,,,,,,,,,,,,,,,,,,,,,,,,,,,,,,,,,,,,,,,,,,,,,,,,,,,,,,,,,,,,,,,,,,,,,,,,,,,,,,,,,,,,,,,,,,,,,,,,,,,,,,,,,,
,,6563617d6c7549dfa0c5e854,2023-12-14_20h05.52.401,kallum_motion_pilot,2023.2.3,Win32,45.45454545,6563617d6c7549dfa0c5e854,657bb317c8798c6608bceb3f,657bb46df98be90186afd73b,0.206,0.206,1,97,259,3,1,twofour,,,,,,,,,,,,,,,,,,,,,,,,,,,,,,,,,,,,,,,,,,,,,,,,,,,,,,,,,,,,,,,,,,,,,,,,,,,,,,,,,,,,,,,,,,,,,,,,,,,,,,,,,,,,,,,,,,,,,,,,,,,,,,,,,,,,,,,
,,6563617d6c7549dfa0c5e854,2023-12-14_20h05.52.401,kallum_motion_pilot,2023.2.3,Win32,45.45454545,6563617d6c7549dfa0c5e854,657bb317c8798c6608bceb3f,657bb46df98be90186afd73b,0.206,0.206,1,98,260,122,1,sixfive,,,,,,,,,,,,,,,,,,,,,,,,,,,,,,,,,,,,,,,,,,,,,,,,,,,,,,,,,,,,,,,,,,,,,,,,,,,,,,,,,,,,,,,,,,,,,,,,,,,,,,,,,,,,,,,,,,,,,,,,,,,,,,,,,,,,,,,
,,6563617d6c7549dfa0c5e854,2023-12-14_20h05.52.401,kallum_motion_pilot,2023.2.3,Win32,45.45454545,6563617d6c7549dfa0c5e854,657bb317c8798c6608bceb3f,657bb46df98be90186afd73b,0.207,0.207,1,99,261,11,1,twofour,,,,,,,,,,,,,,,,,,,,,,,,,,,,,,,,,,,,,,,,,,,,,,,,,,,,,,,,,,,,,,,,,,,,,,,,,,,,,,,,,,,,,,,,,,,,,,,,,,,,,,,,,,,,,,,,,,,,,,,,,,,,,,,,,,,,,,,
,,6563617d6c7549dfa0c5e854,2023-12-14_20h05.52.401,kallum_motion_pilot,2023.2.3,Win32,45.45454545,6563617d6c7549dfa0c5e854,657bb317c8798c6608bceb3f,657bb46df98be90186afd73b,0.207,0.207,1,100,262,116,1,sevenfive,,,,,,,,,,,,,,,,,,,,,,,,,,,,,,,,,,,,,,,,,,,,,,,,,,,,,,,,,,,,,,,,,,,,,,,,,,,,,,,,,,,,,,,,,,,,,,,,,,,,,,,,,,,,,,,,,,,,,,,,,,,,,,,,,,,,,,,
,,6563617d6c7549dfa0c5e854,2023-12-14_20h05.52.401,kallum_motion_pilot,2023.2.3,Win32,45.45454545,6563617d6c7549dfa0c5e854,657bb317c8798c6608bceb3f,657bb46df98be90186afd73b,0.208,0.208,1,101,263,111,1,eightseven,,,,,,,,,,,,,,,,,,,,,,,,,,,,,,,,,,,,,,,,,,,,,,,,,,,,,,,,,,,,,,,,,,,,,,,,,,,,,,,,,,,,,,,,,,,,,,,,,,,,,,,,,,,,,,,,,,,,,,,,,,,,,,,,,,,,,,,
,,6563617d6c7549dfa0c5e854,2023-12-14_20h05.52.401,kallum_motion_pilot,2023.2.3,Win32,45.45454545,6563617d6c7549dfa0c5e854,657bb317c8798c6608bceb3f,657bb46df98be90186afd73b,0.209,0.209,1,102,264,17,1,onethree,,,,,,,,,,,,,,,,,,,,,,,,,,,,,,,,,,,,,,,,,,,,,,,,,,,,,,,,,,,,,,,,,,,,,,,,,,,,,,,,,,,,,,,,,,,,,,,,,,,,,,,,,,,,,,,,,,,,,,,,,,,,,,,,,,,,,,,
,,6563617d6c7549dfa0c5e854,2023-12-14_20h05.52.401,kallum_motion_pilot,2023.2.3,Win32,45.45454545,6563617d6c7549dfa0c5e854,657bb317c8798c6608bceb3f,657bb46df98be90186afd73b,0.209,0.209,1,103,265,43,1,twofour,,,,,,,,,,,,,,,,,,,,,,,,,,,,,,,,,,,,,,,,,,,,,,,,,,,,,,,,,,,,,,,,,,,,,,,,,,,,,,,,,,,,,,,,,,,,,,,,,,,,,,,,,,,,,,,,,,,,,,,,,,,,,,,,,,,,,,,
,,6563617d6c7549dfa0c5e854,2023-12-14_20h05.52.401,kallum_motion_pilot,2023.2.3,Win32,45.45454545,6563617d6c7549dfa0c5e854,657bb317c8798c6608bceb3f,657bb46df98be90186afd73b,0.209,0.209,1,104,266,25,1,onethree,,,,,,,,,,,,,,,,,,,,,,,,,,,,,,,,,,,,,,,,,,,,,,,,,,,,,,,,,,,,,,,,,,,,,,,,,,,,,,,,,,,,,,,,,,,,,,,,,,,,,,,,,,,,,,,,,,,,,,,,,,,,,,,,,,,,,,,
,,6563617d6c7549dfa0c5e854,2023-12-14_20h05.52.401,kallum_motion_pilot,2023.2.3,Win32,45.45454545,6563617d6c7549dfa0c5e854,657bb317c8798c6608bceb3f,657bb46df98be90186afd73b,0.21,0.21,1,105,267,91,1,sixeight,,,,,,,,,,,,,,,,,,,,,,,,,,,,,,,,,,,,,,,,,,,,,,,,,,,,,,,,,,,,,,,,,,,,,,,,,,,,,,,,,,,,,,,,,,,,,,,,,,,,,,,,,,,,,,,,,,,,,,,,,,,,,,,,,,,,,,,
,,6563617d6c7549dfa0c5e854,2023-12-14_20h05.52.401,kallum_motion_pilot,2023.2.3,Win32,45.45454545,6563617d6c7549dfa0c5e854,657bb317c8798c6608bceb3f,657bb46df98be90186afd73b,0.21,0.21,1,106,268,44,1,threeone,,,,,,,,,,,,,,,,,,,,,,,,,,,,,,,,,,,,,,,,,,,,,,,,,,,,,,,,,,,,,,,,,,,,,,,,,,,,,,,,,,,,,,,,,,,,,,,,,,,,,,,,,,,,,,,,,,,,,,,,,,,,,,,,,,,,,,,
,,6563617d6c7549dfa0c5e854,2023-12-14_20h05.52.401,kallum_motion_pilot,2023.2.3,Win32,45.45454545,6563617d6c7549dfa0c5e854,657bb317c8798c6608bceb3f,657bb46df98be90186afd73b,0.21,0.211,1,107,269,81,1,fiveseven,,,,,,,,,,,,,,,,,,,,,,,,,,,,,,,,,,,,,,,,,,,,,,,,,,,,,,,,,,,,,,,,,,,,,,,,,,,,,,,,,,,,,,,,,,,,,,,,,,,,,,,,,,,,,,,,,,,,,,,,,,,,,,,,,,,,,,,
,,6563617d6c7549dfa0c5e854,2023-12-14_20h05.52.401,kallum_motion_pilot,2023.2.3,Win32,45.45454545,6563617d6c7549dfa0c5e854,657bb317c8798c6608bceb3f,657bb46df98be90186afd73b,0.211,0.211,1,108,270,153,1,fiveseven,,,,,,,,,,,,,,,,,,,,,,,,,,,,,,,,,,,,,,,,,,,,,,,,,,,,,,,,,,,,,,,,,,,,,,,,,,,,,,,,,,,,,,,,,,,,,,,,,,,,,,,,,,,,,,,,,,,,,,,,,,,,,,,,,,,,,,,
,,6563617d6c7549dfa0c5e854,2023-12-14_20h05.52.401,kallum_motion_pilot,2023.2.3,Win32,45.45454545,6563617d6c7549dfa0c5e854,657bb317c8798c6608bceb3f,657bb46df98be90186afd73b,0.212,0.212,1,109,271,149,1,seveneight,,,,,,,,,,,,,,,,,,,,,,,,,,,,,,,,,,,,,,,,,,,,,,,,,,,,,,,,,,,,,,,,,,,,,,,,,,,,,,,,,,,,,,,,,,,,,,,,,,,,,,,,,,,,,,,,,,,,,,,,,,,,,,,,,,,,,,,
,,6563617d6c7549dfa0c5e854,2023-12-14_20h05.52.401,kallum_motion_pilot,2023.2.3,Win32,45.45454545,6563617d6c7549dfa0c5e854,657bb317c8798c6608bceb3f,657bb46df98be90186afd73b,0.212,0.212,1,110,272,42,1,twoone,,,,,,,,,,,,,,,,,,,,,,,,,,,,,,,,,,,,,,,,,,,,,,,,,,,,,,,,,,,,,,,,,,,,,,,,,,,,,,,,,,,,,,,,,,,,,,,,,,,,,,,,,,,,,,,,,,,,,,,,,,,,,,,,,,,,,,,
,,6563617d6c7549dfa0c5e854,2023-12-14_20h05.52.401,kallum_motion_pilot,2023.2.3,Win32,45.45454545,6563617d6c7549dfa0c5e854,657bb317c8798c6608bceb3f,657bb46df98be90186afd73b,0.213,0.213,1,111,273,126,1,eightsix,,,,,,,,,,,,,,,,,,,,,,,,,,,,,,,,,,,,,,,,,,,,,,,,,,,,,,,,,,,,,,,,,,,,,,,,,,,,,,,,,,,,,,,,,,,,,,,,,,,,,,,,,,,,,,,,,,,,,,,,,,,,,,,,,,,,,,,
,,6563617d6c7549dfa0c5e854,2023-12-14_20h05.52.401,kallum_motion_pilot,2023.2.3,Win32,45.45454545,6563617d6c7549dfa0c5e854,657bb317c8798c6608bceb3f,657bb46df98be90186afd73b,0.214,0.214,1,112,274,114,1,sixfive,,,,,,,,,,,,,,,,,,,,,,,,,,,,,,,,,,,,,,,,,,,,,,,,,,,,,,,,,,,,,,,,,,,,,,,,,,,,,,,,,,,,,,,,,,,,,,,,,,,,,,,,,,,,,,,,,,,,,,,,,,,,,,,,,,,,,,,
,,6563617d6c7549dfa0c5e854,2023-12-14_20h05.52.401,kallum_motion_pilot,2023.2.3,Win32,45.45454545,6563617d6c7549dfa0c5e854,657bb317c8798c6608bceb3f,657bb46df98be90186afd73b,0.215,0.215,1,113,275,112,1,fivesix,,,,,,,,,,,,,,,,,,,,,,,,,,,,,,,,,,,,,,,,,,,,,,,,,,,,,,,,,,,,,,,,,,,,,,,,,,,,,,,,,,,,,,,,,,,,,,,,,,,,,,,,,,,,,,,,,,,,,,,,,,,,,,,,,,,,,,,
,,6563617d6c7549dfa0c5e854,2023-12-14_20h05.52.401,kallum_motion_pilot,2023.2.3,Win32,45.45454545,6563617d6c7549dfa0c5e854,657bb317c8798c6608bceb3f,657bb46df98be90186afd73b,0.215,0.216,1,114,276,99,1,sixeight,,,,,,,,,,,,,,,,,,,,,,,,,,,,,,,,,,,,,,,,,,,,,,,,,,,,,,,,,,,,,,,,,,,,,,,,,,,,,,,,,,,,,,,,,,,,,,,,,,,,,,,,,,,,,,,,,,,,,,,,,,,,,,,,,,,,,,,
,,6563617d6c7549dfa0c5e854,2023-12-14_20h05.52.401,kallum_motion_pilot,2023.2.3,Win32,45.45454545,6563617d6c7549dfa0c5e854,657bb317c8798c6608bceb3f,657bb46df98be90186afd73b,0.216,0.216,1,115,277,23,1,fourthree,,,,,,,,,,,,,,,,,,,,,,,,,,,,,,,,,,,,,,,,,,,,,,,,,,,,,,,,,,,,,,,,,,,,,,,,,,,,,,,,,,,,,,,,,,,,,,,,,,,,,,,,,,,,,,,,,,,,,,,,,,,,,,,,,,,,,,,
,,6563617d6c7549dfa0c5e854,2023-12-14_20h05.52.401,kallum_motion_pilot,2023.2.3,Win32,45.45454545,6563617d6c7549dfa0c5e854,657bb317c8798c6608bceb3f,657bb46df98be90186afd73b,0.216,0.216,1,116,278,1,1,onethree,,,,,,,,,,,,,,,,,,,,,,,,,,,,,,,,,,,,,,,,,,,,,,,,,,,,,,,,,,,,,,,,,,,,,,,,,,,,,,,,,,,,,,,,,,,,,,,,,,,,,,,,,,,,,,,,,,,,,,,,,,,,,,,,,,,,,,,
,,6563617d6c7549dfa0c5e854,2023-12-14_20h05.52.401,kallum_motion_pilot,2023.2.3,Win32,45.45454545,6563617d6c7549dfa0c5e854,657bb317c8798c6608bceb3f,657bb46df98be90186afd73b,0.216,0.217,1,117,279,100,1,sevenfive,,,,,,,,,,,,,,,,,,,,,,,,,,,,,,,,,,,,,,,,,,,,,,,,,,,,,,,,,,,,,,,,,,,,,,,,,,,,,,,,,,,,,,,,,,,,,,,,,,,,,,,,,,,,,,,,,,,,,,,,,,,,,,,,,,,,,,,
,,6563617d6c7549dfa0c5e854,2023-12-14_20h05.52.401,kallum_motion_pilot,2023.2.3,Win32,45.45454545,6563617d6c7549dfa0c5e854,657bb317c8798c6608bceb3f,657bb46df98be90186afd73b,0.217,0.217,1,118,280,117,1,seveneight,,,,,,,,,,,,,,,,,,,,,,,,,,,,,,,,,,,,,,,,,,,,,,,,,,,,,,,,,,,,,,,,,,,,,,,,,,,,,,,,,,,,,,,,,,,,,,,,,,,,,,,,,,,,,,,,,,,,,,,,,,,,,,,,,,,,,,,
