startup.started,startup.stopped,Prolific ID*,date,expName,psychopyVersion,OS,frameRate,participant,study_id,session,stimpositions.started,stimpositions.stopped,hardcoded_stimulus_positions.thisRepN,hardcoded_stimulus_positions.thisTrialN,hardcoded_stimulus_positions.thisN,hardcoded_stimulus_positions.thisIndex,hardcoded_stimulus_positions.ran,StimulusPos,stimorientation.started,stimorientation.stopped,prac_stimorientation_import_loop.thisRepN,prac_stimorientation_import_loop.thisTrialN,prac_stimorientation_import_loop.thisN,prac_stimorientation_import_loop.thisIndex,prac_stimorientation_import_loop.ran,Stimorientation,welcome_instr.started,welcome_instr.stopped,key_resp.keys,key_resp.rt,key_resp.duration,response_steppedout_1.started,response_steppedout_1.stopped,key_resp_20.keys,key_resp_20.rt,key_resp_20.duration,response_steppedout_2.started,response_steppedout_2.stopped,key_resp_19.keys,key_resp_19.rt,key_resp_19.duration,stim_response_instr.started,stim_response_instr.stopped,key_resp_15.keys,key_resp_15.rt,key_resp_15.duration,direction_instr_2.started,direction_instr_2.stopped,key_resp_9.keys,key_resp_9.rt,key_resp_9.duration,instr_prac.started,instr_prac.stopped,key_resp_10.keys,key_resp_10.rt,key_resp_10.duration,Stim1_display_prac.started,Stim1_display_prac.stopped,Ecc,Circle1_ori,Circle2_ori,response_prac.started,similarity,response_time,response_prac.stopped,mouse_5.x,mouse_5.y,mouse_5.leftButton,mouse_5.midButton,mouse_5.rightButton,mouse_5.clicked_name,responseprac_feedback.started,responseprac_feedback.stopped,summary2_prac.started,summary2_prac.stopped,mouse_6.x,mouse_6.y,mouse_6.leftButton,mouse_6.midButton,mouse_6.rightButton,mouse_6.clicked_name,duringprac.thisRepN,duringprac.thisTrialN,duringprac.thisN,duringprac.thisIndex,duringprac.ran,begin.started,begin.stopped,key_resp_22.keys,key_resp_22.rt,key_resp_22.duration,Stim1_display.started,Stim1_display.stopped,circle1_ori,circle2_ori,blank.started,blank.stopped,response.started,response.stopped,mouse.x,mouse.y,mouse.leftButton,mouse.midButton,mouse.rightButton,mouse.clicked_name,response_2.started,response_2.stopped,mouse_2.x,mouse_2.y,mouse_2.leftButton,mouse_2.midButton,mouse_2.rightButton,mouse_2.clicked_name,special_trial.started,special_trial.stopped,catch_1.started,catch_1.stopped,mouse_3.x,mouse_3.y,mouse_3.leftButton,mouse_3.midButton,mouse_3.rightButton,catchresponse,catchnumber,response_time_catch,Catch,response_sum.started,response_sum.stopped,mouse_11.x,mouse_11.y,mouse_11.leftButton,mouse_11.midButton,mouse_11.rightButton,main_trial.thisRepN,main_trial.thisTrialN,main_trial.thisN,main_trial.thisIndex,main_trial.ran,Orientationtrialno,xcircle1_ori,xcircle2_ori,flip_presentation_sequence_for_double_pass.started,flip_presentation_sequence_for_double_pass.stopped,double_pass.thisRepN,double_pass.thisTrialN,double_pass.thisN,double_pass.thisIndex,double_pass.ran,goodbye.started,goodbye.stopped,key_resp_3.keys,key_resp_3.rt,key_resp_3.duration
0.0002,0.0003,65745708518a6ec1b4773387,2023-12-15_11h10.45.039,kallum_motion_pilot,2023.2.3,Win32,21.32196162,65745708518a6ec1b4773387,657bb317c8798c6608bceb3f,657bb47bc8798c6608bceb81,,,,,,,,,,,,,,,,,,,,,,,,,,,,,,,,,,,,,,,,,,,,,,,,,,,,,,,,,,,,,,,,,,,,,,,,,,,,,,,,,,,,,,,,,,,,,,,,,,,,,,,,,,,,,,,,,,,,,,,,,,,,,,,,,,,,,,,,,,,,,,,
,,65745708518a6ec1b4773387,2023-12-15_11h10.45.039,kallum_motion_pilot,2023.2.3,Win32,21.32196162,65745708518a6ec1b4773387,657bb317c8798c6608bceb3f,657bb47bc8798c6608bceb81,0.019,0.0191,0,0,0,3,1,twofour,,,,,,,,,,,,,,,,,,,,,,,,,,,,,,,,,,,,,,,,,,,,,,,,,,,,,,,,,,,,,,,,,,,,,,,,,,,,,,,,,,,,,,,,,,,,,,,,,,,,,,,,,,,,,,,,,,,,,,,,,,,,,,,,,,,,,,,
,,65745708518a6ec1b4773387,2023-12-15_11h10.45.039,kallum_motion_pilot,2023.2.3,Win32,21.32196162,65745708518a6ec1b4773387,657bb317c8798c6608bceb3f,657bb47bc8798c6608bceb81,0.0193,0.0193,0,1,1,148,1,sevenfive,,,,,,,,,,,,,,,,,,,,,,,,,,,,,,,,,,,,,,,,,,,,,,,,,,,,,,,,,,,,,,,,,,,,,,,,,,,,,,,,,,,,,,,,,,,,,,,,,,,,,,,,,,,,,,,,,,,,,,,,,,,,,,,,,,,,,,,
,,65745708518a6ec1b4773387,2023-12-15_11h10.45.039,kallum_motion_pilot,2023.2.3,Win32,21.32196162,65745708518a6ec1b4773387,657bb317c8798c6608bceb3f,657bb47bc8798c6608bceb81,0.0194,0.0194,0,2,2,64,1,onetwo,,,,,,,,,,,,,,,,,,,,,,,,,,,,,,,,,,,,,,,,,,,,,,,,,,,,,,,,,,,,,,,,,,,,,,,,,,,,,,,,,,,,,,,,,,,,,,,,,,,,,,,,,,,,,,,,,,,,,,,,,,,,,,,,,,,,,,,
,,65745708518a6ec1b4773387,2023-12-15_11h10.45.039,kallum_motion_pilot,2023.2.3,Win32,21.32196162,65745708518a6ec1b4773387,657bb317c8798c6608bceb3f,657bb47bc8798c6608bceb81,0.0196,0.0196,0,3,3,139,1,sixeight,,,,,,,,,,,,,,,,,,,,,,,,,,,,,,,,,,,,,,,,,,,,,,,,,,,,,,,,,,,,,,,,,,,,,,,,,,,,,,,,,,,,,,,,,,,,,,,,,,,,,,,,,,,,,,,,,,,,,,,,,,,,,,,,,,,,,,,
,,65745708518a6ec1b4773387,2023-12-15_11h10.45.039,kallum_motion_pilot,2023.2.3,Win32,21.32196162,65745708518a6ec1b4773387,657bb317c8798c6608bceb3f,657bb47bc8798c6608bceb81,0.0196,0.0197,0,4,4,104,1,fivesix,,,,,,,,,,,,,,,,,,,,,,,,,,,,,,,,,,,,,,,,,,,,,,,,,,,,,,,,,,,,,,,,,,,,,,,,,,,,,,,,,,,,,,,,,,,,,,,,,,,,,,,,,,,,,,,,,,,,,,,,,,,,,,,,,,,,,,,
,,65745708518a6ec1b4773387,2023-12-15_11h10.45.039,kallum_motion_pilot,2023.2.3,Win32,21.32196162,65745708518a6ec1b4773387,657bb317c8798c6608bceb3f,657bb47bc8798c6608bceb81,0.0197,0.0198,0,5,5,126,1,eightsix,,,,,,,,,,,,,,,,,,,,,,,,,,,,,,,,,,,,,,,,,,,,,,,,,,,,,,,,,,,,,,,,,,,,,,,,,,,,,,,,,,,,,,,,,,,,,,,,,,,,,,,,,,,,,,,,,,,,,,,,,,,,,,,,,,,,,,,
,,65745708518a6ec1b4773387,2023-12-15_11h10.45.039,kallum_motion_pilot,2023.2.3,Win32,21.32196162,65745708518a6ec1b4773387,657bb317c8798c6608bceb3f,657bb47bc8798c6608bceb81,0.0198,0.0198,0,6,6,12,1,threeone,,,,,,,,,,,,,,,,,,,,,,,,,,,,,,,,,,,,,,,,,,,,,,,,,,,,,,,,,,,,,,,,,,,,,,,,,,,,,,,,,,,,,,,,,,,,,,,,,,,,,,,,,,,,,,,,,,,,,,,,,,,,,,,,,,,,,,,
,,65745708518a6ec1b4773387,2023-12-15_11h10.45.039,kallum_motion_pilot,2023.2.3,Win32,21.32196162,65745708518a6ec1b4773387,657bb317c8798c6608bceb3f,657bb47bc8798c6608bceb81,0.0199,0.0199,0,7,7,140,1,sevenfive,,,,,,,,,,,,,,,,,,,,,,,,,,,,,,,,,,,,,,,,,,,,,,,,,,,,,,,,,,,,,,,,,,,,,,,,,,,,,,,,,,,,,,,,,,,,,,,,,,,,,,,,,,,,,,,,,,,,,,,,,,,,,,,,,,,,,,,
,,65745708518a6ec1b4773387,2023-12-15_11h10.45.039,kallum_motion_pilot,2023.2.3,Win32,21.32196162,65745708518a6ec1b4773387,657bb317c8798c6608bceb3f,657bb47bc8798c6608bceb81,0.0201,0.0201,0,8,8,45,1,threefour,,,,,,,,,,,,,,,,,,,,,,,,,,,,,,,,,,,,,,,,,,,,,,,,,,,,,,,,,,,,,,,,,,,,,,,,,,,,,,,,,,,,,,,,,,,,,,,,,,,,,,,,,,,,,,,,,,,,,,,,,,,,,,,,,,,,,,,
,,65745708518a6ec1b4773387,2023-12-15_11h10.45.039,kallum_motion_pilot,2023.2.3,Win32,21.32196162,65745708518a6ec1b4773387,657bb317c8798c6608bceb3f,657bb47bc8798c6608bceb81,0.0202,0.0202,0,9,9,5,1,threefour,,,,,,,,,,,,,,,,,,,,,,,,,,,,,,,,,,,,,,,,,,,,,,,,,,,,,,,,,,,,,,,,,,,,,,,,,,,,,,,,,,,,,,,,,,,,,,,,,,,,,,,,,,,,,,,,,,,,,,,,,,,,,,,,,,,,,,,
,,65745708518a6ec1b4773387,2023-12-15_11h10.45.039,kallum_motion_pilot,2023.2.3,Win32,21.32196162,65745708518a6ec1b4773387,657bb317c8798c6608bceb3f,657bb47bc8798c6608bceb81,0.0203,0.0203,0,10,10,13,1,threefour,,,,,,,,,,,,,,,,,,,,,,,,,,,,,,,,,,,,,,,,,,,,,,,,,,,,,,,,,,,,,,,,,,,,,,,,,,,,,,,,,,,,,,,,,,,,,,,,,,,,,,,,,,,,,,,,,,,,,,,,,,,,,,,,,,,,,,,
,,65745708518a6ec1b4773387,2023-12-15_11h10.45.039,kallum_motion_pilot,2023.2.3,Win32,21.32196162,65745708518a6ec1b4773387,657bb317c8798c6608bceb3f,657bb47bc8798c6608bceb81,0.0204,0.0204,0,11,11,125,1,seveneight,,,,,,,,,,,,,,,,,,,,,,,,,,,,,,,,,,,,,,,,,,,,,,,,,,,,,,,,,,,,,,,,,,,,,,,,,,,,,,,,,,,,,,,,,,,,,,,,,,,,,,,,,,,,,,,,,,,,,,,,,,,,,,,,,,,,,,,
,,65745708518a6ec1b4773387,2023-12-15_11h10.45.039,kallum_motion_pilot,2023.2.3,Win32,21.32196162,65745708518a6ec1b4773387,657bb317c8798c6608bceb3f,657bb47bc8798c6608bceb81,0.0205,0.0206,0,12,12,114,1,sixfive,,,,,,,,,,,,,,,,,,,,,,,,,,,,,,,,,,,,,,,,,,,,,,,,,,,,,,,,,,,,,,,,,,,,,,,,,,,,,,,,,,,,,,,,,,,,,,,,,,,,,,,,,,,,,,,,,,,,,,,,,,,,,,,,,,,,,,,
,,65745708518a6ec1b4773387,2023-12-15_11h10.45.039,kallum_motion_pilot,2023.2.3,Win32,21.32196162,65745708518a6ec1b4773387,657bb317c8798c6608bceb3f,657bb47bc8798c6608bceb81,0.0206,0.0206,0,13,13,109,1,seveneight,,,,,,,,,,,,,,,,,,,,,,,,,,,,,,,,,,,,,,,,,,,,,,,,,,,,,,,,,,,,,,,,,,,,,,,,,,,,,,,,,,,,,,,,,,,,,,,,,,,,,,,,,,,,,,,,,,,,,,,,,,,,,,,,,,,,,,,
,,65745708518a6ec1b4773387,2023-12-15_11h10.45.039,kallum_motion_pilot,2023.2.3,Win32,21.32196162,65745708518a6ec1b4773387,657bb317c8798c6608bceb3f,657bb47bc8798c6608bceb81,0.0207,0.0207,0,14,14,124,1,sevenfive,,,,,,,,,,,,,,,,,,,,,,,,,,,,,,,,,,,,,,,,,,,,,,,,,,,,,,,,,,,,,,,,,,,,,,,,,,,,,,,,,,,,,,,,,,,,,,,,,,,,,,,,,,,,,,,,,,,,,,,,,,,,,,,,,,,,,,,
,,65745708518a6ec1b4773387,2023-12-15_11h10.45.039,kallum_motion_pilot,2023.2.3,Win32,21.32196162,65745708518a6ec1b4773387,657bb317c8798c6608bceb3f,657bb47bc8798c6608bceb81,0.0208,0.0209,0,15,15,26,1,twoone,,,,,,,,,,,,,,,,,,,,,,,,,,,,,,,,,,,,,,,,,,,,,,,,,,,,,,,,,,,,,,,,,,,,,,,,,,,,,,,,,,,,,,,,,,,,,,,,,,,,,,,,,,,,,,,,,,,,,,,,,,,,,,,,,,,,,,,
,,65745708518a6ec1b4773387,2023-12-15_11h10.45.039,kallum_motion_pilot,2023.2.3,Win32,21.32196162,65745708518a6ec1b4773387,657bb317c8798c6608bceb3f,657bb47bc8798c6608bceb81,0.0209,0.0209,0,16,16,94,1,eightsix,,,,,,,,,,,,,,,,,,,,,,,,,,,,,,,,,,,,,,,,,,,,,,,,,,,,,,,,,,,,,,,,,,,,,,,,,,,,,,,,,,,,,,,,,,,,,,,,,,,,,,,,,,,,,,,,,,,,,,,,,,,,,,,,,,,,,,,
,,65745708518a6ec1b4773387,2023-12-15_11h10.45.039,kallum_motion_pilot,2023.2.3,Win32,21.32196162,65745708518a6ec1b4773387,657bb317c8798c6608bceb3f,657bb47bc8798c6608bceb81,0.0209,0.0211,0,17,17,120,1,fivesix,,,,,,,,,,,,,,,,,,,,,,,,,,,,,,,,,,,,,,,,,,,,,,,,,,,,,,,,,,,,,,,,,,,,,,,,,,,,,,,,,,,,,,,,,,,,,,,,,,,,,,,,,,,,,,,,,,,,,,,,,,,,,,,,,,,,,,,
,,65745708518a6ec1b4773387,2023-12-15_11h10.45.039,kallum_motion_pilot,2023.2.3,Win32,21.32196162,65745708518a6ec1b4773387,657bb317c8798c6608bceb3f,657bb47bc8798c6608bceb81,0.0211,0.0211,0,18,18,128,1,fivesix,,,,,,,,,,,,,,,,,,,,,,,,,,,,,,,,,,,,,,,,,,,,,,,,,,,,,,,,,,,,,,,,,,,,,,,,,,,,,,,,,,,,,,,,,,,,,,,,,,,,,,,,,,,,,,,,,,,,,,,,,,,,,,,,,,,,,,,
,,65745708518a6ec1b4773387,2023-12-15_11h10.45.039,kallum_motion_pilot,2023.2.3,Win32,21.32196162,65745708518a6ec1b4773387,657bb317c8798c6608bceb3f,657bb47bc8798c6608bceb81,0.0211,0.0211,0,19,19,15,1,fourthree,,,,,,,,,,,,,,,,,,,,,,,,,,,,,,,,,,,,,,,,,,,,,,,,,,,,,,,,,,,,,,,,,,,,,,,,,,,,,,,,,,,,,,,,,,,,,,,,,,,,,,,,,,,,,,,,,,,,,,,,,,,,,,,,,,,,,,,
,,65745708518a6ec1b4773387,2023-12-15_11h10.45.039,kallum_motion_pilot,2023.2.3,Win32,21.32196162,65745708518a6ec1b4773387,657bb317c8798c6608bceb3f,657bb47bc8798c6608bceb81,0.0212,0.0213,0,20,20,20,1,threeone,,,,,,,,,,,,,,,,,,,,,,,,,,,,,,,,,,,,,,,,,,,,,,,,,,,,,,,,,,,,,,,,,,,,,,,,,,,,,,,,,,,,,,,,,,,,,,,,,,,,,,,,,,,,,,,,,,,,,,,,,,,,,,,,,,,,,,,
,,65745708518a6ec1b4773387,2023-12-15_11h10.45.039,kallum_motion_pilot,2023.2.3,Win32,21.32196162,65745708518a6ec1b4773387,657bb317c8798c6608bceb3f,657bb47bc8798c6608bceb81,0.0213,0.0213,0,21,21,98,1,sixfive,,,,,,,,,,,,,,,,,,,,,,,,,,,,,,,,,,,,,,,,,,,,,,,,,,,,,,,,,,,,,,,,,,,,,,,,,,,,,,,,,,,,,,,,,,,,,,,,,,,,,,,,,,,,,,,,,,,,,,,,,,,,,,,,,,,,,,,
,,65745708518a6ec1b4773387,2023-12-15_11h10.45.039,kallum_motion_pilot,2023.2.3,Win32,21.32196162,65745708518a6ec1b4773387,657bb317c8798c6608bceb3f,657bb47bc8798c6608bceb81,0.0214,0.0214,0,22,22,29,1,threefour,,,,,,,,,,,,,,,,,,,,,,,,,,,,,,,,,,,,,,,,,,,,,,,,,,,,,,,,,,,,,,,,,,,,,,,,,,,,,,,,,,,,,,,,,,,,,,,,,,,,,,,,,,,,,,,,,,,,,,,,,,,,,,,,,,,,,,,
,,65745708518a6ec1b4773387,2023-12-15_11h10.45.039,kallum_motion_pilot,2023.2.3,Win32,21.32196162,65745708518a6ec1b4773387,657bb317c8798c6608bceb3f,657bb47bc8798c6608bceb81,0.0214,0.0214,0,23,23,147,1,sixeight,,,,,,,,,,,,,,,,,,,,,,,,,,,,,,,,,,,,,,,,,,,,,,,,,,,,,,,,,,,,,,,,,,,,,,,,,,,,,,,,,,,,,,,,,,,,,,,,,,,,,,,,,,,,,,,,,,,,,,,,,,,,,,,,,,,,,,,
,,65745708518a6ec1b4773387,2023-12-15_11h10.45.039,kallum_motion_pilot,2023.2.3,Win32,21.32196162,65745708518a6ec1b4773387,657bb317c8798c6608bceb3f,657bb47bc8798c6608bceb81,0.0215,0.0215,0,24,24,53,1,threefour,,,,,,,,,,,,,,,,,,,,,,,,,,,,,,,,,,,,,,,,,,,,,,,,,,,,,,,,,,,,,,,,,,,,,,,,,,,,,,,,,,,,,,,,,,,,,,,,,,,,,,,,,,,,,,,,,,,,,,,,,,,,,,,,,,,,,,,
,,65745708518a6ec1b4773387,2023-12-15_11h10.45.039,kallum_motion_pilot,2023.2.3,Win32,21.32196162,65745708518a6ec1b4773387,657bb317c8798c6608bceb3f,657bb47bc8798c6608bceb81,0.0217,0.0217,0,25,25,24,1,onetwo,,,,,,,,,,,,,,,,,,,,,,,,,,,,,,,,,,,,,,,,,,,,,,,,,,,,,,,,,,,,,,,,,,,,,,,,,,,,,,,,,,,,,,,,,,,,,,,,,,,,,,,,,,,,,,,,,,,,,,,,,,,,,,,,,,,,,,,
,,65745708518a6ec1b4773387,2023-12-15_11h10.45.039,kallum_motion_pilot,2023.2.3,Win32,21.32196162,65745708518a6ec1b4773387,657bb317c8798c6608bceb3f,657bb47bc8798c6608bceb81,0.0217,0.0217,0,26,26,142,1,eightsix,,,,,,,,,,,,,,,,,,,,,,,,,,,,,,,,,,,,,,,,,,,,,,,,,,,,,,,,,,,,,,,,,,,,,,,,,,,,,,,,,,,,,,,,,,,,,,,,,,,,,,,,,,,,,,,,,,,,,,,,,,,,,,,,,,,,,,,
,,65745708518a6ec1b4773387,2023-12-15_11h10.45.039,kallum_motion_pilot,2023.2.3,Win32,21.32196162,65745708518a6ec1b4773387,657bb317c8798c6608bceb3f,657bb47bc8798c6608bceb81,0.0218,0.0218,0,27,27,87,1,eightseven,,,,,,,,,,,,,,,,,,,,,,,,,,,,,,,,,,,,,,,,,,,,,,,,,,,,,,,,,,,,,,,,,,,,,,,,,,,,,,,,,,,,,,,,,,,,,,,,,,,,,,,,,,,,,,,,,,,,,,,,,,,,,,,,,,,,,,,
,,65745708518a6ec1b4773387,2023-12-15_11h10.45.039,kallum_motion_pilot,2023.2.3,Win32,21.32196162,65745708518a6ec1b4773387,657bb317c8798c6608bceb3f,657bb47bc8798c6608bceb81,0.0218,0.0219,0,28,28,42,1,twoone,,,,,,,,,,,,,,,,,,,,,,,,,,,,,,,,,,,,,,,,,,,,,,,,,,,,,,,,,,,,,,,,,,,,,,,,,,,,,,,,,,,,,,,,,,,,,,,,,,,,,,,,,,,,,,,,,,,,,,,,,,,,,,,,,,,,,,,
,,65745708518a6ec1b4773387,2023-12-15_11h10.45.039,kallum_motion_pilot,2023.2.3,Win32,21.32196162,65745708518a6ec1b4773387,657bb317c8798c6608bceb3f,657bb47bc8798c6608bceb81,0.022,0.022,0,29,29,106,1,sixfive,,,,,,,,,,,,,,,,,,,,,,,,,,,,,,,,,,,,,,,,,,,,,,,,,,,,,,,,,,,,,,,,,,,,,,,,,,,,,,,,,,,,,,,,,,,,,,,,,,,,,,,,,,,,,,,,,,,,,,,,,,,,,,,,,,,,,,,
,,65745708518a6ec1b4773387,2023-12-15_11h10.45.039,kallum_motion_pilot,2023.2.3,Win32,21.32196162,65745708518a6ec1b4773387,657bb317c8798c6608bceb3f,657bb47bc8798c6608bceb81,0.022,0.0221,0,30,30,32,1,onetwo,,,,,,,,,,,,,,,,,,,,,,,,,,,,,,,,,,,,,,,,,,,,,,,,,,,,,,,,,,,,,,,,,,,,,,,,,,,,,,,,,,,,,,,,,,,,,,,,,,,,,,,,,,,,,,,,,,,,,,,,,,,,,,,,,,,,,,,
,,65745708518a6ec1b4773387,2023-12-15_11h10.45.039,kallum_motion_pilot,2023.2.3,Win32,21.32196162,65745708518a6ec1b4773387,657bb317c8798c6608bceb3f,657bb47bc8798c6608bceb81,0.0222,0.0222,0,31,31,63,1,fourthree,,,,,,,,,,,,,,,,,,,,,,,,,,,,,,,,,,,,,,,,,,,,,,,,,,,,,,,,,,,,,,,,,,,,,,,,,,,,,,,,,,,,,,,,,,,,,,,,,,,,,,,,,,,,,,,,,,,,,,,,,,,,,,,,,,,,,,,
,,65745708518a6ec1b4773387,2023-12-15_11h10.45.039,kallum_motion_pilot,2023.2.3,Win32,21.32196162,65745708518a6ec1b4773387,657bb317c8798c6608bceb3f,657bb47bc8798c6608bceb81,0.0223,0.0223,0,32,32,43,1,twofour,,,,,,,,,,,,,,,,,,,,,,,,,,,,,,,,,,,,,,,,,,,,,,,,,,,,,,,,,,,,,,,,,,,,,,,,,,,,,,,,,,,,,,,,,,,,,,,,,,,,,,,,,,,,,,,,,,,,,,,,,,,,,,,,,,,,,,,
,,65745708518a6ec1b4773387,2023-12-15_11h10.45.039,kallum_motion_pilot,2023.2.3,Win32,21.32196162,65745708518a6ec1b4773387,657bb317c8798c6608bceb3f,657bb47bc8798c6608bceb81,0.0223,0.0224,0,33,33,84,1,sevenfive,,,,,,,,,,,,,,,,,,,,,,,,,,,,,,,,,,,,,,,,,,,,,,,,,,,,,,,,,,,,,,,,,,,,,,,,,,,,,,,,,,,,,,,,,,,,,,,,,,,,,,,,,,,,,,,,,,,,,,,,,,,,,,,,,,,,,,,
,,65745708518a6ec1b4773387,2023-12-15_11h10.45.039,kallum_motion_pilot,2023.2.3,Win32,21.32196162,65745708518a6ec1b4773387,657bb317c8798c6608bceb3f,657bb47bc8798c6608bceb81,0.0224,0.0225,0,34,34,6,1,fourtwo,,,,,,,,,,,,,,,,,,,,,,,,,,,,,,,,,,,,,,,,,,,,,,,,,,,,,,,,,,,,,,,,,,,,,,,,,,,,,,,,,,,,,,,,,,,,,,,,,,,,,,,,,,,,,,,,,,,,,,,,,,,,,,,,,,,,,,,
,,65745708518a6ec1b4773387,2023-12-15_11h10.45.039,kallum_motion_pilot,2023.2.3,Win32,21.32196162,65745708518a6ec1b4773387,657bb317c8798c6608bceb3f,657bb47bc8798c6608bceb81,0.0225,0.0226,0,35,35,28,1,threeone,,,,,,,,,,,,,,,,,,,,,,,,,,,,,,,,,,,,,,,,,,,,,,,,,,,,,,,,,,,,,,,,,,,,,,,,,,,,,,,,,,,,,,,,,,,,,,,,,,,,,,,,,,,,,,,,,,,,,,,,,,,,,,,,,,,,,,,
,,65745708518a6ec1b4773387,2023-12-15_11h10.45.039,kallum_motion_pilot,2023.2.3,Win32,21.32196162,65745708518a6ec1b4773387,657bb317c8798c6608bceb3f,657bb47bc8798c6608bceb81,0.0226,0.0227,0,36,36,8,1,onetwo,,,,,,,,,,,,,,,,,,,,,,,,,,,,,,,,,,,,,,,,,,,,,,,,,,,,,,,,,,,,,,,,,,,,,,,,,,,,,,,,,,,,,,,,,,,,,,,,,,,,,,,,,,,,,,,,,,,,,,,,,,,,,,,,,,,,,,,
,,65745708518a6ec1b4773387,2023-12-15_11h10.45.039,kallum_motion_pilot,2023.2.3,Win32,21.32196162,65745708518a6ec1b4773387,657bb317c8798c6608bceb3f,657bb47bc8798c6608bceb81,0.0227,0.0227,0,37,37,150,1,eightsix,,,,,,,,,,,,,,,,,,,,,,,,,,,,,,,,,,,,,,,,,,,,,,,,,,,,,,,,,,,,,,,,,,,,,,,,,,,,,,,,,,,,,,,,,,,,,,,,,,,,,,,,,,,,,,,,,,,,,,,,,,,,,,,,,,,,,,,
,,65745708518a6ec1b4773387,2023-12-15_11h10.45.039,kallum_motion_pilot,2023.2.3,Win32,21.32196162,65745708518a6ec1b4773387,657bb317c8798c6608bceb3f,657bb47bc8798c6608bceb81,0.0228,0.0228,0,38,38,65,1,onethree,,,,,,,,,,,,,,,,,,,,,,,,,,,,,,,,,,,,,,,,,,,,,,,,,,,,,,,,,,,,,,,,,,,,,,,,,,,,,,,,,,,,,,,,,,,,,,,,,,,,,,,,,,,,,,,,,,,,,,,,,,,,,,,,,,,,,,,
,,65745708518a6ec1b4773387,2023-12-15_11h10.45.039,kallum_motion_pilot,2023.2.3,Win32,21.32196162,65745708518a6ec1b4773387,657bb317c8798c6608bceb3f,657bb47bc8798c6608bceb81,0.0228,0.0228,0,39,39,4,1,threeone,,,,,,,,,,,,,,,,,,,,,,,,,,,,,,,,,,,,,,,,,,,,,,,,,,,,,,,,,,,,,,,,,,,,,,,,,,,,,,,,,,,,,,,,,,,,,,,,,,,,,,,,,,,,,,,,,,,,,,,,,,,,,,,,,,,,,,,
,,65745708518a6ec1b4773387,2023-12-15_11h10.45.039,kallum_motion_pilot,2023.2.3,Win32,21.32196162,65745708518a6ec1b4773387,657bb317c8798c6608bceb3f,657bb47bc8798c6608bceb81,0.023,0.023,0,40,40,50,1,twoone,,,,,,,,,,,,,,,,,,,,,,,,,,,,,,,,,,,,,,,,,,,,,,,,,,,,,,,,,,,,,,,,,,,,,,,,,,,,,,,,,,,,,,,,,,,,,,,,,,,,,,,,,,,,,,,,,,,,,,,,,,,,,,,,,,,,,,,
,,65745708518a6ec1b4773387,2023-12-15_11h10.45.039,kallum_motion_pilot,2023.2.3,Win32,21.32196162,65745708518a6ec1b4773387,657bb317c8798c6608bceb3f,657bb47bc8798c6608bceb81,0.023,0.023,0,41,41,67,1,twofour,,,,,,,,,,,,,,,,,,,,,,,,,,,,,,,,,,,,,,,,,,,,,,,,,,,,,,,,,,,,,,,,,,,,,,,,,,,,,,,,,,,,,,,,,,,,,,,,,,,,,,,,,,,,,,,,,,,,,,,,,,,,,,,,,,,,,,,
,,65745708518a6ec1b4773387,2023-12-15_11h10.45.039,kallum_motion_pilot,2023.2.3,Win32,21.32196162,65745708518a6ec1b4773387,657bb317c8798c6608bceb3f,657bb47bc8798c6608bceb81,0.0231,0.0231,0,42,42,116,1,sevenfive,,,,,,,,,,,,,,,,,,,,,,,,,,,,,,,,,,,,,,,,,,,,,,,,,,,,,,,,,,,,,,,,,,,,,,,,,,,,,,,,,,,,,,,,,,,,,,,,,,,,,,,,,,,,,,,,,,,,,,,,,,,,,,,,,,,,,,,
,,65745708518a6ec1b4773387,2023-12-15_11h10.45.039,kallum_motion_pilot,2023.2.3,Win32,21.32196162,65745708518a6ec1b4773387,657bb317c8798c6608bceb3f,657bb47bc8798c6608bceb81,0.0232,0.0232,0,43,43,146,1,sixfive,,,,,,,,,,,,,,,,,,,,,,,,,,,,,,,,,,,,,,,,,,,,,,,,,,,,,,,,,,,,,,,,,,,,,,,,,,,,,,,,,,,,,,,,,,,,,,,,,,,,,,,,,,,,,,,,,,,,,,,,,,,,,,,,,,,,,,,
,,65745708518a6ec1b4773387,2023-12-15_11h10.45.039,kallum_motion_pilot,2023.2.3,Win32,21.32196162,65745708518a6ec1b4773387,657bb317c8798c6608bceb3f,657bb47bc8798c6608bceb81,0.0233,0.0233,0,44,44,144,1,fivesix,,,,,,,,,,,,,,,,,,,,,,,,,,,,,,,,,,,,,,,,,,,,,,,,,,,,,,,,,,,,,,,,,,,,,,,,,,,,,,,,,,,,,,,,,,,,,,,,,,,,,,,,,,,,,,,,,,,,,,,,,,,,,,,,,,,,,,,
,,65745708518a6ec1b4773387,2023-12-15_11h10.45.039,kallum_motion_pilot,2023.2.3,Win32,21.32196162,65745708518a6ec1b4773387,657bb317c8798c6608bceb3f,657bb47bc8798c6608bceb81,0.0233,0.0233,0,45,45,112,1,fivesix,,,,,,,,,,,,,,,,,,,,,,,,,,,,,,,,,,,,,,,,,,,,,,,,,,,,,,,,,,,,,,,,,,,,,,,,,,,,,,,,,,,,,,,,,,,,,,,,,,,,,,,,,,,,,,,,,,,,,,,,,,,,,,,,,,,,,,,
,,65745708518a6ec1b4773387,2023-12-15_11h10.45.039,kallum_motion_pilot,2023.2.3,Win32,21.32196162,65745708518a6ec1b4773387,657bb317c8798c6608bceb3f,657bb47bc8798c6608bceb81,0.0235,0.0235,0,46,46,70,1,fourtwo,,,,,,,,,,,,,,,,,,,,,,,,,,,,,,,,,,,,,,,,,,,,,,,,,,,,,,,,,,,,,,,,,,,,,,,,,,,,,,,,,,,,,,,,,,,,,,,,,,,,,,,,,,,,,,,,,,,,,,,,,,,,,,,,,,,,,,,
,,65745708518a6ec1b4773387,2023-12-15_11h10.45.039,kallum_motion_pilot,2023.2.3,Win32,21.32196162,65745708518a6ec1b4773387,657bb317c8798c6608bceb3f,657bb47bc8798c6608bceb81,0.0236,0.0236,0,47,47,74,1,twoone,,,,,,,,,,,,,,,,,,,,,,,,,,,,,,,,,,,,,,,,,,,,,,,,,,,,,,,,,,,,,,,,,,,,,,,,,,,,,,,,,,,,,,,,,,,,,,,,,,,,,,,,,,,,,,,,,,,,,,,,,,,,,,,,,,,,,,,
,,65745708518a6ec1b4773387,2023-12-15_11h10.45.039,kallum_motion_pilot,2023.2.3,Win32,21.32196162,65745708518a6ec1b4773387,657bb317c8798c6608bceb3f,657bb47bc8798c6608bceb81,0.0236,0.0236,0,48,48,133,1,seveneight,,,,,,,,,,,,,,,,,,,,,,,,,,,,,,,,,,,,,,,,,,,,,,,,,,,,,,,,,,,,,,,,,,,,,,,,,,,,,,,,,,,,,,,,,,,,,,,,,,,,,,,,,,,,,,,,,,,,,,,,,,,,,,,,,,,,,,,
,,65745708518a6ec1b4773387,2023-12-15_11h10.45.039,kallum_motion_pilot,2023.2.3,Win32,21.32196162,65745708518a6ec1b4773387,657bb317c8798c6608bceb3f,657bb47bc8798c6608bceb81,0.0237,0.0237,0,49,49,93,1,seveneight,,,,,,,,,,,,,,,,,,,,,,,,,,,,,,,,,,,,,,,,,,,,,,,,,,,,,,,,,,,,,,,,,,,,,,,,,,,,,,,,,,,,,,,,,,,,,,,,,,,,,,,,,,,,,,,,,,,,,,,,,,,,,,,,,,,,,,,
,,65745708518a6ec1b4773387,2023-12-15_11h10.45.039,kallum_motion_pilot,2023.2.3,Win32,21.32196162,65745708518a6ec1b4773387,657bb317c8798c6608bceb3f,657bb47bc8798c6608bceb81,0.0238,0.0239,0,50,50,117,1,seveneight,,,,,,,,,,,,,,,,,,,,,,,,,,,,,,,,,,,,,,,,,,,,,,,,,,,,,,,,,,,,,,,,,,,,,,,,,,,,,,,,,,,,,,,,,,,,,,,,,,,,,,,,,,,,,,,,,,,,,,,,,,,,,,,,,,,,,,,
,,65745708518a6ec1b4773387,2023-12-15_11h10.45.039,kallum_motion_pilot,2023.2.3,Win32,21.32196162,65745708518a6ec1b4773387,657bb317c8798c6608bceb3f,657bb47bc8798c6608bceb81,0.0239,0.0239,0,51,51,72,1,onetwo,,,,,,,,,,,,,,,,,,,,,,,,,,,,,,,,,,,,,,,,,,,,,,,,,,,,,,,,,,,,,,,,,,,,,,,,,,,,,,,,,,,,,,,,,,,,,,,,,,,,,,,,,,,,,,,,,,,,,,,,,,,,,,,,,,,,,,,
,,65745708518a6ec1b4773387,2023-12-15_11h10.45.039,kallum_motion_pilot,2023.2.3,Win32,21.32196162,65745708518a6ec1b4773387,657bb317c8798c6608bceb3f,657bb47bc8798c6608bceb81,0.024,0.024,0,52,52,49,1,onethree,,,,,,,,,,,,,,,,,,,,,,,,,,,,,,,,,,,,,,,,,,,,,,,,,,,,,,,,,,,,,,,,,,,,,,,,,,,,,,,,,,,,,,,,,,,,,,,,,,,,,,,,,,,,,,,,,,,,,,,,,,,,,,,,,,,,,,,
,,65745708518a6ec1b4773387,2023-12-15_11h10.45.039,kallum_motion_pilot,2023.2.3,Win32,21.32196162,65745708518a6ec1b4773387,657bb317c8798c6608bceb3f,657bb47bc8798c6608bceb81,0.0241,0.0241,0,53,53,91,1,sixeight,,,,,,,,,,,,,,,,,,,,,,,,,,,,,,,,,,,,,,,,,,,,,,,,,,,,,,,,,,,,,,,,,,,,,,,,,,,,,,,,,,,,,,,,,,,,,,,,,,,,,,,,,,,,,,,,,,,,,,,,,,,,,,,,,,,,,,,
,,65745708518a6ec1b4773387,2023-12-15_11h10.45.039,kallum_motion_pilot,2023.2.3,Win32,21.32196162,65745708518a6ec1b4773387,657bb317c8798c6608bceb3f,657bb47bc8798c6608bceb81,0.0242,0.0242,0,54,54,152,1,fivesix,,,,,,,,,,,,,,,,,,,,,,,,,,,,,,,,,,,,,,,,,,,,,,,,,,,,,,,,,,,,,,,,,,,,,,,,,,,,,,,,,,,,,,,,,,,,,,,,,,,,,,,,,,,,,,,,,,,,,,,,,,,,,,,,,,,,,,,
,,65745708518a6ec1b4773387,2023-12-15_11h10.45.039,kallum_motion_pilot,2023.2.3,Win32,21.32196162,65745708518a6ec1b4773387,657bb317c8798c6608bceb3f,657bb47bc8798c6608bceb81,0.0243,0.0243,0,55,55,30,1,fourtwo,,,,,,,,,,,,,,,,,,,,,,,,,,,,,,,,,,,,,,,,,,,,,,,,,,,,,,,,,,,,,,,,,,,,,,,,,,,,,,,,,,,,,,,,,,,,,,,,,,,,,,,,,,,,,,,,,,,,,,,,,,,,,,,,,,,,,,,
,,65745708518a6ec1b4773387,2023-12-15_11h10.45.039,kallum_motion_pilot,2023.2.3,Win32,21.32196162,65745708518a6ec1b4773387,657bb317c8798c6608bceb3f,657bb47bc8798c6608bceb81,0.0244,0.0244,0,56,56,56,1,onetwo,,,,,,,,,,,,,,,,,,,,,,,,,,,,,,,,,,,,,,,,,,,,,,,,,,,,,,,,,,,,,,,,,,,,,,,,,,,,,,,,,,,,,,,,,,,,,,,,,,,,,,,,,,,,,,,,,,,,,,,,,,,,,,,,,,,,,,,
,,65745708518a6ec1b4773387,2023-12-15_11h10.45.039,kallum_motion_pilot,2023.2.3,Win32,21.32196162,65745708518a6ec1b4773387,657bb317c8798c6608bceb3f,657bb47bc8798c6608bceb81,0.0248,0.025,0,57,57,0,1,onetwo,,,,,,,,,,,,,,,,,,,,,,,,,,,,,,,,,,,,,,,,,,,,,,,,,,,,,,,,,,,,,,,,,,,,,,,,,,,,,,,,,,,,,,,,,,,,,,,,,,,,,,,,,,,,,,,,,,,,,,,,,,,,,,,,,,,,,,,
,,65745708518a6ec1b4773387,2023-12-15_11h10.45.039,kallum_motion_pilot,2023.2.3,Win32,21.32196162,65745708518a6ec1b4773387,657bb317c8798c6608bceb3f,657bb47bc8798c6608bceb81,0.025,0.025,0,58,58,78,1,fourtwo,,,,,,,,,,,,,,,,,,,,,,,,,,,,,,,,,,,,,,,,,,,,,,,,,,,,,,,,,,,,,,,,,,,,,,,,,,,,,,,,,,,,,,,,,,,,,,,,,,,,,,,,,,,,,,,,,,,,,,,,,,,,,,,,,,,,,,,
,,65745708518a6ec1b4773387,2023-12-15_11h10.45.039,kallum_motion_pilot,2023.2.3,Win32,21.32196162,65745708518a6ec1b4773387,657bb317c8798c6608bceb3f,657bb47bc8798c6608bceb81,0.025,0.0251,0,59,59,46,1,fourtwo,,,,,,,,,,,,,,,,,,,,,,,,,,,,,,,,,,,,,,,,,,,,,,,,,,,,,,,,,,,,,,,,,,,,,,,,,,,,,,,,,,,,,,,,,,,,,,,,,,,,,,,,,,,,,,,,,,,,,,,,,,,,,,,,,,,,,,,
,,65745708518a6ec1b4773387,2023-12-15_11h10.45.039,kallum_motion_pilot,2023.2.3,Win32,21.32196162,65745708518a6ec1b4773387,657bb317c8798c6608bceb3f,657bb47bc8798c6608bceb81,0.0252,0.0252,0,60,60,101,1,seveneight,,,,,,,,,,,,,,,,,,,,,,,,,,,,,,,,,,,,,,,,,,,,,,,,,,,,,,,,,,,,,,,,,,,,,,,,,,,,,,,,,,,,,,,,,,,,,,,,,,,,,,,,,,,,,,,,,,,,,,,,,,,,,,,,,,,,,,,
,,65745708518a6ec1b4773387,2023-12-15_11h10.45.039,kallum_motion_pilot,2023.2.3,Win32,21.32196162,65745708518a6ec1b4773387,657bb317c8798c6608bceb3f,657bb47bc8798c6608bceb81,0.0252,0.0252,0,61,61,34,1,twoone,,,,,,,,,,,,,,,,,,,,,,,,,,,,,,,,,,,,,,,,,,,,,,,,,,,,,,,,,,,,,,,,,,,,,,,,,,,,,,,,,,,,,,,,,,,,,,,,,,,,,,,,,,,,,,,,,,,,,,,,,,,,,,,,,,,,,,,
,,65745708518a6ec1b4773387,2023-12-15_11h10.45.039,kallum_motion_pilot,2023.2.3,Win32,21.32196162,65745708518a6ec1b4773387,657bb317c8798c6608bceb3f,657bb47bc8798c6608bceb81,0.0254,0.0254,0,62,62,37,1,threefour,,,,,,,,,,,,,,,,,,,,,,,,,,,,,,,,,,,,,,,,,,,,,,,,,,,,,,,,,,,,,,,,,,,,,,,,,,,,,,,,,,,,,,,,,,,,,,,,,,,,,,,,,,,,,,,,,,,,,,,,,,,,,,,,,,,,,,,
,,65745708518a6ec1b4773387,2023-12-15_11h10.45.039,kallum_motion_pilot,2023.2.3,Win32,21.32196162,65745708518a6ec1b4773387,657bb317c8798c6608bceb3f,657bb47bc8798c6608bceb81,0.0254,0.0254,0,63,63,79,1,eightseven,,,,,,,,,,,,,,,,,,,,,,,,,,,,,,,,,,,,,,,,,,,,,,,,,,,,,,,,,,,,,,,,,,,,,,,,,,,,,,,,,,,,,,,,,,,,,,,,,,,,,,,,,,,,,,,,,,,,,,,,,,,,,,,,,,,,,,,
,,65745708518a6ec1b4773387,2023-12-15_11h10.45.039,kallum_motion_pilot,2023.2.3,Win32,21.32196162,65745708518a6ec1b4773387,657bb317c8798c6608bceb3f,657bb47bc8798c6608bceb81,0.0256,0.0256,0,64,64,2,1,twoone,,,,,,,,,,,,,,,,,,,,,,,,,,,,,,,,,,,,,,,,,,,,,,,,,,,,,,,,,,,,,,,,,,,,,,,,,,,,,,,,,,,,,,,,,,,,,,,,,,,,,,,,,,,,,,,,,,,,,,,,,,,,,,,,,,,,,,,
,,65745708518a6ec1b4773387,2023-12-15_11h10.45.039,kallum_motion_pilot,2023.2.3,Win32,21.32196162,65745708518a6ec1b4773387,657bb317c8798c6608bceb3f,657bb47bc8798c6608bceb81,0.0257,0.0257,0,65,65,31,1,fourthree,,,,,,,,,,,,,,,,,,,,,,,,,,,,,,,,,,,,,,,,,,,,,,,,,,,,,,,,,,,,,,,,,,,,,,,,,,,,,,,,,,,,,,,,,,,,,,,,,,,,,,,,,,,,,,,,,,,,,,,,,,,,,,,,,,,,,,,
,,65745708518a6ec1b4773387,2023-12-15_11h10.45.039,kallum_motion_pilot,2023.2.3,Win32,21.32196162,65745708518a6ec1b4773387,657bb317c8798c6608bceb3f,657bb47bc8798c6608bceb81,0.0258,0.0258,0,66,66,119,1,eightseven,,,,,,,,,,,,,,,,,,,,,,,,,,,,,,,,,,,,,,,,,,,,,,,,,,,,,,,,,,,,,,,,,,,,,,,,,,,,,,,,,,,,,,,,,,,,,,,,,,,,,,,,,,,,,,,,,,,,,,,,,,,,,,,,,,,,,,,
,,65745708518a6ec1b4773387,2023-12-15_11h10.45.039,kallum_motion_pilot,2023.2.3,Win32,21.32196162,65745708518a6ec1b4773387,657bb317c8798c6608bceb3f,657bb47bc8798c6608bceb81,0.0259,0.0259,0,67,67,11,1,twofour,,,,,,,,,,,,,,,,,,,,,,,,,,,,,,,,,,,,,,,,,,,,,,,,,,,,,,,,,,,,,,,,,,,,,,,,,,,,,,,,,,,,,,,,,,,,,,,,,,,,,,,,,,,,,,,,,,,,,,,,,,,,,,,,,,,,,,,
,,65745708518a6ec1b4773387,2023-12-15_11h10.45.039,kallum_motion_pilot,2023.2.3,Win32,21.32196162,65745708518a6ec1b4773387,657bb317c8798c6608bceb3f,657bb47bc8798c6608bceb81,0.026,0.026,0,68,68,127,1,eightseven,,,,,,,,,,,,,,,,,,,,,,,,,,,,,,,,,,,,,,,,,,,,,,,,,,,,,,,,,,,,,,,,,,,,,,,,,,,,,,,,,,,,,,,,,,,,,,,,,,,,,,,,,,,,,,,,,,,,,,,,,,,,,,,,,,,,,,,
,,65745708518a6ec1b4773387,2023-12-15_11h10.45.039,kallum_motion_pilot,2023.2.3,Win32,21.32196162,65745708518a6ec1b4773387,657bb317c8798c6608bceb3f,657bb47bc8798c6608bceb81,0.026,0.0261,0,69,69,73,1,onethree,,,,,,,,,,,,,,,,,,,,,,,,,,,,,,,,,,,,,,,,,,,,,,,,,,,,,,,,,,,,,,,,,,,,,,,,,,,,,,,,,,,,,,,,,,,,,,,,,,,,,,,,,,,,,,,,,,,,,,,,,,,,,,,,,,,,,,,
,,65745708518a6ec1b4773387,2023-12-15_11h10.45.039,kallum_motion_pilot,2023.2.3,Win32,21.32196162,65745708518a6ec1b4773387,657bb317c8798c6608bceb3f,657bb47bc8798c6608bceb81,0.0262,0.0262,0,70,70,40,1,onetwo,,,,,,,,,,,,,,,,,,,,,,,,,,,,,,,,,,,,,,,,,,,,,,,,,,,,,,,,,,,,,,,,,,,,,,,,,,,,,,,,,,,,,,,,,,,,,,,,,,,,,,,,,,,,,,,,,,,,,,,,,,,,,,,,,,,,,,,
,,65745708518a6ec1b4773387,2023-12-15_11h10.45.039,kallum_motion_pilot,2023.2.3,Win32,21.32196162,65745708518a6ec1b4773387,657bb317c8798c6608bceb3f,657bb47bc8798c6608bceb81,0.0263,0.0263,0,71,71,58,1,twoone,,,,,,,,,,,,,,,,,,,,,,,,,,,,,,,,,,,,,,,,,,,,,,,,,,,,,,,,,,,,,,,,,,,,,,,,,,,,,,,,,,,,,,,,,,,,,,,,,,,,,,,,,,,,,,,,,,,,,,,,,,,,,,,,,,,,,,,
,,65745708518a6ec1b4773387,2023-12-15_11h10.45.039,kallum_motion_pilot,2023.2.3,Win32,21.32196162,65745708518a6ec1b4773387,657bb317c8798c6608bceb3f,657bb47bc8798c6608bceb81,0.0264,0.0264,0,72,72,66,1,twoone,,,,,,,,,,,,,,,,,,,,,,,,,,,,,,,,,,,,,,,,,,,,,,,,,,,,,,,,,,,,,,,,,,,,,,,,,,,,,,,,,,,,,,,,,,,,,,,,,,,,,,,,,,,,,,,,,,,,,,,,,,,,,,,,,,,,,,,
,,65745708518a6ec1b4773387,2023-12-15_11h10.45.039,kallum_motion_pilot,2023.2.3,Win32,21.32196162,65745708518a6ec1b4773387,657bb317c8798c6608bceb3f,657bb47bc8798c6608bceb81,0.0264,0.0265,0,73,73,89,1,fiveseven,,,,,,,,,,,,,,,,,,,,,,,,,,,,,,,,,,,,,,,,,,,,,,,,,,,,,,,,,,,,,,,,,,,,,,,,,,,,,,,,,,,,,,,,,,,,,,,,,,,,,,,,,,,,,,,,,,,,,,,,,,,,,,,,,,,,,,,
,,65745708518a6ec1b4773387,2023-12-15_11h10.45.039,kallum_motion_pilot,2023.2.3,Win32,21.32196162,65745708518a6ec1b4773387,657bb317c8798c6608bceb3f,657bb47bc8798c6608bceb81,0.0265,0.0266,0,74,74,77,1,threefour,,,,,,,,,,,,,,,,,,,,,,,,,,,,,,,,,,,,,,,,,,,,,,,,,,,,,,,,,,,,,,,,,,,,,,,,,,,,,,,,,,,,,,,,,,,,,,,,,,,,,,,,,,,,,,,,,,,,,,,,,,,,,,,,,,,,,,,
,,65745708518a6ec1b4773387,2023-12-15_11h10.45.039,kallum_motion_pilot,2023.2.3,Win32,21.32196162,65745708518a6ec1b4773387,657bb317c8798c6608bceb3f,657bb47bc8798c6608bceb81,0.0266,0.0266,0,75,75,113,1,fiveseven,,,,,,,,,,,,,,,,,,,,,,,,,,,,,,,,,,,,,,,,,,,,,,,,,,,,,,,,,,,,,,,,,,,,,,,,,,,,,,,,,,,,,,,,,,,,,,,,,,,,,,,,,,,,,,,,,,,,,,,,,,,,,,,,,,,,,,,
,,65745708518a6ec1b4773387,2023-12-15_11h10.45.039,kallum_motion_pilot,2023.2.3,Win32,21.32196162,65745708518a6ec1b4773387,657bb317c8798c6608bceb3f,657bb47bc8798c6608bceb81,0.0267,0.0267,0,76,76,90,1,sixfive,,,,,,,,,,,,,,,,,,,,,,,,,,,,,,,,,,,,,,,,,,,,,,,,,,,,,,,,,,,,,,,,,,,,,,,,,,,,,,,,,,,,,,,,,,,,,,,,,,,,,,,,,,,,,,,,,,,,,,,,,,,,,,,,,,,,,,,
,,65745708518a6ec1b4773387,2023-12-15_11h10.45.039,kallum_motion_pilot,2023.2.3,Win32,21.32196162,65745708518a6ec1b4773387,657bb317c8798c6608bceb3f,657bb47bc8798c6608bceb81,0.0269,0.0269,0,77,77,62,1,fourtwo,,,,,,,,,,,,,,,,,,,,,,,,,,,,,,,,,,,,,,,,,,,,,,,,,,,,,,,,,,,,,,,,,,,,,,,,,,,,,,,,,,,,,,,,,,,,,,,,,,,,,,,,,,,,,,,,,,,,,,,,,,,,,,,,,,,,,,,
,,65745708518a6ec1b4773387,2023-12-15_11h10.45.039,kallum_motion_pilot,2023.2.3,Win32,21.32196162,65745708518a6ec1b4773387,657bb317c8798c6608bceb3f,657bb47bc8798c6608bceb81,0.027,0.027,0,78,78,59,1,twofour,,,,,,,,,,,,,,,,,,,,,,,,,,,,,,,,,,,,,,,,,,,,,,,,,,,,,,,,,,,,,,,,,,,,,,,,,,,,,,,,,,,,,,,,,,,,,,,,,,,,,,,,,,,,,,,,,,,,,,,,,,,,,,,,,,,,,,,
,,65745708518a6ec1b4773387,2023-12-15_11h10.45.039,kallum_motion_pilot,2023.2.3,Win32,21.32196162,65745708518a6ec1b4773387,657bb317c8798c6608bceb3f,657bb47bc8798c6608bceb81,0.0271,0.0271,0,79,79,156,1,sevenfive,,,,,,,,,,,,,,,,,,,,,,,,,,,,,,,,,,,,,,,,,,,,,,,,,,,,,,,,,,,,,,,,,,,,,,,,,,,,,,,,,,,,,,,,,,,,,,,,,,,,,,,,,,,,,,,,,,,,,,,,,,,,,,,,,,,,,,,
,,65745708518a6ec1b4773387,2023-12-15_11h10.45.039,kallum_motion_pilot,2023.2.3,Win32,21.32196162,65745708518a6ec1b4773387,657bb317c8798c6608bceb3f,657bb47bc8798c6608bceb81,0.0272,0.0272,0,80,80,57,1,onethree,,,,,,,,,,,,,,,,,,,,,,,,,,,,,,,,,,,,,,,,,,,,,,,,,,,,,,,,,,,,,,,,,,,,,,,,,,,,,,,,,,,,,,,,,,,,,,,,,,,,,,,,,,,,,,,,,,,,,,,,,,,,,,,,,,,,,,,
,,65745708518a6ec1b4773387,2023-12-15_11h10.45.039,kallum_motion_pilot,2023.2.3,Win32,21.32196162,65745708518a6ec1b4773387,657bb317c8798c6608bceb3f,657bb47bc8798c6608bceb81,0.0272,0.0273,0,81,81,99,1,sixeight,,,,,,,,,,,,,,,,,,,,,,,,,,,,,,,,,,,,,,,,,,,,,,,,,,,,,,,,,,,,,,,,,,,,,,,,,,,,,,,,,,,,,,,,,,,,,,,,,,,,,,,,,,,,,,,,,,,,,,,,,,,,,,,,,,,,,,,
,,65745708518a6ec1b4773387,2023-12-15_11h10.45.039,kallum_motion_pilot,2023.2.3,Win32,21.32196162,65745708518a6ec1b4773387,657bb317c8798c6608bceb3f,657bb47bc8798c6608bceb81,0.0274,0.0274,0,82,82,17,1,onethree,,,,,,,,,,,,,,,,,,,,,,,,,,,,,,,,,,,,,,,,,,,,,,,,,,,,,,,,,,,,,,,,,,,,,,,,,,,,,,,,,,,,,,,,,,,,,,,,,,,,,,,,,,,,,,,,,,,,,,,,,,,,,,,,,,,,,,,
,,65745708518a6ec1b4773387,2023-12-15_11h10.45.039,kallum_motion_pilot,2023.2.3,Win32,21.32196162,65745708518a6ec1b4773387,657bb317c8798c6608bceb3f,657bb47bc8798c6608bceb81,0.0274,0.0275,0,83,83,130,1,sixfive,,,,,,,,,,,,,,,,,,,,,,,,,,,,,,,,,,,,,,,,,,,,,,,,,,,,,,,,,,,,,,,,,,,,,,,,,,,,,,,,,,,,,,,,,,,,,,,,,,,,,,,,,,,,,,,,,,,,,,,,,,,,,,,,,,,,,,,
,,65745708518a6ec1b4773387,2023-12-15_11h10.45.039,kallum_motion_pilot,2023.2.3,Win32,21.32196162,65745708518a6ec1b4773387,657bb317c8798c6608bceb3f,657bb47bc8798c6608bceb81,0.0275,0.0276,0,84,84,134,1,eightsix,,,,,,,,,,,,,,,,,,,,,,,,,,,,,,,,,,,,,,,,,,,,,,,,,,,,,,,,,,,,,,,,,,,,,,,,,,,,,,,,,,,,,,,,,,,,,,,,,,,,,,,,,,,,,,,,,,,,,,,,,,,,,,,,,,,,,,,
,,65745708518a6ec1b4773387,2023-12-15_11h10.45.039,kallum_motion_pilot,2023.2.3,Win32,21.32196162,65745708518a6ec1b4773387,657bb317c8798c6608bceb3f,657bb47bc8798c6608bceb81,0.0276,0.0277,0,85,85,129,1,fiveseven,,,,,,,,,,,,,,,,,,,,,,,,,,,,,,,,,,,,,,,,,,,,,,,,,,,,,,,,,,,,,,,,,,,,,,,,,,,,,,,,,,,,,,,,,,,,,,,,,,,,,,,,,,,,,,,,,,,,,,,,,,,,,,,,,,,,,,,
,,65745708518a6ec1b4773387,2023-12-15_11h10.45.039,kallum_motion_pilot,2023.2.3,Win32,21.32196162,65745708518a6ec1b4773387,657bb317c8798c6608bceb3f,657bb47bc8798c6608bceb81,0.0277,0.0278,0,86,86,145,1,fiveseven,,,,,,,,,,,,,,,,,,,,,,,,,,,,,,,,,,,,,,,,,,,,,,,,,,,,,,,,,,,,,,,,,,,,,,,,,,,,,,,,,,,,,,,,,,,,,,,,,,,,,,,,,,,,,,,,,,,,,,,,,,,,,,,,,,,,,,,
,,65745708518a6ec1b4773387,2023-12-15_11h10.45.039,kallum_motion_pilot,2023.2.3,Win32,21.32196162,65745708518a6ec1b4773387,657bb317c8798c6608bceb3f,657bb47bc8798c6608bceb81,0.0278,0.0279,0,87,87,41,1,onethree,,,,,,,,,,,,,,,,,,,,,,,,,,,,,,,,,,,,,,,,,,,,,,,,,,,,,,,,,,,,,,,,,,,,,,,,,,,,,,,,,,,,,,,,,,,,,,,,,,,,,,,,,,,,,,,,,,,,,,,,,,,,,,,,,,,,,,,
,,65745708518a6ec1b4773387,2023-12-15_11h10.45.039,kallum_motion_pilot,2023.2.3,Win32,21.32196162,65745708518a6ec1b4773387,657bb317c8798c6608bceb3f,657bb47bc8798c6608bceb81,0.028,0.028,0,88,88,75,1,twofour,,,,,,,,,,,,,,,,,,,,,,,,,,,,,,,,,,,,,,,,,,,,,,,,,,,,,,,,,,,,,,,,,,,,,,,,,,,,,,,,,,,,,,,,,,,,,,,,,,,,,,,,,,,,,,,,,,,,,,,,,,,,,,,,,,,,,,,
,,65745708518a6ec1b4773387,2023-12-15_11h10.45.039,kallum_motion_pilot,2023.2.3,Win32,21.32196162,65745708518a6ec1b4773387,657bb317c8798c6608bceb3f,657bb47bc8798c6608bceb81,0.028,0.028,0,89,89,80,1,fivesix,,,,,,,,,,,,,,,,,,,,,,,,,,,,,,,,,,,,,,,,,,,,,,,,,,,,,,,,,,,,,,,,,,,,,,,,,,,,,,,,,,,,,,,,,,,,,,,,,,,,,,,,,,,,,,,,,,,,,,,,,,,,,,,,,,,,,,,
,,65745708518a6ec1b4773387,2023-12-15_11h10.45.039,kallum_motion_pilot,2023.2.3,Win32,21.32196162,65745708518a6ec1b4773387,657bb317c8798c6608bceb3f,657bb47bc8798c6608bceb81,0.0281,0.0282,0,90,90,25,1,onethree,,,,,,,,,,,,,,,,,,,,,,,,,,,,,,,,,,,,,,,,,,,,,,,,,,,,,,,,,,,,,,,,,,,,,,,,,,,,,,,,,,,,,,,,,,,,,,,,,,,,,,,,,,,,,,,,,,,,,,,,,,,,,,,,,,,,,,,
,,65745708518a6ec1b4773387,2023-12-15_11h10.45.039,kallum_motion_pilot,2023.2.3,Win32,21.32196162,65745708518a6ec1b4773387,657bb317c8798c6608bceb3f,657bb47bc8798c6608bceb81,0.0282,0.0282,0,91,91,138,1,sixfive,,,,,,,,,,,,,,,,,,,,,,,,,,,,,,,,,,,,,,,,,,,,,,,,,,,,,,,,,,,,,,,,,,,,,,,,,,,,,,,,,,,,,,,,,,,,,,,,,,,,,,,,,,,,,,,,,,,,,,,,,,,,,,,,,,,,,,,
,,65745708518a6ec1b4773387,2023-12-15_11h10.45.039,kallum_motion_pilot,2023.2.3,Win32,21.32196162,65745708518a6ec1b4773387,657bb317c8798c6608bceb3f,657bb47bc8798c6608bceb81,0.0283,0.0283,0,92,92,81,1,fiveseven,,,,,,,,,,,,,,,,,,,,,,,,,,,,,,,,,,,,,,,,,,,,,,,,,,,,,,,,,,,,,,,,,,,,,,,,,,,,,,,,,,,,,,,,,,,,,,,,,,,,,,,,,,,,,,,,,,,,,,,,,,,,,,,,,,,,,,,
,,65745708518a6ec1b4773387,2023-12-15_11h10.45.039,kallum_motion_pilot,2023.2.3,Win32,21.32196162,65745708518a6ec1b4773387,657bb317c8798c6608bceb3f,657bb47bc8798c6608bceb81,0.0284,0.0285,0,93,93,96,1,fivesix,,,,,,,,,,,,,,,,,,,,,,,,,,,,,,,,,,,,,,,,,,,,,,,,,,,,,,,,,,,,,,,,,,,,,,,,,,,,,,,,,,,,,,,,,,,,,,,,,,,,,,,,,,,,,,,,,,,,,,,,,,,,,,,,,,,,,,,
,,65745708518a6ec1b4773387,2023-12-15_11h10.45.039,kallum_motion_pilot,2023.2.3,Win32,21.32196162,65745708518a6ec1b4773387,657bb317c8798c6608bceb3f,657bb47bc8798c6608bceb81,0.0285,0.0285,0,94,94,10,1,twoone,,,,,,,,,,,,,,,,,,,,,,,,,,,,,,,,,,,,,,,,,,,,,,,,,,,,,,,,,,,,,,,,,,,,,,,,,,,,,,,,,,,,,,,,,,,,,,,,,,,,,,,,,,,,,,,,,,,,,,,,,,,,,,,,,,,,,,,
,,65745708518a6ec1b4773387,2023-12-15_11h10.45.039,kallum_motion_pilot,2023.2.3,Win32,21.32196162,65745708518a6ec1b4773387,657bb317c8798c6608bceb3f,657bb47bc8798c6608bceb81,0.0286,0.0287,0,95,95,27,1,twofour,,,,,,,,,,,,,,,,,,,,,,,,,,,,,,,,,,,,,,,,,,,,,,,,,,,,,,,,,,,,,,,,,,,,,,,,,,,,,,,,,,,,,,,,,,,,,,,,,,,,,,,,,,,,,,,,,,,,,,,,,,,,,,,,,,,,,,,
,,65745708518a6ec1b4773387,2023-12-15_11h10.45.039,kallum_motion_pilot,2023.2.3,Win32,21.32196162,65745708518a6ec1b4773387,657bb317c8798c6608bceb3f,657bb47bc8798c6608bceb81,0.0288,0.0288,0,96,96,155,1,sixeight,,,,,,,,,,,,,,,,,,,,,,,,,,,,,,,,,,,,,,,,,,,,,,,,,,,,,,,,,,,,,,,,,,,,,,,,,,,,,,,,,,,,,,,,,,,,,,,,,,,,,,,,,,,,,,,,,,,,,,,,,,,,,,,,,,,,,,,
,,65745708518a6ec1b4773387,2023-12-15_11h10.45.039,kallum_motion_pilot,2023.2.3,Win32,21.32196162,65745708518a6ec1b4773387,657bb317c8798c6608bceb3f,657bb47bc8798c6608bceb81,0.0289,0.0289,0,97,97,44,1,threeone,,,,,,,,,,,,,,,,,,,,,,,,,,,,,,,,,,,,,,,,,,,,,,,,,,,,,,,,,,,,,,,,,,,,,,,,,,,,,,,,,,,,,,,,,,,,,,,,,,,,,,,,,,,,,,,,,,,,,,,,,,,,,,,,,,,,,,,
,,65745708518a6ec1b4773387,2023-12-15_11h10.45.039,kallum_motion_pilot,2023.2.3,Win32,21.32196162,65745708518a6ec1b4773387,657bb317c8798c6608bceb3f,657bb47bc8798c6608bceb81,0.029,0.029,0,98,98,103,1,eightseven,,,,,,,,,,,,,,,,,,,,,,,,,,,,,,,,,,,,,,,,,,,,,,,,,,,,,,,,,,,,,,,,,,,,,,,,,,,,,,,,,,,,,,,,,,,,,,,,,,,,,,,,,,,,,,,,,,,,,,,,,,,,,,,,,,,,,,,
,,65745708518a6ec1b4773387,2023-12-15_11h10.45.039,kallum_motion_pilot,2023.2.3,Win32,21.32196162,65745708518a6ec1b4773387,657bb317c8798c6608bceb3f,657bb47bc8798c6608bceb81,0.029,0.0291,0,99,99,82,1,sixfive,,,,,,,,,,,,,,,,,,,,,,,,,,,,,,,,,,,,,,,,,,,,,,,,,,,,,,,,,,,,,,,,,,,,,,,,,,,,,,,,,,,,,,,,,,,,,,,,,,,,,,,,,,,,,,,,,,,,,,,,,,,,,,,,,,,,,,,
,,65745708518a6ec1b4773387,2023-12-15_11h10.45.039,kallum_motion_pilot,2023.2.3,Win32,21.32196162,65745708518a6ec1b4773387,657bb317c8798c6608bceb3f,657bb47bc8798c6608bceb81,0.0292,0.0292,0,100,100,121,1,fiveseven,,,,,,,,,,,,,,,,,,,,,,,,,,,,,,,,,,,,,,,,,,,,,,,,,,,,,,,,,,,,,,,,,,,,,,,,,,,,,,,,,,,,,,,,,,,,,,,,,,,,,,,,,,,,,,,,,,,,,,,,,,,,,,,,,,,,,,,
,,65745708518a6ec1b4773387,2023-12-15_11h10.45.039,kallum_motion_pilot,2023.2.3,Win32,21.32196162,65745708518a6ec1b4773387,657bb317c8798c6608bceb3f,657bb47bc8798c6608bceb81,0.0293,0.0293,0,101,101,85,1,seveneight,,,,,,,,,,,,,,,,,,,,,,,,,,,,,,,,,,,,,,,,,,,,,,,,,,,,,,,,,,,,,,,,,,,,,,,,,,,,,,,,,,,,,,,,,,,,,,,,,,,,,,,,,,,,,,,,,,,,,,,,,,,,,,,,,,,,,,,
,,65745708518a6ec1b4773387,2023-12-15_11h10.45.039,kallum_motion_pilot,2023.2.3,Win32,21.32196162,65745708518a6ec1b4773387,657bb317c8798c6608bceb3f,657bb47bc8798c6608bceb81,0.0294,0.0294,0,102,102,149,1,seveneight,,,,,,,,,,,,,,,,,,,,,,,,,,,,,,,,,,,,,,,,,,,,,,,,,,,,,,,,,,,,,,,,,,,,,,,,,,,,,,,,,,,,,,,,,,,,,,,,,,,,,,,,,,,,,,,,,,,,,,,,,,,,,,,,,,,,,,,
,,65745708518a6ec1b4773387,2023-12-15_11h10.45.039,kallum_motion_pilot,2023.2.3,Win32,21.32196162,65745708518a6ec1b4773387,657bb317c8798c6608bceb3f,657bb47bc8798c6608bceb81,0.0295,0.0296,0,103,103,107,1,sixeight,,,,,,,,,,,,,,,,,,,,,,,,,,,,,,,,,,,,,,,,,,,,,,,,,,,,,,,,,,,,,,,,,,,,,,,,,,,,,,,,,,,,,,,,,,,,,,,,,,,,,,,,,,,,,,,,,,,,,,,,,,,,,,,,,,,,,,,
,,65745708518a6ec1b4773387,2023-12-15_11h10.45.039,kallum_motion_pilot,2023.2.3,Win32,21.32196162,65745708518a6ec1b4773387,657bb317c8798c6608bceb3f,657bb47bc8798c6608bceb81,0.0296,0.0296,0,104,104,105,1,fiveseven,,,,,,,,,,,,,,,,,,,,,,,,,,,,,,,,,,,,,,,,,,,,,,,,,,,,,,,,,,,,,,,,,,,,,,,,,,,,,,,,,,,,,,,,,,,,,,,,,,,,,,,,,,,,,,,,,,,,,,,,,,,,,,,,,,,,,,,
,,65745708518a6ec1b4773387,2023-12-15_11h10.45.039,kallum_motion_pilot,2023.2.3,Win32,21.32196162,65745708518a6ec1b4773387,657bb317c8798c6608bceb3f,657bb47bc8798c6608bceb81,0.0298,0.0298,0,105,105,143,1,eightseven,,,,,,,,,,,,,,,,,,,,,,,,,,,,,,,,,,,,,,,,,,,,,,,,,,,,,,,,,,,,,,,,,,,,,,,,,,,,,,,,,,,,,,,,,,,,,,,,,,,,,,,,,,,,,,,,,,,,,,,,,,,,,,,,,,,,,,,
,,65745708518a6ec1b4773387,2023-12-15_11h10.45.039,kallum_motion_pilot,2023.2.3,Win32,21.32196162,65745708518a6ec1b4773387,657bb317c8798c6608bceb3f,657bb47bc8798c6608bceb81,0.0298,0.0298,0,106,106,7,1,fourthree,,,,,,,,,,,,,,,,,,,,,,,,,,,,,,,,,,,,,,,,,,,,,,,,,,,,,,,,,,,,,,,,,,,,,,,,,,,,,,,,,,,,,,,,,,,,,,,,,,,,,,,,,,,,,,,,,,,,,,,,,,,,,,,,,,,,,,,
,,65745708518a6ec1b4773387,2023-12-15_11h10.45.039,kallum_motion_pilot,2023.2.3,Win32,21.32196162,65745708518a6ec1b4773387,657bb317c8798c6608bceb3f,657bb47bc8798c6608bceb81,0.0299,0.0299,0,107,107,47,1,fourthree,,,,,,,,,,,,,,,,,,,,,,,,,,,,,,,,,,,,,,,,,,,,,,,,,,,,,,,,,,,,,,,,,,,,,,,,,,,,,,,,,,,,,,,,,,,,,,,,,,,,,,,,,,,,,,,,,,,,,,,,,,,,,,,,,,,,,,,
,,65745708518a6ec1b4773387,2023-12-15_11h10.45.039,kallum_motion_pilot,2023.2.3,Win32,21.32196162,65745708518a6ec1b4773387,657bb317c8798c6608bceb3f,657bb47bc8798c6608bceb81,0.03,0.0301,0,108,108,18,1,twoone,,,,,,,,,,,,,,,,,,,,,,,,,,,,,,,,,,,,,,,,,,,,,,,,,,,,,,,,,,,,,,,,,,,,,,,,,,,,,,,,,,,,,,,,,,,,,,,,,,,,,,,,,,,,,,,,,,,,,,,,,,,,,,,,,,,,,,,
,,65745708518a6ec1b4773387,2023-12-15_11h10.45.039,kallum_motion_pilot,2023.2.3,Win32,21.32196162,65745708518a6ec1b4773387,657bb317c8798c6608bceb3f,657bb47bc8798c6608bceb81,0.0301,0.0302,0,109,109,160,1,fivesix,,,,,,,,,,,,,,,,,,,,,,,,,,,,,,,,,,,,,,,,,,,,,,,,,,,,,,,,,,,,,,,,,,,,,,,,,,,,,,,,,,,,,,,,,,,,,,,,,,,,,,,,,,,,,,,,,,,,,,,,,,,,,,,,,,,,,,,
,,65745708518a6ec1b4773387,2023-12-15_11h10.45.039,kallum_motion_pilot,2023.2.3,Win32,21.32196162,65745708518a6ec1b4773387,657bb317c8798c6608bceb3f,657bb47bc8798c6608bceb81,0.0303,0.0303,0,110,110,111,1,eightseven,,,,,,,,,,,,,,,,,,,,,,,,,,,,,,,,,,,,,,,,,,,,,,,,,,,,,,,,,,,,,,,,,,,,,,,,,,,,,,,,,,,,,,,,,,,,,,,,,,,,,,,,,,,,,,,,,,,,,,,,,,,,,,,,,,,,,,,
,,65745708518a6ec1b4773387,2023-12-15_11h10.45.039,kallum_motion_pilot,2023.2.3,Win32,21.32196162,65745708518a6ec1b4773387,657bb317c8798c6608bceb3f,657bb47bc8798c6608bceb81,0.0303,0.0304,0,111,111,16,1,onetwo,,,,,,,,,,,,,,,,,,,,,,,,,,,,,,,,,,,,,,,,,,,,,,,,,,,,,,,,,,,,,,,,,,,,,,,,,,,,,,,,,,,,,,,,,,,,,,,,,,,,,,,,,,,,,,,,,,,,,,,,,,,,,,,,,,,,,,,
,,65745708518a6ec1b4773387,2023-12-15_11h10.45.039,kallum_motion_pilot,2023.2.3,Win32,21.32196162,65745708518a6ec1b4773387,657bb317c8798c6608bceb3f,657bb47bc8798c6608bceb81,0.0305,0.0307,0,112,112,68,1,threeone,,,,,,,,,,,,,,,,,,,,,,,,,,,,,,,,,,,,,,,,,,,,,,,,,,,,,,,,,,,,,,,,,,,,,,,,,,,,,,,,,,,,,,,,,,,,,,,,,,,,,,,,,,,,,,,,,,,,,,,,,,,,,,,,,,,,,,,
,,65745708518a6ec1b4773387,2023-12-15_11h10.45.039,kallum_motion_pilot,2023.2.3,Win32,21.32196162,65745708518a6ec1b4773387,657bb317c8798c6608bceb3f,657bb47bc8798c6608bceb81,0.0308,0.0308,0,113,113,108,1,sevenfive,,,,,,,,,,,,,,,,,,,,,,,,,,,,,,,,,,,,,,,,,,,,,,,,,,,,,,,,,,,,,,,,,,,,,,,,,,,,,,,,,,,,,,,,,,,,,,,,,,,,,,,,,,,,,,,,,,,,,,,,,,,,,,,,,,,,,,,
,,65745708518a6ec1b4773387,2023-12-15_11h10.45.039,kallum_motion_pilot,2023.2.3,Win32,21.32196162,65745708518a6ec1b4773387,657bb317c8798c6608bceb3f,657bb47bc8798c6608bceb81,0.0309,0.0311,0,114,114,35,1,twofour,,,,,,,,,,,,,,,,,,,,,,,,,,,,,,,,,,,,,,,,,,,,,,,,,,,,,,,,,,,,,,,,,,,,,,,,,,,,,,,,,,,,,,,,,,,,,,,,,,,,,,,,,,,,,,,,,,,,,,,,,,,,,,,,,,,,,,,
,,65745708518a6ec1b4773387,2023-12-15_11h10.45.039,kallum_motion_pilot,2023.2.3,Win32,21.32196162,65745708518a6ec1b4773387,657bb317c8798c6608bceb3f,657bb47bc8798c6608bceb81,0.0311,0.0312,0,115,115,1,1,onethree,,,,,,,,,,,,,,,,,,,,,,,,,,,,,,,,,,,,,,,,,,,,,,,,,,,,,,,,,,,,,,,,,,,,,,,,,,,,,,,,,,,,,,,,,,,,,,,,,,,,,,,,,,,,,,,,,,,,,,,,,,,,,,,,,,,,,,,
,,65745708518a6ec1b4773387,2023-12-15_11h10.45.039,kallum_motion_pilot,2023.2.3,Win32,21.32196162,65745708518a6ec1b4773387,657bb317c8798c6608bceb3f,657bb47bc8798c6608bceb81,0.0313,0.0313,0,116,116,97,1,fiveseven,,,,,,,,,,,,,,,,,,,,,,,,,,,,,,,,,,,,,,,,,,,,,,,,,,,,,,,,,,,,,,,,,,,,,,,,,,,,,,,,,,,,,,,,,,,,,,,,,,,,,,,,,,,,,,,,,,,,,,,,,,,,,,,,,,,,,,,
,,65745708518a6ec1b4773387,2023-12-15_11h10.45.039,kallum_motion_pilot,2023.2.3,Win32,21.32196162,65745708518a6ec1b4773387,657bb317c8798c6608bceb3f,657bb47bc8798c6608bceb81,0.0313,0.0314,0,117,117,100,1,sevenfive,,,,,,,,,,,,,,,,,,,,,,,,,,,,,,,,,,,,,,,,,,,,,,,,,,,,,,,,,,,,,,,,,,,,,,,,,,,,,,,,,,,,,,,,,,,,,,,,,,,,,,,,,,,,,,,,,,,,,,,,,,,,,,,,,,,,,,,
,,65745708518a6ec1b4773387,2023-12-15_11h10.45.039,kallum_motion_pilot,2023.2.3,Win32,21.32196162,65745708518a6ec1b4773387,657bb317c8798c6608bceb3f,657bb47bc8798c6608bceb81,0.0315,0.0315,0,118,118,69,1,threefour,,,,,,,,,,,,,,,,,,,,,,,,,,,,,,,,,,,,,,,,,,,,,,,,,,,,,,,,,,,,,,,,,,,,,,,,,,,,,,,,,,,,,,,,,,,,,,,,,,,,,,,,,,,,,,,,,,,,,,,,,,,,,,,,,,,,,,,
,,65745708518a6ec1b4773387,2023-12-15_11h10.45.039,kallum_motion_pilot,2023.2.3,Win32,21.32196162,65745708518a6ec1b4773387,657bb317c8798c6608bceb3f,657bb47bc8798c6608bceb81,0.0316,0.0316,0,119,119,36,1,threeone,,,,,,,,,,,,,,,,,,,,,,,,,,,,,,,,,,,,,,,,,,,,,,,,,,,,,,,,,,,,,,,,,,,,,,,,,,,,,,,,,,,,,,,,,,,,,,,,,,,,,,,,,,,,,,,,,,,,,,,,,,,,,,,,,,,,,,,
,,65745708518a6ec1b4773387,2023-12-15_11h10.45.039,kallum_motion_pilot,2023.2.3,Win32,21.32196162,65745708518a6ec1b4773387,657bb317c8798c6608bceb3f,657bb47bc8798c6608bceb81,0.0317,0.0318,0,120,120,51,1,twofour,,,,,,,,,,,,,,,,,,,,,,,,,,,,,,,,,,,,,,,,,,,,,,,,,,,,,,,,,,,,,,,,,,,,,,,,,,,,,,,,,,,,,,,,,,,,,,,,,,,,,,,,,,,,,,,,,,,,,,,,,,,,,,,,,,,,,,,
,,65745708518a6ec1b4773387,2023-12-15_11h10.45.039,kallum_motion_pilot,2023.2.3,Win32,21.32196162,65745708518a6ec1b4773387,657bb317c8798c6608bceb3f,657bb47bc8798c6608bceb81,0.0318,0.0319,0,121,121,9,1,onethree,,,,,,,,,,,,,,,,,,,,,,,,,,,,,,,,,,,,,,,,,,,,,,,,,,,,,,,,,,,,,,,,,,,,,,,,,,,,,,,,,,,,,,,,,,,,,,,,,,,,,,,,,,,,,,,,,,,,,,,,,,,,,,,,,,,,,,,
,,65745708518a6ec1b4773387,2023-12-15_11h10.45.039,kallum_motion_pilot,2023.2.3,Win32,21.32196162,65745708518a6ec1b4773387,657bb317c8798c6608bceb3f,657bb47bc8798c6608bceb81,0.0319,0.032,0,122,122,88,1,fivesix,,,,,,,,,,,,,,,,,,,,,,,,,,,,,,,,,,,,,,,,,,,,,,,,,,,,,,,,,,,,,,,,,,,,,,,,,,,,,,,,,,,,,,,,,,,,,,,,,,,,,,,,,,,,,,,,,,,,,,,,,,,,,,,,,,,,,,,
,,65745708518a6ec1b4773387,2023-12-15_11h10.45.039,kallum_motion_pilot,2023.2.3,Win32,21.32196162,65745708518a6ec1b4773387,657bb317c8798c6608bceb3f,657bb47bc8798c6608bceb81,0.032,0.0321,0,123,123,52,1,threeone,,,,,,,,,,,,,,,,,,,,,,,,,,,,,,,,,,,,,,,,,,,,,,,,,,,,,,,,,,,,,,,,,,,,,,,,,,,,,,,,,,,,,,,,,,,,,,,,,,,,,,,,,,,,,,,,,,,,,,,,,,,,,,,,,,,,,,,
,,65745708518a6ec1b4773387,2023-12-15_11h10.45.039,kallum_motion_pilot,2023.2.3,Win32,21.32196162,65745708518a6ec1b4773387,657bb317c8798c6608bceb3f,657bb47bc8798c6608bceb81,0.0322,0.0322,0,124,124,154,1,sixfive,,,,,,,,,,,,,,,,,,,,,,,,,,,,,,,,,,,,,,,,,,,,,,,,,,,,,,,,,,,,,,,,,,,,,,,,,,,,,,,,,,,,,,,,,,,,,,,,,,,,,,,,,,,,,,,,,,,,,,,,,,,,,,,,,,,,,,,
,,65745708518a6ec1b4773387,2023-12-15_11h10.45.039,kallum_motion_pilot,2023.2.3,Win32,21.32196162,65745708518a6ec1b4773387,657bb317c8798c6608bceb3f,657bb47bc8798c6608bceb81,0.0323,0.0324,0,125,125,135,1,eightseven,,,,,,,,,,,,,,,,,,,,,,,,,,,,,,,,,,,,,,,,,,,,,,,,,,,,,,,,,,,,,,,,,,,,,,,,,,,,,,,,,,,,,,,,,,,,,,,,,,,,,,,,,,,,,,,,,,,,,,,,,,,,,,,,,,,,,,,
,,65745708518a6ec1b4773387,2023-12-15_11h10.45.039,kallum_motion_pilot,2023.2.3,Win32,21.32196162,65745708518a6ec1b4773387,657bb317c8798c6608bceb3f,657bb47bc8798c6608bceb81,0.0324,0.0325,0,126,126,153,1,fiveseven,,,,,,,,,,,,,,,,,,,,,,,,,,,,,,,,,,,,,,,,,,,,,,,,,,,,,,,,,,,,,,,,,,,,,,,,,,,,,,,,,,,,,,,,,,,,,,,,,,,,,,,,,,,,,,,,,,,,,,,,,,,,,,,,,,,,,,,
,,65745708518a6ec1b4773387,2023-12-15_11h10.45.039,kallum_motion_pilot,2023.2.3,Win32,21.32196162,65745708518a6ec1b4773387,657bb317c8798c6608bceb3f,657bb47bc8798c6608bceb81,0.0325,0.0327,0,127,127,132,1,sevenfive,,,,,,,,,,,,,,,,,,,,,,,,,,,,,,,,,,,,,,,,,,,,,,,,,,,,,,,,,,,,,,,,,,,,,,,,,,,,,,,,,,,,,,,,,,,,,,,,,,,,,,,,,,,,,,,,,,,,,,,,,,,,,,,,,,,,,,,
,,65745708518a6ec1b4773387,2023-12-15_11h10.45.039,kallum_motion_pilot,2023.2.3,Win32,21.32196162,65745708518a6ec1b4773387,657bb317c8798c6608bceb3f,657bb47bc8798c6608bceb81,0.0327,0.0327,0,128,128,131,1,sixeight,,,,,,,,,,,,,,,,,,,,,,,,,,,,,,,,,,,,,,,,,,,,,,,,,,,,,,,,,,,,,,,,,,,,,,,,,,,,,,,,,,,,,,,,,,,,,,,,,,,,,,,,,,,,,,,,,,,,,,,,,,,,,,,,,,,,,,,
,,65745708518a6ec1b4773387,2023-12-15_11h10.45.039,kallum_motion_pilot,2023.2.3,Win32,21.32196162,65745708518a6ec1b4773387,657bb317c8798c6608bceb3f,657bb47bc8798c6608bceb81,0.0328,0.0329,0,129,129,95,1,eightseven,,,,,,,,,,,,,,,,,,,,,,,,,,,,,,,,,,,,,,,,,,,,,,,,,,,,,,,,,,,,,,,,,,,,,,,,,,,,,,,,,,,,,,,,,,,,,,,,,,,,,,,,,,,,,,,,,,,,,,,,,,,,,,,,,,,,,,,
,,65745708518a6ec1b4773387,2023-12-15_11h10.45.039,kallum_motion_pilot,2023.2.3,Win32,21.32196162,65745708518a6ec1b4773387,657bb317c8798c6608bceb3f,657bb47bc8798c6608bceb81,0.0329,0.0329,0,130,130,23,1,fourthree,,,,,,,,,,,,,,,,,,,,,,,,,,,,,,,,,,,,,,,,,,,,,,,,,,,,,,,,,,,,,,,,,,,,,,,,,,,,,,,,,,,,,,,,,,,,,,,,,,,,,,,,,,,,,,,,,,,,,,,,,,,,,,,,,,,,,,,
,,65745708518a6ec1b4773387,2023-12-15_11h10.45.039,kallum_motion_pilot,2023.2.3,Win32,21.32196162,65745708518a6ec1b4773387,657bb317c8798c6608bceb3f,657bb47bc8798c6608bceb81,0.033,0.0331,0,131,131,76,1,threeone,,,,,,,,,,,,,,,,,,,,,,,,,,,,,,,,,,,,,,,,,,,,,,,,,,,,,,,,,,,,,,,,,,,,,,,,,,,,,,,,,,,,,,,,,,,,,,,,,,,,,,,,,,,,,,,,,,,,,,,,,,,,,,,,,,,,,,,
,,65745708518a6ec1b4773387,2023-12-15_11h10.45.039,kallum_motion_pilot,2023.2.3,Win32,21.32196162,65745708518a6ec1b4773387,657bb317c8798c6608bceb3f,657bb47bc8798c6608bceb81,0.0331,0.0332,0,132,132,19,1,twofour,,,,,,,,,,,,,,,,,,,,,,,,,,,,,,,,,,,,,,,,,,,,,,,,,,,,,,,,,,,,,,,,,,,,,,,,,,,,,,,,,,,,,,,,,,,,,,,,,,,,,,,,,,,,,,,,,,,,,,,,,,,,,,,,,,,,,,,
,,65745708518a6ec1b4773387,2023-12-15_11h10.45.039,kallum_motion_pilot,2023.2.3,Win32,21.32196162,65745708518a6ec1b4773387,657bb317c8798c6608bceb3f,657bb47bc8798c6608bceb81,0.0332,0.0332,0,133,133,161,1,fiveseven,,,,,,,,,,,,,,,,,,,,,,,,,,,,,,,,,,,,,,,,,,,,,,,,,,,,,,,,,,,,,,,,,,,,,,,,,,,,,,,,,,,,,,,,,,,,,,,,,,,,,,,,,,,,,,,,,,,,,,,,,,,,,,,,,,,,,,,
,,65745708518a6ec1b4773387,2023-12-15_11h10.45.039,kallum_motion_pilot,2023.2.3,Win32,21.32196162,65745708518a6ec1b4773387,657bb317c8798c6608bceb3f,657bb47bc8798c6608bceb81,0.0333,0.0334,0,134,134,71,1,fourthree,,,,,,,,,,,,,,,,,,,,,,,,,,,,,,,,,,,,,,,,,,,,,,,,,,,,,,,,,,,,,,,,,,,,,,,,,,,,,,,,,,,,,,,,,,,,,,,,,,,,,,,,,,,,,,,,,,,,,,,,,,,,,,,,,,,,,,,
,,65745708518a6ec1b4773387,2023-12-15_11h10.45.039,kallum_motion_pilot,2023.2.3,Win32,21.32196162,65745708518a6ec1b4773387,657bb317c8798c6608bceb3f,657bb47bc8798c6608bceb81,0.0334,0.0335,0,135,135,118,1,eightsix,,,,,,,,,,,,,,,,,,,,,,,,,,,,,,,,,,,,,,,,,,,,,,,,,,,,,,,,,,,,,,,,,,,,,,,,,,,,,,,,,,,,,,,,,,,,,,,,,,,,,,,,,,,,,,,,,,,,,,,,,,,,,,,,,,,,,,,
,,65745708518a6ec1b4773387,2023-12-15_11h10.45.039,kallum_motion_pilot,2023.2.3,Win32,21.32196162,65745708518a6ec1b4773387,657bb317c8798c6608bceb3f,657bb47bc8798c6608bceb81,0.0335,0.0336,0,136,136,122,1,sixfive,,,,,,,,,,,,,,,,,,,,,,,,,,,,,,,,,,,,,,,,,,,,,,,,,,,,,,,,,,,,,,,,,,,,,,,,,,,,,,,,,,,,,,,,,,,,,,,,,,,,,,,,,,,,,,,,,,,,,,,,,,,,,,,,,,,,,,,
,,65745708518a6ec1b4773387,2023-12-15_11h10.45.039,kallum_motion_pilot,2023.2.3,Win32,21.32196162,65745708518a6ec1b4773387,657bb317c8798c6608bceb3f,657bb47bc8798c6608bceb81,0.0337,0.0337,0,137,137,158,1,eightsix,,,,,,,,,,,,,,,,,,,,,,,,,,,,,,,,,,,,,,,,,,,,,,,,,,,,,,,,,,,,,,,,,,,,,,,,,,,,,,,,,,,,,,,,,,,,,,,,,,,,,,,,,,,,,,,,,,,,,,,,,,,,,,,,,,,,,,,
,,65745708518a6ec1b4773387,2023-12-15_11h10.45.039,kallum_motion_pilot,2023.2.3,Win32,21.32196162,65745708518a6ec1b4773387,657bb317c8798c6608bceb3f,657bb47bc8798c6608bceb81,0.0338,0.0338,0,138,138,55,1,fourthree,,,,,,,,,,,,,,,,,,,,,,,,,,,,,,,,,,,,,,,,,,,,,,,,,,,,,,,,,,,,,,,,,,,,,,,,,,,,,,,,,,,,,,,,,,,,,,,,,,,,,,,,,,,,,,,,,,,,,,,,,,,,,,,,,,,,,,,
,,65745708518a6ec1b4773387,2023-12-15_11h10.45.039,kallum_motion_pilot,2023.2.3,Win32,21.32196162,65745708518a6ec1b4773387,657bb317c8798c6608bceb3f,657bb47bc8798c6608bceb81,0.0339,0.0339,0,139,139,21,1,threefour,,,,,,,,,,,,,,,,,,,,,,,,,,,,,,,,,,,,,,,,,,,,,,,,,,,,,,,,,,,,,,,,,,,,,,,,,,,,,,,,,,,,,,,,,,,,,,,,,,,,,,,,,,,,,,,,,,,,,,,,,,,,,,,,,,,,,,,
,,65745708518a6ec1b4773387,2023-12-15_11h10.45.039,kallum_motion_pilot,2023.2.3,Win32,21.32196162,65745708518a6ec1b4773387,657bb317c8798c6608bceb3f,657bb47bc8798c6608bceb81,0.034,0.0341,0,140,140,102,1,eightsix,,,,,,,,,,,,,,,,,,,,,,,,,,,,,,,,,,,,,,,,,,,,,,,,,,,,,,,,,,,,,,,,,,,,,,,,,,,,,,,,,,,,,,,,,,,,,,,,,,,,,,,,,,,,,,,,,,,,,,,,,,,,,,,,,,,,,,,
,,65745708518a6ec1b4773387,2023-12-15_11h10.45.039,kallum_motion_pilot,2023.2.3,Win32,21.32196162,65745708518a6ec1b4773387,657bb317c8798c6608bceb3f,657bb47bc8798c6608bceb81,0.0341,0.0341,0,141,141,115,1,sixeight,,,,,,,,,,,,,,,,,,,,,,,,,,,,,,,,,,,,,,,,,,,,,,,,,,,,,,,,,,,,,,,,,,,,,,,,,,,,,,,,,,,,,,,,,,,,,,,,,,,,,,,,,,,,,,,,,,,,,,,,,,,,,,,,,,,,,,,
,,65745708518a6ec1b4773387,2023-12-15_11h10.45.039,kallum_motion_pilot,2023.2.3,Win32,21.32196162,65745708518a6ec1b4773387,657bb317c8798c6608bceb3f,657bb47bc8798c6608bceb81,0.0342,0.0342,0,142,142,38,1,fourtwo,,,,,,,,,,,,,,,,,,,,,,,,,,,,,,,,,,,,,,,,,,,,,,,,,,,,,,,,,,,,,,,,,,,,,,,,,,,,,,,,,,,,,,,,,,,,,,,,,,,,,,,,,,,,,,,,,,,,,,,,,,,,,,,,,,,,,,,
,,65745708518a6ec1b4773387,2023-12-15_11h10.45.039,kallum_motion_pilot,2023.2.3,Win32,21.32196162,65745708518a6ec1b4773387,657bb317c8798c6608bceb3f,657bb47bc8798c6608bceb81,0.0343,0.0343,0,143,143,92,1,sevenfive,,,,,,,,,,,,,,,,,,,,,,,,,,,,,,,,,,,,,,,,,,,,,,,,,,,,,,,,,,,,,,,,,,,,,,,,,,,,,,,,,,,,,,,,,,,,,,,,,,,,,,,,,,,,,,,,,,,,,,,,,,,,,,,,,,,,,,,
,,65745708518a6ec1b4773387,2023-12-15_11h10.45.039,kallum_motion_pilot,2023.2.3,Win32,21.32196162,65745708518a6ec1b4773387,657bb317c8798c6608bceb3f,657bb47bc8798c6608bceb81,0.0344,0.0345,0,144,144,86,1,eightsix,,,,,,,,,,,,,,,,,,,,,,,,,,,,,,,,,,,,,,,,,,,,,,,,,,,,,,,,,,,,,,,,,,,,,,,,,,,,,,,,,,,,,,,,,,,,,,,,,,,,,,,,,,,,,,,,,,,,,,,,,,,,,,,,,,,,,,,
,,65745708518a6ec1b4773387,2023-12-15_11h10.45.039,kallum_motion_pilot,2023.2.3,Win32,21.32196162,65745708518a6ec1b4773387,657bb317c8798c6608bceb3f,657bb47bc8798c6608bceb81,0.0346,0.0346,0,145,145,39,1,fourthree,,,,,,,,,,,,,,,,,,,,,,,,,,,,,,,,,,,,,,,,,,,,,,,,,,,,,,,,,,,,,,,,,,,,,,,,,,,,,,,,,,,,,,,,,,,,,,,,,,,,,,,,,,,,,,,,,,,,,,,,,,,,,,,,,,,,,,,
,,65745708518a6ec1b4773387,2023-12-15_11h10.45.039,kallum_motion_pilot,2023.2.3,Win32,21.32196162,65745708518a6ec1b4773387,657bb317c8798c6608bceb3f,657bb47bc8798c6608bceb81,0.0347,0.0347,0,146,146,123,1,sixeight,,,,,,,,,,,,,,,,,,,,,,,,,,,,,,,,,,,,,,,,,,,,,,,,,,,,,,,,,,,,,,,,,,,,,,,,,,,,,,,,,,,,,,,,,,,,,,,,,,,,,,,,,,,,,,,,,,,,,,,,,,,,,,,,,,,,,,,
,,65745708518a6ec1b4773387,2023-12-15_11h10.45.039,kallum_motion_pilot,2023.2.3,Win32,21.32196162,65745708518a6ec1b4773387,657bb317c8798c6608bceb3f,657bb47bc8798c6608bceb81,0.0348,0.0348,0,147,147,60,1,threeone,,,,,,,,,,,,,,,,,,,,,,,,,,,,,,,,,,,,,,,,,,,,,,,,,,,,,,,,,,,,,,,,,,,,,,,,,,,,,,,,,,,,,,,,,,,,,,,,,,,,,,,,,,,,,,,,,,,,,,,,,,,,,,,,,,,,,,,
,,65745708518a6ec1b4773387,2023-12-15_11h10.45.039,kallum_motion_pilot,2023.2.3,Win32,21.32196162,65745708518a6ec1b4773387,657bb317c8798c6608bceb3f,657bb47bc8798c6608bceb81,0.0349,0.0349,0,148,148,22,1,fourtwo,,,,,,,,,,,,,,,,,,,,,,,,,,,,,,,,,,,,,,,,,,,,,,,,,,,,,,,,,,,,,,,,,,,,,,,,,,,,,,,,,,,,,,,,,,,,,,,,,,,,,,,,,,,,,,,,,,,,,,,,,,,,,,,,,,,,,,,
,,65745708518a6ec1b4773387,2023-12-15_11h10.45.039,kallum_motion_pilot,2023.2.3,Win32,21.32196162,65745708518a6ec1b4773387,657bb317c8798c6608bceb3f,657bb47bc8798c6608bceb81,0.035,0.0351,0,149,149,159,1,eightseven,,,,,,,,,,,,,,,,,,,,,,,,,,,,,,,,,,,,,,,,,,,,,,,,,,,,,,,,,,,,,,,,,,,,,,,,,,,,,,,,,,,,,,,,,,,,,,,,,,,,,,,,,,,,,,,,,,,,,,,,,,,,,,,,,,,,,,,
,,65745708518a6ec1b4773387,2023-12-15_11h10.45.039,kallum_motion_pilot,2023.2.3,Win32,21.32196162,65745708518a6ec1b4773387,657bb317c8798c6608bceb3f,657bb47bc8798c6608bceb81,0.0351,0.0352,0,150,150,61,1,threefour,,,,,,,,,,,,,,,,,,,,,,,,,,,,,,,,,,,,,,,,,,,,,,,,,,,,,,,,,,,,,,,,,,,,,,,,,,,,,,,,,,,,,,,,,,,,,,,,,,,,,,,,,,,,,,,,,,,,,,,,,,,,,,,,,,,,,,,
,,65745708518a6ec1b4773387,2023-12-15_11h10.45.039,kallum_motion_pilot,2023.2.3,Win32,21.32196162,65745708518a6ec1b4773387,657bb317c8798c6608bceb3f,657bb47bc8798c6608bceb81,0.0353,0.0353,0,151,151,157,1,seveneight,,,,,,,,,,,,,,,,,,,,,,,,,,,,,,,,,,,,,,,,,,,,,,,,,,,,,,,,,,,,,,,,,,,,,,,,,,,,,,,,,,,,,,,,,,,,,,,,,,,,,,,,,,,,,,,,,,,,,,,,,,,,,,,,,,,,,,,
,,65745708518a6ec1b4773387,2023-12-15_11h10.45.039,kallum_motion_pilot,2023.2.3,Win32,21.32196162,65745708518a6ec1b4773387,657bb317c8798c6608bceb3f,657bb47bc8798c6608bceb81,0.0354,0.0354,0,152,152,110,1,eightsix,,,,,,,,,,,,,,,,,,,,,,,,,,,,,,,,,,,,,,,,,,,,,,,,,,,,,,,,,,,,,,,,,,,,,,,,,,,,,,,,,,,,,,,,,,,,,,,,,,,,,,,,,,,,,,,,,,,,,,,,,,,,,,,,,,,,,,,
,,65745708518a6ec1b4773387,2023-12-15_11h10.45.039,kallum_motion_pilot,2023.2.3,Win32,21.32196162,65745708518a6ec1b4773387,657bb317c8798c6608bceb3f,657bb47bc8798c6608bceb81,0.0354,0.0355,0,153,153,151,1,eightseven,,,,,,,,,,,,,,,,,,,,,,,,,,,,,,,,,,,,,,,,,,,,,,,,,,,,,,,,,,,,,,,,,,,,,,,,,,,,,,,,,,,,,,,,,,,,,,,,,,,,,,,,,,,,,,,,,,,,,,,,,,,,,,,,,,,,,,,
,,65745708518a6ec1b4773387,2023-12-15_11h10.45.039,kallum_motion_pilot,2023.2.3,Win32,21.32196162,65745708518a6ec1b4773387,657bb317c8798c6608bceb3f,657bb47bc8798c6608bceb81,0.0356,0.0356,0,154,154,136,1,fivesix,,,,,,,,,,,,,,,,,,,,,,,,,,,,,,,,,,,,,,,,,,,,,,,,,,,,,,,,,,,,,,,,,,,,,,,,,,,,,,,,,,,,,,,,,,,,,,,,,,,,,,,,,,,,,,,,,,,,,,,,,,,,,,,,,,,,,,,
,,65745708518a6ec1b4773387,2023-12-15_11h10.45.039,kallum_motion_pilot,2023.2.3,Win32,21.32196162,65745708518a6ec1b4773387,657bb317c8798c6608bceb3f,657bb47bc8798c6608bceb81,0.0357,0.0357,0,155,155,14,1,fourtwo,,,,,,,,,,,,,,,,,,,,,,,,,,,,,,,,,,,,,,,,,,,,,,,,,,,,,,,,,,,,,,,,,,,,,,,,,,,,,,,,,,,,,,,,,,,,,,,,,,,,,,,,,,,,,,,,,,,,,,,,,,,,,,,,,,,,,,,
,,65745708518a6ec1b4773387,2023-12-15_11h10.45.039,kallum_motion_pilot,2023.2.3,Win32,21.32196162,65745708518a6ec1b4773387,657bb317c8798c6608bceb3f,657bb47bc8798c6608bceb81,0.0358,0.0358,0,156,156,48,1,onetwo,,,,,,,,,,,,,,,,,,,,,,,,,,,,,,,,,,,,,,,,,,,,,,,,,,,,,,,,,,,,,,,,,,,,,,,,,,,,,,,,,,,,,,,,,,,,,,,,,,,,,,,,,,,,,,,,,,,,,,,,,,,,,,,,,,,,,,,
,,65745708518a6ec1b4773387,2023-12-15_11h10.45.039,kallum_motion_pilot,2023.2.3,Win32,21.32196162,65745708518a6ec1b4773387,657bb317c8798c6608bceb3f,657bb47bc8798c6608bceb81,0.036,0.036,0,157,157,83,1,sixeight,,,,,,,,,,,,,,,,,,,,,,,,,,,,,,,,,,,,,,,,,,,,,,,,,,,,,,,,,,,,,,,,,,,,,,,,,,,,,,,,,,,,,,,,,,,,,,,,,,,,,,,,,,,,,,,,,,,,,,,,,,,,,,,,,,,,,,,
,,65745708518a6ec1b4773387,2023-12-15_11h10.45.039,kallum_motion_pilot,2023.2.3,Win32,21.32196162,65745708518a6ec1b4773387,657bb317c8798c6608bceb3f,657bb47bc8798c6608bceb81,0.0361,0.0362,0,158,158,54,1,fourtwo,,,,,,,,,,,,,,,,,,,,,,,,,,,,,,,,,,,,,,,,,,,,,,,,,,,,,,,,,,,,,,,,,,,,,,,,,,,,,,,,,,,,,,,,,,,,,,,,,,,,,,,,,,,,,,,,,,,,,,,,,,,,,,,,,,,,,,,
,,65745708518a6ec1b4773387,2023-12-15_11h10.45.039,kallum_motion_pilot,2023.2.3,Win32,21.32196162,65745708518a6ec1b4773387,657bb317c8798c6608bceb3f,657bb47bc8798c6608bceb81,0.0362,0.0362,0,159,159,33,1,onethree,,,,,,,,,,,,,,,,,,,,,,,,,,,,,,,,,,,,,,,,,,,,,,,,,,,,,,,,,,,,,,,,,,,,,,,,,,,,,,,,,,,,,,,,,,,,,,,,,,,,,,,,,,,,,,,,,,,,,,,,,,,,,,,,,,,,,,,
,,65745708518a6ec1b4773387,2023-12-15_11h10.45.039,kallum_motion_pilot,2023.2.3,Win32,21.32196162,65745708518a6ec1b4773387,657bb317c8798c6608bceb3f,657bb47bc8798c6608bceb81,0.0363,0.0364,0,160,160,141,1,seveneight,,,,,,,,,,,,,,,,,,,,,,,,,,,,,,,,,,,,,,,,,,,,,,,,,,,,,,,,,,,,,,,,,,,,,,,,,,,,,,,,,,,,,,,,,,,,,,,,,,,,,,,,,,,,,,,,,,,,,,,,,,,,,,,,,,,,,,,
,,65745708518a6ec1b4773387,2023-12-15_11h10.45.039,kallum_motion_pilot,2023.2.3,Win32,21.32196162,65745708518a6ec1b4773387,657bb317c8798c6608bceb3f,657bb47bc8798c6608bceb81,0.0364,0.0365,0,161,161,137,1,fiveseven,,,,,,,,,,,,,,,,,,,,,,,,,,,,,,,,,,,,,,,,,,,,,,,,,,,,,,,,,,,,,,,,,,,,,,,,,,,,,,,,,,,,,,,,,,,,,,,,,,,,,,,,,,,,,,,,,,,,,,,,,,,,,,,,,,,,,,,
,,65745708518a6ec1b4773387,2023-12-15_11h10.45.039,kallum_motion_pilot,2023.2.3,Win32,21.32196162,65745708518a6ec1b4773387,657bb317c8798c6608bceb3f,657bb47bc8798c6608bceb81,0.0366,0.0366,1,0,162,140,1,sevenfive,,,,,,,,,,,,,,,,,,,,,,,,,,,,,,,,,,,,,,,,,,,,,,,,,,,,,,,,,,,,,,,,,,,,,,,,,,,,,,,,,,,,,,,,,,,,,,,,,,,,,,,,,,,,,,,,,,,,,,,,,,,,,,,,,,,,,,,
,,65745708518a6ec1b4773387,2023-12-15_11h10.45.039,kallum_motion_pilot,2023.2.3,Win32,21.32196162,65745708518a6ec1b4773387,657bb317c8798c6608bceb3f,657bb47bc8798c6608bceb81,0.0367,0.0367,1,1,163,43,1,twofour,,,,,,,,,,,,,,,,,,,,,,,,,,,,,,,,,,,,,,,,,,,,,,,,,,,,,,,,,,,,,,,,,,,,,,,,,,,,,,,,,,,,,,,,,,,,,,,,,,,,,,,,,,,,,,,,,,,,,,,,,,,,,,,,,,,,,,,
,,65745708518a6ec1b4773387,2023-12-15_11h10.45.039,kallum_motion_pilot,2023.2.3,Win32,21.32196162,65745708518a6ec1b4773387,657bb317c8798c6608bceb3f,657bb47bc8798c6608bceb81,0.0367,0.0368,1,2,164,11,1,twofour,,,,,,,,,,,,,,,,,,,,,,,,,,,,,,,,,,,,,,,,,,,,,,,,,,,,,,,,,,,,,,,,,,,,,,,,,,,,,,,,,,,,,,,,,,,,,,,,,,,,,,,,,,,,,,,,,,,,,,,,,,,,,,,,,,,,,,,
,,65745708518a6ec1b4773387,2023-12-15_11h10.45.039,kallum_motion_pilot,2023.2.3,Win32,21.32196162,65745708518a6ec1b4773387,657bb317c8798c6608bceb3f,657bb47bc8798c6608bceb81,0.0369,0.037,1,3,165,22,1,fourtwo,,,,,,,,,,,,,,,,,,,,,,,,,,,,,,,,,,,,,,,,,,,,,,,,,,,,,,,,,,,,,,,,,,,,,,,,,,,,,,,,,,,,,,,,,,,,,,,,,,,,,,,,,,,,,,,,,,,,,,,,,,,,,,,,,,,,,,,
,,65745708518a6ec1b4773387,2023-12-15_11h10.45.039,kallum_motion_pilot,2023.2.3,Win32,21.32196162,65745708518a6ec1b4773387,657bb317c8798c6608bceb3f,657bb47bc8798c6608bceb81,0.037,0.037,1,4,166,156,1,sevenfive,,,,,,,,,,,,,,,,,,,,,,,,,,,,,,,,,,,,,,,,,,,,,,,,,,,,,,,,,,,,,,,,,,,,,,,,,,,,,,,,,,,,,,,,,,,,,,,,,,,,,,,,,,,,,,,,,,,,,,,,,,,,,,,,,,,,,,,
,,65745708518a6ec1b4773387,2023-12-15_11h10.45.039,kallum_motion_pilot,2023.2.3,Win32,21.32196162,65745708518a6ec1b4773387,657bb317c8798c6608bceb3f,657bb47bc8798c6608bceb81,0.0371,0.0372,1,5,167,87,1,eightseven,,,,,,,,,,,,,,,,,,,,,,,,,,,,,,,,,,,,,,,,,,,,,,,,,,,,,,,,,,,,,,,,,,,,,,,,,,,,,,,,,,,,,,,,,,,,,,,,,,,,,,,,,,,,,,,,,,,,,,,,,,,,,,,,,,,,,,,
,,65745708518a6ec1b4773387,2023-12-15_11h10.45.039,kallum_motion_pilot,2023.2.3,Win32,21.32196162,65745708518a6ec1b4773387,657bb317c8798c6608bceb3f,657bb47bc8798c6608bceb81,0.0373,0.0373,1,6,168,141,1,seveneight,,,,,,,,,,,,,,,,,,,,,,,,,,,,,,,,,,,,,,,,,,,,,,,,,,,,,,,,,,,,,,,,,,,,,,,,,,,,,,,,,,,,,,,,,,,,,,,,,,,,,,,,,,,,,,,,,,,,,,,,,,,,,,,,,,,,,,,
,,65745708518a6ec1b4773387,2023-12-15_11h10.45.039,kallum_motion_pilot,2023.2.3,Win32,21.32196162,65745708518a6ec1b4773387,657bb317c8798c6608bceb3f,657bb47bc8798c6608bceb81,0.0374,0.0374,1,7,169,119,1,eightseven,,,,,,,,,,,,,,,,,,,,,,,,,,,,,,,,,,,,,,,,,,,,,,,,,,,,,,,,,,,,,,,,,,,,,,,,,,,,,,,,,,,,,,,,,,,,,,,,,,,,,,,,,,,,,,,,,,,,,,,,,,,,,,,,,,,,,,,
,,65745708518a6ec1b4773387,2023-12-15_11h10.45.039,kallum_motion_pilot,2023.2.3,Win32,21.32196162,65745708518a6ec1b4773387,657bb317c8798c6608bceb3f,657bb47bc8798c6608bceb81,0.0376,0.0377,1,8,170,56,1,onetwo,,,,,,,,,,,,,,,,,,,,,,,,,,,,,,,,,,,,,,,,,,,,,,,,,,,,,,,,,,,,,,,,,,,,,,,,,,,,,,,,,,,,,,,,,,,,,,,,,,,,,,,,,,,,,,,,,,,,,,,,,,,,,,,,,,,,,,,
,,65745708518a6ec1b4773387,2023-12-15_11h10.45.039,kallum_motion_pilot,2023.2.3,Win32,21.32196162,65745708518a6ec1b4773387,657bb317c8798c6608bceb3f,657bb47bc8798c6608bceb81,0.0377,0.0379,1,9,171,132,1,sevenfive,,,,,,,,,,,,,,,,,,,,,,,,,,,,,,,,,,,,,,,,,,,,,,,,,,,,,,,,,,,,,,,,,,,,,,,,,,,,,,,,,,,,,,,,,,,,,,,,,,,,,,,,,,,,,,,,,,,,,,,,,,,,,,,,,,,,,,,
,,65745708518a6ec1b4773387,2023-12-15_11h10.45.039,kallum_motion_pilot,2023.2.3,Win32,21.32196162,65745708518a6ec1b4773387,657bb317c8798c6608bceb3f,657bb47bc8798c6608bceb81,0.0379,0.038,1,10,172,66,1,twoone,,,,,,,,,,,,,,,,,,,,,,,,,,,,,,,,,,,,,,,,,,,,,,,,,,,,,,,,,,,,,,,,,,,,,,,,,,,,,,,,,,,,,,,,,,,,,,,,,,,,,,,,,,,,,,,,,,,,,,,,,,,,,,,,,,,,,,,
,,65745708518a6ec1b4773387,2023-12-15_11h10.45.039,kallum_motion_pilot,2023.2.3,Win32,21.32196162,65745708518a6ec1b4773387,657bb317c8798c6608bceb3f,657bb47bc8798c6608bceb81,0.038,0.0381,1,11,173,50,1,twoone,,,,,,,,,,,,,,,,,,,,,,,,,,,,,,,,,,,,,,,,,,,,,,,,,,,,,,,,,,,,,,,,,,,,,,,,,,,,,,,,,,,,,,,,,,,,,,,,,,,,,,,,,,,,,,,,,,,,,,,,,,,,,,,,,,,,,,,
,,65745708518a6ec1b4773387,2023-12-15_11h10.45.039,kallum_motion_pilot,2023.2.3,Win32,21.32196162,65745708518a6ec1b4773387,657bb317c8798c6608bceb3f,657bb47bc8798c6608bceb81,0.0382,0.0383,1,12,174,69,1,threefour,,,,,,,,,,,,,,,,,,,,,,,,,,,,,,,,,,,,,,,,,,,,,,,,,,,,,,,,,,,,,,,,,,,,,,,,,,,,,,,,,,,,,,,,,,,,,,,,,,,,,,,,,,,,,,,,,,,,,,,,,,,,,,,,,,,,,,,
,,65745708518a6ec1b4773387,2023-12-15_11h10.45.039,kallum_motion_pilot,2023.2.3,Win32,21.32196162,65745708518a6ec1b4773387,657bb317c8798c6608bceb3f,657bb47bc8798c6608bceb81,0.0383,0.0384,1,13,175,31,1,fourthree,,,,,,,,,,,,,,,,,,,,,,,,,,,,,,,,,,,,,,,,,,,,,,,,,,,,,,,,,,,,,,,,,,,,,,,,,,,,,,,,,,,,,,,,,,,,,,,,,,,,,,,,,,,,,,,,,,,,,,,,,,,,,,,,,,,,,,,
,,65745708518a6ec1b4773387,2023-12-15_11h10.45.039,kallum_motion_pilot,2023.2.3,Win32,21.32196162,65745708518a6ec1b4773387,657bb317c8798c6608bceb3f,657bb47bc8798c6608bceb81,0.0385,0.0385,1,14,176,65,1,onethree,,,,,,,,,,,,,,,,,,,,,,,,,,,,,,,,,,,,,,,,,,,,,,,,,,,,,,,,,,,,,,,,,,,,,,,,,,,,,,,,,,,,,,,,,,,,,,,,,,,,,,,,,,,,,,,,,,,,,,,,,,,,,,,,,,,,,,,
,,65745708518a6ec1b4773387,2023-12-15_11h10.45.039,kallum_motion_pilot,2023.2.3,Win32,21.32196162,65745708518a6ec1b4773387,657bb317c8798c6608bceb3f,657bb47bc8798c6608bceb81,0.0385,0.0387,1,15,177,103,1,eightseven,,,,,,,,,,,,,,,,,,,,,,,,,,,,,,,,,,,,,,,,,,,,,,,,,,,,,,,,,,,,,,,,,,,,,,,,,,,,,,,,,,,,,,,,,,,,,,,,,,,,,,,,,,,,,,,,,,,,,,,,,,,,,,,,,,,,,,,
,,65745708518a6ec1b4773387,2023-12-15_11h10.45.039,kallum_motion_pilot,2023.2.3,Win32,21.32196162,65745708518a6ec1b4773387,657bb317c8798c6608bceb3f,657bb47bc8798c6608bceb81,0.0388,0.0388,1,16,178,27,1,twofour,,,,,,,,,,,,,,,,,,,,,,,,,,,,,,,,,,,,,,,,,,,,,,,,,,,,,,,,,,,,,,,,,,,,,,,,,,,,,,,,,,,,,,,,,,,,,,,,,,,,,,,,,,,,,,,,,,,,,,,,,,,,,,,,,,,,,,,
,,65745708518a6ec1b4773387,2023-12-15_11h10.45.039,kallum_motion_pilot,2023.2.3,Win32,21.32196162,65745708518a6ec1b4773387,657bb317c8798c6608bceb3f,657bb47bc8798c6608bceb81,0.0389,0.0389,1,17,179,77,1,threefour,,,,,,,,,,,,,,,,,,,,,,,,,,,,,,,,,,,,,,,,,,,,,,,,,,,,,,,,,,,,,,,,,,,,,,,,,,,,,,,,,,,,,,,,,,,,,,,,,,,,,,,,,,,,,,,,,,,,,,,,,,,,,,,,,,,,,,,
,,65745708518a6ec1b4773387,2023-12-15_11h10.45.039,kallum_motion_pilot,2023.2.3,Win32,21.32196162,65745708518a6ec1b4773387,657bb317c8798c6608bceb3f,657bb47bc8798c6608bceb81,0.039,0.0391,1,18,180,55,1,fourthree,,,,,,,,,,,,,,,,,,,,,,,,,,,,,,,,,,,,,,,,,,,,,,,,,,,,,,,,,,,,,,,,,,,,,,,,,,,,,,,,,,,,,,,,,,,,,,,,,,,,,,,,,,,,,,,,,,,,,,,,,,,,,,,,,,,,,,,
,,65745708518a6ec1b4773387,2023-12-15_11h10.45.039,kallum_motion_pilot,2023.2.3,Win32,21.32196162,65745708518a6ec1b4773387,657bb317c8798c6608bceb3f,657bb47bc8798c6608bceb81,0.0391,0.0392,1,19,181,111,1,eightseven,,,,,,,,,,,,,,,,,,,,,,,,,,,,,,,,,,,,,,,,,,,,,,,,,,,,,,,,,,,,,,,,,,,,,,,,,,,,,,,,,,,,,,,,,,,,,,,,,,,,,,,,,,,,,,,,,,,,,,,,,,,,,,,,,,,,,,,
,,65745708518a6ec1b4773387,2023-12-15_11h10.45.039,kallum_motion_pilot,2023.2.3,Win32,21.32196162,65745708518a6ec1b4773387,657bb317c8798c6608bceb3f,657bb47bc8798c6608bceb81,0.0393,0.0393,1,20,182,80,1,fivesix,,,,,,,,,,,,,,,,,,,,,,,,,,,,,,,,,,,,,,,,,,,,,,,,,,,,,,,,,,,,,,,,,,,,,,,,,,,,,,,,,,,,,,,,,,,,,,,,,,,,,,,,,,,,,,,,,,,,,,,,,,,,,,,,,,,,,,,
,,65745708518a6ec1b4773387,2023-12-15_11h10.45.039,kallum_motion_pilot,2023.2.3,Win32,21.32196162,65745708518a6ec1b4773387,657bb317c8798c6608bceb3f,657bb47bc8798c6608bceb81,0.0393,0.0395,1,21,183,35,1,twofour,,,,,,,,,,,,,,,,,,,,,,,,,,,,,,,,,,,,,,,,,,,,,,,,,,,,,,,,,,,,,,,,,,,,,,,,,,,,,,,,,,,,,,,,,,,,,,,,,,,,,,,,,,,,,,,,,,,,,,,,,,,,,,,,,,,,,,,
,,65745708518a6ec1b4773387,2023-12-15_11h10.45.039,kallum_motion_pilot,2023.2.3,Win32,21.32196162,65745708518a6ec1b4773387,657bb317c8798c6608bceb3f,657bb47bc8798c6608bceb81,0.0395,0.0395,1,22,184,138,1,sixfive,,,,,,,,,,,,,,,,,,,,,,,,,,,,,,,,,,,,,,,,,,,,,,,,,,,,,,,,,,,,,,,,,,,,,,,,,,,,,,,,,,,,,,,,,,,,,,,,,,,,,,,,,,,,,,,,,,,,,,,,,,,,,,,,,,,,,,,
,,65745708518a6ec1b4773387,2023-12-15_11h10.45.039,kallum_motion_pilot,2023.2.3,Win32,21.32196162,65745708518a6ec1b4773387,657bb317c8798c6608bceb3f,657bb47bc8798c6608bceb81,0.0396,0.0398,1,23,185,101,1,seveneight,,,,,,,,,,,,,,,,,,,,,,,,,,,,,,,,,,,,,,,,,,,,,,,,,,,,,,,,,,,,,,,,,,,,,,,,,,,,,,,,,,,,,,,,,,,,,,,,,,,,,,,,,,,,,,,,,,,,,,,,,,,,,,,,,,,,,,,
,,65745708518a6ec1b4773387,2023-12-15_11h10.45.039,kallum_motion_pilot,2023.2.3,Win32,21.32196162,65745708518a6ec1b4773387,657bb317c8798c6608bceb3f,657bb47bc8798c6608bceb81,0.0398,0.0398,1,24,186,159,1,eightseven,,,,,,,,,,,,,,,,,,,,,,,,,,,,,,,,,,,,,,,,,,,,,,,,,,,,,,,,,,,,,,,,,,,,,,,,,,,,,,,,,,,,,,,,,,,,,,,,,,,,,,,,,,,,,,,,,,,,,,,,,,,,,,,,,,,,,,,
,,65745708518a6ec1b4773387,2023-12-15_11h10.45.039,kallum_motion_pilot,2023.2.3,Win32,21.32196162,65745708518a6ec1b4773387,657bb317c8798c6608bceb3f,657bb47bc8798c6608bceb81,0.0399,0.04,1,25,187,49,1,onethree,,,,,,,,,,,,,,,,,,,,,,,,,,,,,,,,,,,,,,,,,,,,,,,,,,,,,,,,,,,,,,,,,,,,,,,,,,,,,,,,,,,,,,,,,,,,,,,,,,,,,,,,,,,,,,,,,,,,,,,,,,,,,,,,,,,,,,,
,,65745708518a6ec1b4773387,2023-12-15_11h10.45.039,kallum_motion_pilot,2023.2.3,Win32,21.32196162,65745708518a6ec1b4773387,657bb317c8798c6608bceb3f,657bb47bc8798c6608bceb81,0.04,0.0401,1,26,188,26,1,twoone,,,,,,,,,,,,,,,,,,,,,,,,,,,,,,,,,,,,,,,,,,,,,,,,,,,,,,,,,,,,,,,,,,,,,,,,,,,,,,,,,,,,,,,,,,,,,,,,,,,,,,,,,,,,,,,,,,,,,,,,,,,,,,,,,,,,,,,
,,65745708518a6ec1b4773387,2023-12-15_11h10.45.039,kallum_motion_pilot,2023.2.3,Win32,21.32196162,65745708518a6ec1b4773387,657bb317c8798c6608bceb3f,657bb47bc8798c6608bceb81,0.0402,0.0403,1,27,189,60,1,threeone,,,,,,,,,,,,,,,,,,,,,,,,,,,,,,,,,,,,,,,,,,,,,,,,,,,,,,,,,,,,,,,,,,,,,,,,,,,,,,,,,,,,,,,,,,,,,,,,,,,,,,,,,,,,,,,,,,,,,,,,,,,,,,,,,,,,,,,
,,65745708518a6ec1b4773387,2023-12-15_11h10.45.039,kallum_motion_pilot,2023.2.3,Win32,21.32196162,65745708518a6ec1b4773387,657bb317c8798c6608bceb3f,657bb47bc8798c6608bceb81,0.0403,0.0403,1,28,190,85,1,seveneight,,,,,,,,,,,,,,,,,,,,,,,,,,,,,,,,,,,,,,,,,,,,,,,,,,,,,,,,,,,,,,,,,,,,,,,,,,,,,,,,,,,,,,,,,,,,,,,,,,,,,,,,,,,,,,,,,,,,,,,,,,,,,,,,,,,,,,,
,,65745708518a6ec1b4773387,2023-12-15_11h10.45.039,kallum_motion_pilot,2023.2.3,Win32,21.32196162,65745708518a6ec1b4773387,657bb317c8798c6608bceb3f,657bb47bc8798c6608bceb81,0.0404,0.0405,1,29,191,75,1,twofour,,,,,,,,,,,,,,,,,,,,,,,,,,,,,,,,,,,,,,,,,,,,,,,,,,,,,,,,,,,,,,,,,,,,,,,,,,,,,,,,,,,,,,,,,,,,,,,,,,,,,,,,,,,,,,,,,,,,,,,,,,,,,,,,,,,,,,,
,,65745708518a6ec1b4773387,2023-12-15_11h10.45.039,kallum_motion_pilot,2023.2.3,Win32,21.32196162,65745708518a6ec1b4773387,657bb317c8798c6608bceb3f,657bb47bc8798c6608bceb81,0.0406,0.0408,1,30,192,157,1,seveneight,,,,,,,,,,,,,,,,,,,,,,,,,,,,,,,,,,,,,,,,,,,,,,,,,,,,,,,,,,,,,,,,,,,,,,,,,,,,,,,,,,,,,,,,,,,,,,,,,,,,,,,,,,,,,,,,,,,,,,,,,,,,,,,,,,,,,,,
,,65745708518a6ec1b4773387,2023-12-15_11h10.45.039,kallum_motion_pilot,2023.2.3,Win32,21.32196162,65745708518a6ec1b4773387,657bb317c8798c6608bceb3f,657bb47bc8798c6608bceb81,0.0409,0.041,1,31,193,151,1,eightseven,,,,,,,,,,,,,,,,,,,,,,,,,,,,,,,,,,,,,,,,,,,,,,,,,,,,,,,,,,,,,,,,,,,,,,,,,,,,,,,,,,,,,,,,,,,,,,,,,,,,,,,,,,,,,,,,,,,,,,,,,,,,,,,,,,,,,,,
,,65745708518a6ec1b4773387,2023-12-15_11h10.45.039,kallum_motion_pilot,2023.2.3,Win32,21.32196162,65745708518a6ec1b4773387,657bb317c8798c6608bceb3f,657bb47bc8798c6608bceb81,0.0412,0.0412,1,32,194,133,1,seveneight,,,,,,,,,,,,,,,,,,,,,,,,,,,,,,,,,,,,,,,,,,,,,,,,,,,,,,,,,,,,,,,,,,,,,,,,,,,,,,,,,,,,,,,,,,,,,,,,,,,,,,,,,,,,,,,,,,,,,,,,,,,,,,,,,,,,,,,
,,65745708518a6ec1b4773387,2023-12-15_11h10.45.039,kallum_motion_pilot,2023.2.3,Win32,21.32196162,65745708518a6ec1b4773387,657bb317c8798c6608bceb3f,657bb47bc8798c6608bceb81,0.0413,0.0413,1,33,195,99,1,sixeight,,,,,,,,,,,,,,,,,,,,,,,,,,,,,,,,,,,,,,,,,,,,,,,,,,,,,,,,,,,,,,,,,,,,,,,,,,,,,,,,,,,,,,,,,,,,,,,,,,,,,,,,,,,,,,,,,,,,,,,,,,,,,,,,,,,,,,,
,,65745708518a6ec1b4773387,2023-12-15_11h10.45.039,kallum_motion_pilot,2023.2.3,Win32,21.32196162,65745708518a6ec1b4773387,657bb317c8798c6608bceb3f,657bb47bc8798c6608bceb81,0.0414,0.0415,1,34,196,46,1,fourtwo,,,,,,,,,,,,,,,,,,,,,,,,,,,,,,,,,,,,,,,,,,,,,,,,,,,,,,,,,,,,,,,,,,,,,,,,,,,,,,,,,,,,,,,,,,,,,,,,,,,,,,,,,,,,,,,,,,,,,,,,,,,,,,,,,,,,,,,
,,65745708518a6ec1b4773387,2023-12-15_11h10.45.039,kallum_motion_pilot,2023.2.3,Win32,21.32196162,65745708518a6ec1b4773387,657bb317c8798c6608bceb3f,657bb47bc8798c6608bceb81,0.0416,0.0416,1,35,197,51,1,twofour,,,,,,,,,,,,,,,,,,,,,,,,,,,,,,,,,,,,,,,,,,,,,,,,,,,,,,,,,,,,,,,,,,,,,,,,,,,,,,,,,,,,,,,,,,,,,,,,,,,,,,,,,,,,,,,,,,,,,,,,,,,,,,,,,,,,,,,
,,65745708518a6ec1b4773387,2023-12-15_11h10.45.039,kallum_motion_pilot,2023.2.3,Win32,21.32196162,65745708518a6ec1b4773387,657bb317c8798c6608bceb3f,657bb47bc8798c6608bceb81,0.0417,0.0418,1,36,198,9,1,onethree,,,,,,,,,,,,,,,,,,,,,,,,,,,,,,,,,,,,,,,,,,,,,,,,,,,,,,,,,,,,,,,,,,,,,,,,,,,,,,,,,,,,,,,,,,,,,,,,,,,,,,,,,,,,,,,,,,,,,,,,,,,,,,,,,,,,,,,
,,65745708518a6ec1b4773387,2023-12-15_11h10.45.039,kallum_motion_pilot,2023.2.3,Win32,21.32196162,65745708518a6ec1b4773387,657bb317c8798c6608bceb3f,657bb47bc8798c6608bceb81,0.0418,0.0419,1,37,199,128,1,fivesix,,,,,,,,,,,,,,,,,,,,,,,,,,,,,,,,,,,,,,,,,,,,,,,,,,,,,,,,,,,,,,,,,,,,,,,,,,,,,,,,,,,,,,,,,,,,,,,,,,,,,,,,,,,,,,,,,,,,,,,,,,,,,,,,,,,,,,,
,,65745708518a6ec1b4773387,2023-12-15_11h10.45.039,kallum_motion_pilot,2023.2.3,Win32,21.32196162,65745708518a6ec1b4773387,657bb317c8798c6608bceb3f,657bb47bc8798c6608bceb81,0.042,0.0421,1,38,200,161,1,fiveseven,,,,,,,,,,,,,,,,,,,,,,,,,,,,,,,,,,,,,,,,,,,,,,,,,,,,,,,,,,,,,,,,,,,,,,,,,,,,,,,,,,,,,,,,,,,,,,,,,,,,,,,,,,,,,,,,,,,,,,,,,,,,,,,,,,,,,,,
,,65745708518a6ec1b4773387,2023-12-15_11h10.45.039,kallum_motion_pilot,2023.2.3,Win32,21.32196162,65745708518a6ec1b4773387,657bb317c8798c6608bceb3f,657bb47bc8798c6608bceb81,0.0422,0.0422,1,39,201,39,1,fourthree,,,,,,,,,,,,,,,,,,,,,,,,,,,,,,,,,,,,,,,,,,,,,,,,,,,,,,,,,,,,,,,,,,,,,,,,,,,,,,,,,,,,,,,,,,,,,,,,,,,,,,,,,,,,,,,,,,,,,,,,,,,,,,,,,,,,,,,
,,65745708518a6ec1b4773387,2023-12-15_11h10.45.039,kallum_motion_pilot,2023.2.3,Win32,21.32196162,65745708518a6ec1b4773387,657bb317c8798c6608bceb3f,657bb47bc8798c6608bceb81,0.0422,0.0423,1,40,202,153,1,fiveseven,,,,,,,,,,,,,,,,,,,,,,,,,,,,,,,,,,,,,,,,,,,,,,,,,,,,,,,,,,,,,,,,,,,,,,,,,,,,,,,,,,,,,,,,,,,,,,,,,,,,,,,,,,,,,,,,,,,,,,,,,,,,,,,,,,,,,,,
,,65745708518a6ec1b4773387,2023-12-15_11h10.45.039,kallum_motion_pilot,2023.2.3,Win32,21.32196162,65745708518a6ec1b4773387,657bb317c8798c6608bceb3f,657bb47bc8798c6608bceb81,0.0423,0.0425,1,41,203,28,1,threeone,,,,,,,,,,,,,,,,,,,,,,,,,,,,,,,,,,,,,,,,,,,,,,,,,,,,,,,,,,,,,,,,,,,,,,,,,,,,,,,,,,,,,,,,,,,,,,,,,,,,,,,,,,,,,,,,,,,,,,,,,,,,,,,,,,,,,,,
,,65745708518a6ec1b4773387,2023-12-15_11h10.45.039,kallum_motion_pilot,2023.2.3,Win32,21.32196162,65745708518a6ec1b4773387,657bb317c8798c6608bceb3f,657bb47bc8798c6608bceb81,0.0425,0.0426,1,42,204,78,1,fourtwo,,,,,,,,,,,,,,,,,,,,,,,,,,,,,,,,,,,,,,,,,,,,,,,,,,,,,,,,,,,,,,,,,,,,,,,,,,,,,,,,,,,,,,,,,,,,,,,,,,,,,,,,,,,,,,,,,,,,,,,,,,,,,,,,,,,,,,,
,,65745708518a6ec1b4773387,2023-12-15_11h10.45.039,kallum_motion_pilot,2023.2.3,Win32,21.32196162,65745708518a6ec1b4773387,657bb317c8798c6608bceb3f,657bb47bc8798c6608bceb81,0.0427,0.0428,1,43,205,41,1,onethree,,,,,,,,,,,,,,,,,,,,,,,,,,,,,,,,,,,,,,,,,,,,,,,,,,,,,,,,,,,,,,,,,,,,,,,,,,,,,,,,,,,,,,,,,,,,,,,,,,,,,,,,,,,,,,,,,,,,,,,,,,,,,,,,,,,,,,,
,,65745708518a6ec1b4773387,2023-12-15_11h10.45.039,kallum_motion_pilot,2023.2.3,Win32,21.32196162,65745708518a6ec1b4773387,657bb317c8798c6608bceb3f,657bb47bc8798c6608bceb81,0.0428,0.0429,1,44,206,120,1,fivesix,,,,,,,,,,,,,,,,,,,,,,,,,,,,,,,,,,,,,,,,,,,,,,,,,,,,,,,,,,,,,,,,,,,,,,,,,,,,,,,,,,,,,,,,,,,,,,,,,,,,,,,,,,,,,,,,,,,,,,,,,,,,,,,,,,,,,,,
,,65745708518a6ec1b4773387,2023-12-15_11h10.45.039,kallum_motion_pilot,2023.2.3,Win32,21.32196162,65745708518a6ec1b4773387,657bb317c8798c6608bceb3f,657bb47bc8798c6608bceb81,0.0429,0.0429,1,45,207,34,1,twoone,,,,,,,,,,,,,,,,,,,,,,,,,,,,,,,,,,,,,,,,,,,,,,,,,,,,,,,,,,,,,,,,,,,,,,,,,,,,,,,,,,,,,,,,,,,,,,,,,,,,,,,,,,,,,,,,,,,,,,,,,,,,,,,,,,,,,,,
,,65745708518a6ec1b4773387,2023-12-15_11h10.45.039,kallum_motion_pilot,2023.2.3,Win32,21.32196162,65745708518a6ec1b4773387,657bb317c8798c6608bceb3f,657bb47bc8798c6608bceb81,0.043,0.0431,1,46,208,124,1,sevenfive,,,,,,,,,,,,,,,,,,,,,,,,,,,,,,,,,,,,,,,,,,,,,,,,,,,,,,,,,,,,,,,,,,,,,,,,,,,,,,,,,,,,,,,,,,,,,,,,,,,,,,,,,,,,,,,,,,,,,,,,,,,,,,,,,,,,,,,
,,65745708518a6ec1b4773387,2023-12-15_11h10.45.039,kallum_motion_pilot,2023.2.3,Win32,21.32196162,65745708518a6ec1b4773387,657bb317c8798c6608bceb3f,657bb47bc8798c6608bceb81,0.0432,0.0432,1,47,209,33,1,onethree,,,,,,,,,,,,,,,,,,,,,,,,,,,,,,,,,,,,,,,,,,,,,,,,,,,,,,,,,,,,,,,,,,,,,,,,,,,,,,,,,,,,,,,,,,,,,,,,,,,,,,,,,,,,,,,,,,,,,,,,,,,,,,,,,,,,,,,
,,65745708518a6ec1b4773387,2023-12-15_11h10.45.039,kallum_motion_pilot,2023.2.3,Win32,21.32196162,65745708518a6ec1b4773387,657bb317c8798c6608bceb3f,657bb47bc8798c6608bceb81,0.0433,0.0434,1,48,210,40,1,onetwo,,,,,,,,,,,,,,,,,,,,,,,,,,,,,,,,,,,,,,,,,,,,,,,,,,,,,,,,,,,,,,,,,,,,,,,,,,,,,,,,,,,,,,,,,,,,,,,,,,,,,,,,,,,,,,,,,,,,,,,,,,,,,,,,,,,,,,,
,,65745708518a6ec1b4773387,2023-12-15_11h10.45.039,kallum_motion_pilot,2023.2.3,Win32,21.32196162,65745708518a6ec1b4773387,657bb317c8798c6608bceb3f,657bb47bc8798c6608bceb81,0.0434,0.0435,1,49,211,8,1,onetwo,,,,,,,,,,,,,,,,,,,,,,,,,,,,,,,,,,,,,,,,,,,,,,,,,,,,,,,,,,,,,,,,,,,,,,,,,,,,,,,,,,,,,,,,,,,,,,,,,,,,,,,,,,,,,,,,,,,,,,,,,,,,,,,,,,,,,,,
,,65745708518a6ec1b4773387,2023-12-15_11h10.45.039,kallum_motion_pilot,2023.2.3,Win32,21.32196162,65745708518a6ec1b4773387,657bb317c8798c6608bceb3f,657bb47bc8798c6608bceb81,0.0436,0.0436,1,50,212,0,1,onetwo,,,,,,,,,,,,,,,,,,,,,,,,,,,,,,,,,,,,,,,,,,,,,,,,,,,,,,,,,,,,,,,,,,,,,,,,,,,,,,,,,,,,,,,,,,,,,,,,,,,,,,,,,,,,,,,,,,,,,,,,,,,,,,,,,,,,,,,
,,65745708518a6ec1b4773387,2023-12-15_11h10.45.039,kallum_motion_pilot,2023.2.3,Win32,21.32196162,65745708518a6ec1b4773387,657bb317c8798c6608bceb3f,657bb47bc8798c6608bceb81,0.0437,0.0437,1,51,213,71,1,fourthree,,,,,,,,,,,,,,,,,,,,,,,,,,,,,,,,,,,,,,,,,,,,,,,,,,,,,,,,,,,,,,,,,,,,,,,,,,,,,,,,,,,,,,,,,,,,,,,,,,,,,,,,,,,,,,,,,,,,,,,,,,,,,,,,,,,,,,,
,,65745708518a6ec1b4773387,2023-12-15_11h10.45.039,kallum_motion_pilot,2023.2.3,Win32,21.32196162,65745708518a6ec1b4773387,657bb317c8798c6608bceb3f,657bb47bc8798c6608bceb81,0.0439,0.0439,1,52,214,61,1,threefour,,,,,,,,,,,,,,,,,,,,,,,,,,,,,,,,,,,,,,,,,,,,,,,,,,,,,,,,,,,,,,,,,,,,,,,,,,,,,,,,,,,,,,,,,,,,,,,,,,,,,,,,,,,,,,,,,,,,,,,,,,,,,,,,,,,,,,,
,,65745708518a6ec1b4773387,2023-12-15_11h10.45.039,kallum_motion_pilot,2023.2.3,Win32,21.32196162,65745708518a6ec1b4773387,657bb317c8798c6608bceb3f,657bb47bc8798c6608bceb81,0.0439,0.044,1,53,215,92,1,sevenfive,,,,,,,,,,,,,,,,,,,,,,,,,,,,,,,,,,,,,,,,,,,,,,,,,,,,,,,,,,,,,,,,,,,,,,,,,,,,,,,,,,,,,,,,,,,,,,,,,,,,,,,,,,,,,,,,,,,,,,,,,,,,,,,,,,,,,,,
,,65745708518a6ec1b4773387,2023-12-15_11h10.45.039,kallum_motion_pilot,2023.2.3,Win32,21.32196162,65745708518a6ec1b4773387,657bb317c8798c6608bceb3f,657bb47bc8798c6608bceb81,0.0441,0.0442,1,54,216,95,1,eightseven,,,,,,,,,,,,,,,,,,,,,,,,,,,,,,,,,,,,,,,,,,,,,,,,,,,,,,,,,,,,,,,,,,,,,,,,,,,,,,,,,,,,,,,,,,,,,,,,,,,,,,,,,,,,,,,,,,,,,,,,,,,,,,,,,,,,,,,
,,65745708518a6ec1b4773387,2023-12-15_11h10.45.039,kallum_motion_pilot,2023.2.3,Win32,21.32196162,65745708518a6ec1b4773387,657bb317c8798c6608bceb3f,657bb47bc8798c6608bceb81,0.0442,0.0442,1,55,217,29,1,threefour,,,,,,,,,,,,,,,,,,,,,,,,,,,,,,,,,,,,,,,,,,,,,,,,,,,,,,,,,,,,,,,,,,,,,,,,,,,,,,,,,,,,,,,,,,,,,,,,,,,,,,,,,,,,,,,,,,,,,,,,,,,,,,,,,,,,,,,
,,65745708518a6ec1b4773387,2023-12-15_11h10.45.039,kallum_motion_pilot,2023.2.3,Win32,21.32196162,65745708518a6ec1b4773387,657bb317c8798c6608bceb3f,657bb47bc8798c6608bceb81,0.0444,0.0445,1,56,218,110,1,eightsix,,,,,,,,,,,,,,,,,,,,,,,,,,,,,,,,,,,,,,,,,,,,,,,,,,,,,,,,,,,,,,,,,,,,,,,,,,,,,,,,,,,,,,,,,,,,,,,,,,,,,,,,,,,,,,,,,,,,,,,,,,,,,,,,,,,,,,,
,,65745708518a6ec1b4773387,2023-12-15_11h10.45.039,kallum_motion_pilot,2023.2.3,Win32,21.32196162,65745708518a6ec1b4773387,657bb317c8798c6608bceb3f,657bb47bc8798c6608bceb81,0.0445,0.0446,1,57,219,12,1,threeone,,,,,,,,,,,,,,,,,,,,,,,,,,,,,,,,,,,,,,,,,,,,,,,,,,,,,,,,,,,,,,,,,,,,,,,,,,,,,,,,,,,,,,,,,,,,,,,,,,,,,,,,,,,,,,,,,,,,,,,,,,,,,,,,,,,,,,,
,,65745708518a6ec1b4773387,2023-12-15_11h10.45.039,kallum_motion_pilot,2023.2.3,Win32,21.32196162,65745708518a6ec1b4773387,657bb317c8798c6608bceb3f,657bb47bc8798c6608bceb81,0.0447,0.0447,1,58,220,94,1,eightsix,,,,,,,,,,,,,,,,,,,,,,,,,,,,,,,,,,,,,,,,,,,,,,,,,,,,,,,,,,,,,,,,,,,,,,,,,,,,,,,,,,,,,,,,,,,,,,,,,,,,,,,,,,,,,,,,,,,,,,,,,,,,,,,,,,,,,,,
,,65745708518a6ec1b4773387,2023-12-15_11h10.45.039,kallum_motion_pilot,2023.2.3,Win32,21.32196162,65745708518a6ec1b4773387,657bb317c8798c6608bceb3f,657bb47bc8798c6608bceb81,0.0448,0.0448,1,59,221,90,1,sixfive,,,,,,,,,,,,,,,,,,,,,,,,,,,,,,,,,,,,,,,,,,,,,,,,,,,,,,,,,,,,,,,,,,,,,,,,,,,,,,,,,,,,,,,,,,,,,,,,,,,,,,,,,,,,,,,,,,,,,,,,,,,,,,,,,,,,,,,
,,65745708518a6ec1b4773387,2023-12-15_11h10.45.039,kallum_motion_pilot,2023.2.3,Win32,21.32196162,65745708518a6ec1b4773387,657bb317c8798c6608bceb3f,657bb47bc8798c6608bceb81,0.0449,0.045,1,60,222,122,1,sixfive,,,,,,,,,,,,,,,,,,,,,,,,,,,,,,,,,,,,,,,,,,,,,,,,,,,,,,,,,,,,,,,,,,,,,,,,,,,,,,,,,,,,,,,,,,,,,,,,,,,,,,,,,,,,,,,,,,,,,,,,,,,,,,,,,,,,,,,
,,65745708518a6ec1b4773387,2023-12-15_11h10.45.039,kallum_motion_pilot,2023.2.3,Win32,21.32196162,65745708518a6ec1b4773387,657bb317c8798c6608bceb3f,657bb47bc8798c6608bceb81,0.0451,0.0452,1,61,223,137,1,fiveseven,,,,,,,,,,,,,,,,,,,,,,,,,,,,,,,,,,,,,,,,,,,,,,,,,,,,,,,,,,,,,,,,,,,,,,,,,,,,,,,,,,,,,,,,,,,,,,,,,,,,,,,,,,,,,,,,,,,,,,,,,,,,,,,,,,,,,,,
,,65745708518a6ec1b4773387,2023-12-15_11h10.45.039,kallum_motion_pilot,2023.2.3,Win32,21.32196162,65745708518a6ec1b4773387,657bb317c8798c6608bceb3f,657bb47bc8798c6608bceb81,0.0452,0.0453,1,62,224,158,1,eightsix,,,,,,,,,,,,,,,,,,,,,,,,,,,,,,,,,,,,,,,,,,,,,,,,,,,,,,,,,,,,,,,,,,,,,,,,,,,,,,,,,,,,,,,,,,,,,,,,,,,,,,,,,,,,,,,,,,,,,,,,,,,,,,,,,,,,,,,
,,65745708518a6ec1b4773387,2023-12-15_11h10.45.039,kallum_motion_pilot,2023.2.3,Win32,21.32196162,65745708518a6ec1b4773387,657bb317c8798c6608bceb3f,657bb47bc8798c6608bceb81,0.0453,0.0454,1,63,225,143,1,eightseven,,,,,,,,,,,,,,,,,,,,,,,,,,,,,,,,,,,,,,,,,,,,,,,,,,,,,,,,,,,,,,,,,,,,,,,,,,,,,,,,,,,,,,,,,,,,,,,,,,,,,,,,,,,,,,,,,,,,,,,,,,,,,,,,,,,,,,,
,,65745708518a6ec1b4773387,2023-12-15_11h10.45.039,kallum_motion_pilot,2023.2.3,Win32,21.32196162,65745708518a6ec1b4773387,657bb317c8798c6608bceb3f,657bb47bc8798c6608bceb81,0.0455,0.0455,1,64,226,36,1,threeone,,,,,,,,,,,,,,,,,,,,,,,,,,,,,,,,,,,,,,,,,,,,,,,,,,,,,,,,,,,,,,,,,,,,,,,,,,,,,,,,,,,,,,,,,,,,,,,,,,,,,,,,,,,,,,,,,,,,,,,,,,,,,,,,,,,,,,,
,,65745708518a6ec1b4773387,2023-12-15_11h10.45.039,kallum_motion_pilot,2023.2.3,Win32,21.32196162,65745708518a6ec1b4773387,657bb317c8798c6608bceb3f,657bb47bc8798c6608bceb81,0.0456,0.0457,1,65,227,117,1,seveneight,,,,,,,,,,,,,,,,,,,,,,,,,,,,,,,,,,,,,,,,,,,,,,,,,,,,,,,,,,,,,,,,,,,,,,,,,,,,,,,,,,,,,,,,,,,,,,,,,,,,,,,,,,,,,,,,,,,,,,,,,,,,,,,,,,,,,,,
,,65745708518a6ec1b4773387,2023-12-15_11h10.45.039,kallum_motion_pilot,2023.2.3,Win32,21.32196162,65745708518a6ec1b4773387,657bb317c8798c6608bceb3f,657bb47bc8798c6608bceb81,0.0458,0.0458,1,66,228,144,1,fivesix,,,,,,,,,,,,,,,,,,,,,,,,,,,,,,,,,,,,,,,,,,,,,,,,,,,,,,,,,,,,,,,,,,,,,,,,,,,,,,,,,,,,,,,,,,,,,,,,,,,,,,,,,,,,,,,,,,,,,,,,,,,,,,,,,,,,,,,
,,65745708518a6ec1b4773387,2023-12-15_11h10.45.039,kallum_motion_pilot,2023.2.3,Win32,21.32196162,65745708518a6ec1b4773387,657bb317c8798c6608bceb3f,657bb47bc8798c6608bceb81,0.0458,0.046,1,67,229,47,1,fourthree,,,,,,,,,,,,,,,,,,,,,,,,,,,,,,,,,,,,,,,,,,,,,,,,,,,,,,,,,,,,,,,,,,,,,,,,,,,,,,,,,,,,,,,,,,,,,,,,,,,,,,,,,,,,,,,,,,,,,,,,,,,,,,,,,,,,,,,
,,65745708518a6ec1b4773387,2023-12-15_11h10.45.039,kallum_motion_pilot,2023.2.3,Win32,21.32196162,65745708518a6ec1b4773387,657bb317c8798c6608bceb3f,657bb47bc8798c6608bceb81,0.0461,0.0461,1,68,230,84,1,sevenfive,,,,,,,,,,,,,,,,,,,,,,,,,,,,,,,,,,,,,,,,,,,,,,,,,,,,,,,,,,,,,,,,,,,,,,,,,,,,,,,,,,,,,,,,,,,,,,,,,,,,,,,,,,,,,,,,,,,,,,,,,,,,,,,,,,,,,,,
,,65745708518a6ec1b4773387,2023-12-15_11h10.45.039,kallum_motion_pilot,2023.2.3,Win32,21.32196162,65745708518a6ec1b4773387,657bb317c8798c6608bceb3f,657bb47bc8798c6608bceb81,0.0462,0.0462,1,69,231,44,1,threeone,,,,,,,,,,,,,,,,,,,,,,,,,,,,,,,,,,,,,,,,,,,,,,,,,,,,,,,,,,,,,,,,,,,,,,,,,,,,,,,,,,,,,,,,,,,,,,,,,,,,,,,,,,,,,,,,,,,,,,,,,,,,,,,,,,,,,,,
,,65745708518a6ec1b4773387,2023-12-15_11h10.45.039,kallum_motion_pilot,2023.2.3,Win32,21.32196162,65745708518a6ec1b4773387,657bb317c8798c6608bceb3f,657bb47bc8798c6608bceb81,0.0464,0.0466,1,70,232,130,1,sixfive,,,,,,,,,,,,,,,,,,,,,,,,,,,,,,,,,,,,,,,,,,,,,,,,,,,,,,,,,,,,,,,,,,,,,,,,,,,,,,,,,,,,,,,,,,,,,,,,,,,,,,,,,,,,,,,,,,,,,,,,,,,,,,,,,,,,,,,
,,65745708518a6ec1b4773387,2023-12-15_11h10.45.039,kallum_motion_pilot,2023.2.3,Win32,21.32196162,65745708518a6ec1b4773387,657bb317c8798c6608bceb3f,657bb47bc8798c6608bceb81,0.0467,0.0467,1,71,233,155,1,sixeight,,,,,,,,,,,,,,,,,,,,,,,,,,,,,,,,,,,,,,,,,,,,,,,,,,,,,,,,,,,,,,,,,,,,,,,,,,,,,,,,,,,,,,,,,,,,,,,,,,,,,,,,,,,,,,,,,,,,,,,,,,,,,,,,,,,,,,,
,,65745708518a6ec1b4773387,2023-12-15_11h10.45.039,kallum_motion_pilot,2023.2.3,Win32,21.32196162,65745708518a6ec1b4773387,657bb317c8798c6608bceb3f,657bb47bc8798c6608bceb81,0.0468,0.0469,1,72,234,134,1,eightsix,,,,,,,,,,,,,,,,,,,,,,,,,,,,,,,,,,,,,,,,,,,,,,,,,,,,,,,,,,,,,,,,,,,,,,,,,,,,,,,,,,,,,,,,,,,,,,,,,,,,,,,,,,,,,,,,,,,,,,,,,,,,,,,,,,,,,,,
,,65745708518a6ec1b4773387,2023-12-15_11h10.45.039,kallum_motion_pilot,2023.2.3,Win32,21.32196162,65745708518a6ec1b4773387,657bb317c8798c6608bceb3f,657bb47bc8798c6608bceb81,0.047,0.047,1,73,235,45,1,threefour,,,,,,,,,,,,,,,,,,,,,,,,,,,,,,,,,,,,,,,,,,,,,,,,,,,,,,,,,,,,,,,,,,,,,,,,,,,,,,,,,,,,,,,,,,,,,,,,,,,,,,,,,,,,,,,,,,,,,,,,,,,,,,,,,,,,,,,
,,65745708518a6ec1b4773387,2023-12-15_11h10.45.039,kallum_motion_pilot,2023.2.3,Win32,21.32196162,65745708518a6ec1b4773387,657bb317c8798c6608bceb3f,657bb47bc8798c6608bceb81,0.047,0.0472,1,74,236,114,1,sixfive,,,,,,,,,,,,,,,,,,,,,,,,,,,,,,,,,,,,,,,,,,,,,,,,,,,,,,,,,,,,,,,,,,,,,,,,,,,,,,,,,,,,,,,,,,,,,,,,,,,,,,,,,,,,,,,,,,,,,,,,,,,,,,,,,,,,,,,
,,65745708518a6ec1b4773387,2023-12-15_11h10.45.039,kallum_motion_pilot,2023.2.3,Win32,21.32196162,65745708518a6ec1b4773387,657bb317c8798c6608bceb3f,657bb47bc8798c6608bceb81,0.0472,0.0473,1,75,237,76,1,threeone,,,,,,,,,,,,,,,,,,,,,,,,,,,,,,,,,,,,,,,,,,,,,,,,,,,,,,,,,,,,,,,,,,,,,,,,,,,,,,,,,,,,,,,,,,,,,,,,,,,,,,,,,,,,,,,,,,,,,,,,,,,,,,,,,,,,,,,
,,65745708518a6ec1b4773387,2023-12-15_11h10.45.039,kallum_motion_pilot,2023.2.3,Win32,21.32196162,65745708518a6ec1b4773387,657bb317c8798c6608bceb3f,657bb47bc8798c6608bceb81,0.0474,0.0474,1,76,238,54,1,fourtwo,,,,,,,,,,,,,,,,,,,,,,,,,,,,,,,,,,,,,,,,,,,,,,,,,,,,,,,,,,,,,,,,,,,,,,,,,,,,,,,,,,,,,,,,,,,,,,,,,,,,,,,,,,,,,,,,,,,,,,,,,,,,,,,,,,,,,,,
,,65745708518a6ec1b4773387,2023-12-15_11h10.45.039,kallum_motion_pilot,2023.2.3,Win32,21.32196162,65745708518a6ec1b4773387,657bb317c8798c6608bceb3f,657bb47bc8798c6608bceb81,0.0476,0.0476,1,77,239,102,1,eightsix,,,,,,,,,,,,,,,,,,,,,,,,,,,,,,,,,,,,,,,,,,,,,,,,,,,,,,,,,,,,,,,,,,,,,,,,,,,,,,,,,,,,,,,,,,,,,,,,,,,,,,,,,,,,,,,,,,,,,,,,,,,,,,,,,,,,,,,
,,65745708518a6ec1b4773387,2023-12-15_11h10.45.039,kallum_motion_pilot,2023.2.3,Win32,21.32196162,65745708518a6ec1b4773387,657bb317c8798c6608bceb3f,657bb47bc8798c6608bceb81,0.0477,0.0478,1,78,240,3,1,twofour,,,,,,,,,,,,,,,,,,,,,,,,,,,,,,,,,,,,,,,,,,,,,,,,,,,,,,,,,,,,,,,,,,,,,,,,,,,,,,,,,,,,,,,,,,,,,,,,,,,,,,,,,,,,,,,,,,,,,,,,,,,,,,,,,,,,,,,
,,65745708518a6ec1b4773387,2023-12-15_11h10.45.039,kallum_motion_pilot,2023.2.3,Win32,21.32196162,65745708518a6ec1b4773387,657bb317c8798c6608bceb3f,657bb47bc8798c6608bceb81,0.0478,0.0479,1,79,241,63,1,fourthree,,,,,,,,,,,,,,,,,,,,,,,,,,,,,,,,,,,,,,,,,,,,,,,,,,,,,,,,,,,,,,,,,,,,,,,,,,,,,,,,,,,,,,,,,,,,,,,,,,,,,,,,,,,,,,,,,,,,,,,,,,,,,,,,,,,,,,,
,,65745708518a6ec1b4773387,2023-12-15_11h10.45.039,kallum_motion_pilot,2023.2.3,Win32,21.32196162,65745708518a6ec1b4773387,657bb317c8798c6608bceb3f,657bb47bc8798c6608bceb81,0.048,0.0481,1,80,242,7,1,fourthree,,,,,,,,,,,,,,,,,,,,,,,,,,,,,,,,,,,,,,,,,,,,,,,,,,,,,,,,,,,,,,,,,,,,,,,,,,,,,,,,,,,,,,,,,,,,,,,,,,,,,,,,,,,,,,,,,,,,,,,,,,,,,,,,,,,,,,,
,,65745708518a6ec1b4773387,2023-12-15_11h10.45.039,kallum_motion_pilot,2023.2.3,Win32,21.32196162,65745708518a6ec1b4773387,657bb317c8798c6608bceb3f,657bb47bc8798c6608bceb81,0.0481,0.0483,1,81,243,149,1,seveneight,,,,,,,,,,,,,,,,,,,,,,,,,,,,,,,,,,,,,,,,,,,,,,,,,,,,,,,,,,,,,,,,,,,,,,,,,,,,,,,,,,,,,,,,,,,,,,,,,,,,,,,,,,,,,,,,,,,,,,,,,,,,,,,,,,,,,,,
,,65745708518a6ec1b4773387,2023-12-15_11h10.45.039,kallum_motion_pilot,2023.2.3,Win32,21.32196162,65745708518a6ec1b4773387,657bb317c8798c6608bceb3f,657bb47bc8798c6608bceb81,0.0483,0.0484,1,82,244,145,1,fiveseven,,,,,,,,,,,,,,,,,,,,,,,,,,,,,,,,,,,,,,,,,,,,,,,,,,,,,,,,,,,,,,,,,,,,,,,,,,,,,,,,,,,,,,,,,,,,,,,,,,,,,,,,,,,,,,,,,,,,,,,,,,,,,,,,,,,,,,,
,,65745708518a6ec1b4773387,2023-12-15_11h10.45.039,kallum_motion_pilot,2023.2.3,Win32,21.32196162,65745708518a6ec1b4773387,657bb317c8798c6608bceb3f,657bb47bc8798c6608bceb81,0.0485,0.0486,1,83,245,62,1,fourtwo,,,,,,,,,,,,,,,,,,,,,,,,,,,,,,,,,,,,,,,,,,,,,,,,,,,,,,,,,,,,,,,,,,,,,,,,,,,,,,,,,,,,,,,,,,,,,,,,,,,,,,,,,,,,,,,,,,,,,,,,,,,,,,,,,,,,,,,
,,65745708518a6ec1b4773387,2023-12-15_11h10.45.039,kallum_motion_pilot,2023.2.3,Win32,21.32196162,65745708518a6ec1b4773387,657bb317c8798c6608bceb3f,657bb47bc8798c6608bceb81,0.0486,0.0487,1,84,246,48,1,onetwo,,,,,,,,,,,,,,,,,,,,,,,,,,,,,,,,,,,,,,,,,,,,,,,,,,,,,,,,,,,,,,,,,,,,,,,,,,,,,,,,,,,,,,,,,,,,,,,,,,,,,,,,,,,,,,,,,,,,,,,,,,,,,,,,,,,,,,,
,,65745708518a6ec1b4773387,2023-12-15_11h10.45.039,kallum_motion_pilot,2023.2.3,Win32,21.32196162,65745708518a6ec1b4773387,657bb317c8798c6608bceb3f,657bb47bc8798c6608bceb81,0.0493,0.0493,1,85,247,58,1,twoone,,,,,,,,,,,,,,,,,,,,,,,,,,,,,,,,,,,,,,,,,,,,,,,,,,,,,,,,,,,,,,,,,,,,,,,,,,,,,,,,,,,,,,,,,,,,,,,,,,,,,,,,,,,,,,,,,,,,,,,,,,,,,,,,,,,,,,,
,,65745708518a6ec1b4773387,2023-12-15_11h10.45.039,kallum_motion_pilot,2023.2.3,Win32,21.32196162,65745708518a6ec1b4773387,657bb317c8798c6608bceb3f,657bb47bc8798c6608bceb81,0.0494,0.0495,1,86,248,127,1,eightseven,,,,,,,,,,,,,,,,,,,,,,,,,,,,,,,,,,,,,,,,,,,,,,,,,,,,,,,,,,,,,,,,,,,,,,,,,,,,,,,,,,,,,,,,,,,,,,,,,,,,,,,,,,,,,,,,,,,,,,,,,,,,,,,,,,,,,,,
,,65745708518a6ec1b4773387,2023-12-15_11h10.45.039,kallum_motion_pilot,2023.2.3,Win32,21.32196162,65745708518a6ec1b4773387,657bb317c8798c6608bceb3f,657bb47bc8798c6608bceb81,0.0496,0.0496,1,87,249,147,1,sixeight,,,,,,,,,,,,,,,,,,,,,,,,,,,,,,,,,,,,,,,,,,,,,,,,,,,,,,,,,,,,,,,,,,,,,,,,,,,,,,,,,,,,,,,,,,,,,,,,,,,,,,,,,,,,,,,,,,,,,,,,,,,,,,,,,,,,,,,
,,65745708518a6ec1b4773387,2023-12-15_11h10.45.039,kallum_motion_pilot,2023.2.3,Win32,21.32196162,65745708518a6ec1b4773387,657bb317c8798c6608bceb3f,657bb47bc8798c6608bceb81,0.0497,0.0498,1,88,250,89,1,fiveseven,,,,,,,,,,,,,,,,,,,,,,,,,,,,,,,,,,,,,,,,,,,,,,,,,,,,,,,,,,,,,,,,,,,,,,,,,,,,,,,,,,,,,,,,,,,,,,,,,,,,,,,,,,,,,,,,,,,,,,,,,,,,,,,,,,,,,,,
,,65745708518a6ec1b4773387,2023-12-15_11h10.45.039,kallum_motion_pilot,2023.2.3,Win32,21.32196162,65745708518a6ec1b4773387,657bb317c8798c6608bceb3f,657bb47bc8798c6608bceb81,0.0498,0.0499,1,89,251,15,1,fourthree,,,,,,,,,,,,,,,,,,,,,,,,,,,,,,,,,,,,,,,,,,,,,,,,,,,,,,,,,,,,,,,,,,,,,,,,,,,,,,,,,,,,,,,,,,,,,,,,,,,,,,,,,,,,,,,,,,,,,,,,,,,,,,,,,,,,,,,
,,65745708518a6ec1b4773387,2023-12-15_11h10.45.039,kallum_motion_pilot,2023.2.3,Win32,21.32196162,65745708518a6ec1b4773387,657bb317c8798c6608bceb3f,657bb47bc8798c6608bceb81,0.0499,0.05,1,90,252,17,1,onethree,,,,,,,,,,,,,,,,,,,,,,,,,,,,,,,,,,,,,,,,,,,,,,,,,,,,,,,,,,,,,,,,,,,,,,,,,,,,,,,,,,,,,,,,,,,,,,,,,,,,,,,,,,,,,,,,,,,,,,,,,,,,,,,,,,,,,,,
,,65745708518a6ec1b4773387,2023-12-15_11h10.45.039,kallum_motion_pilot,2023.2.3,Win32,21.32196162,65745708518a6ec1b4773387,657bb317c8798c6608bceb3f,657bb47bc8798c6608bceb81,0.0501,0.0501,1,91,253,150,1,eightsix,,,,,,,,,,,,,,,,,,,,,,,,,,,,,,,,,,,,,,,,,,,,,,,,,,,,,,,,,,,,,,,,,,,,,,,,,,,,,,,,,,,,,,,,,,,,,,,,,,,,,,,,,,,,,,,,,,,,,,,,,,,,,,,,,,,,,,,
,,65745708518a6ec1b4773387,2023-12-15_11h10.45.039,kallum_motion_pilot,2023.2.3,Win32,21.32196162,65745708518a6ec1b4773387,657bb317c8798c6608bceb3f,657bb47bc8798c6608bceb81,0.0502,0.0502,1,92,254,70,1,fourtwo,,,,,,,,,,,,,,,,,,,,,,,,,,,,,,,,,,,,,,,,,,,,,,,,,,,,,,,,,,,,,,,,,,,,,,,,,,,,,,,,,,,,,,,,,,,,,,,,,,,,,,,,,,,,,,,,,,,,,,,,,,,,,,,,,,,,,,,
,,65745708518a6ec1b4773387,2023-12-15_11h10.45.039,kallum_motion_pilot,2023.2.3,Win32,21.32196162,65745708518a6ec1b4773387,657bb317c8798c6608bceb3f,657bb47bc8798c6608bceb81,0.0504,0.0505,1,93,255,53,1,threefour,,,,,,,,,,,,,,,,,,,,,,,,,,,,,,,,,,,,,,,,,,,,,,,,,,,,,,,,,,,,,,,,,,,,,,,,,,,,,,,,,,,,,,,,,,,,,,,,,,,,,,,,,,,,,,,,,,,,,,,,,,,,,,,,,,,,,,,
,,65745708518a6ec1b4773387,2023-12-15_11h10.45.039,kallum_motion_pilot,2023.2.3,Win32,21.32196162,65745708518a6ec1b4773387,657bb317c8798c6608bceb3f,657bb47bc8798c6608bceb81,0.0505,0.0506,1,94,256,104,1,fivesix,,,,,,,,,,,,,,,,,,,,,,,,,,,,,,,,,,,,,,,,,,,,,,,,,,,,,,,,,,,,,,,,,,,,,,,,,,,,,,,,,,,,,,,,,,,,,,,,,,,,,,,,,,,,,,,,,,,,,,,,,,,,,,,,,,,,,,,
,,65745708518a6ec1b4773387,2023-12-15_11h10.45.039,kallum_motion_pilot,2023.2.3,Win32,21.32196162,65745708518a6ec1b4773387,657bb317c8798c6608bceb3f,657bb47bc8798c6608bceb81,0.0507,0.0507,1,95,257,38,1,fourtwo,,,,,,,,,,,,,,,,,,,,,,,,,,,,,,,,,,,,,,,,,,,,,,,,,,,,,,,,,,,,,,,,,,,,,,,,,,,,,,,,,,,,,,,,,,,,,,,,,,,,,,,,,,,,,,,,,,,,,,,,,,,,,,,,,,,,,,,
,,65745708518a6ec1b4773387,2023-12-15_11h10.45.039,kallum_motion_pilot,2023.2.3,Win32,21.32196162,65745708518a6ec1b4773387,657bb317c8798c6608bceb3f,657bb47bc8798c6608bceb81,0.0508,0.0508,1,96,258,146,1,sixfive,,,,,,,,,,,,,,,,,,,,,,,,,,,,,,,,,,,,,,,,,,,,,,,,,,,,,,,,,,,,,,,,,,,,,,,,,,,,,,,,,,,,,,,,,,,,,,,,,,,,,,,,,,,,,,,,,,,,,,,,,,,,,,,,,,,,,,,
,,65745708518a6ec1b4773387,2023-12-15_11h10.45.039,kallum_motion_pilot,2023.2.3,Win32,21.32196162,65745708518a6ec1b4773387,657bb317c8798c6608bceb3f,657bb47bc8798c6608bceb81,0.051,0.051,1,97,259,125,1,seveneight,,,,,,,,,,,,,,,,,,,,,,,,,,,,,,,,,,,,,,,,,,,,,,,,,,,,,,,,,,,,,,,,,,,,,,,,,,,,,,,,,,,,,,,,,,,,,,,,,,,,,,,,,,,,,,,,,,,,,,,,,,,,,,,,,,,,,,,
,,65745708518a6ec1b4773387,2023-12-15_11h10.45.039,kallum_motion_pilot,2023.2.3,Win32,21.32196162,65745708518a6ec1b4773387,657bb317c8798c6608bceb3f,657bb47bc8798c6608bceb81,0.051,0.0511,1,98,260,160,1,fivesix,,,,,,,,,,,,,,,,,,,,,,,,,,,,,,,,,,,,,,,,,,,,,,,,,,,,,,,,,,,,,,,,,,,,,,,,,,,,,,,,,,,,,,,,,,,,,,,,,,,,,,,,,,,,,,,,,,,,,,,,,,,,,,,,,,,,,,,
,,65745708518a6ec1b4773387,2023-12-15_11h10.45.039,kallum_motion_pilot,2023.2.3,Win32,21.32196162,65745708518a6ec1b4773387,657bb317c8798c6608bceb3f,657bb47bc8798c6608bceb81,0.0512,0.0513,1,99,261,96,1,fivesix,,,,,,,,,,,,,,,,,,,,,,,,,,,,,,,,,,,,,,,,,,,,,,,,,,,,,,,,,,,,,,,,,,,,,,,,,,,,,,,,,,,,,,,,,,,,,,,,,,,,,,,,,,,,,,,,,,,,,,,,,,,,,,,,,,,,,,,
,,65745708518a6ec1b4773387,2023-12-15_11h10.45.039,kallum_motion_pilot,2023.2.3,Win32,21.32196162,65745708518a6ec1b4773387,657bb317c8798c6608bceb3f,657bb47bc8798c6608bceb81,0.0514,0.0514,1,100,262,152,1,fivesix,,,,,,,,,,,,,,,,,,,,,,,,,,,,,,,,,,,,,,,,,,,,,,,,,,,,,,,,,,,,,,,,,,,,,,,,,,,,,,,,,,,,,,,,,,,,,,,,,,,,,,,,,,,,,,,,,,,,,,,,,,,,,,,,,,,,,,,
,,65745708518a6ec1b4773387,2023-12-15_11h10.45.039,kallum_motion_pilot,2023.2.3,Win32,21.32196162,65745708518a6ec1b4773387,657bb317c8798c6608bceb3f,657bb47bc8798c6608bceb81,0.0514,0.0516,1,101,263,30,1,fourtwo,,,,,,,,,,,,,,,,,,,,,,,,,,,,,,,,,,,,,,,,,,,,,,,,,,,,,,,,,,,,,,,,,,,,,,,,,,,,,,,,,,,,,,,,,,,,,,,,,,,,,,,,,,,,,,,,,,,,,,,,,,,,,,,,,,,,,,,
,,65745708518a6ec1b4773387,2023-12-15_11h10.45.039,kallum_motion_pilot,2023.2.3,Win32,21.32196162,65745708518a6ec1b4773387,657bb317c8798c6608bceb3f,657bb47bc8798c6608bceb81,0.0517,0.0518,1,102,264,19,1,twofour,,,,,,,,,,,,,,,,,,,,,,,,,,,,,,,,,,,,,,,,,,,,,,,,,,,,,,,,,,,,,,,,,,,,,,,,,,,,,,,,,,,,,,,,,,,,,,,,,,,,,,,,,,,,,,,,,,,,,,,,,,,,,,,,,,,,,,,
,,65745708518a6ec1b4773387,2023-12-15_11h10.45.039,kallum_motion_pilot,2023.2.3,Win32,21.32196162,65745708518a6ec1b4773387,657bb317c8798c6608bceb3f,657bb47bc8798c6608bceb81,0.0518,0.0519,1,103,265,91,1,sixeight,,,,,,,,,,,,,,,,,,,,,,,,,,,,,,,,,,,,,,,,,,,,,,,,,,,,,,,,,,,,,,,,,,,,,,,,,,,,,,,,,,,,,,,,,,,,,,,,,,,,,,,,,,,,,,,,,,,,,,,,,,,,,,,,,,,,,,,
,,65745708518a6ec1b4773387,2023-12-15_11h10.45.039,kallum_motion_pilot,2023.2.3,Win32,21.32196162,65745708518a6ec1b4773387,657bb317c8798c6608bceb3f,657bb47bc8798c6608bceb81,0.052,0.052,1,104,266,86,1,eightsix,,,,,,,,,,,,,,,,,,,,,,,,,,,,,,,,,,,,,,,,,,,,,,,,,,,,,,,,,,,,,,,,,,,,,,,,,,,,,,,,,,,,,,,,,,,,,,,,,,,,,,,,,,,,,,,,,,,,,,,,,,,,,,,,,,,,,,,
,,65745708518a6ec1b4773387,2023-12-15_11h10.45.039,kallum_motion_pilot,2023.2.3,Win32,21.32196162,65745708518a6ec1b4773387,657bb317c8798c6608bceb3f,657bb47bc8798c6608bceb81,0.052,0.0522,1,105,267,42,1,twoone,,,,,,,,,,,,,,,,,,,,,,,,,,,,,,,,,,,,,,,,,,,,,,,,,,,,,,,,,,,,,,,,,,,,,,,,,,,,,,,,,,,,,,,,,,,,,,,,,,,,,,,,,,,,,,,,,,,,,,,,,,,,,,,,,,,,,,,
,,65745708518a6ec1b4773387,2023-12-15_11h10.45.039,kallum_motion_pilot,2023.2.3,Win32,21.32196162,65745708518a6ec1b4773387,657bb317c8798c6608bceb3f,657bb47bc8798c6608bceb81,0.0522,0.0524,1,106,268,116,1,sevenfive,,,,,,,,,,,,,,,,,,,,,,,,,,,,,,,,,,,,,,,,,,,,,,,,,,,,,,,,,,,,,,,,,,,,,,,,,,,,,,,,,,,,,,,,,,,,,,,,,,,,,,,,,,,,,,,,,,,,,,,,,,,,,,,,,,,,,,,
,,65745708518a6ec1b4773387,2023-12-15_11h10.45.039,kallum_motion_pilot,2023.2.3,Win32,21.32196162,65745708518a6ec1b4773387,657bb317c8798c6608bceb3f,657bb47bc8798c6608bceb81,0.0524,0.0525,1,107,269,82,1,sixfive,,,,,,,,,,,,,,,,,,,,,,,,,,,,,,,,,,,,,,,,,,,,,,,,,,,,,,,,,,,,,,,,,,,,,,,,,,,,,,,,,,,,,,,,,,,,,,,,,,,,,,,,,,,,,,,,,,,,,,,,,,,,,,,,,,,,,,,
,,65745708518a6ec1b4773387,2023-12-15_11h10.45.039,kallum_motion_pilot,2023.2.3,Win32,21.32196162,65745708518a6ec1b4773387,657bb317c8798c6608bceb3f,657bb47bc8798c6608bceb81,0.0525,0.0527,1,108,270,24,1,onetwo,,,,,,,,,,,,,,,,,,,,,,,,,,,,,,,,,,,,,,,,,,,,,,,,,,,,,,,,,,,,,,,,,,,,,,,,,,,,,,,,,,,,,,,,,,,,,,,,,,,,,,,,,,,,,,,,,,,,,,,,,,,,,,,,,,,,,,,
,,65745708518a6ec1b4773387,2023-12-15_11h10.45.039,kallum_motion_pilot,2023.2.3,Win32,21.32196162,65745708518a6ec1b4773387,657bb317c8798c6608bceb3f,657bb47bc8798c6608bceb81,0.0527,0.0528,1,109,271,109,1,seveneight,,,,,,,,,,,,,,,,,,,,,,,,,,,,,,,,,,,,,,,,,,,,,,,,,,,,,,,,,,,,,,,,,,,,,,,,,,,,,,,,,,,,,,,,,,,,,,,,,,,,,,,,,,,,,,,,,,,,,,,,,,,,,,,,,,,,,,,
,,65745708518a6ec1b4773387,2023-12-15_11h10.45.039,kallum_motion_pilot,2023.2.3,Win32,21.32196162,65745708518a6ec1b4773387,657bb317c8798c6608bceb3f,657bb47bc8798c6608bceb81,0.0528,0.0529,1,110,272,10,1,twoone,,,,,,,,,,,,,,,,,,,,,,,,,,,,,,,,,,,,,,,,,,,,,,,,,,,,,,,,,,,,,,,,,,,,,,,,,,,,,,,,,,,,,,,,,,,,,,,,,,,,,,,,,,,,,,,,,,,,,,,,,,,,,,,,,,,,,,,
,,65745708518a6ec1b4773387,2023-12-15_11h10.45.039,kallum_motion_pilot,2023.2.3,Win32,21.32196162,65745708518a6ec1b4773387,657bb317c8798c6608bceb3f,657bb47bc8798c6608bceb81,0.0529,0.0531,1,111,273,131,1,sixeight,,,,,,,,,,,,,,,,,,,,,,,,,,,,,,,,,,,,,,,,,,,,,,,,,,,,,,,,,,,,,,,,,,,,,,,,,,,,,,,,,,,,,,,,,,,,,,,,,,,,,,,,,,,,,,,,,,,,,,,,,,,,,,,,,,,,,,,
,,65745708518a6ec1b4773387,2023-12-15_11h10.45.039,kallum_motion_pilot,2023.2.3,Win32,21.32196162,65745708518a6ec1b4773387,657bb317c8798c6608bceb3f,657bb47bc8798c6608bceb81,0.0531,0.0532,1,112,274,83,1,sixeight,,,,,,,,,,,,,,,,,,,,,,,,,,,,,,,,,,,,,,,,,,,,,,,,,,,,,,,,,,,,,,,,,,,,,,,,,,,,,,,,,,,,,,,,,,,,,,,,,,,,,,,,,,,,,,,,,,,,,,,,,,,,,,,,,,,,,,,
,,65745708518a6ec1b4773387,2023-12-15_11h10.45.039,kallum_motion_pilot,2023.2.3,Win32,21.32196162,65745708518a6ec1b4773387,657bb317c8798c6608bceb3f,657bb47bc8798c6608bceb81,0.0533,0.0534,1,113,275,20,1,threeone,,,,,,,,,,,,,,,,,,,,,,,,,,,,,,,,,,,,,,,,,,,,,,,,,,,,,,,,,,,,,,,,,,,,,,,,,,,,,,,,,,,,,,,,,,,,,,,,,,,,,,,,,,,,,,,,,,,,,,,,,,,,,,,,,,,,,,,
,,65745708518a6ec1b4773387,2023-12-15_11h10.45.039,kallum_motion_pilot,2023.2.3,Win32,21.32196162,65745708518a6ec1b4773387,657bb317c8798c6608bceb3f,657bb47bc8798c6608bceb81,0.0534,0.0535,1,114,276,98,1,sixfive,,,,,,,,,,,,,,,,,,,,,,,,,,,,,,,,,,,,,,,,,,,,,,,,,,,,,,,,,,,,,,,,,,,,,,,,,,,,,,,,,,,,,,,,,,,,,,,,,,,,,,,,,,,,,,,,,,,,,,,,,,,,,,,,,,,,,,,
,,65745708518a6ec1b4773387,2023-12-15_11h10.45.039,kallum_motion_pilot,2023.2.3,Win32,21.32196162,65745708518a6ec1b4773387,657bb317c8798c6608bceb3f,657bb47bc8798c6608bceb81,0.0536,0.0537,1,115,277,113,1,fiveseven,,,,,,,,,,,,,,,,,,,,,,,,,,,,,,,,,,,,,,,,,,,,,,,,,,,,,,,,,,,,,,,,,,,,,,,,,,,,,,,,,,,,,,,,,,,,,,,,,,,,,,,,,,,,,,,,,,,,,,,,,,,,,,,,,,,,,,,
,,65745708518a6ec1b4773387,2023-12-15_11h10.45.039,kallum_motion_pilot,2023.2.3,Win32,21.32196162,65745708518a6ec1b4773387,657bb317c8798c6608bceb3f,657bb47bc8798c6608bceb81,0.0538,0.0539,1,116,278,1,1,onethree,,,,,,,,,,,,,,,,,,,,,,,,,,,,,,,,,,,,,,,,,,,,,,,,,,,,,,,,,,,,,,,,,,,,,,,,,,,,,,,,,,,,,,,,,,,,,,,,,,,,,,,,,,,,,,,,,,,,,,,,,,,,,,,,,,,,,,,
,,65745708518a6ec1b4773387,2023-12-15_11h10.45.039,kallum_motion_pilot,2023.2.3,Win32,21.32196162,65745708518a6ec1b4773387,657bb317c8798c6608bceb3f,657bb47bc8798c6608bceb81,0.0539,0.054,1,117,279,37,1,threefour,,,,,,,,,,,,,,,,,,,,,,,,,,,,,,,,,,,,,,,,,,,,,,,,,,,,,,,,,,,,,,,,,,,,,,,,,,,,,,,,,,,,,,,,,,,,,,,,,,,,,,,,,,,,,,,,,,,,,,,,,,,,,,,,,,,,,,,
