startup.started,startup.stopped,Prolific ID*,date,expName,psychopyVersion,OS,frameRate,PROLIFIC_PID,STUDY_ID,SESSION_ID,stimpositions.started,stimpositions.stopped,hardcoded_stimulus_positions.thisRepN,hardcoded_stimulus_positions.thisTrialN,hardcoded_stimulus_positions.thisN,hardcoded_stimulus_positions.thisIndex,hardcoded_stimulus_positions.ran,StimulusPos,stimorientation.started,stimorientation.stopped,prac_stimorientation_import_loop.thisRepN,prac_stimorientation_import_loop.thisTrialN,prac_stimorientation_import_loop.thisN,prac_stimorientation_import_loop.thisIndex,prac_stimorientation_import_loop.ran,Stimorientation,welcome_instr.started,welcome_instr.stopped,key_resp.keys,key_resp.rt,key_resp.duration,response_steppedout_1.started,response_steppedout_1.stopped,key_resp_20.keys,key_resp_20.rt,key_resp_20.duration,response_steppedout_2.started,response_steppedout_2.stopped,key_resp_19.keys,key_resp_19.rt,key_resp_19.duration,stim_response_instr.started,stim_response_instr.stopped,key_resp_15.keys,key_resp_15.rt,key_resp_15.duration,direction_instr_2.started,direction_instr_2.stopped,key_resp_9.keys,key_resp_9.rt,key_resp_9.duration,instr_prac.started,instr_prac.stopped,key_resp_10.keys,key_resp_10.rt,key_resp_10.duration,Stim1_display_prac.started,Stim1_display_prac.stopped,Ecc,Circle1_ori,Circle2_ori,response_prac.started,similarity,response_time,response_prac.stopped,mouse_5.x,mouse_5.y,mouse_5.leftButton,mouse_5.midButton,mouse_5.rightButton,mouse_5.clicked_name,responseprac_feedback.started,responseprac_feedback.stopped,summary2_prac.started,summary2_prac.stopped,mouse_6.x,mouse_6.y,mouse_6.leftButton,mouse_6.midButton,mouse_6.rightButton,mouse_6.clicked_name,duringprac.thisRepN,duringprac.thisTrialN,duringprac.thisN,duringprac.thisIndex,duringprac.ran,begin.started,begin.stopped,key_resp_22.keys,key_resp_22.rt,key_resp_22.duration,Stim1_display.started,Stim1_display.stopped,circle1_ori,circle2_ori,blank.started,blank.stopped,response.started,response.stopped,mouse.x,mouse.y,mouse.leftButton,mouse.midButton,mouse.rightButton,mouse.clicked_name,response_2.started,response_2.stopped,mouse_2.x,mouse_2.y,mouse_2.leftButton,mouse_2.midButton,mouse_2.rightButton,mouse_2.clicked_name,special_trial.started,special_trial.stopped,catch_1.started,catch_1.stopped,mouse_3.x,mouse_3.y,mouse_3.leftButton,mouse_3.midButton,mouse_3.rightButton,catchresponse,catchnumber,response_time_catch,Catch,response_sum.started,response_sum.stopped,mouse_11.x,mouse_11.y,mouse_11.leftButton,mouse_11.midButton,mouse_11.rightButton,main_trial.thisRepN,main_trial.thisTrialN,main_trial.thisN,main_trial.thisIndex,main_trial.ran,Orientationtrialno,xcircle1_ori,xcircle2_ori,flip_presentation_sequence_for_double_pass.started,flip_presentation_sequence_for_double_pass.stopped,double_pass.thisRepN,double_pass.thisTrialN,double_pass.thisN,double_pass.thisIndex,double_pass.ran,goodbye.started,goodbye.stopped,key_resp_3.keys,key_resp_3.rt,key_resp_3.duration
0.0003,0.0004,61687ebcd2a35ffb762d1928,2024-01-06_08h21.26.396,kallum_motion_pilot,2023.2.3,Win32,59.88023952,61687ebcd2a35ffb762d1928,6598e6a5d84f07970b831e70,6598f12a2faa4ff4b116d00c,,,,,,,,,,,,,,,,,,,,,,,,,,,,,,,,,,,,,,,,,,,,,,,,,,,,,,,,,,,,,,,,,,,,,,,,,,,,,,,,,,,,,,,,,,,,,,,,,,,,,,,,,,,,,,,,,,,,,,,,,,,,,,,,,,,,,,,,,,,,,,,
,,61687ebcd2a35ffb762d1928,2024-01-06_08h21.26.396,kallum_motion_pilot,2023.2.3,Win32,59.88023952,61687ebcd2a35ffb762d1928,6598e6a5d84f07970b831e70,6598f12a2faa4ff4b116d00c,0.0266,0.0267,0,0,0,118,1,eightsix,,,,,,,,,,,,,,,,,,,,,,,,,,,,,,,,,,,,,,,,,,,,,,,,,,,,,,,,,,,,,,,,,,,,,,,,,,,,,,,,,,,,,,,,,,,,,,,,,,,,,,,,,,,,,,,,,,,,,,,,,,,,,,,,,,,,,,,
,,61687ebcd2a35ffb762d1928,2024-01-06_08h21.26.396,kallum_motion_pilot,2023.2.3,Win32,59.88023952,61687ebcd2a35ffb762d1928,6598e6a5d84f07970b831e70,6598f12a2faa4ff4b116d00c,0.027,0.0271,0,1,1,102,1,eightsix,,,,,,,,,,,,,,,,,,,,,,,,,,,,,,,,,,,,,,,,,,,,,,,,,,,,,,,,,,,,,,,,,,,,,,,,,,,,,,,,,,,,,,,,,,,,,,,,,,,,,,,,,,,,,,,,,,,,,,,,,,,,,,,,,,,,,,,
,,61687ebcd2a35ffb762d1928,2024-01-06_08h21.26.396,kallum_motion_pilot,2023.2.3,Win32,59.88023952,61687ebcd2a35ffb762d1928,6598e6a5d84f07970b831e70,6598f12a2faa4ff4b116d00c,0.0272,0.0272,0,2,2,70,1,fourtwo,,,,,,,,,,,,,,,,,,,,,,,,,,,,,,,,,,,,,,,,,,,,,,,,,,,,,,,,,,,,,,,,,,,,,,,,,,,,,,,,,,,,,,,,,,,,,,,,,,,,,,,,,,,,,,,,,,,,,,,,,,,,,,,,,,,,,,,
,,61687ebcd2a35ffb762d1928,2024-01-06_08h21.26.396,kallum_motion_pilot,2023.2.3,Win32,59.88023952,61687ebcd2a35ffb762d1928,6598e6a5d84f07970b831e70,6598f12a2faa4ff4b116d00c,0.0274,0.0274,0,3,3,99,1,sixeight,,,,,,,,,,,,,,,,,,,,,,,,,,,,,,,,,,,,,,,,,,,,,,,,,,,,,,,,,,,,,,,,,,,,,,,,,,,,,,,,,,,,,,,,,,,,,,,,,,,,,,,,,,,,,,,,,,,,,,,,,,,,,,,,,,,,,,,
,,61687ebcd2a35ffb762d1928,2024-01-06_08h21.26.396,kallum_motion_pilot,2023.2.3,Win32,59.88023952,61687ebcd2a35ffb762d1928,6598e6a5d84f07970b831e70,6598f12a2faa4ff4b116d00c,0.0275,0.0276,0,4,4,136,1,fivesix,,,,,,,,,,,,,,,,,,,,,,,,,,,,,,,,,,,,,,,,,,,,,,,,,,,,,,,,,,,,,,,,,,,,,,,,,,,,,,,,,,,,,,,,,,,,,,,,,,,,,,,,,,,,,,,,,,,,,,,,,,,,,,,,,,,,,,,
,,61687ebcd2a35ffb762d1928,2024-01-06_08h21.26.396,kallum_motion_pilot,2023.2.3,Win32,59.88023952,61687ebcd2a35ffb762d1928,6598e6a5d84f07970b831e70,6598f12a2faa4ff4b116d00c,0.0276,0.0276,0,5,5,19,1,twofour,,,,,,,,,,,,,,,,,,,,,,,,,,,,,,,,,,,,,,,,,,,,,,,,,,,,,,,,,,,,,,,,,,,,,,,,,,,,,,,,,,,,,,,,,,,,,,,,,,,,,,,,,,,,,,,,,,,,,,,,,,,,,,,,,,,,,,,
,,61687ebcd2a35ffb762d1928,2024-01-06_08h21.26.396,kallum_motion_pilot,2023.2.3,Win32,59.88023952,61687ebcd2a35ffb762d1928,6598e6a5d84f07970b831e70,6598f12a2faa4ff4b116d00c,0.0277,0.0278,0,6,6,34,1,twoone,,,,,,,,,,,,,,,,,,,,,,,,,,,,,,,,,,,,,,,,,,,,,,,,,,,,,,,,,,,,,,,,,,,,,,,,,,,,,,,,,,,,,,,,,,,,,,,,,,,,,,,,,,,,,,,,,,,,,,,,,,,,,,,,,,,,,,,
,,61687ebcd2a35ffb762d1928,2024-01-06_08h21.26.396,kallum_motion_pilot,2023.2.3,Win32,59.88023952,61687ebcd2a35ffb762d1928,6598e6a5d84f07970b831e70,6598f12a2faa4ff4b116d00c,0.0279,0.028,0,7,7,47,1,fourthree,,,,,,,,,,,,,,,,,,,,,,,,,,,,,,,,,,,,,,,,,,,,,,,,,,,,,,,,,,,,,,,,,,,,,,,,,,,,,,,,,,,,,,,,,,,,,,,,,,,,,,,,,,,,,,,,,,,,,,,,,,,,,,,,,,,,,,,
,,61687ebcd2a35ffb762d1928,2024-01-06_08h21.26.396,kallum_motion_pilot,2023.2.3,Win32,59.88023952,61687ebcd2a35ffb762d1928,6598e6a5d84f07970b831e70,6598f12a2faa4ff4b116d00c,0.028,0.028,0,8,8,113,1,fiveseven,,,,,,,,,,,,,,,,,,,,,,,,,,,,,,,,,,,,,,,,,,,,,,,,,,,,,,,,,,,,,,,,,,,,,,,,,,,,,,,,,,,,,,,,,,,,,,,,,,,,,,,,,,,,,,,,,,,,,,,,,,,,,,,,,,,,,,,
,,61687ebcd2a35ffb762d1928,2024-01-06_08h21.26.396,kallum_motion_pilot,2023.2.3,Win32,59.88023952,61687ebcd2a35ffb762d1928,6598e6a5d84f07970b831e70,6598f12a2faa4ff4b116d00c,0.0282,0.0283,0,9,9,86,1,eightsix,,,,,,,,,,,,,,,,,,,,,,,,,,,,,,,,,,,,,,,,,,,,,,,,,,,,,,,,,,,,,,,,,,,,,,,,,,,,,,,,,,,,,,,,,,,,,,,,,,,,,,,,,,,,,,,,,,,,,,,,,,,,,,,,,,,,,,,
,,61687ebcd2a35ffb762d1928,2024-01-06_08h21.26.396,kallum_motion_pilot,2023.2.3,Win32,59.88023952,61687ebcd2a35ffb762d1928,6598e6a5d84f07970b831e70,6598f12a2faa4ff4b116d00c,0.0283,0.0283,0,10,10,144,1,fivesix,,,,,,,,,,,,,,,,,,,,,,,,,,,,,,,,,,,,,,,,,,,,,,,,,,,,,,,,,,,,,,,,,,,,,,,,,,,,,,,,,,,,,,,,,,,,,,,,,,,,,,,,,,,,,,,,,,,,,,,,,,,,,,,,,,,,,,,
,,61687ebcd2a35ffb762d1928,2024-01-06_08h21.26.396,kallum_motion_pilot,2023.2.3,Win32,59.88023952,61687ebcd2a35ffb762d1928,6598e6a5d84f07970b831e70,6598f12a2faa4ff4b116d00c,0.0284,0.0285,0,11,11,106,1,sixfive,,,,,,,,,,,,,,,,,,,,,,,,,,,,,,,,,,,,,,,,,,,,,,,,,,,,,,,,,,,,,,,,,,,,,,,,,,,,,,,,,,,,,,,,,,,,,,,,,,,,,,,,,,,,,,,,,,,,,,,,,,,,,,,,,,,,,,,
,,61687ebcd2a35ffb762d1928,2024-01-06_08h21.26.396,kallum_motion_pilot,2023.2.3,Win32,59.88023952,61687ebcd2a35ffb762d1928,6598e6a5d84f07970b831e70,6598f12a2faa4ff4b116d00c,0.0286,0.0286,0,12,12,65,1,onethree,,,,,,,,,,,,,,,,,,,,,,,,,,,,,,,,,,,,,,,,,,,,,,,,,,,,,,,,,,,,,,,,,,,,,,,,,,,,,,,,,,,,,,,,,,,,,,,,,,,,,,,,,,,,,,,,,,,,,,,,,,,,,,,,,,,,,,,
,,61687ebcd2a35ffb762d1928,2024-01-06_08h21.26.396,kallum_motion_pilot,2023.2.3,Win32,59.88023952,61687ebcd2a35ffb762d1928,6598e6a5d84f07970b831e70,6598f12a2faa4ff4b116d00c,0.0288,0.0288,0,13,13,59,1,twofour,,,,,,,,,,,,,,,,,,,,,,,,,,,,,,,,,,,,,,,,,,,,,,,,,,,,,,,,,,,,,,,,,,,,,,,,,,,,,,,,,,,,,,,,,,,,,,,,,,,,,,,,,,,,,,,,,,,,,,,,,,,,,,,,,,,,,,,
,,61687ebcd2a35ffb762d1928,2024-01-06_08h21.26.396,kallum_motion_pilot,2023.2.3,Win32,59.88023952,61687ebcd2a35ffb762d1928,6598e6a5d84f07970b831e70,6598f12a2faa4ff4b116d00c,0.0289,0.0289,0,14,14,101,1,seveneight,,,,,,,,,,,,,,,,,,,,,,,,,,,,,,,,,,,,,,,,,,,,,,,,,,,,,,,,,,,,,,,,,,,,,,,,,,,,,,,,,,,,,,,,,,,,,,,,,,,,,,,,,,,,,,,,,,,,,,,,,,,,,,,,,,,,,,,
,,61687ebcd2a35ffb762d1928,2024-01-06_08h21.26.396,kallum_motion_pilot,2023.2.3,Win32,59.88023952,61687ebcd2a35ffb762d1928,6598e6a5d84f07970b831e70,6598f12a2faa4ff4b116d00c,0.029,0.029,0,15,15,89,1,fiveseven,,,,,,,,,,,,,,,,,,,,,,,,,,,,,,,,,,,,,,,,,,,,,,,,,,,,,,,,,,,,,,,,,,,,,,,,,,,,,,,,,,,,,,,,,,,,,,,,,,,,,,,,,,,,,,,,,,,,,,,,,,,,,,,,,,,,,,,
,,61687ebcd2a35ffb762d1928,2024-01-06_08h21.26.396,kallum_motion_pilot,2023.2.3,Win32,59.88023952,61687ebcd2a35ffb762d1928,6598e6a5d84f07970b831e70,6598f12a2faa4ff4b116d00c,0.0291,0.0291,0,16,16,69,1,threefour,,,,,,,,,,,,,,,,,,,,,,,,,,,,,,,,,,,,,,,,,,,,,,,,,,,,,,,,,,,,,,,,,,,,,,,,,,,,,,,,,,,,,,,,,,,,,,,,,,,,,,,,,,,,,,,,,,,,,,,,,,,,,,,,,,,,,,,
,,61687ebcd2a35ffb762d1928,2024-01-06_08h21.26.396,kallum_motion_pilot,2023.2.3,Win32,59.88023952,61687ebcd2a35ffb762d1928,6598e6a5d84f07970b831e70,6598f12a2faa4ff4b116d00c,0.0292,0.0292,0,17,17,82,1,sixfive,,,,,,,,,,,,,,,,,,,,,,,,,,,,,,,,,,,,,,,,,,,,,,,,,,,,,,,,,,,,,,,,,,,,,,,,,,,,,,,,,,,,,,,,,,,,,,,,,,,,,,,,,,,,,,,,,,,,,,,,,,,,,,,,,,,,,,,
,,61687ebcd2a35ffb762d1928,2024-01-06_08h21.26.396,kallum_motion_pilot,2023.2.3,Win32,59.88023952,61687ebcd2a35ffb762d1928,6598e6a5d84f07970b831e70,6598f12a2faa4ff4b116d00c,0.0293,0.0294,0,18,18,157,1,seveneight,,,,,,,,,,,,,,,,,,,,,,,,,,,,,,,,,,,,,,,,,,,,,,,,,,,,,,,,,,,,,,,,,,,,,,,,,,,,,,,,,,,,,,,,,,,,,,,,,,,,,,,,,,,,,,,,,,,,,,,,,,,,,,,,,,,,,,,
,,61687ebcd2a35ffb762d1928,2024-01-06_08h21.26.396,kallum_motion_pilot,2023.2.3,Win32,59.88023952,61687ebcd2a35ffb762d1928,6598e6a5d84f07970b831e70,6598f12a2faa4ff4b116d00c,0.0295,0.0295,0,19,19,67,1,twofour,,,,,,,,,,,,,,,,,,,,,,,,,,,,,,,,,,,,,,,,,,,,,,,,,,,,,,,,,,,,,,,,,,,,,,,,,,,,,,,,,,,,,,,,,,,,,,,,,,,,,,,,,,,,,,,,,,,,,,,,,,,,,,,,,,,,,,,
,,61687ebcd2a35ffb762d1928,2024-01-06_08h21.26.396,kallum_motion_pilot,2023.2.3,Win32,59.88023952,61687ebcd2a35ffb762d1928,6598e6a5d84f07970b831e70,6598f12a2faa4ff4b116d00c,0.0297,0.0297,0,20,20,20,1,threeone,,,,,,,,,,,,,,,,,,,,,,,,,,,,,,,,,,,,,,,,,,,,,,,,,,,,,,,,,,,,,,,,,,,,,,,,,,,,,,,,,,,,,,,,,,,,,,,,,,,,,,,,,,,,,,,,,,,,,,,,,,,,,,,,,,,,,,,
,,61687ebcd2a35ffb762d1928,2024-01-06_08h21.26.396,kallum_motion_pilot,2023.2.3,Win32,59.88023952,61687ebcd2a35ffb762d1928,6598e6a5d84f07970b831e70,6598f12a2faa4ff4b116d00c,0.0298,0.0298,0,21,21,120,1,fivesix,,,,,,,,,,,,,,,,,,,,,,,,,,,,,,,,,,,,,,,,,,,,,,,,,,,,,,,,,,,,,,,,,,,,,,,,,,,,,,,,,,,,,,,,,,,,,,,,,,,,,,,,,,,,,,,,,,,,,,,,,,,,,,,,,,,,,,,
,,61687ebcd2a35ffb762d1928,2024-01-06_08h21.26.396,kallum_motion_pilot,2023.2.3,Win32,59.88023952,61687ebcd2a35ffb762d1928,6598e6a5d84f07970b831e70,6598f12a2faa4ff4b116d00c,0.0298,0.0299,0,22,22,35,1,twofour,,,,,,,,,,,,,,,,,,,,,,,,,,,,,,,,,,,,,,,,,,,,,,,,,,,,,,,,,,,,,,,,,,,,,,,,,,,,,,,,,,,,,,,,,,,,,,,,,,,,,,,,,,,,,,,,,,,,,,,,,,,,,,,,,,,,,,,
,,61687ebcd2a35ffb762d1928,2024-01-06_08h21.26.396,kallum_motion_pilot,2023.2.3,Win32,59.88023952,61687ebcd2a35ffb762d1928,6598e6a5d84f07970b831e70,6598f12a2faa4ff4b116d00c,0.03,0.03,0,23,23,72,1,onetwo,,,,,,,,,,,,,,,,,,,,,,,,,,,,,,,,,,,,,,,,,,,,,,,,,,,,,,,,,,,,,,,,,,,,,,,,,,,,,,,,,,,,,,,,,,,,,,,,,,,,,,,,,,,,,,,,,,,,,,,,,,,,,,,,,,,,,,,
,,61687ebcd2a35ffb762d1928,2024-01-06_08h21.26.396,kallum_motion_pilot,2023.2.3,Win32,59.88023952,61687ebcd2a35ffb762d1928,6598e6a5d84f07970b831e70,6598f12a2faa4ff4b116d00c,0.0301,0.0302,0,24,24,133,1,seveneight,,,,,,,,,,,,,,,,,,,,,,,,,,,,,,,,,,,,,,,,,,,,,,,,,,,,,,,,,,,,,,,,,,,,,,,,,,,,,,,,,,,,,,,,,,,,,,,,,,,,,,,,,,,,,,,,,,,,,,,,,,,,,,,,,,,,,,,
,,61687ebcd2a35ffb762d1928,2024-01-06_08h21.26.396,kallum_motion_pilot,2023.2.3,Win32,59.88023952,61687ebcd2a35ffb762d1928,6598e6a5d84f07970b831e70,6598f12a2faa4ff4b116d00c,0.0303,0.0303,0,25,25,1,1,onethree,,,,,,,,,,,,,,,,,,,,,,,,,,,,,,,,,,,,,,,,,,,,,,,,,,,,,,,,,,,,,,,,,,,,,,,,,,,,,,,,,,,,,,,,,,,,,,,,,,,,,,,,,,,,,,,,,,,,,,,,,,,,,,,,,,,,,,,
,,61687ebcd2a35ffb762d1928,2024-01-06_08h21.26.396,kallum_motion_pilot,2023.2.3,Win32,59.88023952,61687ebcd2a35ffb762d1928,6598e6a5d84f07970b831e70,6598f12a2faa4ff4b116d00c,0.0303,0.0304,0,26,26,48,1,onetwo,,,,,,,,,,,,,,,,,,,,,,,,,,,,,,,,,,,,,,,,,,,,,,,,,,,,,,,,,,,,,,,,,,,,,,,,,,,,,,,,,,,,,,,,,,,,,,,,,,,,,,,,,,,,,,,,,,,,,,,,,,,,,,,,,,,,,,,
,,61687ebcd2a35ffb762d1928,2024-01-06_08h21.26.396,kallum_motion_pilot,2023.2.3,Win32,59.88023952,61687ebcd2a35ffb762d1928,6598e6a5d84f07970b831e70,6598f12a2faa4ff4b116d00c,0.0305,0.0306,0,27,27,135,1,eightseven,,,,,,,,,,,,,,,,,,,,,,,,,,,,,,,,,,,,,,,,,,,,,,,,,,,,,,,,,,,,,,,,,,,,,,,,,,,,,,,,,,,,,,,,,,,,,,,,,,,,,,,,,,,,,,,,,,,,,,,,,,,,,,,,,,,,,,,
,,61687ebcd2a35ffb762d1928,2024-01-06_08h21.26.396,kallum_motion_pilot,2023.2.3,Win32,59.88023952,61687ebcd2a35ffb762d1928,6598e6a5d84f07970b831e70,6598f12a2faa4ff4b116d00c,0.0306,0.0307,0,28,28,42,1,twoone,,,,,,,,,,,,,,,,,,,,,,,,,,,,,,,,,,,,,,,,,,,,,,,,,,,,,,,,,,,,,,,,,,,,,,,,,,,,,,,,,,,,,,,,,,,,,,,,,,,,,,,,,,,,,,,,,,,,,,,,,,,,,,,,,,,,,,,
,,61687ebcd2a35ffb762d1928,2024-01-06_08h21.26.396,kallum_motion_pilot,2023.2.3,Win32,59.88023952,61687ebcd2a35ffb762d1928,6598e6a5d84f07970b831e70,6598f12a2faa4ff4b116d00c,0.0308,0.0308,0,29,29,3,1,twofour,,,,,,,,,,,,,,,,,,,,,,,,,,,,,,,,,,,,,,,,,,,,,,,,,,,,,,,,,,,,,,,,,,,,,,,,,,,,,,,,,,,,,,,,,,,,,,,,,,,,,,,,,,,,,,,,,,,,,,,,,,,,,,,,,,,,,,,
,,61687ebcd2a35ffb762d1928,2024-01-06_08h21.26.396,kallum_motion_pilot,2023.2.3,Win32,59.88023952,61687ebcd2a35ffb762d1928,6598e6a5d84f07970b831e70,6598f12a2faa4ff4b116d00c,0.0309,0.0309,0,30,30,33,1,onethree,,,,,,,,,,,,,,,,,,,,,,,,,,,,,,,,,,,,,,,,,,,,,,,,,,,,,,,,,,,,,,,,,,,,,,,,,,,,,,,,,,,,,,,,,,,,,,,,,,,,,,,,,,,,,,,,,,,,,,,,,,,,,,,,,,,,,,,
,,61687ebcd2a35ffb762d1928,2024-01-06_08h21.26.396,kallum_motion_pilot,2023.2.3,Win32,59.88023952,61687ebcd2a35ffb762d1928,6598e6a5d84f07970b831e70,6598f12a2faa4ff4b116d00c,0.031,0.0311,0,31,31,18,1,twoone,,,,,,,,,,,,,,,,,,,,,,,,,,,,,,,,,,,,,,,,,,,,,,,,,,,,,,,,,,,,,,,,,,,,,,,,,,,,,,,,,,,,,,,,,,,,,,,,,,,,,,,,,,,,,,,,,,,,,,,,,,,,,,,,,,,,,,,
,,61687ebcd2a35ffb762d1928,2024-01-06_08h21.26.396,kallum_motion_pilot,2023.2.3,Win32,59.88023952,61687ebcd2a35ffb762d1928,6598e6a5d84f07970b831e70,6598f12a2faa4ff4b116d00c,0.0311,0.0312,0,32,32,141,1,seveneight,,,,,,,,,,,,,,,,,,,,,,,,,,,,,,,,,,,,,,,,,,,,,,,,,,,,,,,,,,,,,,,,,,,,,,,,,,,,,,,,,,,,,,,,,,,,,,,,,,,,,,,,,,,,,,,,,,,,,,,,,,,,,,,,,,,,,,,
,,61687ebcd2a35ffb762d1928,2024-01-06_08h21.26.396,kallum_motion_pilot,2023.2.3,Win32,59.88023952,61687ebcd2a35ffb762d1928,6598e6a5d84f07970b831e70,6598f12a2faa4ff4b116d00c,0.0313,0.0313,0,33,33,28,1,threeone,,,,,,,,,,,,,,,,,,,,,,,,,,,,,,,,,,,,,,,,,,,,,,,,,,,,,,,,,,,,,,,,,,,,,,,,,,,,,,,,,,,,,,,,,,,,,,,,,,,,,,,,,,,,,,,,,,,,,,,,,,,,,,,,,,,,,,,
,,61687ebcd2a35ffb762d1928,2024-01-06_08h21.26.396,kallum_motion_pilot,2023.2.3,Win32,59.88023952,61687ebcd2a35ffb762d1928,6598e6a5d84f07970b831e70,6598f12a2faa4ff4b116d00c,0.0313,0.0313,0,34,34,30,1,fourtwo,,,,,,,,,,,,,,,,,,,,,,,,,,,,,,,,,,,,,,,,,,,,,,,,,,,,,,,,,,,,,,,,,,,,,,,,,,,,,,,,,,,,,,,,,,,,,,,,,,,,,,,,,,,,,,,,,,,,,,,,,,,,,,,,,,,,,,,
,,61687ebcd2a35ffb762d1928,2024-01-06_08h21.26.396,kallum_motion_pilot,2023.2.3,Win32,59.88023952,61687ebcd2a35ffb762d1928,6598e6a5d84f07970b831e70,6598f12a2faa4ff4b116d00c,0.0314,0.0315,0,35,35,100,1,sevenfive,,,,,,,,,,,,,,,,,,,,,,,,,,,,,,,,,,,,,,,,,,,,,,,,,,,,,,,,,,,,,,,,,,,,,,,,,,,,,,,,,,,,,,,,,,,,,,,,,,,,,,,,,,,,,,,,,,,,,,,,,,,,,,,,,,,,,,,
,,61687ebcd2a35ffb762d1928,2024-01-06_08h21.26.396,kallum_motion_pilot,2023.2.3,Win32,59.88023952,61687ebcd2a35ffb762d1928,6598e6a5d84f07970b831e70,6598f12a2faa4ff4b116d00c,0.0316,0.0317,0,36,36,111,1,eightseven,,,,,,,,,,,,,,,,,,,,,,,,,,,,,,,,,,,,,,,,,,,,,,,,,,,,,,,,,,,,,,,,,,,,,,,,,,,,,,,,,,,,,,,,,,,,,,,,,,,,,,,,,,,,,,,,,,,,,,,,,,,,,,,,,,,,,,,
,,61687ebcd2a35ffb762d1928,2024-01-06_08h21.26.396,kallum_motion_pilot,2023.2.3,Win32,59.88023952,61687ebcd2a35ffb762d1928,6598e6a5d84f07970b831e70,6598f12a2faa4ff4b116d00c,0.0317,0.0317,0,37,37,52,1,threeone,,,,,,,,,,,,,,,,,,,,,,,,,,,,,,,,,,,,,,,,,,,,,,,,,,,,,,,,,,,,,,,,,,,,,,,,,,,,,,,,,,,,,,,,,,,,,,,,,,,,,,,,,,,,,,,,,,,,,,,,,,,,,,,,,,,,,,,
,,61687ebcd2a35ffb762d1928,2024-01-06_08h21.26.396,kallum_motion_pilot,2023.2.3,Win32,59.88023952,61687ebcd2a35ffb762d1928,6598e6a5d84f07970b831e70,6598f12a2faa4ff4b116d00c,0.0319,0.0319,0,38,38,44,1,threeone,,,,,,,,,,,,,,,,,,,,,,,,,,,,,,,,,,,,,,,,,,,,,,,,,,,,,,,,,,,,,,,,,,,,,,,,,,,,,,,,,,,,,,,,,,,,,,,,,,,,,,,,,,,,,,,,,,,,,,,,,,,,,,,,,,,,,,,
,,61687ebcd2a35ffb762d1928,2024-01-06_08h21.26.396,kallum_motion_pilot,2023.2.3,Win32,59.88023952,61687ebcd2a35ffb762d1928,6598e6a5d84f07970b831e70,6598f12a2faa4ff4b116d00c,0.032,0.032,0,39,39,151,1,eightseven,,,,,,,,,,,,,,,,,,,,,,,,,,,,,,,,,,,,,,,,,,,,,,,,,,,,,,,,,,,,,,,,,,,,,,,,,,,,,,,,,,,,,,,,,,,,,,,,,,,,,,,,,,,,,,,,,,,,,,,,,,,,,,,,,,,,,,,
,,61687ebcd2a35ffb762d1928,2024-01-06_08h21.26.396,kallum_motion_pilot,2023.2.3,Win32,59.88023952,61687ebcd2a35ffb762d1928,6598e6a5d84f07970b831e70,6598f12a2faa4ff4b116d00c,0.0321,0.0321,0,40,40,153,1,fiveseven,,,,,,,,,,,,,,,,,,,,,,,,,,,,,,,,,,,,,,,,,,,,,,,,,,,,,,,,,,,,,,,,,,,,,,,,,,,,,,,,,,,,,,,,,,,,,,,,,,,,,,,,,,,,,,,,,,,,,,,,,,,,,,,,,,,,,,,
,,61687ebcd2a35ffb762d1928,2024-01-06_08h21.26.396,kallum_motion_pilot,2023.2.3,Win32,59.88023952,61687ebcd2a35ffb762d1928,6598e6a5d84f07970b831e70,6598f12a2faa4ff4b116d00c,0.0322,0.0322,0,41,41,40,1,onetwo,,,,,,,,,,,,,,,,,,,,,,,,,,,,,,,,,,,,,,,,,,,,,,,,,,,,,,,,,,,,,,,,,,,,,,,,,,,,,,,,,,,,,,,,,,,,,,,,,,,,,,,,,,,,,,,,,,,,,,,,,,,,,,,,,,,,,,,
,,61687ebcd2a35ffb762d1928,2024-01-06_08h21.26.396,kallum_motion_pilot,2023.2.3,Win32,59.88023952,61687ebcd2a35ffb762d1928,6598e6a5d84f07970b831e70,6598f12a2faa4ff4b116d00c,0.0331,0.0332,0,42,42,80,1,fivesix,,,,,,,,,,,,,,,,,,,,,,,,,,,,,,,,,,,,,,,,,,,,,,,,,,,,,,,,,,,,,,,,,,,,,,,,,,,,,,,,,,,,,,,,,,,,,,,,,,,,,,,,,,,,,,,,,,,,,,,,,,,,,,,,,,,,,,,
,,61687ebcd2a35ffb762d1928,2024-01-06_08h21.26.396,kallum_motion_pilot,2023.2.3,Win32,59.88023952,61687ebcd2a35ffb762d1928,6598e6a5d84f07970b831e70,6598f12a2faa4ff4b116d00c,0.0333,0.0334,0,43,43,62,1,fourtwo,,,,,,,,,,,,,,,,,,,,,,,,,,,,,,,,,,,,,,,,,,,,,,,,,,,,,,,,,,,,,,,,,,,,,,,,,,,,,,,,,,,,,,,,,,,,,,,,,,,,,,,,,,,,,,,,,,,,,,,,,,,,,,,,,,,,,,,
,,61687ebcd2a35ffb762d1928,2024-01-06_08h21.26.396,kallum_motion_pilot,2023.2.3,Win32,59.88023952,61687ebcd2a35ffb762d1928,6598e6a5d84f07970b831e70,6598f12a2faa4ff4b116d00c,0.0336,0.0336,0,44,44,0,1,onetwo,,,,,,,,,,,,,,,,,,,,,,,,,,,,,,,,,,,,,,,,,,,,,,,,,,,,,,,,,,,,,,,,,,,,,,,,,,,,,,,,,,,,,,,,,,,,,,,,,,,,,,,,,,,,,,,,,,,,,,,,,,,,,,,,,,,,,,,
,,61687ebcd2a35ffb762d1928,2024-01-06_08h21.26.396,kallum_motion_pilot,2023.2.3,Win32,59.88023952,61687ebcd2a35ffb762d1928,6598e6a5d84f07970b831e70,6598f12a2faa4ff4b116d00c,0.0338,0.0338,0,45,45,22,1,fourtwo,,,,,,,,,,,,,,,,,,,,,,,,,,,,,,,,,,,,,,,,,,,,,,,,,,,,,,,,,,,,,,,,,,,,,,,,,,,,,,,,,,,,,,,,,,,,,,,,,,,,,,,,,,,,,,,,,,,,,,,,,,,,,,,,,,,,,,,
,,61687ebcd2a35ffb762d1928,2024-01-06_08h21.26.396,kallum_motion_pilot,2023.2.3,Win32,59.88023952,61687ebcd2a35ffb762d1928,6598e6a5d84f07970b831e70,6598f12a2faa4ff4b116d00c,0.034,0.034,0,46,46,39,1,fourthree,,,,,,,,,,,,,,,,,,,,,,,,,,,,,,,,,,,,,,,,,,,,,,,,,,,,,,,,,,,,,,,,,,,,,,,,,,,,,,,,,,,,,,,,,,,,,,,,,,,,,,,,,,,,,,,,,,,,,,,,,,,,,,,,,,,,,,,
,,61687ebcd2a35ffb762d1928,2024-01-06_08h21.26.396,kallum_motion_pilot,2023.2.3,Win32,59.88023952,61687ebcd2a35ffb762d1928,6598e6a5d84f07970b831e70,6598f12a2faa4ff4b116d00c,0.0341,0.0342,0,47,47,156,1,sevenfive,,,,,,,,,,,,,,,,,,,,,,,,,,,,,,,,,,,,,,,,,,,,,,,,,,,,,,,,,,,,,,,,,,,,,,,,,,,,,,,,,,,,,,,,,,,,,,,,,,,,,,,,,,,,,,,,,,,,,,,,,,,,,,,,,,,,,,,
,,61687ebcd2a35ffb762d1928,2024-01-06_08h21.26.396,kallum_motion_pilot,2023.2.3,Win32,59.88023952,61687ebcd2a35ffb762d1928,6598e6a5d84f07970b831e70,6598f12a2faa4ff4b116d00c,0.0343,0.0344,0,48,48,74,1,twoone,,,,,,,,,,,,,,,,,,,,,,,,,,,,,,,,,,,,,,,,,,,,,,,,,,,,,,,,,,,,,,,,,,,,,,,,,,,,,,,,,,,,,,,,,,,,,,,,,,,,,,,,,,,,,,,,,,,,,,,,,,,,,,,,,,,,,,,
,,61687ebcd2a35ffb762d1928,2024-01-06_08h21.26.396,kallum_motion_pilot,2023.2.3,Win32,59.88023952,61687ebcd2a35ffb762d1928,6598e6a5d84f07970b831e70,6598f12a2faa4ff4b116d00c,0.0345,0.0346,0,49,49,127,1,eightseven,,,,,,,,,,,,,,,,,,,,,,,,,,,,,,,,,,,,,,,,,,,,,,,,,,,,,,,,,,,,,,,,,,,,,,,,,,,,,,,,,,,,,,,,,,,,,,,,,,,,,,,,,,,,,,,,,,,,,,,,,,,,,,,,,,,,,,,
,,61687ebcd2a35ffb762d1928,2024-01-06_08h21.26.396,kallum_motion_pilot,2023.2.3,Win32,59.88023952,61687ebcd2a35ffb762d1928,6598e6a5d84f07970b831e70,6598f12a2faa4ff4b116d00c,0.0347,0.0347,0,50,50,116,1,sevenfive,,,,,,,,,,,,,,,,,,,,,,,,,,,,,,,,,,,,,,,,,,,,,,,,,,,,,,,,,,,,,,,,,,,,,,,,,,,,,,,,,,,,,,,,,,,,,,,,,,,,,,,,,,,,,,,,,,,,,,,,,,,,,,,,,,,,,,,
,,61687ebcd2a35ffb762d1928,2024-01-06_08h21.26.396,kallum_motion_pilot,2023.2.3,Win32,59.88023952,61687ebcd2a35ffb762d1928,6598e6a5d84f07970b831e70,6598f12a2faa4ff4b116d00c,0.0348,0.0349,0,51,51,124,1,sevenfive,,,,,,,,,,,,,,,,,,,,,,,,,,,,,,,,,,,,,,,,,,,,,,,,,,,,,,,,,,,,,,,,,,,,,,,,,,,,,,,,,,,,,,,,,,,,,,,,,,,,,,,,,,,,,,,,,,,,,,,,,,,,,,,,,,,,,,,
,,61687ebcd2a35ffb762d1928,2024-01-06_08h21.26.396,kallum_motion_pilot,2023.2.3,Win32,59.88023952,61687ebcd2a35ffb762d1928,6598e6a5d84f07970b831e70,6598f12a2faa4ff4b116d00c,0.035,0.035,0,52,52,88,1,fivesix,,,,,,,,,,,,,,,,,,,,,,,,,,,,,,,,,,,,,,,,,,,,,,,,,,,,,,,,,,,,,,,,,,,,,,,,,,,,,,,,,,,,,,,,,,,,,,,,,,,,,,,,,,,,,,,,,,,,,,,,,,,,,,,,,,,,,,,
,,61687ebcd2a35ffb762d1928,2024-01-06_08h21.26.396,kallum_motion_pilot,2023.2.3,Win32,59.88023952,61687ebcd2a35ffb762d1928,6598e6a5d84f07970b831e70,6598f12a2faa4ff4b116d00c,0.0352,0.0352,0,53,53,9,1,onethree,,,,,,,,,,,,,,,,,,,,,,,,,,,,,,,,,,,,,,,,,,,,,,,,,,,,,,,,,,,,,,,,,,,,,,,,,,,,,,,,,,,,,,,,,,,,,,,,,,,,,,,,,,,,,,,,,,,,,,,,,,,,,,,,,,,,,,,
,,61687ebcd2a35ffb762d1928,2024-01-06_08h21.26.396,kallum_motion_pilot,2023.2.3,Win32,59.88023952,61687ebcd2a35ffb762d1928,6598e6a5d84f07970b831e70,6598f12a2faa4ff4b116d00c,0.0353,0.0353,0,54,54,125,1,seveneight,,,,,,,,,,,,,,,,,,,,,,,,,,,,,,,,,,,,,,,,,,,,,,,,,,,,,,,,,,,,,,,,,,,,,,,,,,,,,,,,,,,,,,,,,,,,,,,,,,,,,,,,,,,,,,,,,,,,,,,,,,,,,,,,,,,,,,,
,,61687ebcd2a35ffb762d1928,2024-01-06_08h21.26.396,kallum_motion_pilot,2023.2.3,Win32,59.88023952,61687ebcd2a35ffb762d1928,6598e6a5d84f07970b831e70,6598f12a2faa4ff4b116d00c,0.0354,0.0355,0,55,55,63,1,fourthree,,,,,,,,,,,,,,,,,,,,,,,,,,,,,,,,,,,,,,,,,,,,,,,,,,,,,,,,,,,,,,,,,,,,,,,,,,,,,,,,,,,,,,,,,,,,,,,,,,,,,,,,,,,,,,,,,,,,,,,,,,,,,,,,,,,,,,,
,,61687ebcd2a35ffb762d1928,2024-01-06_08h21.26.396,kallum_motion_pilot,2023.2.3,Win32,59.88023952,61687ebcd2a35ffb762d1928,6598e6a5d84f07970b831e70,6598f12a2faa4ff4b116d00c,0.0356,0.0356,0,56,56,158,1,eightsix,,,,,,,,,,,,,,,,,,,,,,,,,,,,,,,,,,,,,,,,,,,,,,,,,,,,,,,,,,,,,,,,,,,,,,,,,,,,,,,,,,,,,,,,,,,,,,,,,,,,,,,,,,,,,,,,,,,,,,,,,,,,,,,,,,,,,,,
,,61687ebcd2a35ffb762d1928,2024-01-06_08h21.26.396,kallum_motion_pilot,2023.2.3,Win32,59.88023952,61687ebcd2a35ffb762d1928,6598e6a5d84f07970b831e70,6598f12a2faa4ff4b116d00c,0.0357,0.0358,0,57,57,17,1,onethree,,,,,,,,,,,,,,,,,,,,,,,,,,,,,,,,,,,,,,,,,,,,,,,,,,,,,,,,,,,,,,,,,,,,,,,,,,,,,,,,,,,,,,,,,,,,,,,,,,,,,,,,,,,,,,,,,,,,,,,,,,,,,,,,,,,,,,,
,,61687ebcd2a35ffb762d1928,2024-01-06_08h21.26.396,kallum_motion_pilot,2023.2.3,Win32,59.88023952,61687ebcd2a35ffb762d1928,6598e6a5d84f07970b831e70,6598f12a2faa4ff4b116d00c,0.0359,0.0359,0,58,58,115,1,sixeight,,,,,,,,,,,,,,,,,,,,,,,,,,,,,,,,,,,,,,,,,,,,,,,,,,,,,,,,,,,,,,,,,,,,,,,,,,,,,,,,,,,,,,,,,,,,,,,,,,,,,,,,,,,,,,,,,,,,,,,,,,,,,,,,,,,,,,,
,,61687ebcd2a35ffb762d1928,2024-01-06_08h21.26.396,kallum_motion_pilot,2023.2.3,Win32,59.88023952,61687ebcd2a35ffb762d1928,6598e6a5d84f07970b831e70,6598f12a2faa4ff4b116d00c,0.036,0.036,0,59,59,50,1,twoone,,,,,,,,,,,,,,,,,,,,,,,,,,,,,,,,,,,,,,,,,,,,,,,,,,,,,,,,,,,,,,,,,,,,,,,,,,,,,,,,,,,,,,,,,,,,,,,,,,,,,,,,,,,,,,,,,,,,,,,,,,,,,,,,,,,,,,,
,,61687ebcd2a35ffb762d1928,2024-01-06_08h21.26.396,kallum_motion_pilot,2023.2.3,Win32,59.88023952,61687ebcd2a35ffb762d1928,6598e6a5d84f07970b831e70,6598f12a2faa4ff4b116d00c,0.0362,0.0362,0,60,60,148,1,sevenfive,,,,,,,,,,,,,,,,,,,,,,,,,,,,,,,,,,,,,,,,,,,,,,,,,,,,,,,,,,,,,,,,,,,,,,,,,,,,,,,,,,,,,,,,,,,,,,,,,,,,,,,,,,,,,,,,,,,,,,,,,,,,,,,,,,,,,,,
,,61687ebcd2a35ffb762d1928,2024-01-06_08h21.26.396,kallum_motion_pilot,2023.2.3,Win32,59.88023952,61687ebcd2a35ffb762d1928,6598e6a5d84f07970b831e70,6598f12a2faa4ff4b116d00c,0.0363,0.0364,0,61,61,55,1,fourthree,,,,,,,,,,,,,,,,,,,,,,,,,,,,,,,,,,,,,,,,,,,,,,,,,,,,,,,,,,,,,,,,,,,,,,,,,,,,,,,,,,,,,,,,,,,,,,,,,,,,,,,,,,,,,,,,,,,,,,,,,,,,,,,,,,,,,,,
,,61687ebcd2a35ffb762d1928,2024-01-06_08h21.26.396,kallum_motion_pilot,2023.2.3,Win32,59.88023952,61687ebcd2a35ffb762d1928,6598e6a5d84f07970b831e70,6598f12a2faa4ff4b116d00c,0.0364,0.0364,0,62,62,24,1,onetwo,,,,,,,,,,,,,,,,,,,,,,,,,,,,,,,,,,,,,,,,,,,,,,,,,,,,,,,,,,,,,,,,,,,,,,,,,,,,,,,,,,,,,,,,,,,,,,,,,,,,,,,,,,,,,,,,,,,,,,,,,,,,,,,,,,,,,,,
,,61687ebcd2a35ffb762d1928,2024-01-06_08h21.26.396,kallum_motion_pilot,2023.2.3,Win32,59.88023952,61687ebcd2a35ffb762d1928,6598e6a5d84f07970b831e70,6598f12a2faa4ff4b116d00c,0.0366,0.0366,0,63,63,84,1,sevenfive,,,,,,,,,,,,,,,,,,,,,,,,,,,,,,,,,,,,,,,,,,,,,,,,,,,,,,,,,,,,,,,,,,,,,,,,,,,,,,,,,,,,,,,,,,,,,,,,,,,,,,,,,,,,,,,,,,,,,,,,,,,,,,,,,,,,,,,
,,61687ebcd2a35ffb762d1928,2024-01-06_08h21.26.396,kallum_motion_pilot,2023.2.3,Win32,59.88023952,61687ebcd2a35ffb762d1928,6598e6a5d84f07970b831e70,6598f12a2faa4ff4b116d00c,0.0368,0.0369,0,64,64,122,1,sixfive,,,,,,,,,,,,,,,,,,,,,,,,,,,,,,,,,,,,,,,,,,,,,,,,,,,,,,,,,,,,,,,,,,,,,,,,,,,,,,,,,,,,,,,,,,,,,,,,,,,,,,,,,,,,,,,,,,,,,,,,,,,,,,,,,,,,,,,
,,61687ebcd2a35ffb762d1928,2024-01-06_08h21.26.396,kallum_motion_pilot,2023.2.3,Win32,59.88023952,61687ebcd2a35ffb762d1928,6598e6a5d84f07970b831e70,6598f12a2faa4ff4b116d00c,0.037,0.037,0,65,65,143,1,eightseven,,,,,,,,,,,,,,,,,,,,,,,,,,,,,,,,,,,,,,,,,,,,,,,,,,,,,,,,,,,,,,,,,,,,,,,,,,,,,,,,,,,,,,,,,,,,,,,,,,,,,,,,,,,,,,,,,,,,,,,,,,,,,,,,,,,,,,,
,,61687ebcd2a35ffb762d1928,2024-01-06_08h21.26.396,kallum_motion_pilot,2023.2.3,Win32,59.88023952,61687ebcd2a35ffb762d1928,6598e6a5d84f07970b831e70,6598f12a2faa4ff4b116d00c,0.0372,0.0372,0,66,66,76,1,threeone,,,,,,,,,,,,,,,,,,,,,,,,,,,,,,,,,,,,,,,,,,,,,,,,,,,,,,,,,,,,,,,,,,,,,,,,,,,,,,,,,,,,,,,,,,,,,,,,,,,,,,,,,,,,,,,,,,,,,,,,,,,,,,,,,,,,,,,
,,61687ebcd2a35ffb762d1928,2024-01-06_08h21.26.396,kallum_motion_pilot,2023.2.3,Win32,59.88023952,61687ebcd2a35ffb762d1928,6598e6a5d84f07970b831e70,6598f12a2faa4ff4b116d00c,0.0373,0.0374,0,67,67,93,1,seveneight,,,,,,,,,,,,,,,,,,,,,,,,,,,,,,,,,,,,,,,,,,,,,,,,,,,,,,,,,,,,,,,,,,,,,,,,,,,,,,,,,,,,,,,,,,,,,,,,,,,,,,,,,,,,,,,,,,,,,,,,,,,,,,,,,,,,,,,
,,61687ebcd2a35ffb762d1928,2024-01-06_08h21.26.396,kallum_motion_pilot,2023.2.3,Win32,59.88023952,61687ebcd2a35ffb762d1928,6598e6a5d84f07970b831e70,6598f12a2faa4ff4b116d00c,0.0374,0.0375,0,68,68,43,1,twofour,,,,,,,,,,,,,,,,,,,,,,,,,,,,,,,,,,,,,,,,,,,,,,,,,,,,,,,,,,,,,,,,,,,,,,,,,,,,,,,,,,,,,,,,,,,,,,,,,,,,,,,,,,,,,,,,,,,,,,,,,,,,,,,,,,,,,,,
,,61687ebcd2a35ffb762d1928,2024-01-06_08h21.26.396,kallum_motion_pilot,2023.2.3,Win32,59.88023952,61687ebcd2a35ffb762d1928,6598e6a5d84f07970b831e70,6598f12a2faa4ff4b116d00c,0.0376,0.0376,0,69,69,77,1,threefour,,,,,,,,,,,,,,,,,,,,,,,,,,,,,,,,,,,,,,,,,,,,,,,,,,,,,,,,,,,,,,,,,,,,,,,,,,,,,,,,,,,,,,,,,,,,,,,,,,,,,,,,,,,,,,,,,,,,,,,,,,,,,,,,,,,,,,,
,,61687ebcd2a35ffb762d1928,2024-01-06_08h21.26.396,kallum_motion_pilot,2023.2.3,Win32,59.88023952,61687ebcd2a35ffb762d1928,6598e6a5d84f07970b831e70,6598f12a2faa4ff4b116d00c,0.0377,0.0378,0,70,70,117,1,seveneight,,,,,,,,,,,,,,,,,,,,,,,,,,,,,,,,,,,,,,,,,,,,,,,,,,,,,,,,,,,,,,,,,,,,,,,,,,,,,,,,,,,,,,,,,,,,,,,,,,,,,,,,,,,,,,,,,,,,,,,,,,,,,,,,,,,,,,,
,,61687ebcd2a35ffb762d1928,2024-01-06_08h21.26.396,kallum_motion_pilot,2023.2.3,Win32,59.88023952,61687ebcd2a35ffb762d1928,6598e6a5d84f07970b831e70,6598f12a2faa4ff4b116d00c,0.0379,0.0379,0,71,71,154,1,sixfive,,,,,,,,,,,,,,,,,,,,,,,,,,,,,,,,,,,,,,,,,,,,,,,,,,,,,,,,,,,,,,,,,,,,,,,,,,,,,,,,,,,,,,,,,,,,,,,,,,,,,,,,,,,,,,,,,,,,,,,,,,,,,,,,,,,,,,,
,,61687ebcd2a35ffb762d1928,2024-01-06_08h21.26.396,kallum_motion_pilot,2023.2.3,Win32,59.88023952,61687ebcd2a35ffb762d1928,6598e6a5d84f07970b831e70,6598f12a2faa4ff4b116d00c,0.038,0.038,0,72,72,51,1,twofour,,,,,,,,,,,,,,,,,,,,,,,,,,,,,,,,,,,,,,,,,,,,,,,,,,,,,,,,,,,,,,,,,,,,,,,,,,,,,,,,,,,,,,,,,,,,,,,,,,,,,,,,,,,,,,,,,,,,,,,,,,,,,,,,,,,,,,,
,,61687ebcd2a35ffb762d1928,2024-01-06_08h21.26.396,kallum_motion_pilot,2023.2.3,Win32,59.88023952,61687ebcd2a35ffb762d1928,6598e6a5d84f07970b831e70,6598f12a2faa4ff4b116d00c,0.0382,0.0382,0,73,73,46,1,fourtwo,,,,,,,,,,,,,,,,,,,,,,,,,,,,,,,,,,,,,,,,,,,,,,,,,,,,,,,,,,,,,,,,,,,,,,,,,,,,,,,,,,,,,,,,,,,,,,,,,,,,,,,,,,,,,,,,,,,,,,,,,,,,,,,,,,,,,,,
,,61687ebcd2a35ffb762d1928,2024-01-06_08h21.26.396,kallum_motion_pilot,2023.2.3,Win32,59.88023952,61687ebcd2a35ffb762d1928,6598e6a5d84f07970b831e70,6598f12a2faa4ff4b116d00c,0.0383,0.0383,0,74,74,26,1,twoone,,,,,,,,,,,,,,,,,,,,,,,,,,,,,,,,,,,,,,,,,,,,,,,,,,,,,,,,,,,,,,,,,,,,,,,,,,,,,,,,,,,,,,,,,,,,,,,,,,,,,,,,,,,,,,,,,,,,,,,,,,,,,,,,,,,,,,,
,,61687ebcd2a35ffb762d1928,2024-01-06_08h21.26.396,kallum_motion_pilot,2023.2.3,Win32,59.88023952,61687ebcd2a35ffb762d1928,6598e6a5d84f07970b831e70,6598f12a2faa4ff4b116d00c,0.0384,0.0384,0,75,75,95,1,eightseven,,,,,,,,,,,,,,,,,,,,,,,,,,,,,,,,,,,,,,,,,,,,,,,,,,,,,,,,,,,,,,,,,,,,,,,,,,,,,,,,,,,,,,,,,,,,,,,,,,,,,,,,,,,,,,,,,,,,,,,,,,,,,,,,,,,,,,,
,,61687ebcd2a35ffb762d1928,2024-01-06_08h21.26.396,kallum_motion_pilot,2023.2.3,Win32,59.88023952,61687ebcd2a35ffb762d1928,6598e6a5d84f07970b831e70,6598f12a2faa4ff4b116d00c,0.0385,0.0386,0,76,76,79,1,eightseven,,,,,,,,,,,,,,,,,,,,,,,,,,,,,,,,,,,,,,,,,,,,,,,,,,,,,,,,,,,,,,,,,,,,,,,,,,,,,,,,,,,,,,,,,,,,,,,,,,,,,,,,,,,,,,,,,,,,,,,,,,,,,,,,,,,,,,,
,,61687ebcd2a35ffb762d1928,2024-01-06_08h21.26.396,kallum_motion_pilot,2023.2.3,Win32,59.88023952,61687ebcd2a35ffb762d1928,6598e6a5d84f07970b831e70,6598f12a2faa4ff4b116d00c,0.0387,0.0388,0,77,77,31,1,fourthree,,,,,,,,,,,,,,,,,,,,,,,,,,,,,,,,,,,,,,,,,,,,,,,,,,,,,,,,,,,,,,,,,,,,,,,,,,,,,,,,,,,,,,,,,,,,,,,,,,,,,,,,,,,,,,,,,,,,,,,,,,,,,,,,,,,,,,,
,,61687ebcd2a35ffb762d1928,2024-01-06_08h21.26.396,kallum_motion_pilot,2023.2.3,Win32,59.88023952,61687ebcd2a35ffb762d1928,6598e6a5d84f07970b831e70,6598f12a2faa4ff4b116d00c,0.0388,0.0388,0,78,78,57,1,onethree,,,,,,,,,,,,,,,,,,,,,,,,,,,,,,,,,,,,,,,,,,,,,,,,,,,,,,,,,,,,,,,,,,,,,,,,,,,,,,,,,,,,,,,,,,,,,,,,,,,,,,,,,,,,,,,,,,,,,,,,,,,,,,,,,,,,,,,
,,61687ebcd2a35ffb762d1928,2024-01-06_08h21.26.396,kallum_motion_pilot,2023.2.3,Win32,59.88023952,61687ebcd2a35ffb762d1928,6598e6a5d84f07970b831e70,6598f12a2faa4ff4b116d00c,0.0389,0.039,0,79,79,138,1,sixfive,,,,,,,,,,,,,,,,,,,,,,,,,,,,,,,,,,,,,,,,,,,,,,,,,,,,,,,,,,,,,,,,,,,,,,,,,,,,,,,,,,,,,,,,,,,,,,,,,,,,,,,,,,,,,,,,,,,,,,,,,,,,,,,,,,,,,,,
,,61687ebcd2a35ffb762d1928,2024-01-06_08h21.26.396,kallum_motion_pilot,2023.2.3,Win32,59.88023952,61687ebcd2a35ffb762d1928,6598e6a5d84f07970b831e70,6598f12a2faa4ff4b116d00c,0.0391,0.0392,0,80,80,104,1,fivesix,,,,,,,,,,,,,,,,,,,,,,,,,,,,,,,,,,,,,,,,,,,,,,,,,,,,,,,,,,,,,,,,,,,,,,,,,,,,,,,,,,,,,,,,,,,,,,,,,,,,,,,,,,,,,,,,,,,,,,,,,,,,,,,,,,,,,,,
,,61687ebcd2a35ffb762d1928,2024-01-06_08h21.26.396,kallum_motion_pilot,2023.2.3,Win32,59.88023952,61687ebcd2a35ffb762d1928,6598e6a5d84f07970b831e70,6598f12a2faa4ff4b116d00c,0.0393,0.0393,0,81,81,94,1,eightsix,,,,,,,,,,,,,,,,,,,,,,,,,,,,,,,,,,,,,,,,,,,,,,,,,,,,,,,,,,,,,,,,,,,,,,,,,,,,,,,,,,,,,,,,,,,,,,,,,,,,,,,,,,,,,,,,,,,,,,,,,,,,,,,,,,,,,,,
,,61687ebcd2a35ffb762d1928,2024-01-06_08h21.26.396,kallum_motion_pilot,2023.2.3,Win32,59.88023952,61687ebcd2a35ffb762d1928,6598e6a5d84f07970b831e70,6598f12a2faa4ff4b116d00c,0.0394,0.0394,0,82,82,142,1,eightsix,,,,,,,,,,,,,,,,,,,,,,,,,,,,,,,,,,,,,,,,,,,,,,,,,,,,,,,,,,,,,,,,,,,,,,,,,,,,,,,,,,,,,,,,,,,,,,,,,,,,,,,,,,,,,,,,,,,,,,,,,,,,,,,,,,,,,,,
,,61687ebcd2a35ffb762d1928,2024-01-06_08h21.26.396,kallum_motion_pilot,2023.2.3,Win32,59.88023952,61687ebcd2a35ffb762d1928,6598e6a5d84f07970b831e70,6598f12a2faa4ff4b116d00c,0.0395,0.0396,0,83,83,108,1,sevenfive,,,,,,,,,,,,,,,,,,,,,,,,,,,,,,,,,,,,,,,,,,,,,,,,,,,,,,,,,,,,,,,,,,,,,,,,,,,,,,,,,,,,,,,,,,,,,,,,,,,,,,,,,,,,,,,,,,,,,,,,,,,,,,,,,,,,,,,
,,61687ebcd2a35ffb762d1928,2024-01-06_08h21.26.396,kallum_motion_pilot,2023.2.3,Win32,59.88023952,61687ebcd2a35ffb762d1928,6598e6a5d84f07970b831e70,6598f12a2faa4ff4b116d00c,0.0397,0.0397,0,84,84,78,1,fourtwo,,,,,,,,,,,,,,,,,,,,,,,,,,,,,,,,,,,,,,,,,,,,,,,,,,,,,,,,,,,,,,,,,,,,,,,,,,,,,,,,,,,,,,,,,,,,,,,,,,,,,,,,,,,,,,,,,,,,,,,,,,,,,,,,,,,,,,,
,,61687ebcd2a35ffb762d1928,2024-01-06_08h21.26.396,kallum_motion_pilot,2023.2.3,Win32,59.88023952,61687ebcd2a35ffb762d1928,6598e6a5d84f07970b831e70,6598f12a2faa4ff4b116d00c,0.0398,0.0398,0,85,85,139,1,sixeight,,,,,,,,,,,,,,,,,,,,,,,,,,,,,,,,,,,,,,,,,,,,,,,,,,,,,,,,,,,,,,,,,,,,,,,,,,,,,,,,,,,,,,,,,,,,,,,,,,,,,,,,,,,,,,,,,,,,,,,,,,,,,,,,,,,,,,,
,,61687ebcd2a35ffb762d1928,2024-01-06_08h21.26.396,kallum_motion_pilot,2023.2.3,Win32,59.88023952,61687ebcd2a35ffb762d1928,6598e6a5d84f07970b831e70,6598f12a2faa4ff4b116d00c,0.04,0.04,0,86,86,73,1,onethree,,,,,,,,,,,,,,,,,,,,,,,,,,,,,,,,,,,,,,,,,,,,,,,,,,,,,,,,,,,,,,,,,,,,,,,,,,,,,,,,,,,,,,,,,,,,,,,,,,,,,,,,,,,,,,,,,,,,,,,,,,,,,,,,,,,,,,,
,,61687ebcd2a35ffb762d1928,2024-01-06_08h21.26.396,kallum_motion_pilot,2023.2.3,Win32,59.88023952,61687ebcd2a35ffb762d1928,6598e6a5d84f07970b831e70,6598f12a2faa4ff4b116d00c,0.0401,0.0401,0,87,87,130,1,sixfive,,,,,,,,,,,,,,,,,,,,,,,,,,,,,,,,,,,,,,,,,,,,,,,,,,,,,,,,,,,,,,,,,,,,,,,,,,,,,,,,,,,,,,,,,,,,,,,,,,,,,,,,,,,,,,,,,,,,,,,,,,,,,,,,,,,,,,,
,,61687ebcd2a35ffb762d1928,2024-01-06_08h21.26.396,kallum_motion_pilot,2023.2.3,Win32,59.88023952,61687ebcd2a35ffb762d1928,6598e6a5d84f07970b831e70,6598f12a2faa4ff4b116d00c,0.0402,0.0403,0,88,88,161,1,fiveseven,,,,,,,,,,,,,,,,,,,,,,,,,,,,,,,,,,,,,,,,,,,,,,,,,,,,,,,,,,,,,,,,,,,,,,,,,,,,,,,,,,,,,,,,,,,,,,,,,,,,,,,,,,,,,,,,,,,,,,,,,,,,,,,,,,,,,,,
,,61687ebcd2a35ffb762d1928,2024-01-06_08h21.26.396,kallum_motion_pilot,2023.2.3,Win32,59.88023952,61687ebcd2a35ffb762d1928,6598e6a5d84f07970b831e70,6598f12a2faa4ff4b116d00c,0.0403,0.0404,0,89,89,6,1,fourtwo,,,,,,,,,,,,,,,,,,,,,,,,,,,,,,,,,,,,,,,,,,,,,,,,,,,,,,,,,,,,,,,,,,,,,,,,,,,,,,,,,,,,,,,,,,,,,,,,,,,,,,,,,,,,,,,,,,,,,,,,,,,,,,,,,,,,,,,
,,61687ebcd2a35ffb762d1928,2024-01-06_08h21.26.396,kallum_motion_pilot,2023.2.3,Win32,59.88023952,61687ebcd2a35ffb762d1928,6598e6a5d84f07970b831e70,6598f12a2faa4ff4b116d00c,0.0404,0.0405,0,90,90,23,1,fourthree,,,,,,,,,,,,,,,,,,,,,,,,,,,,,,,,,,,,,,,,,,,,,,,,,,,,,,,,,,,,,,,,,,,,,,,,,,,,,,,,,,,,,,,,,,,,,,,,,,,,,,,,,,,,,,,,,,,,,,,,,,,,,,,,,,,,,,,
,,61687ebcd2a35ffb762d1928,2024-01-06_08h21.26.396,kallum_motion_pilot,2023.2.3,Win32,59.88023952,61687ebcd2a35ffb762d1928,6598e6a5d84f07970b831e70,6598f12a2faa4ff4b116d00c,0.0407,0.0407,0,91,91,110,1,eightsix,,,,,,,,,,,,,,,,,,,,,,,,,,,,,,,,,,,,,,,,,,,,,,,,,,,,,,,,,,,,,,,,,,,,,,,,,,,,,,,,,,,,,,,,,,,,,,,,,,,,,,,,,,,,,,,,,,,,,,,,,,,,,,,,,,,,,,,
,,61687ebcd2a35ffb762d1928,2024-01-06_08h21.26.396,kallum_motion_pilot,2023.2.3,Win32,59.88023952,61687ebcd2a35ffb762d1928,6598e6a5d84f07970b831e70,6598f12a2faa4ff4b116d00c,0.0408,0.0409,0,92,92,15,1,fourthree,,,,,,,,,,,,,,,,,,,,,,,,,,,,,,,,,,,,,,,,,,,,,,,,,,,,,,,,,,,,,,,,,,,,,,,,,,,,,,,,,,,,,,,,,,,,,,,,,,,,,,,,,,,,,,,,,,,,,,,,,,,,,,,,,,,,,,,
,,61687ebcd2a35ffb762d1928,2024-01-06_08h21.26.396,kallum_motion_pilot,2023.2.3,Win32,59.88023952,61687ebcd2a35ffb762d1928,6598e6a5d84f07970b831e70,6598f12a2faa4ff4b116d00c,0.0409,0.041,0,93,93,137,1,fiveseven,,,,,,,,,,,,,,,,,,,,,,,,,,,,,,,,,,,,,,,,,,,,,,,,,,,,,,,,,,,,,,,,,,,,,,,,,,,,,,,,,,,,,,,,,,,,,,,,,,,,,,,,,,,,,,,,,,,,,,,,,,,,,,,,,,,,,,,
,,61687ebcd2a35ffb762d1928,2024-01-06_08h21.26.396,kallum_motion_pilot,2023.2.3,Win32,59.88023952,61687ebcd2a35ffb762d1928,6598e6a5d84f07970b831e70,6598f12a2faa4ff4b116d00c,0.041,0.0411,0,94,94,129,1,fiveseven,,,,,,,,,,,,,,,,,,,,,,,,,,,,,,,,,,,,,,,,,,,,,,,,,,,,,,,,,,,,,,,,,,,,,,,,,,,,,,,,,,,,,,,,,,,,,,,,,,,,,,,,,,,,,,,,,,,,,,,,,,,,,,,,,,,,,,,
,,61687ebcd2a35ffb762d1928,2024-01-06_08h21.26.396,kallum_motion_pilot,2023.2.3,Win32,59.88023952,61687ebcd2a35ffb762d1928,6598e6a5d84f07970b831e70,6598f12a2faa4ff4b116d00c,0.0413,0.0414,0,95,95,14,1,fourtwo,,,,,,,,,,,,,,,,,,,,,,,,,,,,,,,,,,,,,,,,,,,,,,,,,,,,,,,,,,,,,,,,,,,,,,,,,,,,,,,,,,,,,,,,,,,,,,,,,,,,,,,,,,,,,,,,,,,,,,,,,,,,,,,,,,,,,,,
,,61687ebcd2a35ffb762d1928,2024-01-06_08h21.26.396,kallum_motion_pilot,2023.2.3,Win32,59.88023952,61687ebcd2a35ffb762d1928,6598e6a5d84f07970b831e70,6598f12a2faa4ff4b116d00c,0.0415,0.0415,0,96,96,27,1,twofour,,,,,,,,,,,,,,,,,,,,,,,,,,,,,,,,,,,,,,,,,,,,,,,,,,,,,,,,,,,,,,,,,,,,,,,,,,,,,,,,,,,,,,,,,,,,,,,,,,,,,,,,,,,,,,,,,,,,,,,,,,,,,,,,,,,,,,,
,,61687ebcd2a35ffb762d1928,2024-01-06_08h21.26.396,kallum_motion_pilot,2023.2.3,Win32,59.88023952,61687ebcd2a35ffb762d1928,6598e6a5d84f07970b831e70,6598f12a2faa4ff4b116d00c,0.0416,0.0417,0,97,97,134,1,eightsix,,,,,,,,,,,,,,,,,,,,,,,,,,,,,,,,,,,,,,,,,,,,,,,,,,,,,,,,,,,,,,,,,,,,,,,,,,,,,,,,,,,,,,,,,,,,,,,,,,,,,,,,,,,,,,,,,,,,,,,,,,,,,,,,,,,,,,,
,,61687ebcd2a35ffb762d1928,2024-01-06_08h21.26.396,kallum_motion_pilot,2023.2.3,Win32,59.88023952,61687ebcd2a35ffb762d1928,6598e6a5d84f07970b831e70,6598f12a2faa4ff4b116d00c,0.0418,0.0419,0,98,98,75,1,twofour,,,,,,,,,,,,,,,,,,,,,,,,,,,,,,,,,,,,,,,,,,,,,,,,,,,,,,,,,,,,,,,,,,,,,,,,,,,,,,,,,,,,,,,,,,,,,,,,,,,,,,,,,,,,,,,,,,,,,,,,,,,,,,,,,,,,,,,
,,61687ebcd2a35ffb762d1928,2024-01-06_08h21.26.396,kallum_motion_pilot,2023.2.3,Win32,59.88023952,61687ebcd2a35ffb762d1928,6598e6a5d84f07970b831e70,6598f12a2faa4ff4b116d00c,0.0419,0.0421,0,99,99,121,1,fiveseven,,,,,,,,,,,,,,,,,,,,,,,,,,,,,,,,,,,,,,,,,,,,,,,,,,,,,,,,,,,,,,,,,,,,,,,,,,,,,,,,,,,,,,,,,,,,,,,,,,,,,,,,,,,,,,,,,,,,,,,,,,,,,,,,,,,,,,,
,,61687ebcd2a35ffb762d1928,2024-01-06_08h21.26.396,kallum_motion_pilot,2023.2.3,Win32,59.88023952,61687ebcd2a35ffb762d1928,6598e6a5d84f07970b831e70,6598f12a2faa4ff4b116d00c,0.0421,0.0422,0,100,100,119,1,eightseven,,,,,,,,,,,,,,,,,,,,,,,,,,,,,,,,,,,,,,,,,,,,,,,,,,,,,,,,,,,,,,,,,,,,,,,,,,,,,,,,,,,,,,,,,,,,,,,,,,,,,,,,,,,,,,,,,,,,,,,,,,,,,,,,,,,,,,,
,,61687ebcd2a35ffb762d1928,2024-01-06_08h21.26.396,kallum_motion_pilot,2023.2.3,Win32,59.88023952,61687ebcd2a35ffb762d1928,6598e6a5d84f07970b831e70,6598f12a2faa4ff4b116d00c,0.0423,0.0424,0,101,101,149,1,seveneight,,,,,,,,,,,,,,,,,,,,,,,,,,,,,,,,,,,,,,,,,,,,,,,,,,,,,,,,,,,,,,,,,,,,,,,,,,,,,,,,,,,,,,,,,,,,,,,,,,,,,,,,,,,,,,,,,,,,,,,,,,,,,,,,,,,,,,,
,,61687ebcd2a35ffb762d1928,2024-01-06_08h21.26.396,kallum_motion_pilot,2023.2.3,Win32,59.88023952,61687ebcd2a35ffb762d1928,6598e6a5d84f07970b831e70,6598f12a2faa4ff4b116d00c,0.0425,0.0425,0,102,102,16,1,onetwo,,,,,,,,,,,,,,,,,,,,,,,,,,,,,,,,,,,,,,,,,,,,,,,,,,,,,,,,,,,,,,,,,,,,,,,,,,,,,,,,,,,,,,,,,,,,,,,,,,,,,,,,,,,,,,,,,,,,,,,,,,,,,,,,,,,,,,,
,,61687ebcd2a35ffb762d1928,2024-01-06_08h21.26.396,kallum_motion_pilot,2023.2.3,Win32,59.88023952,61687ebcd2a35ffb762d1928,6598e6a5d84f07970b831e70,6598f12a2faa4ff4b116d00c,0.0426,0.0427,0,103,103,152,1,fivesix,,,,,,,,,,,,,,,,,,,,,,,,,,,,,,,,,,,,,,,,,,,,,,,,,,,,,,,,,,,,,,,,,,,,,,,,,,,,,,,,,,,,,,,,,,,,,,,,,,,,,,,,,,,,,,,,,,,,,,,,,,,,,,,,,,,,,,,
,,61687ebcd2a35ffb762d1928,2024-01-06_08h21.26.396,kallum_motion_pilot,2023.2.3,Win32,59.88023952,61687ebcd2a35ffb762d1928,6598e6a5d84f07970b831e70,6598f12a2faa4ff4b116d00c,0.0427,0.0428,0,104,104,109,1,seveneight,,,,,,,,,,,,,,,,,,,,,,,,,,,,,,,,,,,,,,,,,,,,,,,,,,,,,,,,,,,,,,,,,,,,,,,,,,,,,,,,,,,,,,,,,,,,,,,,,,,,,,,,,,,,,,,,,,,,,,,,,,,,,,,,,,,,,,,
,,61687ebcd2a35ffb762d1928,2024-01-06_08h21.26.396,kallum_motion_pilot,2023.2.3,Win32,59.88023952,61687ebcd2a35ffb762d1928,6598e6a5d84f07970b831e70,6598f12a2faa4ff4b116d00c,0.0429,0.043,0,105,105,159,1,eightseven,,,,,,,,,,,,,,,,,,,,,,,,,,,,,,,,,,,,,,,,,,,,,,,,,,,,,,,,,,,,,,,,,,,,,,,,,,,,,,,,,,,,,,,,,,,,,,,,,,,,,,,,,,,,,,,,,,,,,,,,,,,,,,,,,,,,,,,
,,61687ebcd2a35ffb762d1928,2024-01-06_08h21.26.396,kallum_motion_pilot,2023.2.3,Win32,59.88023952,61687ebcd2a35ffb762d1928,6598e6a5d84f07970b831e70,6598f12a2faa4ff4b116d00c,0.0431,0.0431,0,106,106,140,1,sevenfive,,,,,,,,,,,,,,,,,,,,,,,,,,,,,,,,,,,,,,,,,,,,,,,,,,,,,,,,,,,,,,,,,,,,,,,,,,,,,,,,,,,,,,,,,,,,,,,,,,,,,,,,,,,,,,,,,,,,,,,,,,,,,,,,,,,,,,,
,,61687ebcd2a35ffb762d1928,2024-01-06_08h21.26.396,kallum_motion_pilot,2023.2.3,Win32,59.88023952,61687ebcd2a35ffb762d1928,6598e6a5d84f07970b831e70,6598f12a2faa4ff4b116d00c,0.0432,0.0433,0,107,107,103,1,eightseven,,,,,,,,,,,,,,,,,,,,,,,,,,,,,,,,,,,,,,,,,,,,,,,,,,,,,,,,,,,,,,,,,,,,,,,,,,,,,,,,,,,,,,,,,,,,,,,,,,,,,,,,,,,,,,,,,,,,,,,,,,,,,,,,,,,,,,,
,,61687ebcd2a35ffb762d1928,2024-01-06_08h21.26.396,kallum_motion_pilot,2023.2.3,Win32,59.88023952,61687ebcd2a35ffb762d1928,6598e6a5d84f07970b831e70,6598f12a2faa4ff4b116d00c,0.0433,0.0435,0,108,108,128,1,fivesix,,,,,,,,,,,,,,,,,,,,,,,,,,,,,,,,,,,,,,,,,,,,,,,,,,,,,,,,,,,,,,,,,,,,,,,,,,,,,,,,,,,,,,,,,,,,,,,,,,,,,,,,,,,,,,,,,,,,,,,,,,,,,,,,,,,,,,,
,,61687ebcd2a35ffb762d1928,2024-01-06_08h21.26.396,kallum_motion_pilot,2023.2.3,Win32,59.88023952,61687ebcd2a35ffb762d1928,6598e6a5d84f07970b831e70,6598f12a2faa4ff4b116d00c,0.0435,0.0436,0,109,109,49,1,onethree,,,,,,,,,,,,,,,,,,,,,,,,,,,,,,,,,,,,,,,,,,,,,,,,,,,,,,,,,,,,,,,,,,,,,,,,,,,,,,,,,,,,,,,,,,,,,,,,,,,,,,,,,,,,,,,,,,,,,,,,,,,,,,,,,,,,,,,
,,61687ebcd2a35ffb762d1928,2024-01-06_08h21.26.396,kallum_motion_pilot,2023.2.3,Win32,59.88023952,61687ebcd2a35ffb762d1928,6598e6a5d84f07970b831e70,6598f12a2faa4ff4b116d00c,0.0437,0.0438,0,110,110,8,1,onetwo,,,,,,,,,,,,,,,,,,,,,,,,,,,,,,,,,,,,,,,,,,,,,,,,,,,,,,,,,,,,,,,,,,,,,,,,,,,,,,,,,,,,,,,,,,,,,,,,,,,,,,,,,,,,,,,,,,,,,,,,,,,,,,,,,,,,,,,
,,61687ebcd2a35ffb762d1928,2024-01-06_08h21.26.396,kallum_motion_pilot,2023.2.3,Win32,59.88023952,61687ebcd2a35ffb762d1928,6598e6a5d84f07970b831e70,6598f12a2faa4ff4b116d00c,0.0439,0.0439,0,111,111,83,1,sixeight,,,,,,,,,,,,,,,,,,,,,,,,,,,,,,,,,,,,,,,,,,,,,,,,,,,,,,,,,,,,,,,,,,,,,,,,,,,,,,,,,,,,,,,,,,,,,,,,,,,,,,,,,,,,,,,,,,,,,,,,,,,,,,,,,,,,,,,
,,61687ebcd2a35ffb762d1928,2024-01-06_08h21.26.396,kallum_motion_pilot,2023.2.3,Win32,59.88023952,61687ebcd2a35ffb762d1928,6598e6a5d84f07970b831e70,6598f12a2faa4ff4b116d00c,0.0439,0.044,0,112,112,41,1,onethree,,,,,,,,,,,,,,,,,,,,,,,,,,,,,,,,,,,,,,,,,,,,,,,,,,,,,,,,,,,,,,,,,,,,,,,,,,,,,,,,,,,,,,,,,,,,,,,,,,,,,,,,,,,,,,,,,,,,,,,,,,,,,,,,,,,,,,,
,,61687ebcd2a35ffb762d1928,2024-01-06_08h21.26.396,kallum_motion_pilot,2023.2.3,Win32,59.88023952,61687ebcd2a35ffb762d1928,6598e6a5d84f07970b831e70,6598f12a2faa4ff4b116d00c,0.0449,0.0449,0,113,113,29,1,threefour,,,,,,,,,,,,,,,,,,,,,,,,,,,,,,,,,,,,,,,,,,,,,,,,,,,,,,,,,,,,,,,,,,,,,,,,,,,,,,,,,,,,,,,,,,,,,,,,,,,,,,,,,,,,,,,,,,,,,,,,,,,,,,,,,,,,,,,
,,61687ebcd2a35ffb762d1928,2024-01-06_08h21.26.396,kallum_motion_pilot,2023.2.3,Win32,59.88023952,61687ebcd2a35ffb762d1928,6598e6a5d84f07970b831e70,6598f12a2faa4ff4b116d00c,0.045,0.0451,0,114,114,64,1,onetwo,,,,,,,,,,,,,,,,,,,,,,,,,,,,,,,,,,,,,,,,,,,,,,,,,,,,,,,,,,,,,,,,,,,,,,,,,,,,,,,,,,,,,,,,,,,,,,,,,,,,,,,,,,,,,,,,,,,,,,,,,,,,,,,,,,,,,,,
,,61687ebcd2a35ffb762d1928,2024-01-06_08h21.26.396,kallum_motion_pilot,2023.2.3,Win32,59.88023952,61687ebcd2a35ffb762d1928,6598e6a5d84f07970b831e70,6598f12a2faa4ff4b116d00c,0.0452,0.0453,0,115,115,92,1,sevenfive,,,,,,,,,,,,,,,,,,,,,,,,,,,,,,,,,,,,,,,,,,,,,,,,,,,,,,,,,,,,,,,,,,,,,,,,,,,,,,,,,,,,,,,,,,,,,,,,,,,,,,,,,,,,,,,,,,,,,,,,,,,,,,,,,,,,,,,
,,61687ebcd2a35ffb762d1928,2024-01-06_08h21.26.396,kallum_motion_pilot,2023.2.3,Win32,59.88023952,61687ebcd2a35ffb762d1928,6598e6a5d84f07970b831e70,6598f12a2faa4ff4b116d00c,0.0453,0.0454,0,116,116,132,1,sevenfive,,,,,,,,,,,,,,,,,,,,,,,,,,,,,,,,,,,,,,,,,,,,,,,,,,,,,,,,,,,,,,,,,,,,,,,,,,,,,,,,,,,,,,,,,,,,,,,,,,,,,,,,,,,,,,,,,,,,,,,,,,,,,,,,,,,,,,,
,,61687ebcd2a35ffb762d1928,2024-01-06_08h21.26.396,kallum_motion_pilot,2023.2.3,Win32,59.88023952,61687ebcd2a35ffb762d1928,6598e6a5d84f07970b831e70,6598f12a2faa4ff4b116d00c,0.0455,0.0456,0,117,117,10,1,twoone,,,,,,,,,,,,,,,,,,,,,,,,,,,,,,,,,,,,,,,,,,,,,,,,,,,,,,,,,,,,,,,,,,,,,,,,,,,,,,,,,,,,,,,,,,,,,,,,,,,,,,,,,,,,,,,,,,,,,,,,,,,,,,,,,,,,,,,
,,61687ebcd2a35ffb762d1928,2024-01-06_08h21.26.396,kallum_motion_pilot,2023.2.3,Win32,59.88023952,61687ebcd2a35ffb762d1928,6598e6a5d84f07970b831e70,6598f12a2faa4ff4b116d00c,0.0456,0.0457,0,118,118,7,1,fourthree,,,,,,,,,,,,,,,,,,,,,,,,,,,,,,,,,,,,,,,,,,,,,,,,,,,,,,,,,,,,,,,,,,,,,,,,,,,,,,,,,,,,,,,,,,,,,,,,,,,,,,,,,,,,,,,,,,,,,,,,,,,,,,,,,,,,,,,
,,61687ebcd2a35ffb762d1928,2024-01-06_08h21.26.396,kallum_motion_pilot,2023.2.3,Win32,59.88023952,61687ebcd2a35ffb762d1928,6598e6a5d84f07970b831e70,6598f12a2faa4ff4b116d00c,0.0458,0.0458,0,119,119,150,1,eightsix,,,,,,,,,,,,,,,,,,,,,,,,,,,,,,,,,,,,,,,,,,,,,,,,,,,,,,,,,,,,,,,,,,,,,,,,,,,,,,,,,,,,,,,,,,,,,,,,,,,,,,,,,,,,,,,,,,,,,,,,,,,,,,,,,,,,,,,
,,61687ebcd2a35ffb762d1928,2024-01-06_08h21.26.396,kallum_motion_pilot,2023.2.3,Win32,59.88023952,61687ebcd2a35ffb762d1928,6598e6a5d84f07970b831e70,6598f12a2faa4ff4b116d00c,0.046,0.046,0,120,120,85,1,seveneight,,,,,,,,,,,,,,,,,,,,,,,,,,,,,,,,,,,,,,,,,,,,,,,,,,,,,,,,,,,,,,,,,,,,,,,,,,,,,,,,,,,,,,,,,,,,,,,,,,,,,,,,,,,,,,,,,,,,,,,,,,,,,,,,,,,,,,,
,,61687ebcd2a35ffb762d1928,2024-01-06_08h21.26.396,kallum_motion_pilot,2023.2.3,Win32,59.88023952,61687ebcd2a35ffb762d1928,6598e6a5d84f07970b831e70,6598f12a2faa4ff4b116d00c,0.0461,0.0462,0,121,121,90,1,sixfive,,,,,,,,,,,,,,,,,,,,,,,,,,,,,,,,,,,,,,,,,,,,,,,,,,,,,,,,,,,,,,,,,,,,,,,,,,,,,,,,,,,,,,,,,,,,,,,,,,,,,,,,,,,,,,,,,,,,,,,,,,,,,,,,,,,,,,,
,,61687ebcd2a35ffb762d1928,2024-01-06_08h21.26.396,kallum_motion_pilot,2023.2.3,Win32,59.88023952,61687ebcd2a35ffb762d1928,6598e6a5d84f07970b831e70,6598f12a2faa4ff4b116d00c,0.0462,0.0463,0,122,122,126,1,eightsix,,,,,,,,,,,,,,,,,,,,,,,,,,,,,,,,,,,,,,,,,,,,,,,,,,,,,,,,,,,,,,,,,,,,,,,,,,,,,,,,,,,,,,,,,,,,,,,,,,,,,,,,,,,,,,,,,,,,,,,,,,,,,,,,,,,,,,,
,,61687ebcd2a35ffb762d1928,2024-01-06_08h21.26.396,kallum_motion_pilot,2023.2.3,Win32,59.88023952,61687ebcd2a35ffb762d1928,6598e6a5d84f07970b831e70,6598f12a2faa4ff4b116d00c,0.0464,0.0465,0,123,123,2,1,twoone,,,,,,,,,,,,,,,,,,,,,,,,,,,,,,,,,,,,,,,,,,,,,,,,,,,,,,,,,,,,,,,,,,,,,,,,,,,,,,,,,,,,,,,,,,,,,,,,,,,,,,,,,,,,,,,,,,,,,,,,,,,,,,,,,,,,,,,
,,61687ebcd2a35ffb762d1928,2024-01-06_08h21.26.396,kallum_motion_pilot,2023.2.3,Win32,59.88023952,61687ebcd2a35ffb762d1928,6598e6a5d84f07970b831e70,6598f12a2faa4ff4b116d00c,0.0466,0.0466,0,124,124,147,1,sixeight,,,,,,,,,,,,,,,,,,,,,,,,,,,,,,,,,,,,,,,,,,,,,,,,,,,,,,,,,,,,,,,,,,,,,,,,,,,,,,,,,,,,,,,,,,,,,,,,,,,,,,,,,,,,,,,,,,,,,,,,,,,,,,,,,,,,,,,
,,61687ebcd2a35ffb762d1928,2024-01-06_08h21.26.396,kallum_motion_pilot,2023.2.3,Win32,59.88023952,61687ebcd2a35ffb762d1928,6598e6a5d84f07970b831e70,6598f12a2faa4ff4b116d00c,0.0468,0.0469,0,125,125,105,1,fiveseven,,,,,,,,,,,,,,,,,,,,,,,,,,,,,,,,,,,,,,,,,,,,,,,,,,,,,,,,,,,,,,,,,,,,,,,,,,,,,,,,,,,,,,,,,,,,,,,,,,,,,,,,,,,,,,,,,,,,,,,,,,,,,,,,,,,,,,,
,,61687ebcd2a35ffb762d1928,2024-01-06_08h21.26.396,kallum_motion_pilot,2023.2.3,Win32,59.88023952,61687ebcd2a35ffb762d1928,6598e6a5d84f07970b831e70,6598f12a2faa4ff4b116d00c,0.047,0.047,0,126,126,112,1,fivesix,,,,,,,,,,,,,,,,,,,,,,,,,,,,,,,,,,,,,,,,,,,,,,,,,,,,,,,,,,,,,,,,,,,,,,,,,,,,,,,,,,,,,,,,,,,,,,,,,,,,,,,,,,,,,,,,,,,,,,,,,,,,,,,,,,,,,,,
,,61687ebcd2a35ffb762d1928,2024-01-06_08h21.26.396,kallum_motion_pilot,2023.2.3,Win32,59.88023952,61687ebcd2a35ffb762d1928,6598e6a5d84f07970b831e70,6598f12a2faa4ff4b116d00c,0.0471,0.0472,0,127,127,38,1,fourtwo,,,,,,,,,,,,,,,,,,,,,,,,,,,,,,,,,,,,,,,,,,,,,,,,,,,,,,,,,,,,,,,,,,,,,,,,,,,,,,,,,,,,,,,,,,,,,,,,,,,,,,,,,,,,,,,,,,,,,,,,,,,,,,,,,,,,,,,
,,61687ebcd2a35ffb762d1928,2024-01-06_08h21.26.396,kallum_motion_pilot,2023.2.3,Win32,59.88023952,61687ebcd2a35ffb762d1928,6598e6a5d84f07970b831e70,6598f12a2faa4ff4b116d00c,0.0473,0.0474,0,128,128,11,1,twofour,,,,,,,,,,,,,,,,,,,,,,,,,,,,,,,,,,,,,,,,,,,,,,,,,,,,,,,,,,,,,,,,,,,,,,,,,,,,,,,,,,,,,,,,,,,,,,,,,,,,,,,,,,,,,,,,,,,,,,,,,,,,,,,,,,,,,,,
,,61687ebcd2a35ffb762d1928,2024-01-06_08h21.26.396,kallum_motion_pilot,2023.2.3,Win32,59.88023952,61687ebcd2a35ffb762d1928,6598e6a5d84f07970b831e70,6598f12a2faa4ff4b116d00c,0.0474,0.0476,0,129,129,91,1,sixeight,,,,,,,,,,,,,,,,,,,,,,,,,,,,,,,,,,,,,,,,,,,,,,,,,,,,,,,,,,,,,,,,,,,,,,,,,,,,,,,,,,,,,,,,,,,,,,,,,,,,,,,,,,,,,,,,,,,,,,,,,,,,,,,,,,,,,,,
,,61687ebcd2a35ffb762d1928,2024-01-06_08h21.26.396,kallum_motion_pilot,2023.2.3,Win32,59.88023952,61687ebcd2a35ffb762d1928,6598e6a5d84f07970b831e70,6598f12a2faa4ff4b116d00c,0.0476,0.0477,0,130,130,12,1,threeone,,,,,,,,,,,,,,,,,,,,,,,,,,,,,,,,,,,,,,,,,,,,,,,,,,,,,,,,,,,,,,,,,,,,,,,,,,,,,,,,,,,,,,,,,,,,,,,,,,,,,,,,,,,,,,,,,,,,,,,,,,,,,,,,,,,,,,,
,,61687ebcd2a35ffb762d1928,2024-01-06_08h21.26.396,kallum_motion_pilot,2023.2.3,Win32,59.88023952,61687ebcd2a35ffb762d1928,6598e6a5d84f07970b831e70,6598f12a2faa4ff4b116d00c,0.0478,0.0479,0,131,131,56,1,onetwo,,,,,,,,,,,,,,,,,,,,,,,,,,,,,,,,,,,,,,,,,,,,,,,,,,,,,,,,,,,,,,,,,,,,,,,,,,,,,,,,,,,,,,,,,,,,,,,,,,,,,,,,,,,,,,,,,,,,,,,,,,,,,,,,,,,,,,,
,,61687ebcd2a35ffb762d1928,2024-01-06_08h21.26.396,kallum_motion_pilot,2023.2.3,Win32,59.88023952,61687ebcd2a35ffb762d1928,6598e6a5d84f07970b831e70,6598f12a2faa4ff4b116d00c,0.048,0.048,0,132,132,13,1,threefour,,,,,,,,,,,,,,,,,,,,,,,,,,,,,,,,,,,,,,,,,,,,,,,,,,,,,,,,,,,,,,,,,,,,,,,,,,,,,,,,,,,,,,,,,,,,,,,,,,,,,,,,,,,,,,,,,,,,,,,,,,,,,,,,,,,,,,,
,,61687ebcd2a35ffb762d1928,2024-01-06_08h21.26.396,kallum_motion_pilot,2023.2.3,Win32,59.88023952,61687ebcd2a35ffb762d1928,6598e6a5d84f07970b831e70,6598f12a2faa4ff4b116d00c,0.0482,0.0483,0,133,133,123,1,sixeight,,,,,,,,,,,,,,,,,,,,,,,,,,,,,,,,,,,,,,,,,,,,,,,,,,,,,,,,,,,,,,,,,,,,,,,,,,,,,,,,,,,,,,,,,,,,,,,,,,,,,,,,,,,,,,,,,,,,,,,,,,,,,,,,,,,,,,,
,,61687ebcd2a35ffb762d1928,2024-01-06_08h21.26.396,kallum_motion_pilot,2023.2.3,Win32,59.88023952,61687ebcd2a35ffb762d1928,6598e6a5d84f07970b831e70,6598f12a2faa4ff4b116d00c,0.0484,0.0485,0,134,134,60,1,threeone,,,,,,,,,,,,,,,,,,,,,,,,,,,,,,,,,,,,,,,,,,,,,,,,,,,,,,,,,,,,,,,,,,,,,,,,,,,,,,,,,,,,,,,,,,,,,,,,,,,,,,,,,,,,,,,,,,,,,,,,,,,,,,,,,,,,,,,
,,61687ebcd2a35ffb762d1928,2024-01-06_08h21.26.396,kallum_motion_pilot,2023.2.3,Win32,59.88023952,61687ebcd2a35ffb762d1928,6598e6a5d84f07970b831e70,6598f12a2faa4ff4b116d00c,0.0486,0.0487,0,135,135,36,1,threeone,,,,,,,,,,,,,,,,,,,,,,,,,,,,,,,,,,,,,,,,,,,,,,,,,,,,,,,,,,,,,,,,,,,,,,,,,,,,,,,,,,,,,,,,,,,,,,,,,,,,,,,,,,,,,,,,,,,,,,,,,,,,,,,,,,,,,,,
,,61687ebcd2a35ffb762d1928,2024-01-06_08h21.26.396,kallum_motion_pilot,2023.2.3,Win32,59.88023952,61687ebcd2a35ffb762d1928,6598e6a5d84f07970b831e70,6598f12a2faa4ff4b116d00c,0.0487,0.0488,0,136,136,146,1,sixfive,,,,,,,,,,,,,,,,,,,,,,,,,,,,,,,,,,,,,,,,,,,,,,,,,,,,,,,,,,,,,,,,,,,,,,,,,,,,,,,,,,,,,,,,,,,,,,,,,,,,,,,,,,,,,,,,,,,,,,,,,,,,,,,,,,,,,,,
,,61687ebcd2a35ffb762d1928,2024-01-06_08h21.26.396,kallum_motion_pilot,2023.2.3,Win32,59.88023952,61687ebcd2a35ffb762d1928,6598e6a5d84f07970b831e70,6598f12a2faa4ff4b116d00c,0.0489,0.049,0,137,137,61,1,threefour,,,,,,,,,,,,,,,,,,,,,,,,,,,,,,,,,,,,,,,,,,,,,,,,,,,,,,,,,,,,,,,,,,,,,,,,,,,,,,,,,,,,,,,,,,,,,,,,,,,,,,,,,,,,,,,,,,,,,,,,,,,,,,,,,,,,,,,
,,61687ebcd2a35ffb762d1928,2024-01-06_08h21.26.396,kallum_motion_pilot,2023.2.3,Win32,59.88023952,61687ebcd2a35ffb762d1928,6598e6a5d84f07970b831e70,6598f12a2faa4ff4b116d00c,0.0491,0.0491,0,138,138,5,1,threefour,,,,,,,,,,,,,,,,,,,,,,,,,,,,,,,,,,,,,,,,,,,,,,,,,,,,,,,,,,,,,,,,,,,,,,,,,,,,,,,,,,,,,,,,,,,,,,,,,,,,,,,,,,,,,,,,,,,,,,,,,,,,,,,,,,,,,,,
,,61687ebcd2a35ffb762d1928,2024-01-06_08h21.26.396,kallum_motion_pilot,2023.2.3,Win32,59.88023952,61687ebcd2a35ffb762d1928,6598e6a5d84f07970b831e70,6598f12a2faa4ff4b116d00c,0.0492,0.0493,0,139,139,58,1,twoone,,,,,,,,,,,,,,,,,,,,,,,,,,,,,,,,,,,,,,,,,,,,,,,,,,,,,,,,,,,,,,,,,,,,,,,,,,,,,,,,,,,,,,,,,,,,,,,,,,,,,,,,,,,,,,,,,,,,,,,,,,,,,,,,,,,,,,,
,,61687ebcd2a35ffb762d1928,2024-01-06_08h21.26.396,kallum_motion_pilot,2023.2.3,Win32,59.88023952,61687ebcd2a35ffb762d1928,6598e6a5d84f07970b831e70,6598f12a2faa4ff4b116d00c,0.0494,0.0494,0,140,140,71,1,fourthree,,,,,,,,,,,,,,,,,,,,,,,,,,,,,,,,,,,,,,,,,,,,,,,,,,,,,,,,,,,,,,,,,,,,,,,,,,,,,,,,,,,,,,,,,,,,,,,,,,,,,,,,,,,,,,,,,,,,,,,,,,,,,,,,,,,,,,,
,,61687ebcd2a35ffb762d1928,2024-01-06_08h21.26.396,kallum_motion_pilot,2023.2.3,Win32,59.88023952,61687ebcd2a35ffb762d1928,6598e6a5d84f07970b831e70,6598f12a2faa4ff4b116d00c,0.0495,0.0496,0,141,141,155,1,sixeight,,,,,,,,,,,,,,,,,,,,,,,,,,,,,,,,,,,,,,,,,,,,,,,,,,,,,,,,,,,,,,,,,,,,,,,,,,,,,,,,,,,,,,,,,,,,,,,,,,,,,,,,,,,,,,,,,,,,,,,,,,,,,,,,,,,,,,,
,,61687ebcd2a35ffb762d1928,2024-01-06_08h21.26.396,kallum_motion_pilot,2023.2.3,Win32,59.88023952,61687ebcd2a35ffb762d1928,6598e6a5d84f07970b831e70,6598f12a2faa4ff4b116d00c,0.0496,0.0498,0,142,142,45,1,threefour,,,,,,,,,,,,,,,,,,,,,,,,,,,,,,,,,,,,,,,,,,,,,,,,,,,,,,,,,,,,,,,,,,,,,,,,,,,,,,,,,,,,,,,,,,,,,,,,,,,,,,,,,,,,,,,,,,,,,,,,,,,,,,,,,,,,,,,
,,61687ebcd2a35ffb762d1928,2024-01-06_08h21.26.396,kallum_motion_pilot,2023.2.3,Win32,59.88023952,61687ebcd2a35ffb762d1928,6598e6a5d84f07970b831e70,6598f12a2faa4ff4b116d00c,0.0498,0.0499,0,143,143,21,1,threefour,,,,,,,,,,,,,,,,,,,,,,,,,,,,,,,,,,,,,,,,,,,,,,,,,,,,,,,,,,,,,,,,,,,,,,,,,,,,,,,,,,,,,,,,,,,,,,,,,,,,,,,,,,,,,,,,,,,,,,,,,,,,,,,,,,,,,,,
,,61687ebcd2a35ffb762d1928,2024-01-06_08h21.26.396,kallum_motion_pilot,2023.2.3,Win32,59.88023952,61687ebcd2a35ffb762d1928,6598e6a5d84f07970b831e70,6598f12a2faa4ff4b116d00c,0.05,0.0501,0,144,144,96,1,fivesix,,,,,,,,,,,,,,,,,,,,,,,,,,,,,,,,,,,,,,,,,,,,,,,,,,,,,,,,,,,,,,,,,,,,,,,,,,,,,,,,,,,,,,,,,,,,,,,,,,,,,,,,,,,,,,,,,,,,,,,,,,,,,,,,,,,,,,,
,,61687ebcd2a35ffb762d1928,2024-01-06_08h21.26.396,kallum_motion_pilot,2023.2.3,Win32,59.88023952,61687ebcd2a35ffb762d1928,6598e6a5d84f07970b831e70,6598f12a2faa4ff4b116d00c,0.0502,0.0504,0,145,145,114,1,sixfive,,,,,,,,,,,,,,,,,,,,,,,,,,,,,,,,,,,,,,,,,,,,,,,,,,,,,,,,,,,,,,,,,,,,,,,,,,,,,,,,,,,,,,,,,,,,,,,,,,,,,,,,,,,,,,,,,,,,,,,,,,,,,,,,,,,,,,,
,,61687ebcd2a35ffb762d1928,2024-01-06_08h21.26.396,kallum_motion_pilot,2023.2.3,Win32,59.88023952,61687ebcd2a35ffb762d1928,6598e6a5d84f07970b831e70,6598f12a2faa4ff4b116d00c,0.0506,0.0507,0,146,146,68,1,threeone,,,,,,,,,,,,,,,,,,,,,,,,,,,,,,,,,,,,,,,,,,,,,,,,,,,,,,,,,,,,,,,,,,,,,,,,,,,,,,,,,,,,,,,,,,,,,,,,,,,,,,,,,,,,,,,,,,,,,,,,,,,,,,,,,,,,,,,
,,61687ebcd2a35ffb762d1928,2024-01-06_08h21.26.396,kallum_motion_pilot,2023.2.3,Win32,59.88023952,61687ebcd2a35ffb762d1928,6598e6a5d84f07970b831e70,6598f12a2faa4ff4b116d00c,0.0509,0.051,0,147,147,81,1,fiveseven,,,,,,,,,,,,,,,,,,,,,,,,,,,,,,,,,,,,,,,,,,,,,,,,,,,,,,,,,,,,,,,,,,,,,,,,,,,,,,,,,,,,,,,,,,,,,,,,,,,,,,,,,,,,,,,,,,,,,,,,,,,,,,,,,,,,,,,
,,61687ebcd2a35ffb762d1928,2024-01-06_08h21.26.396,kallum_motion_pilot,2023.2.3,Win32,59.88023952,61687ebcd2a35ffb762d1928,6598e6a5d84f07970b831e70,6598f12a2faa4ff4b116d00c,0.051,0.0512,0,148,148,54,1,fourtwo,,,,,,,,,,,,,,,,,,,,,,,,,,,,,,,,,,,,,,,,,,,,,,,,,,,,,,,,,,,,,,,,,,,,,,,,,,,,,,,,,,,,,,,,,,,,,,,,,,,,,,,,,,,,,,,,,,,,,,,,,,,,,,,,,,,,,,,
,,61687ebcd2a35ffb762d1928,2024-01-06_08h21.26.396,kallum_motion_pilot,2023.2.3,Win32,59.88023952,61687ebcd2a35ffb762d1928,6598e6a5d84f07970b831e70,6598f12a2faa4ff4b116d00c,0.0513,0.0514,0,149,149,66,1,twoone,,,,,,,,,,,,,,,,,,,,,,,,,,,,,,,,,,,,,,,,,,,,,,,,,,,,,,,,,,,,,,,,,,,,,,,,,,,,,,,,,,,,,,,,,,,,,,,,,,,,,,,,,,,,,,,,,,,,,,,,,,,,,,,,,,,,,,,
,,61687ebcd2a35ffb762d1928,2024-01-06_08h21.26.396,kallum_motion_pilot,2023.2.3,Win32,59.88023952,61687ebcd2a35ffb762d1928,6598e6a5d84f07970b831e70,6598f12a2faa4ff4b116d00c,0.0514,0.0516,0,150,150,160,1,fivesix,,,,,,,,,,,,,,,,,,,,,,,,,,,,,,,,,,,,,,,,,,,,,,,,,,,,,,,,,,,,,,,,,,,,,,,,,,,,,,,,,,,,,,,,,,,,,,,,,,,,,,,,,,,,,,,,,,,,,,,,,,,,,,,,,,,,,,,
,,61687ebcd2a35ffb762d1928,2024-01-06_08h21.26.396,kallum_motion_pilot,2023.2.3,Win32,59.88023952,61687ebcd2a35ffb762d1928,6598e6a5d84f07970b831e70,6598f12a2faa4ff4b116d00c,0.0516,0.0517,0,151,151,4,1,threeone,,,,,,,,,,,,,,,,,,,,,,,,,,,,,,,,,,,,,,,,,,,,,,,,,,,,,,,,,,,,,,,,,,,,,,,,,,,,,,,,,,,,,,,,,,,,,,,,,,,,,,,,,,,,,,,,,,,,,,,,,,,,,,,,,,,,,,,
,,61687ebcd2a35ffb762d1928,2024-01-06_08h21.26.396,kallum_motion_pilot,2023.2.3,Win32,59.88023952,61687ebcd2a35ffb762d1928,6598e6a5d84f07970b831e70,6598f12a2faa4ff4b116d00c,0.0518,0.0519,0,152,152,25,1,onethree,,,,,,,,,,,,,,,,,,,,,,,,,,,,,,,,,,,,,,,,,,,,,,,,,,,,,,,,,,,,,,,,,,,,,,,,,,,,,,,,,,,,,,,,,,,,,,,,,,,,,,,,,,,,,,,,,,,,,,,,,,,,,,,,,,,,,,,
,,61687ebcd2a35ffb762d1928,2024-01-06_08h21.26.396,kallum_motion_pilot,2023.2.3,Win32,59.88023952,61687ebcd2a35ffb762d1928,6598e6a5d84f07970b831e70,6598f12a2faa4ff4b116d00c,0.052,0.052,0,153,153,87,1,eightseven,,,,,,,,,,,,,,,,,,,,,,,,,,,,,,,,,,,,,,,,,,,,,,,,,,,,,,,,,,,,,,,,,,,,,,,,,,,,,,,,,,,,,,,,,,,,,,,,,,,,,,,,,,,,,,,,,,,,,,,,,,,,,,,,,,,,,,,
,,61687ebcd2a35ffb762d1928,2024-01-06_08h21.26.396,kallum_motion_pilot,2023.2.3,Win32,59.88023952,61687ebcd2a35ffb762d1928,6598e6a5d84f07970b831e70,6598f12a2faa4ff4b116d00c,0.0522,0.0522,0,154,154,97,1,fiveseven,,,,,,,,,,,,,,,,,,,,,,,,,,,,,,,,,,,,,,,,,,,,,,,,,,,,,,,,,,,,,,,,,,,,,,,,,,,,,,,,,,,,,,,,,,,,,,,,,,,,,,,,,,,,,,,,,,,,,,,,,,,,,,,,,,,,,,,
,,61687ebcd2a35ffb762d1928,2024-01-06_08h21.26.396,kallum_motion_pilot,2023.2.3,Win32,59.88023952,61687ebcd2a35ffb762d1928,6598e6a5d84f07970b831e70,6598f12a2faa4ff4b116d00c,0.0523,0.0524,0,155,155,53,1,threefour,,,,,,,,,,,,,,,,,,,,,,,,,,,,,,,,,,,,,,,,,,,,,,,,,,,,,,,,,,,,,,,,,,,,,,,,,,,,,,,,,,,,,,,,,,,,,,,,,,,,,,,,,,,,,,,,,,,,,,,,,,,,,,,,,,,,,,,
,,61687ebcd2a35ffb762d1928,2024-01-06_08h21.26.396,kallum_motion_pilot,2023.2.3,Win32,59.88023952,61687ebcd2a35ffb762d1928,6598e6a5d84f07970b831e70,6598f12a2faa4ff4b116d00c,0.0524,0.0526,0,156,156,37,1,threefour,,,,,,,,,,,,,,,,,,,,,,,,,,,,,,,,,,,,,,,,,,,,,,,,,,,,,,,,,,,,,,,,,,,,,,,,,,,,,,,,,,,,,,,,,,,,,,,,,,,,,,,,,,,,,,,,,,,,,,,,,,,,,,,,,,,,,,,
,,61687ebcd2a35ffb762d1928,2024-01-06_08h21.26.396,kallum_motion_pilot,2023.2.3,Win32,59.88023952,61687ebcd2a35ffb762d1928,6598e6a5d84f07970b831e70,6598f12a2faa4ff4b116d00c,0.0526,0.0527,0,157,157,107,1,sixeight,,,,,,,,,,,,,,,,,,,,,,,,,,,,,,,,,,,,,,,,,,,,,,,,,,,,,,,,,,,,,,,,,,,,,,,,,,,,,,,,,,,,,,,,,,,,,,,,,,,,,,,,,,,,,,,,,,,,,,,,,,,,,,,,,,,,,,,
,,61687ebcd2a35ffb762d1928,2024-01-06_08h21.26.396,kallum_motion_pilot,2023.2.3,Win32,59.88023952,61687ebcd2a35ffb762d1928,6598e6a5d84f07970b831e70,6598f12a2faa4ff4b116d00c,0.0528,0.0529,0,158,158,145,1,fiveseven,,,,,,,,,,,,,,,,,,,,,,,,,,,,,,,,,,,,,,,,,,,,,,,,,,,,,,,,,,,,,,,,,,,,,,,,,,,,,,,,,,,,,,,,,,,,,,,,,,,,,,,,,,,,,,,,,,,,,,,,,,,,,,,,,,,,,,,
,,61687ebcd2a35ffb762d1928,2024-01-06_08h21.26.396,kallum_motion_pilot,2023.2.3,Win32,59.88023952,61687ebcd2a35ffb762d1928,6598e6a5d84f07970b831e70,6598f12a2faa4ff4b116d00c,0.053,0.053,0,159,159,32,1,onetwo,,,,,,,,,,,,,,,,,,,,,,,,,,,,,,,,,,,,,,,,,,,,,,,,,,,,,,,,,,,,,,,,,,,,,,,,,,,,,,,,,,,,,,,,,,,,,,,,,,,,,,,,,,,,,,,,,,,,,,,,,,,,,,,,,,,,,,,
,,61687ebcd2a35ffb762d1928,2024-01-06_08h21.26.396,kallum_motion_pilot,2023.2.3,Win32,59.88023952,61687ebcd2a35ffb762d1928,6598e6a5d84f07970b831e70,6598f12a2faa4ff4b116d00c,0.0532,0.0532,0,160,160,98,1,sixfive,,,,,,,,,,,,,,,,,,,,,,,,,,,,,,,,,,,,,,,,,,,,,,,,,,,,,,,,,,,,,,,,,,,,,,,,,,,,,,,,,,,,,,,,,,,,,,,,,,,,,,,,,,,,,,,,,,,,,,,,,,,,,,,,,,,,,,,
,,61687ebcd2a35ffb762d1928,2024-01-06_08h21.26.396,kallum_motion_pilot,2023.2.3,Win32,59.88023952,61687ebcd2a35ffb762d1928,6598e6a5d84f07970b831e70,6598f12a2faa4ff4b116d00c,0.0533,0.0533,0,161,161,131,1,sixeight,,,,,,,,,,,,,,,,,,,,,,,,,,,,,,,,,,,,,,,,,,,,,,,,,,,,,,,,,,,,,,,,,,,,,,,,,,,,,,,,,,,,,,,,,,,,,,,,,,,,,,,,,,,,,,,,,,,,,,,,,,,,,,,,,,,,,,,
,,61687ebcd2a35ffb762d1928,2024-01-06_08h21.26.396,kallum_motion_pilot,2023.2.3,Win32,59.88023952,61687ebcd2a35ffb762d1928,6598e6a5d84f07970b831e70,6598f12a2faa4ff4b116d00c,0.0534,0.0535,1,0,162,20,1,threeone,,,,,,,,,,,,,,,,,,,,,,,,,,,,,,,,,,,,,,,,,,,,,,,,,,,,,,,,,,,,,,,,,,,,,,,,,,,,,,,,,,,,,,,,,,,,,,,,,,,,,,,,,,,,,,,,,,,,,,,,,,,,,,,,,,,,,,,
,,61687ebcd2a35ffb762d1928,2024-01-06_08h21.26.396,kallum_motion_pilot,2023.2.3,Win32,59.88023952,61687ebcd2a35ffb762d1928,6598e6a5d84f07970b831e70,6598f12a2faa4ff4b116d00c,0.0536,0.0537,1,1,163,71,1,fourthree,,,,,,,,,,,,,,,,,,,,,,,,,,,,,,,,,,,,,,,,,,,,,,,,,,,,,,,,,,,,,,,,,,,,,,,,,,,,,,,,,,,,,,,,,,,,,,,,,,,,,,,,,,,,,,,,,,,,,,,,,,,,,,,,,,,,,,,
,,61687ebcd2a35ffb762d1928,2024-01-06_08h21.26.396,kallum_motion_pilot,2023.2.3,Win32,59.88023952,61687ebcd2a35ffb762d1928,6598e6a5d84f07970b831e70,6598f12a2faa4ff4b116d00c,0.0538,0.0539,1,2,164,135,1,eightseven,,,,,,,,,,,,,,,,,,,,,,,,,,,,,,,,,,,,,,,,,,,,,,,,,,,,,,,,,,,,,,,,,,,,,,,,,,,,,,,,,,,,,,,,,,,,,,,,,,,,,,,,,,,,,,,,,,,,,,,,,,,,,,,,,,,,,,,
,,61687ebcd2a35ffb762d1928,2024-01-06_08h21.26.396,kallum_motion_pilot,2023.2.3,Win32,59.88023952,61687ebcd2a35ffb762d1928,6598e6a5d84f07970b831e70,6598f12a2faa4ff4b116d00c,0.0539,0.054,1,3,165,50,1,twoone,,,,,,,,,,,,,,,,,,,,,,,,,,,,,,,,,,,,,,,,,,,,,,,,,,,,,,,,,,,,,,,,,,,,,,,,,,,,,,,,,,,,,,,,,,,,,,,,,,,,,,,,,,,,,,,,,,,,,,,,,,,,,,,,,,,,,,,
,,61687ebcd2a35ffb762d1928,2024-01-06_08h21.26.396,kallum_motion_pilot,2023.2.3,Win32,59.88023952,61687ebcd2a35ffb762d1928,6598e6a5d84f07970b831e70,6598f12a2faa4ff4b116d00c,0.0541,0.0542,1,4,166,98,1,sixfive,,,,,,,,,,,,,,,,,,,,,,,,,,,,,,,,,,,,,,,,,,,,,,,,,,,,,,,,,,,,,,,,,,,,,,,,,,,,,,,,,,,,,,,,,,,,,,,,,,,,,,,,,,,,,,,,,,,,,,,,,,,,,,,,,,,,,,,
,,61687ebcd2a35ffb762d1928,2024-01-06_08h21.26.396,kallum_motion_pilot,2023.2.3,Win32,59.88023952,61687ebcd2a35ffb762d1928,6598e6a5d84f07970b831e70,6598f12a2faa4ff4b116d00c,0.0542,0.0543,1,5,167,60,1,threeone,,,,,,,,,,,,,,,,,,,,,,,,,,,,,,,,,,,,,,,,,,,,,,,,,,,,,,,,,,,,,,,,,,,,,,,,,,,,,,,,,,,,,,,,,,,,,,,,,,,,,,,,,,,,,,,,,,,,,,,,,,,,,,,,,,,,,,,
,,61687ebcd2a35ffb762d1928,2024-01-06_08h21.26.396,kallum_motion_pilot,2023.2.3,Win32,59.88023952,61687ebcd2a35ffb762d1928,6598e6a5d84f07970b831e70,6598f12a2faa4ff4b116d00c,0.0544,0.0545,1,6,168,22,1,fourtwo,,,,,,,,,,,,,,,,,,,,,,,,,,,,,,,,,,,,,,,,,,,,,,,,,,,,,,,,,,,,,,,,,,,,,,,,,,,,,,,,,,,,,,,,,,,,,,,,,,,,,,,,,,,,,,,,,,,,,,,,,,,,,,,,,,,,,,,
,,61687ebcd2a35ffb762d1928,2024-01-06_08h21.26.396,kallum_motion_pilot,2023.2.3,Win32,59.88023952,61687ebcd2a35ffb762d1928,6598e6a5d84f07970b831e70,6598f12a2faa4ff4b116d00c,0.0546,0.0547,1,7,169,108,1,sevenfive,,,,,,,,,,,,,,,,,,,,,,,,,,,,,,,,,,,,,,,,,,,,,,,,,,,,,,,,,,,,,,,,,,,,,,,,,,,,,,,,,,,,,,,,,,,,,,,,,,,,,,,,,,,,,,,,,,,,,,,,,,,,,,,,,,,,,,,
,,61687ebcd2a35ffb762d1928,2024-01-06_08h21.26.396,kallum_motion_pilot,2023.2.3,Win32,59.88023952,61687ebcd2a35ffb762d1928,6598e6a5d84f07970b831e70,6598f12a2faa4ff4b116d00c,0.0548,0.0549,1,8,170,21,1,threefour,,,,,,,,,,,,,,,,,,,,,,,,,,,,,,,,,,,,,,,,,,,,,,,,,,,,,,,,,,,,,,,,,,,,,,,,,,,,,,,,,,,,,,,,,,,,,,,,,,,,,,,,,,,,,,,,,,,,,,,,,,,,,,,,,,,,,,,
,,61687ebcd2a35ffb762d1928,2024-01-06_08h21.26.396,kallum_motion_pilot,2023.2.3,Win32,59.88023952,61687ebcd2a35ffb762d1928,6598e6a5d84f07970b831e70,6598f12a2faa4ff4b116d00c,0.055,0.055,1,9,171,158,1,eightsix,,,,,,,,,,,,,,,,,,,,,,,,,,,,,,,,,,,,,,,,,,,,,,,,,,,,,,,,,,,,,,,,,,,,,,,,,,,,,,,,,,,,,,,,,,,,,,,,,,,,,,,,,,,,,,,,,,,,,,,,,,,,,,,,,,,,,,,
,,61687ebcd2a35ffb762d1928,2024-01-06_08h21.26.396,kallum_motion_pilot,2023.2.3,Win32,59.88023952,61687ebcd2a35ffb762d1928,6598e6a5d84f07970b831e70,6598f12a2faa4ff4b116d00c,0.0551,0.0552,1,10,172,75,1,twofour,,,,,,,,,,,,,,,,,,,,,,,,,,,,,,,,,,,,,,,,,,,,,,,,,,,,,,,,,,,,,,,,,,,,,,,,,,,,,,,,,,,,,,,,,,,,,,,,,,,,,,,,,,,,,,,,,,,,,,,,,,,,,,,,,,,,,,,
,,61687ebcd2a35ffb762d1928,2024-01-06_08h21.26.396,kallum_motion_pilot,2023.2.3,Win32,59.88023952,61687ebcd2a35ffb762d1928,6598e6a5d84f07970b831e70,6598f12a2faa4ff4b116d00c,0.0552,0.0553,1,11,173,41,1,onethree,,,,,,,,,,,,,,,,,,,,,,,,,,,,,,,,,,,,,,,,,,,,,,,,,,,,,,,,,,,,,,,,,,,,,,,,,,,,,,,,,,,,,,,,,,,,,,,,,,,,,,,,,,,,,,,,,,,,,,,,,,,,,,,,,,,,,,,
,,61687ebcd2a35ffb762d1928,2024-01-06_08h21.26.396,kallum_motion_pilot,2023.2.3,Win32,59.88023952,61687ebcd2a35ffb762d1928,6598e6a5d84f07970b831e70,6598f12a2faa4ff4b116d00c,0.0554,0.0555,1,12,174,40,1,onetwo,,,,,,,,,,,,,,,,,,,,,,,,,,,,,,,,,,,,,,,,,,,,,,,,,,,,,,,,,,,,,,,,,,,,,,,,,,,,,,,,,,,,,,,,,,,,,,,,,,,,,,,,,,,,,,,,,,,,,,,,,,,,,,,,,,,,,,,
,,61687ebcd2a35ffb762d1928,2024-01-06_08h21.26.396,kallum_motion_pilot,2023.2.3,Win32,59.88023952,61687ebcd2a35ffb762d1928,6598e6a5d84f07970b831e70,6598f12a2faa4ff4b116d00c,0.0555,0.0556,1,13,175,65,1,onethree,,,,,,,,,,,,,,,,,,,,,,,,,,,,,,,,,,,,,,,,,,,,,,,,,,,,,,,,,,,,,,,,,,,,,,,,,,,,,,,,,,,,,,,,,,,,,,,,,,,,,,,,,,,,,,,,,,,,,,,,,,,,,,,,,,,,,,,
,,61687ebcd2a35ffb762d1928,2024-01-06_08h21.26.396,kallum_motion_pilot,2023.2.3,Win32,59.88023952,61687ebcd2a35ffb762d1928,6598e6a5d84f07970b831e70,6598f12a2faa4ff4b116d00c,0.0557,0.0558,1,14,176,8,1,onetwo,,,,,,,,,,,,,,,,,,,,,,,,,,,,,,,,,,,,,,,,,,,,,,,,,,,,,,,,,,,,,,,,,,,,,,,,,,,,,,,,,,,,,,,,,,,,,,,,,,,,,,,,,,,,,,,,,,,,,,,,,,,,,,,,,,,,,,,
,,61687ebcd2a35ffb762d1928,2024-01-06_08h21.26.396,kallum_motion_pilot,2023.2.3,Win32,59.88023952,61687ebcd2a35ffb762d1928,6598e6a5d84f07970b831e70,6598f12a2faa4ff4b116d00c,0.0559,0.0559,1,15,177,36,1,threeone,,,,,,,,,,,,,,,,,,,,,,,,,,,,,,,,,,,,,,,,,,,,,,,,,,,,,,,,,,,,,,,,,,,,,,,,,,,,,,,,,,,,,,,,,,,,,,,,,,,,,,,,,,,,,,,,,,,,,,,,,,,,,,,,,,,,,,,
,,61687ebcd2a35ffb762d1928,2024-01-06_08h21.26.396,kallum_motion_pilot,2023.2.3,Win32,59.88023952,61687ebcd2a35ffb762d1928,6598e6a5d84f07970b831e70,6598f12a2faa4ff4b116d00c,0.056,0.0561,1,16,178,61,1,threefour,,,,,,,,,,,,,,,,,,,,,,,,,,,,,,,,,,,,,,,,,,,,,,,,,,,,,,,,,,,,,,,,,,,,,,,,,,,,,,,,,,,,,,,,,,,,,,,,,,,,,,,,,,,,,,,,,,,,,,,,,,,,,,,,,,,,,,,
,,61687ebcd2a35ffb762d1928,2024-01-06_08h21.26.396,kallum_motion_pilot,2023.2.3,Win32,59.88023952,61687ebcd2a35ffb762d1928,6598e6a5d84f07970b831e70,6598f12a2faa4ff4b116d00c,0.0562,0.0562,1,17,179,113,1,fiveseven,,,,,,,,,,,,,,,,,,,,,,,,,,,,,,,,,,,,,,,,,,,,,,,,,,,,,,,,,,,,,,,,,,,,,,,,,,,,,,,,,,,,,,,,,,,,,,,,,,,,,,,,,,,,,,,,,,,,,,,,,,,,,,,,,,,,,,,
,,61687ebcd2a35ffb762d1928,2024-01-06_08h21.26.396,kallum_motion_pilot,2023.2.3,Win32,59.88023952,61687ebcd2a35ffb762d1928,6598e6a5d84f07970b831e70,6598f12a2faa4ff4b116d00c,0.0564,0.0564,1,18,180,133,1,seveneight,,,,,,,,,,,,,,,,,,,,,,,,,,,,,,,,,,,,,,,,,,,,,,,,,,,,,,,,,,,,,,,,,,,,,,,,,,,,,,,,,,,,,,,,,,,,,,,,,,,,,,,,,,,,,,,,,,,,,,,,,,,,,,,,,,,,,,,
,,61687ebcd2a35ffb762d1928,2024-01-06_08h21.26.396,kallum_motion_pilot,2023.2.3,Win32,59.88023952,61687ebcd2a35ffb762d1928,6598e6a5d84f07970b831e70,6598f12a2faa4ff4b116d00c,0.0565,0.0566,1,19,181,78,1,fourtwo,,,,,,,,,,,,,,,,,,,,,,,,,,,,,,,,,,,,,,,,,,,,,,,,,,,,,,,,,,,,,,,,,,,,,,,,,,,,,,,,,,,,,,,,,,,,,,,,,,,,,,,,,,,,,,,,,,,,,,,,,,,,,,,,,,,,,,,
,,61687ebcd2a35ffb762d1928,2024-01-06_08h21.26.396,kallum_motion_pilot,2023.2.3,Win32,59.88023952,61687ebcd2a35ffb762d1928,6598e6a5d84f07970b831e70,6598f12a2faa4ff4b116d00c,0.0567,0.0568,1,20,182,9,1,onethree,,,,,,,,,,,,,,,,,,,,,,,,,,,,,,,,,,,,,,,,,,,,,,,,,,,,,,,,,,,,,,,,,,,,,,,,,,,,,,,,,,,,,,,,,,,,,,,,,,,,,,,,,,,,,,,,,,,,,,,,,,,,,,,,,,,,,,,
,,61687ebcd2a35ffb762d1928,2024-01-06_08h21.26.396,kallum_motion_pilot,2023.2.3,Win32,59.88023952,61687ebcd2a35ffb762d1928,6598e6a5d84f07970b831e70,6598f12a2faa4ff4b116d00c,0.0568,0.0569,1,21,183,106,1,sixfive,,,,,,,,,,,,,,,,,,,,,,,,,,,,,,,,,,,,,,,,,,,,,,,,,,,,,,,,,,,,,,,,,,,,,,,,,,,,,,,,,,,,,,,,,,,,,,,,,,,,,,,,,,,,,,,,,,,,,,,,,,,,,,,,,,,,,,,
,,61687ebcd2a35ffb762d1928,2024-01-06_08h21.26.396,kallum_motion_pilot,2023.2.3,Win32,59.88023952,61687ebcd2a35ffb762d1928,6598e6a5d84f07970b831e70,6598f12a2faa4ff4b116d00c,0.057,0.0571,1,22,184,19,1,twofour,,,,,,,,,,,,,,,,,,,,,,,,,,,,,,,,,,,,,,,,,,,,,,,,,,,,,,,,,,,,,,,,,,,,,,,,,,,,,,,,,,,,,,,,,,,,,,,,,,,,,,,,,,,,,,,,,,,,,,,,,,,,,,,,,,,,,,,
,,61687ebcd2a35ffb762d1928,2024-01-06_08h21.26.396,kallum_motion_pilot,2023.2.3,Win32,59.88023952,61687ebcd2a35ffb762d1928,6598e6a5d84f07970b831e70,6598f12a2faa4ff4b116d00c,0.0574,0.0576,1,23,185,46,1,fourtwo,,,,,,,,,,,,,,,,,,,,,,,,,,,,,,,,,,,,,,,,,,,,,,,,,,,,,,,,,,,,,,,,,,,,,,,,,,,,,,,,,,,,,,,,,,,,,,,,,,,,,,,,,,,,,,,,,,,,,,,,,,,,,,,,,,,,,,,
,,61687ebcd2a35ffb762d1928,2024-01-06_08h21.26.396,kallum_motion_pilot,2023.2.3,Win32,59.88023952,61687ebcd2a35ffb762d1928,6598e6a5d84f07970b831e70,6598f12a2faa4ff4b116d00c,0.0577,0.0579,1,24,186,149,1,seveneight,,,,,,,,,,,,,,,,,,,,,,,,,,,,,,,,,,,,,,,,,,,,,,,,,,,,,,,,,,,,,,,,,,,,,,,,,,,,,,,,,,,,,,,,,,,,,,,,,,,,,,,,,,,,,,,,,,,,,,,,,,,,,,,,,,,,,,,
,,61687ebcd2a35ffb762d1928,2024-01-06_08h21.26.396,kallum_motion_pilot,2023.2.3,Win32,59.88023952,61687ebcd2a35ffb762d1928,6598e6a5d84f07970b831e70,6598f12a2faa4ff4b116d00c,0.058,0.0581,1,25,187,32,1,onetwo,,,,,,,,,,,,,,,,,,,,,,,,,,,,,,,,,,,,,,,,,,,,,,,,,,,,,,,,,,,,,,,,,,,,,,,,,,,,,,,,,,,,,,,,,,,,,,,,,,,,,,,,,,,,,,,,,,,,,,,,,,,,,,,,,,,,,,,
,,61687ebcd2a35ffb762d1928,2024-01-06_08h21.26.396,kallum_motion_pilot,2023.2.3,Win32,59.88023952,61687ebcd2a35ffb762d1928,6598e6a5d84f07970b831e70,6598f12a2faa4ff4b116d00c,0.0583,0.0584,1,26,188,130,1,sixfive,,,,,,,,,,,,,,,,,,,,,,,,,,,,,,,,,,,,,,,,,,,,,,,,,,,,,,,,,,,,,,,,,,,,,,,,,,,,,,,,,,,,,,,,,,,,,,,,,,,,,,,,,,,,,,,,,,,,,,,,,,,,,,,,,,,,,,,
,,61687ebcd2a35ffb762d1928,2024-01-06_08h21.26.396,kallum_motion_pilot,2023.2.3,Win32,59.88023952,61687ebcd2a35ffb762d1928,6598e6a5d84f07970b831e70,6598f12a2faa4ff4b116d00c,0.0586,0.0587,1,27,189,161,1,fiveseven,,,,,,,,,,,,,,,,,,,,,,,,,,,,,,,,,,,,,,,,,,,,,,,,,,,,,,,,,,,,,,,,,,,,,,,,,,,,,,,,,,,,,,,,,,,,,,,,,,,,,,,,,,,,,,,,,,,,,,,,,,,,,,,,,,,,,,,
,,61687ebcd2a35ffb762d1928,2024-01-06_08h21.26.396,kallum_motion_pilot,2023.2.3,Win32,59.88023952,61687ebcd2a35ffb762d1928,6598e6a5d84f07970b831e70,6598f12a2faa4ff4b116d00c,0.0588,0.0589,1,28,190,1,1,onethree,,,,,,,,,,,,,,,,,,,,,,,,,,,,,,,,,,,,,,,,,,,,,,,,,,,,,,,,,,,,,,,,,,,,,,,,,,,,,,,,,,,,,,,,,,,,,,,,,,,,,,,,,,,,,,,,,,,,,,,,,,,,,,,,,,,,,,,
,,61687ebcd2a35ffb762d1928,2024-01-06_08h21.26.396,kallum_motion_pilot,2023.2.3,Win32,59.88023952,61687ebcd2a35ffb762d1928,6598e6a5d84f07970b831e70,6598f12a2faa4ff4b116d00c,0.059,0.0591,1,29,191,105,1,fiveseven,,,,,,,,,,,,,,,,,,,,,,,,,,,,,,,,,,,,,,,,,,,,,,,,,,,,,,,,,,,,,,,,,,,,,,,,,,,,,,,,,,,,,,,,,,,,,,,,,,,,,,,,,,,,,,,,,,,,,,,,,,,,,,,,,,,,,,,
,,61687ebcd2a35ffb762d1928,2024-01-06_08h21.26.396,kallum_motion_pilot,2023.2.3,Win32,59.88023952,61687ebcd2a35ffb762d1928,6598e6a5d84f07970b831e70,6598f12a2faa4ff4b116d00c,0.0592,0.0593,1,30,192,96,1,fivesix,,,,,,,,,,,,,,,,,,,,,,,,,,,,,,,,,,,,,,,,,,,,,,,,,,,,,,,,,,,,,,,,,,,,,,,,,,,,,,,,,,,,,,,,,,,,,,,,,,,,,,,,,,,,,,,,,,,,,,,,,,,,,,,,,,,,,,,
,,61687ebcd2a35ffb762d1928,2024-01-06_08h21.26.396,kallum_motion_pilot,2023.2.3,Win32,59.88023952,61687ebcd2a35ffb762d1928,6598e6a5d84f07970b831e70,6598f12a2faa4ff4b116d00c,0.0595,0.0595,1,31,193,109,1,seveneight,,,,,,,,,,,,,,,,,,,,,,,,,,,,,,,,,,,,,,,,,,,,,,,,,,,,,,,,,,,,,,,,,,,,,,,,,,,,,,,,,,,,,,,,,,,,,,,,,,,,,,,,,,,,,,,,,,,,,,,,,,,,,,,,,,,,,,,
,,61687ebcd2a35ffb762d1928,2024-01-06_08h21.26.396,kallum_motion_pilot,2023.2.3,Win32,59.88023952,61687ebcd2a35ffb762d1928,6598e6a5d84f07970b831e70,6598f12a2faa4ff4b116d00c,0.0596,0.0597,1,32,194,91,1,sixeight,,,,,,,,,,,,,,,,,,,,,,,,,,,,,,,,,,,,,,,,,,,,,,,,,,,,,,,,,,,,,,,,,,,,,,,,,,,,,,,,,,,,,,,,,,,,,,,,,,,,,,,,,,,,,,,,,,,,,,,,,,,,,,,,,,,,,,,
,,61687ebcd2a35ffb762d1928,2024-01-06_08h21.26.396,kallum_motion_pilot,2023.2.3,Win32,59.88023952,61687ebcd2a35ffb762d1928,6598e6a5d84f07970b831e70,6598f12a2faa4ff4b116d00c,0.0598,0.0599,1,33,195,10,1,twoone,,,,,,,,,,,,,,,,,,,,,,,,,,,,,,,,,,,,,,,,,,,,,,,,,,,,,,,,,,,,,,,,,,,,,,,,,,,,,,,,,,,,,,,,,,,,,,,,,,,,,,,,,,,,,,,,,,,,,,,,,,,,,,,,,,,,,,,
,,61687ebcd2a35ffb762d1928,2024-01-06_08h21.26.396,kallum_motion_pilot,2023.2.3,Win32,59.88023952,61687ebcd2a35ffb762d1928,6598e6a5d84f07970b831e70,6598f12a2faa4ff4b116d00c,0.06,0.06,1,34,196,120,1,fivesix,,,,,,,,,,,,,,,,,,,,,,,,,,,,,,,,,,,,,,,,,,,,,,,,,,,,,,,,,,,,,,,,,,,,,,,,,,,,,,,,,,,,,,,,,,,,,,,,,,,,,,,,,,,,,,,,,,,,,,,,,,,,,,,,,,,,,,,
,,61687ebcd2a35ffb762d1928,2024-01-06_08h21.26.396,kallum_motion_pilot,2023.2.3,Win32,59.88023952,61687ebcd2a35ffb762d1928,6598e6a5d84f07970b831e70,6598f12a2faa4ff4b116d00c,0.0601,0.0602,1,35,197,23,1,fourthree,,,,,,,,,,,,,,,,,,,,,,,,,,,,,,,,,,,,,,,,,,,,,,,,,,,,,,,,,,,,,,,,,,,,,,,,,,,,,,,,,,,,,,,,,,,,,,,,,,,,,,,,,,,,,,,,,,,,,,,,,,,,,,,,,,,,,,,
,,61687ebcd2a35ffb762d1928,2024-01-06_08h21.26.396,kallum_motion_pilot,2023.2.3,Win32,59.88023952,61687ebcd2a35ffb762d1928,6598e6a5d84f07970b831e70,6598f12a2faa4ff4b116d00c,0.0603,0.0603,1,36,198,112,1,fivesix,,,,,,,,,,,,,,,,,,,,,,,,,,,,,,,,,,,,,,,,,,,,,,,,,,,,,,,,,,,,,,,,,,,,,,,,,,,,,,,,,,,,,,,,,,,,,,,,,,,,,,,,,,,,,,,,,,,,,,,,,,,,,,,,,,,,,,,
,,61687ebcd2a35ffb762d1928,2024-01-06_08h21.26.396,kallum_motion_pilot,2023.2.3,Win32,59.88023952,61687ebcd2a35ffb762d1928,6598e6a5d84f07970b831e70,6598f12a2faa4ff4b116d00c,0.0604,0.0605,1,37,199,33,1,onethree,,,,,,,,,,,,,,,,,,,,,,,,,,,,,,,,,,,,,,,,,,,,,,,,,,,,,,,,,,,,,,,,,,,,,,,,,,,,,,,,,,,,,,,,,,,,,,,,,,,,,,,,,,,,,,,,,,,,,,,,,,,,,,,,,,,,,,,
,,61687ebcd2a35ffb762d1928,2024-01-06_08h21.26.396,kallum_motion_pilot,2023.2.3,Win32,59.88023952,61687ebcd2a35ffb762d1928,6598e6a5d84f07970b831e70,6598f12a2faa4ff4b116d00c,0.0606,0.0607,1,38,200,139,1,sixeight,,,,,,,,,,,,,,,,,,,,,,,,,,,,,,,,,,,,,,,,,,,,,,,,,,,,,,,,,,,,,,,,,,,,,,,,,,,,,,,,,,,,,,,,,,,,,,,,,,,,,,,,,,,,,,,,,,,,,,,,,,,,,,,,,,,,,,,
,,61687ebcd2a35ffb762d1928,2024-01-06_08h21.26.396,kallum_motion_pilot,2023.2.3,Win32,59.88023952,61687ebcd2a35ffb762d1928,6598e6a5d84f07970b831e70,6598f12a2faa4ff4b116d00c,0.0608,0.0609,1,39,201,63,1,fourthree,,,,,,,,,,,,,,,,,,,,,,,,,,,,,,,,,,,,,,,,,,,,,,,,,,,,,,,,,,,,,,,,,,,,,,,,,,,,,,,,,,,,,,,,,,,,,,,,,,,,,,,,,,,,,,,,,,,,,,,,,,,,,,,,,,,,,,,
,,61687ebcd2a35ffb762d1928,2024-01-06_08h21.26.396,kallum_motion_pilot,2023.2.3,Win32,59.88023952,61687ebcd2a35ffb762d1928,6598e6a5d84f07970b831e70,6598f12a2faa4ff4b116d00c,0.061,0.0611,1,40,202,88,1,fivesix,,,,,,,,,,,,,,,,,,,,,,,,,,,,,,,,,,,,,,,,,,,,,,,,,,,,,,,,,,,,,,,,,,,,,,,,,,,,,,,,,,,,,,,,,,,,,,,,,,,,,,,,,,,,,,,,,,,,,,,,,,,,,,,,,,,,,,,
,,61687ebcd2a35ffb762d1928,2024-01-06_08h21.26.396,kallum_motion_pilot,2023.2.3,Win32,59.88023952,61687ebcd2a35ffb762d1928,6598e6a5d84f07970b831e70,6598f12a2faa4ff4b116d00c,0.0612,0.0612,1,41,203,110,1,eightsix,,,,,,,,,,,,,,,,,,,,,,,,,,,,,,,,,,,,,,,,,,,,,,,,,,,,,,,,,,,,,,,,,,,,,,,,,,,,,,,,,,,,,,,,,,,,,,,,,,,,,,,,,,,,,,,,,,,,,,,,,,,,,,,,,,,,,,,
,,61687ebcd2a35ffb762d1928,2024-01-06_08h21.26.396,kallum_motion_pilot,2023.2.3,Win32,59.88023952,61687ebcd2a35ffb762d1928,6598e6a5d84f07970b831e70,6598f12a2faa4ff4b116d00c,0.0614,0.0615,1,42,204,70,1,fourtwo,,,,,,,,,,,,,,,,,,,,,,,,,,,,,,,,,,,,,,,,,,,,,,,,,,,,,,,,,,,,,,,,,,,,,,,,,,,,,,,,,,,,,,,,,,,,,,,,,,,,,,,,,,,,,,,,,,,,,,,,,,,,,,,,,,,,,,,
,,61687ebcd2a35ffb762d1928,2024-01-06_08h21.26.396,kallum_motion_pilot,2023.2.3,Win32,59.88023952,61687ebcd2a35ffb762d1928,6598e6a5d84f07970b831e70,6598f12a2faa4ff4b116d00c,0.0615,0.0616,1,43,205,87,1,eightseven,,,,,,,,,,,,,,,,,,,,,,,,,,,,,,,,,,,,,,,,,,,,,,,,,,,,,,,,,,,,,,,,,,,,,,,,,,,,,,,,,,,,,,,,,,,,,,,,,,,,,,,,,,,,,,,,,,,,,,,,,,,,,,,,,,,,,,,
,,61687ebcd2a35ffb762d1928,2024-01-06_08h21.26.396,kallum_motion_pilot,2023.2.3,Win32,59.88023952,61687ebcd2a35ffb762d1928,6598e6a5d84f07970b831e70,6598f12a2faa4ff4b116d00c,0.0616,0.0618,1,44,206,141,1,seveneight,,,,,,,,,,,,,,,,,,,,,,,,,,,,,,,,,,,,,,,,,,,,,,,,,,,,,,,,,,,,,,,,,,,,,,,,,,,,,,,,,,,,,,,,,,,,,,,,,,,,,,,,,,,,,,,,,,,,,,,,,,,,,,,,,,,,,,,
,,61687ebcd2a35ffb762d1928,2024-01-06_08h21.26.396,kallum_motion_pilot,2023.2.3,Win32,59.88023952,61687ebcd2a35ffb762d1928,6598e6a5d84f07970b831e70,6598f12a2faa4ff4b116d00c,0.0619,0.062,1,45,207,45,1,threefour,,,,,,,,,,,,,,,,,,,,,,,,,,,,,,,,,,,,,,,,,,,,,,,,,,,,,,,,,,,,,,,,,,,,,,,,,,,,,,,,,,,,,,,,,,,,,,,,,,,,,,,,,,,,,,,,,,,,,,,,,,,,,,,,,,,,,,,
,,61687ebcd2a35ffb762d1928,2024-01-06_08h21.26.396,kallum_motion_pilot,2023.2.3,Win32,59.88023952,61687ebcd2a35ffb762d1928,6598e6a5d84f07970b831e70,6598f12a2faa4ff4b116d00c,0.062,0.0622,1,46,208,84,1,sevenfive,,,,,,,,,,,,,,,,,,,,,,,,,,,,,,,,,,,,,,,,,,,,,,,,,,,,,,,,,,,,,,,,,,,,,,,,,,,,,,,,,,,,,,,,,,,,,,,,,,,,,,,,,,,,,,,,,,,,,,,,,,,,,,,,,,,,,,,
,,61687ebcd2a35ffb762d1928,2024-01-06_08h21.26.396,kallum_motion_pilot,2023.2.3,Win32,59.88023952,61687ebcd2a35ffb762d1928,6598e6a5d84f07970b831e70,6598f12a2faa4ff4b116d00c,0.0622,0.0623,1,47,209,64,1,onetwo,,,,,,,,,,,,,,,,,,,,,,,,,,,,,,,,,,,,,,,,,,,,,,,,,,,,,,,,,,,,,,,,,,,,,,,,,,,,,,,,,,,,,,,,,,,,,,,,,,,,,,,,,,,,,,,,,,,,,,,,,,,,,,,,,,,,,,,
,,61687ebcd2a35ffb762d1928,2024-01-06_08h21.26.396,kallum_motion_pilot,2023.2.3,Win32,59.88023952,61687ebcd2a35ffb762d1928,6598e6a5d84f07970b831e70,6598f12a2faa4ff4b116d00c,0.0624,0.0625,1,48,210,136,1,fivesix,,,,,,,,,,,,,,,,,,,,,,,,,,,,,,,,,,,,,,,,,,,,,,,,,,,,,,,,,,,,,,,,,,,,,,,,,,,,,,,,,,,,,,,,,,,,,,,,,,,,,,,,,,,,,,,,,,,,,,,,,,,,,,,,,,,,,,,
,,61687ebcd2a35ffb762d1928,2024-01-06_08h21.26.396,kallum_motion_pilot,2023.2.3,Win32,59.88023952,61687ebcd2a35ffb762d1928,6598e6a5d84f07970b831e70,6598f12a2faa4ff4b116d00c,0.0625,0.0626,1,49,211,156,1,sevenfive,,,,,,,,,,,,,,,,,,,,,,,,,,,,,,,,,,,,,,,,,,,,,,,,,,,,,,,,,,,,,,,,,,,,,,,,,,,,,,,,,,,,,,,,,,,,,,,,,,,,,,,,,,,,,,,,,,,,,,,,,,,,,,,,,,,,,,,
,,61687ebcd2a35ffb762d1928,2024-01-06_08h21.26.396,kallum_motion_pilot,2023.2.3,Win32,59.88023952,61687ebcd2a35ffb762d1928,6598e6a5d84f07970b831e70,6598f12a2faa4ff4b116d00c,0.0627,0.0628,1,50,212,99,1,sixeight,,,,,,,,,,,,,,,,,,,,,,,,,,,,,,,,,,,,,,,,,,,,,,,,,,,,,,,,,,,,,,,,,,,,,,,,,,,,,,,,,,,,,,,,,,,,,,,,,,,,,,,,,,,,,,,,,,,,,,,,,,,,,,,,,,,,,,,
,,61687ebcd2a35ffb762d1928,2024-01-06_08h21.26.396,kallum_motion_pilot,2023.2.3,Win32,59.88023952,61687ebcd2a35ffb762d1928,6598e6a5d84f07970b831e70,6598f12a2faa4ff4b116d00c,0.0629,0.063,1,51,213,77,1,threefour,,,,,,,,,,,,,,,,,,,,,,,,,,,,,,,,,,,,,,,,,,,,,,,,,,,,,,,,,,,,,,,,,,,,,,,,,,,,,,,,,,,,,,,,,,,,,,,,,,,,,,,,,,,,,,,,,,,,,,,,,,,,,,,,,,,,,,,
,,61687ebcd2a35ffb762d1928,2024-01-06_08h21.26.396,kallum_motion_pilot,2023.2.3,Win32,59.88023952,61687ebcd2a35ffb762d1928,6598e6a5d84f07970b831e70,6598f12a2faa4ff4b116d00c,0.0631,0.0631,1,52,214,160,1,fivesix,,,,,,,,,,,,,,,,,,,,,,,,,,,,,,,,,,,,,,,,,,,,,,,,,,,,,,,,,,,,,,,,,,,,,,,,,,,,,,,,,,,,,,,,,,,,,,,,,,,,,,,,,,,,,,,,,,,,,,,,,,,,,,,,,,,,,,,
,,61687ebcd2a35ffb762d1928,2024-01-06_08h21.26.396,kallum_motion_pilot,2023.2.3,Win32,59.88023952,61687ebcd2a35ffb762d1928,6598e6a5d84f07970b831e70,6598f12a2faa4ff4b116d00c,0.0633,0.0634,1,53,215,81,1,fiveseven,,,,,,,,,,,,,,,,,,,,,,,,,,,,,,,,,,,,,,,,,,,,,,,,,,,,,,,,,,,,,,,,,,,,,,,,,,,,,,,,,,,,,,,,,,,,,,,,,,,,,,,,,,,,,,,,,,,,,,,,,,,,,,,,,,,,,,,
,,61687ebcd2a35ffb762d1928,2024-01-06_08h21.26.396,kallum_motion_pilot,2023.2.3,Win32,59.88023952,61687ebcd2a35ffb762d1928,6598e6a5d84f07970b831e70,6598f12a2faa4ff4b116d00c,0.0634,0.0636,1,54,216,97,1,fiveseven,,,,,,,,,,,,,,,,,,,,,,,,,,,,,,,,,,,,,,,,,,,,,,,,,,,,,,,,,,,,,,,,,,,,,,,,,,,,,,,,,,,,,,,,,,,,,,,,,,,,,,,,,,,,,,,,,,,,,,,,,,,,,,,,,,,,,,,
,,61687ebcd2a35ffb762d1928,2024-01-06_08h21.26.396,kallum_motion_pilot,2023.2.3,Win32,59.88023952,61687ebcd2a35ffb762d1928,6598e6a5d84f07970b831e70,6598f12a2faa4ff4b116d00c,0.0637,0.0637,1,55,217,69,1,threefour,,,,,,,,,,,,,,,,,,,,,,,,,,,,,,,,,,,,,,,,,,,,,,,,,,,,,,,,,,,,,,,,,,,,,,,,,,,,,,,,,,,,,,,,,,,,,,,,,,,,,,,,,,,,,,,,,,,,,,,,,,,,,,,,,,,,,,,
,,61687ebcd2a35ffb762d1928,2024-01-06_08h21.26.396,kallum_motion_pilot,2023.2.3,Win32,59.88023952,61687ebcd2a35ffb762d1928,6598e6a5d84f07970b831e70,6598f12a2faa4ff4b116d00c,0.0639,0.064,1,56,218,27,1,twofour,,,,,,,,,,,,,,,,,,,,,,,,,,,,,,,,,,,,,,,,,,,,,,,,,,,,,,,,,,,,,,,,,,,,,,,,,,,,,,,,,,,,,,,,,,,,,,,,,,,,,,,,,,,,,,,,,,,,,,,,,,,,,,,,,,,,,,,
,,61687ebcd2a35ffb762d1928,2024-01-06_08h21.26.396,kallum_motion_pilot,2023.2.3,Win32,59.88023952,61687ebcd2a35ffb762d1928,6598e6a5d84f07970b831e70,6598f12a2faa4ff4b116d00c,0.0641,0.0642,1,57,219,129,1,fiveseven,,,,,,,,,,,,,,,,,,,,,,,,,,,,,,,,,,,,,,,,,,,,,,,,,,,,,,,,,,,,,,,,,,,,,,,,,,,,,,,,,,,,,,,,,,,,,,,,,,,,,,,,,,,,,,,,,,,,,,,,,,,,,,,,,,,,,,,
,,61687ebcd2a35ffb762d1928,2024-01-06_08h21.26.396,kallum_motion_pilot,2023.2.3,Win32,59.88023952,61687ebcd2a35ffb762d1928,6598e6a5d84f07970b831e70,6598f12a2faa4ff4b116d00c,0.0642,0.0644,1,58,220,16,1,onetwo,,,,,,,,,,,,,,,,,,,,,,,,,,,,,,,,,,,,,,,,,,,,,,,,,,,,,,,,,,,,,,,,,,,,,,,,,,,,,,,,,,,,,,,,,,,,,,,,,,,,,,,,,,,,,,,,,,,,,,,,,,,,,,,,,,,,,,,
,,61687ebcd2a35ffb762d1928,2024-01-06_08h21.26.396,kallum_motion_pilot,2023.2.3,Win32,59.88023952,61687ebcd2a35ffb762d1928,6598e6a5d84f07970b831e70,6598f12a2faa4ff4b116d00c,0.0645,0.0645,1,59,221,29,1,threefour,,,,,,,,,,,,,,,,,,,,,,,,,,,,,,,,,,,,,,,,,,,,,,,,,,,,,,,,,,,,,,,,,,,,,,,,,,,,,,,,,,,,,,,,,,,,,,,,,,,,,,,,,,,,,,,,,,,,,,,,,,,,,,,,,,,,,,,
,,61687ebcd2a35ffb762d1928,2024-01-06_08h21.26.396,kallum_motion_pilot,2023.2.3,Win32,59.88023952,61687ebcd2a35ffb762d1928,6598e6a5d84f07970b831e70,6598f12a2faa4ff4b116d00c,0.0646,0.0647,1,60,222,79,1,eightseven,,,,,,,,,,,,,,,,,,,,,,,,,,,,,,,,,,,,,,,,,,,,,,,,,,,,,,,,,,,,,,,,,,,,,,,,,,,,,,,,,,,,,,,,,,,,,,,,,,,,,,,,,,,,,,,,,,,,,,,,,,,,,,,,,,,,,,,
,,61687ebcd2a35ffb762d1928,2024-01-06_08h21.26.396,kallum_motion_pilot,2023.2.3,Win32,59.88023952,61687ebcd2a35ffb762d1928,6598e6a5d84f07970b831e70,6598f12a2faa4ff4b116d00c,0.0649,0.0649,1,61,223,7,1,fourthree,,,,,,,,,,,,,,,,,,,,,,,,,,,,,,,,,,,,,,,,,,,,,,,,,,,,,,,,,,,,,,,,,,,,,,,,,,,,,,,,,,,,,,,,,,,,,,,,,,,,,,,,,,,,,,,,,,,,,,,,,,,,,,,,,,,,,,,
,,61687ebcd2a35ffb762d1928,2024-01-06_08h21.26.396,kallum_motion_pilot,2023.2.3,Win32,59.88023952,61687ebcd2a35ffb762d1928,6598e6a5d84f07970b831e70,6598f12a2faa4ff4b116d00c,0.0651,0.0651,1,62,224,11,1,twofour,,,,,,,,,,,,,,,,,,,,,,,,,,,,,,,,,,,,,,,,,,,,,,,,,,,,,,,,,,,,,,,,,,,,,,,,,,,,,,,,,,,,,,,,,,,,,,,,,,,,,,,,,,,,,,,,,,,,,,,,,,,,,,,,,,,,,,,
,,61687ebcd2a35ffb762d1928,2024-01-06_08h21.26.396,kallum_motion_pilot,2023.2.3,Win32,59.88023952,61687ebcd2a35ffb762d1928,6598e6a5d84f07970b831e70,6598f12a2faa4ff4b116d00c,0.0652,0.0653,1,63,225,142,1,eightsix,,,,,,,,,,,,,,,,,,,,,,,,,,,,,,,,,,,,,,,,,,,,,,,,,,,,,,,,,,,,,,,,,,,,,,,,,,,,,,,,,,,,,,,,,,,,,,,,,,,,,,,,,,,,,,,,,,,,,,,,,,,,,,,,,,,,,,,
,,61687ebcd2a35ffb762d1928,2024-01-06_08h21.26.396,kallum_motion_pilot,2023.2.3,Win32,59.88023952,61687ebcd2a35ffb762d1928,6598e6a5d84f07970b831e70,6598f12a2faa4ff4b116d00c,0.0654,0.0656,1,64,226,114,1,sixfive,,,,,,,,,,,,,,,,,,,,,,,,,,,,,,,,,,,,,,,,,,,,,,,,,,,,,,,,,,,,,,,,,,,,,,,,,,,,,,,,,,,,,,,,,,,,,,,,,,,,,,,,,,,,,,,,,,,,,,,,,,,,,,,,,,,,,,,
,,61687ebcd2a35ffb762d1928,2024-01-06_08h21.26.396,kallum_motion_pilot,2023.2.3,Win32,59.88023952,61687ebcd2a35ffb762d1928,6598e6a5d84f07970b831e70,6598f12a2faa4ff4b116d00c,0.0656,0.0657,1,65,227,74,1,twoone,,,,,,,,,,,,,,,,,,,,,,,,,,,,,,,,,,,,,,,,,,,,,,,,,,,,,,,,,,,,,,,,,,,,,,,,,,,,,,,,,,,,,,,,,,,,,,,,,,,,,,,,,,,,,,,,,,,,,,,,,,,,,,,,,,,,,,,
,,61687ebcd2a35ffb762d1928,2024-01-06_08h21.26.396,kallum_motion_pilot,2023.2.3,Win32,59.88023952,61687ebcd2a35ffb762d1928,6598e6a5d84f07970b831e70,6598f12a2faa4ff4b116d00c,0.0658,0.0659,1,66,228,103,1,eightseven,,,,,,,,,,,,,,,,,,,,,,,,,,,,,,,,,,,,,,,,,,,,,,,,,,,,,,,,,,,,,,,,,,,,,,,,,,,,,,,,,,,,,,,,,,,,,,,,,,,,,,,,,,,,,,,,,,,,,,,,,,,,,,,,,,,,,,,
,,61687ebcd2a35ffb762d1928,2024-01-06_08h21.26.396,kallum_motion_pilot,2023.2.3,Win32,59.88023952,61687ebcd2a35ffb762d1928,6598e6a5d84f07970b831e70,6598f12a2faa4ff4b116d00c,0.066,0.0662,1,67,229,48,1,onetwo,,,,,,,,,,,,,,,,,,,,,,,,,,,,,,,,,,,,,,,,,,,,,,,,,,,,,,,,,,,,,,,,,,,,,,,,,,,,,,,,,,,,,,,,,,,,,,,,,,,,,,,,,,,,,,,,,,,,,,,,,,,,,,,,,,,,,,,
,,61687ebcd2a35ffb762d1928,2024-01-06_08h21.26.396,kallum_motion_pilot,2023.2.3,Win32,59.88023952,61687ebcd2a35ffb762d1928,6598e6a5d84f07970b831e70,6598f12a2faa4ff4b116d00c,0.0662,0.0663,1,68,230,25,1,onethree,,,,,,,,,,,,,,,,,,,,,,,,,,,,,,,,,,,,,,,,,,,,,,,,,,,,,,,,,,,,,,,,,,,,,,,,,,,,,,,,,,,,,,,,,,,,,,,,,,,,,,,,,,,,,,,,,,,,,,,,,,,,,,,,,,,,,,,
,,61687ebcd2a35ffb762d1928,2024-01-06_08h21.26.396,kallum_motion_pilot,2023.2.3,Win32,59.88023952,61687ebcd2a35ffb762d1928,6598e6a5d84f07970b831e70,6598f12a2faa4ff4b116d00c,0.0664,0.0665,1,69,231,122,1,sixfive,,,,,,,,,,,,,,,,,,,,,,,,,,,,,,,,,,,,,,,,,,,,,,,,,,,,,,,,,,,,,,,,,,,,,,,,,,,,,,,,,,,,,,,,,,,,,,,,,,,,,,,,,,,,,,,,,,,,,,,,,,,,,,,,,,,,,,,
,,61687ebcd2a35ffb762d1928,2024-01-06_08h21.26.396,kallum_motion_pilot,2023.2.3,Win32,59.88023952,61687ebcd2a35ffb762d1928,6598e6a5d84f07970b831e70,6598f12a2faa4ff4b116d00c,0.0666,0.0667,1,70,232,131,1,sixeight,,,,,,,,,,,,,,,,,,,,,,,,,,,,,,,,,,,,,,,,,,,,,,,,,,,,,,,,,,,,,,,,,,,,,,,,,,,,,,,,,,,,,,,,,,,,,,,,,,,,,,,,,,,,,,,,,,,,,,,,,,,,,,,,,,,,,,,
,,61687ebcd2a35ffb762d1928,2024-01-06_08h21.26.396,kallum_motion_pilot,2023.2.3,Win32,59.88023952,61687ebcd2a35ffb762d1928,6598e6a5d84f07970b831e70,6598f12a2faa4ff4b116d00c,0.0668,0.0669,1,71,233,57,1,onethree,,,,,,,,,,,,,,,,,,,,,,,,,,,,,,,,,,,,,,,,,,,,,,,,,,,,,,,,,,,,,,,,,,,,,,,,,,,,,,,,,,,,,,,,,,,,,,,,,,,,,,,,,,,,,,,,,,,,,,,,,,,,,,,,,,,,,,,
,,61687ebcd2a35ffb762d1928,2024-01-06_08h21.26.396,kallum_motion_pilot,2023.2.3,Win32,59.88023952,61687ebcd2a35ffb762d1928,6598e6a5d84f07970b831e70,6598f12a2faa4ff4b116d00c,0.067,0.0671,1,72,234,159,1,eightseven,,,,,,,,,,,,,,,,,,,,,,,,,,,,,,,,,,,,,,,,,,,,,,,,,,,,,,,,,,,,,,,,,,,,,,,,,,,,,,,,,,,,,,,,,,,,,,,,,,,,,,,,,,,,,,,,,,,,,,,,,,,,,,,,,,,,,,,
,,61687ebcd2a35ffb762d1928,2024-01-06_08h21.26.396,kallum_motion_pilot,2023.2.3,Win32,59.88023952,61687ebcd2a35ffb762d1928,6598e6a5d84f07970b831e70,6598f12a2faa4ff4b116d00c,0.0672,0.0674,1,73,235,47,1,fourthree,,,,,,,,,,,,,,,,,,,,,,,,,,,,,,,,,,,,,,,,,,,,,,,,,,,,,,,,,,,,,,,,,,,,,,,,,,,,,,,,,,,,,,,,,,,,,,,,,,,,,,,,,,,,,,,,,,,,,,,,,,,,,,,,,,,,,,,
,,61687ebcd2a35ffb762d1928,2024-01-06_08h21.26.396,kallum_motion_pilot,2023.2.3,Win32,59.88023952,61687ebcd2a35ffb762d1928,6598e6a5d84f07970b831e70,6598f12a2faa4ff4b116d00c,0.0675,0.0677,1,74,236,119,1,eightseven,,,,,,,,,,,,,,,,,,,,,,,,,,,,,,,,,,,,,,,,,,,,,,,,,,,,,,,,,,,,,,,,,,,,,,,,,,,,,,,,,,,,,,,,,,,,,,,,,,,,,,,,,,,,,,,,,,,,,,,,,,,,,,,,,,,,,,,
,,61687ebcd2a35ffb762d1928,2024-01-06_08h21.26.396,kallum_motion_pilot,2023.2.3,Win32,59.88023952,61687ebcd2a35ffb762d1928,6598e6a5d84f07970b831e70,6598f12a2faa4ff4b116d00c,0.0678,0.068,1,75,237,152,1,fivesix,,,,,,,,,,,,,,,,,,,,,,,,,,,,,,,,,,,,,,,,,,,,,,,,,,,,,,,,,,,,,,,,,,,,,,,,,,,,,,,,,,,,,,,,,,,,,,,,,,,,,,,,,,,,,,,,,,,,,,,,,,,,,,,,,,,,,,,
,,61687ebcd2a35ffb762d1928,2024-01-06_08h21.26.396,kallum_motion_pilot,2023.2.3,Win32,59.88023952,61687ebcd2a35ffb762d1928,6598e6a5d84f07970b831e70,6598f12a2faa4ff4b116d00c,0.0681,0.0682,1,76,238,30,1,fourtwo,,,,,,,,,,,,,,,,,,,,,,,,,,,,,,,,,,,,,,,,,,,,,,,,,,,,,,,,,,,,,,,,,,,,,,,,,,,,,,,,,,,,,,,,,,,,,,,,,,,,,,,,,,,,,,,,,,,,,,,,,,,,,,,,,,,,,,,
,,61687ebcd2a35ffb762d1928,2024-01-06_08h21.26.396,kallum_motion_pilot,2023.2.3,Win32,59.88023952,61687ebcd2a35ffb762d1928,6598e6a5d84f07970b831e70,6598f12a2faa4ff4b116d00c,0.0683,0.0684,1,77,239,55,1,fourthree,,,,,,,,,,,,,,,,,,,,,,,,,,,,,,,,,,,,,,,,,,,,,,,,,,,,,,,,,,,,,,,,,,,,,,,,,,,,,,,,,,,,,,,,,,,,,,,,,,,,,,,,,,,,,,,,,,,,,,,,,,,,,,,,,,,,,,,
,,61687ebcd2a35ffb762d1928,2024-01-06_08h21.26.396,kallum_motion_pilot,2023.2.3,Win32,59.88023952,61687ebcd2a35ffb762d1928,6598e6a5d84f07970b831e70,6598f12a2faa4ff4b116d00c,0.0685,0.0686,1,78,240,2,1,twoone,,,,,,,,,,,,,,,,,,,,,,,,,,,,,,,,,,,,,,,,,,,,,,,,,,,,,,,,,,,,,,,,,,,,,,,,,,,,,,,,,,,,,,,,,,,,,,,,,,,,,,,,,,,,,,,,,,,,,,,,,,,,,,,,,,,,,,,
,,61687ebcd2a35ffb762d1928,2024-01-06_08h21.26.396,kallum_motion_pilot,2023.2.3,Win32,59.88023952,61687ebcd2a35ffb762d1928,6598e6a5d84f07970b831e70,6598f12a2faa4ff4b116d00c,0.0688,0.0689,1,79,241,104,1,fivesix,,,,,,,,,,,,,,,,,,,,,,,,,,,,,,,,,,,,,,,,,,,,,,,,,,,,,,,,,,,,,,,,,,,,,,,,,,,,,,,,,,,,,,,,,,,,,,,,,,,,,,,,,,,,,,,,,,,,,,,,,,,,,,,,,,,,,,,
,,61687ebcd2a35ffb762d1928,2024-01-06_08h21.26.396,kallum_motion_pilot,2023.2.3,Win32,59.88023952,61687ebcd2a35ffb762d1928,6598e6a5d84f07970b831e70,6598f12a2faa4ff4b116d00c,0.0689,0.0691,1,80,242,17,1,onethree,,,,,,,,,,,,,,,,,,,,,,,,,,,,,,,,,,,,,,,,,,,,,,,,,,,,,,,,,,,,,,,,,,,,,,,,,,,,,,,,,,,,,,,,,,,,,,,,,,,,,,,,,,,,,,,,,,,,,,,,,,,,,,,,,,,,,,,
,,61687ebcd2a35ffb762d1928,2024-01-06_08h21.26.396,kallum_motion_pilot,2023.2.3,Win32,59.88023952,61687ebcd2a35ffb762d1928,6598e6a5d84f07970b831e70,6598f12a2faa4ff4b116d00c,0.0691,0.0692,1,81,243,4,1,threeone,,,,,,,,,,,,,,,,,,,,,,,,,,,,,,,,,,,,,,,,,,,,,,,,,,,,,,,,,,,,,,,,,,,,,,,,,,,,,,,,,,,,,,,,,,,,,,,,,,,,,,,,,,,,,,,,,,,,,,,,,,,,,,,,,,,,,,,
,,61687ebcd2a35ffb762d1928,2024-01-06_08h21.26.396,kallum_motion_pilot,2023.2.3,Win32,59.88023952,61687ebcd2a35ffb762d1928,6598e6a5d84f07970b831e70,6598f12a2faa4ff4b116d00c,0.0693,0.0694,1,82,244,51,1,twofour,,,,,,,,,,,,,,,,,,,,,,,,,,,,,,,,,,,,,,,,,,,,,,,,,,,,,,,,,,,,,,,,,,,,,,,,,,,,,,,,,,,,,,,,,,,,,,,,,,,,,,,,,,,,,,,,,,,,,,,,,,,,,,,,,,,,,,,
,,61687ebcd2a35ffb762d1928,2024-01-06_08h21.26.396,kallum_motion_pilot,2023.2.3,Win32,59.88023952,61687ebcd2a35ffb762d1928,6598e6a5d84f07970b831e70,6598f12a2faa4ff4b116d00c,0.0695,0.0696,1,83,245,58,1,twoone,,,,,,,,,,,,,,,,,,,,,,,,,,,,,,,,,,,,,,,,,,,,,,,,,,,,,,,,,,,,,,,,,,,,,,,,,,,,,,,,,,,,,,,,,,,,,,,,,,,,,,,,,,,,,,,,,,,,,,,,,,,,,,,,,,,,,,,
,,61687ebcd2a35ffb762d1928,2024-01-06_08h21.26.396,kallum_motion_pilot,2023.2.3,Win32,59.88023952,61687ebcd2a35ffb762d1928,6598e6a5d84f07970b831e70,6598f12a2faa4ff4b116d00c,0.0697,0.0698,1,84,246,157,1,seveneight,,,,,,,,,,,,,,,,,,,,,,,,,,,,,,,,,,,,,,,,,,,,,,,,,,,,,,,,,,,,,,,,,,,,,,,,,,,,,,,,,,,,,,,,,,,,,,,,,,,,,,,,,,,,,,,,,,,,,,,,,,,,,,,,,,,,,,,
,,61687ebcd2a35ffb762d1928,2024-01-06_08h21.26.396,kallum_motion_pilot,2023.2.3,Win32,59.88023952,61687ebcd2a35ffb762d1928,6598e6a5d84f07970b831e70,6598f12a2faa4ff4b116d00c,0.07,0.07,1,85,247,83,1,sixeight,,,,,,,,,,,,,,,,,,,,,,,,,,,,,,,,,,,,,,,,,,,,,,,,,,,,,,,,,,,,,,,,,,,,,,,,,,,,,,,,,,,,,,,,,,,,,,,,,,,,,,,,,,,,,,,,,,,,,,,,,,,,,,,,,,,,,,,
,,61687ebcd2a35ffb762d1928,2024-01-06_08h21.26.396,kallum_motion_pilot,2023.2.3,Win32,59.88023952,61687ebcd2a35ffb762d1928,6598e6a5d84f07970b831e70,6598f12a2faa4ff4b116d00c,0.0701,0.0702,1,86,248,124,1,sevenfive,,,,,,,,,,,,,,,,,,,,,,,,,,,,,,,,,,,,,,,,,,,,,,,,,,,,,,,,,,,,,,,,,,,,,,,,,,,,,,,,,,,,,,,,,,,,,,,,,,,,,,,,,,,,,,,,,,,,,,,,,,,,,,,,,,,,,,,
,,61687ebcd2a35ffb762d1928,2024-01-06_08h21.26.396,kallum_motion_pilot,2023.2.3,Win32,59.88023952,61687ebcd2a35ffb762d1928,6598e6a5d84f07970b831e70,6598f12a2faa4ff4b116d00c,0.0703,0.0705,1,87,249,144,1,fivesix,,,,,,,,,,,,,,,,,,,,,,,,,,,,,,,,,,,,,,,,,,,,,,,,,,,,,,,,,,,,,,,,,,,,,,,,,,,,,,,,,,,,,,,,,,,,,,,,,,,,,,,,,,,,,,,,,,,,,,,,,,,,,,,,,,,,,,,
,,61687ebcd2a35ffb762d1928,2024-01-06_08h21.26.396,kallum_motion_pilot,2023.2.3,Win32,59.88023952,61687ebcd2a35ffb762d1928,6598e6a5d84f07970b831e70,6598f12a2faa4ff4b116d00c,0.0706,0.0707,1,88,250,37,1,threefour,,,,,,,,,,,,,,,,,,,,,,,,,,,,,,,,,,,,,,,,,,,,,,,,,,,,,,,,,,,,,,,,,,,,,,,,,,,,,,,,,,,,,,,,,,,,,,,,,,,,,,,,,,,,,,,,,,,,,,,,,,,,,,,,,,,,,,,
,,61687ebcd2a35ffb762d1928,2024-01-06_08h21.26.396,kallum_motion_pilot,2023.2.3,Win32,59.88023952,61687ebcd2a35ffb762d1928,6598e6a5d84f07970b831e70,6598f12a2faa4ff4b116d00c,0.0708,0.0709,1,89,251,107,1,sixeight,,,,,,,,,,,,,,,,,,,,,,,,,,,,,,,,,,,,,,,,,,,,,,,,,,,,,,,,,,,,,,,,,,,,,,,,,,,,,,,,,,,,,,,,,,,,,,,,,,,,,,,,,,,,,,,,,,,,,,,,,,,,,,,,,,,,,,,
,,61687ebcd2a35ffb762d1928,2024-01-06_08h21.26.396,kallum_motion_pilot,2023.2.3,Win32,59.88023952,61687ebcd2a35ffb762d1928,6598e6a5d84f07970b831e70,6598f12a2faa4ff4b116d00c,0.0711,0.0711,1,90,252,34,1,twoone,,,,,,,,,,,,,,,,,,,,,,,,,,,,,,,,,,,,,,,,,,,,,,,,,,,,,,,,,,,,,,,,,,,,,,,,,,,,,,,,,,,,,,,,,,,,,,,,,,,,,,,,,,,,,,,,,,,,,,,,,,,,,,,,,,,,,,,
,,61687ebcd2a35ffb762d1928,2024-01-06_08h21.26.396,kallum_motion_pilot,2023.2.3,Win32,59.88023952,61687ebcd2a35ffb762d1928,6598e6a5d84f07970b831e70,6598f12a2faa4ff4b116d00c,0.0712,0.0714,1,91,253,126,1,eightsix,,,,,,,,,,,,,,,,,,,,,,,,,,,,,,,,,,,,,,,,,,,,,,,,,,,,,,,,,,,,,,,,,,,,,,,,,,,,,,,,,,,,,,,,,,,,,,,,,,,,,,,,,,,,,,,,,,,,,,,,,,,,,,,,,,,,,,,
,,61687ebcd2a35ffb762d1928,2024-01-06_08h21.26.396,kallum_motion_pilot,2023.2.3,Win32,59.88023952,61687ebcd2a35ffb762d1928,6598e6a5d84f07970b831e70,6598f12a2faa4ff4b116d00c,0.0715,0.0717,1,92,254,52,1,threeone,,,,,,,,,,,,,,,,,,,,,,,,,,,,,,,,,,,,,,,,,,,,,,,,,,,,,,,,,,,,,,,,,,,,,,,,,,,,,,,,,,,,,,,,,,,,,,,,,,,,,,,,,,,,,,,,,,,,,,,,,,,,,,,,,,,,,,,
,,61687ebcd2a35ffb762d1928,2024-01-06_08h21.26.396,kallum_motion_pilot,2023.2.3,Win32,59.88023952,61687ebcd2a35ffb762d1928,6598e6a5d84f07970b831e70,6598f12a2faa4ff4b116d00c,0.0718,0.0721,1,93,255,118,1,eightsix,,,,,,,,,,,,,,,,,,,,,,,,,,,,,,,,,,,,,,,,,,,,,,,,,,,,,,,,,,,,,,,,,,,,,,,,,,,,,,,,,,,,,,,,,,,,,,,,,,,,,,,,,,,,,,,,,,,,,,,,,,,,,,,,,,,,,,,
,,61687ebcd2a35ffb762d1928,2024-01-06_08h21.26.396,kallum_motion_pilot,2023.2.3,Win32,59.88023952,61687ebcd2a35ffb762d1928,6598e6a5d84f07970b831e70,6598f12a2faa4ff4b116d00c,0.0721,0.0722,1,94,256,66,1,twoone,,,,,,,,,,,,,,,,,,,,,,,,,,,,,,,,,,,,,,,,,,,,,,,,,,,,,,,,,,,,,,,,,,,,,,,,,,,,,,,,,,,,,,,,,,,,,,,,,,,,,,,,,,,,,,,,,,,,,,,,,,,,,,,,,,,,,,,
,,61687ebcd2a35ffb762d1928,2024-01-06_08h21.26.396,kallum_motion_pilot,2023.2.3,Win32,59.88023952,61687ebcd2a35ffb762d1928,6598e6a5d84f07970b831e70,6598f12a2faa4ff4b116d00c,0.0724,0.0725,1,95,257,154,1,sixfive,,,,,,,,,,,,,,,,,,,,,,,,,,,,,,,,,,,,,,,,,,,,,,,,,,,,,,,,,,,,,,,,,,,,,,,,,,,,,,,,,,,,,,,,,,,,,,,,,,,,,,,,,,,,,,,,,,,,,,,,,,,,,,,,,,,,,,,
,,61687ebcd2a35ffb762d1928,2024-01-06_08h21.26.396,kallum_motion_pilot,2023.2.3,Win32,59.88023952,61687ebcd2a35ffb762d1928,6598e6a5d84f07970b831e70,6598f12a2faa4ff4b116d00c,0.0725,0.0727,1,96,258,123,1,sixeight,,,,,,,,,,,,,,,,,,,,,,,,,,,,,,,,,,,,,,,,,,,,,,,,,,,,,,,,,,,,,,,,,,,,,,,,,,,,,,,,,,,,,,,,,,,,,,,,,,,,,,,,,,,,,,,,,,,,,,,,,,,,,,,,,,,,,,,
,,61687ebcd2a35ffb762d1928,2024-01-06_08h21.26.396,kallum_motion_pilot,2023.2.3,Win32,59.88023952,61687ebcd2a35ffb762d1928,6598e6a5d84f07970b831e70,6598f12a2faa4ff4b116d00c,0.0728,0.0729,1,97,259,148,1,sevenfive,,,,,,,,,,,,,,,,,,,,,,,,,,,,,,,,,,,,,,,,,,,,,,,,,,,,,,,,,,,,,,,,,,,,,,,,,,,,,,,,,,,,,,,,,,,,,,,,,,,,,,,,,,,,,,,,,,,,,,,,,,,,,,,,,,,,,,,
,,61687ebcd2a35ffb762d1928,2024-01-06_08h21.26.396,kallum_motion_pilot,2023.2.3,Win32,59.88023952,61687ebcd2a35ffb762d1928,6598e6a5d84f07970b831e70,6598f12a2faa4ff4b116d00c,0.073,0.0731,1,98,260,134,1,eightsix,,,,,,,,,,,,,,,,,,,,,,,,,,,,,,,,,,,,,,,,,,,,,,,,,,,,,,,,,,,,,,,,,,,,,,,,,,,,,,,,,,,,,,,,,,,,,,,,,,,,,,,,,,,,,,,,,,,,,,,,,,,,,,,,,,,,,,,
,,61687ebcd2a35ffb762d1928,2024-01-06_08h21.26.396,kallum_motion_pilot,2023.2.3,Win32,59.88023952,61687ebcd2a35ffb762d1928,6598e6a5d84f07970b831e70,6598f12a2faa4ff4b116d00c,0.0731,0.0733,1,99,261,38,1,fourtwo,,,,,,,,,,,,,,,,,,,,,,,,,,,,,,,,,,,,,,,,,,,,,,,,,,,,,,,,,,,,,,,,,,,,,,,,,,,,,,,,,,,,,,,,,,,,,,,,,,,,,,,,,,,,,,,,,,,,,,,,,,,,,,,,,,,,,,,
,,61687ebcd2a35ffb762d1928,2024-01-06_08h21.26.396,kallum_motion_pilot,2023.2.3,Win32,59.88023952,61687ebcd2a35ffb762d1928,6598e6a5d84f07970b831e70,6598f12a2faa4ff4b116d00c,0.0734,0.0735,1,100,262,115,1,sixeight,,,,,,,,,,,,,,,,,,,,,,,,,,,,,,,,,,,,,,,,,,,,,,,,,,,,,,,,,,,,,,,,,,,,,,,,,,,,,,,,,,,,,,,,,,,,,,,,,,,,,,,,,,,,,,,,,,,,,,,,,,,,,,,,,,,,,,,
,,61687ebcd2a35ffb762d1928,2024-01-06_08h21.26.396,kallum_motion_pilot,2023.2.3,Win32,59.88023952,61687ebcd2a35ffb762d1928,6598e6a5d84f07970b831e70,6598f12a2faa4ff4b116d00c,0.0736,0.0737,1,101,263,117,1,seveneight,,,,,,,,,,,,,,,,,,,,,,,,,,,,,,,,,,,,,,,,,,,,,,,,,,,,,,,,,,,,,,,,,,,,,,,,,,,,,,,,,,,,,,,,,,,,,,,,,,,,,,,,,,,,,,,,,,,,,,,,,,,,,,,,,,,,,,,
,,61687ebcd2a35ffb762d1928,2024-01-06_08h21.26.396,kallum_motion_pilot,2023.2.3,Win32,59.88023952,61687ebcd2a35ffb762d1928,6598e6a5d84f07970b831e70,6598f12a2faa4ff4b116d00c,0.0737,0.0738,1,102,264,53,1,threefour,,,,,,,,,,,,,,,,,,,,,,,,,,,,,,,,,,,,,,,,,,,,,,,,,,,,,,,,,,,,,,,,,,,,,,,,,,,,,,,,,,,,,,,,,,,,,,,,,,,,,,,,,,,,,,,,,,,,,,,,,,,,,,,,,,,,,,,
,,61687ebcd2a35ffb762d1928,2024-01-06_08h21.26.396,kallum_motion_pilot,2023.2.3,Win32,59.88023952,61687ebcd2a35ffb762d1928,6598e6a5d84f07970b831e70,6598f12a2faa4ff4b116d00c,0.074,0.0741,1,103,265,67,1,twofour,,,,,,,,,,,,,,,,,,,,,,,,,,,,,,,,,,,,,,,,,,,,,,,,,,,,,,,,,,,,,,,,,,,,,,,,,,,,,,,,,,,,,,,,,,,,,,,,,,,,,,,,,,,,,,,,,,,,,,,,,,,,,,,,,,,,,,,
,,61687ebcd2a35ffb762d1928,2024-01-06_08h21.26.396,kallum_motion_pilot,2023.2.3,Win32,59.88023952,61687ebcd2a35ffb762d1928,6598e6a5d84f07970b831e70,6598f12a2faa4ff4b116d00c,0.0742,0.0743,1,104,266,121,1,fiveseven,,,,,,,,,,,,,,,,,,,,,,,,,,,,,,,,,,,,,,,,,,,,,,,,,,,,,,,,,,,,,,,,,,,,,,,,,,,,,,,,,,,,,,,,,,,,,,,,,,,,,,,,,,,,,,,,,,,,,,,,,,,,,,,,,,,,,,,
,,61687ebcd2a35ffb762d1928,2024-01-06_08h21.26.396,kallum_motion_pilot,2023.2.3,Win32,59.88023952,61687ebcd2a35ffb762d1928,6598e6a5d84f07970b831e70,6598f12a2faa4ff4b116d00c,0.0744,0.0745,1,105,267,153,1,fiveseven,,,,,,,,,,,,,,,,,,,,,,,,,,,,,,,,,,,,,,,,,,,,,,,,,,,,,,,,,,,,,,,,,,,,,,,,,,,,,,,,,,,,,,,,,,,,,,,,,,,,,,,,,,,,,,,,,,,,,,,,,,,,,,,,,,,,,,,
,,61687ebcd2a35ffb762d1928,2024-01-06_08h21.26.396,kallum_motion_pilot,2023.2.3,Win32,59.88023952,61687ebcd2a35ffb762d1928,6598e6a5d84f07970b831e70,6598f12a2faa4ff4b116d00c,0.0746,0.0747,1,106,268,6,1,fourtwo,,,,,,,,,,,,,,,,,,,,,,,,,,,,,,,,,,,,,,,,,,,,,,,,,,,,,,,,,,,,,,,,,,,,,,,,,,,,,,,,,,,,,,,,,,,,,,,,,,,,,,,,,,,,,,,,,,,,,,,,,,,,,,,,,,,,,,,
,,61687ebcd2a35ffb762d1928,2024-01-06_08h21.26.396,kallum_motion_pilot,2023.2.3,Win32,59.88023952,61687ebcd2a35ffb762d1928,6598e6a5d84f07970b831e70,6598f12a2faa4ff4b116d00c,0.0747,0.0749,1,107,269,18,1,twoone,,,,,,,,,,,,,,,,,,,,,,,,,,,,,,,,,,,,,,,,,,,,,,,,,,,,,,,,,,,,,,,,,,,,,,,,,,,,,,,,,,,,,,,,,,,,,,,,,,,,,,,,,,,,,,,,,,,,,,,,,,,,,,,,,,,,,,,
,,61687ebcd2a35ffb762d1928,2024-01-06_08h21.26.396,kallum_motion_pilot,2023.2.3,Win32,59.88023952,61687ebcd2a35ffb762d1928,6598e6a5d84f07970b831e70,6598f12a2faa4ff4b116d00c,0.075,0.0751,1,108,270,100,1,sevenfive,,,,,,,,,,,,,,,,,,,,,,,,,,,,,,,,,,,,,,,,,,,,,,,,,,,,,,,,,,,,,,,,,,,,,,,,,,,,,,,,,,,,,,,,,,,,,,,,,,,,,,,,,,,,,,,,,,,,,,,,,,,,,,,,,,,,,,,
,,61687ebcd2a35ffb762d1928,2024-01-06_08h21.26.396,kallum_motion_pilot,2023.2.3,Win32,59.88023952,61687ebcd2a35ffb762d1928,6598e6a5d84f07970b831e70,6598f12a2faa4ff4b116d00c,0.0752,0.0753,1,109,271,155,1,sixeight,,,,,,,,,,,,,,,,,,,,,,,,,,,,,,,,,,,,,,,,,,,,,,,,,,,,,,,,,,,,,,,,,,,,,,,,,,,,,,,,,,,,,,,,,,,,,,,,,,,,,,,,,,,,,,,,,,,,,,,,,,,,,,,,,,,,,,,
,,61687ebcd2a35ffb762d1928,2024-01-06_08h21.26.396,kallum_motion_pilot,2023.2.3,Win32,59.88023952,61687ebcd2a35ffb762d1928,6598e6a5d84f07970b831e70,6598f12a2faa4ff4b116d00c,0.0754,0.0755,1,110,272,72,1,onetwo,,,,,,,,,,,,,,,,,,,,,,,,,,,,,,,,,,,,,,,,,,,,,,,,,,,,,,,,,,,,,,,,,,,,,,,,,,,,,,,,,,,,,,,,,,,,,,,,,,,,,,,,,,,,,,,,,,,,,,,,,,,,,,,,,,,,,,,
,,61687ebcd2a35ffb762d1928,2024-01-06_08h21.26.396,kallum_motion_pilot,2023.2.3,Win32,59.88023952,61687ebcd2a35ffb762d1928,6598e6a5d84f07970b831e70,6598f12a2faa4ff4b116d00c,0.0756,0.0757,1,111,273,89,1,fiveseven,,,,,,,,,,,,,,,,,,,,,,,,,,,,,,,,,,,,,,,,,,,,,,,,,,,,,,,,,,,,,,,,,,,,,,,,,,,,,,,,,,,,,,,,,,,,,,,,,,,,,,,,,,,,,,,,,,,,,,,,,,,,,,,,,,,,,,,
,,61687ebcd2a35ffb762d1928,2024-01-06_08h21.26.396,kallum_motion_pilot,2023.2.3,Win32,59.88023952,61687ebcd2a35ffb762d1928,6598e6a5d84f07970b831e70,6598f12a2faa4ff4b116d00c,0.0758,0.0759,1,112,274,147,1,sixeight,,,,,,,,,,,,,,,,,,,,,,,,,,,,,,,,,,,,,,,,,,,,,,,,,,,,,,,,,,,,,,,,,,,,,,,,,,,,,,,,,,,,,,,,,,,,,,,,,,,,,,,,,,,,,,,,,,,,,,,,,,,,,,,,,,,,,,,
,,61687ebcd2a35ffb762d1928,2024-01-06_08h21.26.396,kallum_motion_pilot,2023.2.3,Win32,59.88023952,61687ebcd2a35ffb762d1928,6598e6a5d84f07970b831e70,6598f12a2faa4ff4b116d00c,0.076,0.0761,1,113,275,151,1,eightseven,,,,,,,,,,,,,,,,,,,,,,,,,,,,,,,,,,,,,,,,,,,,,,,,,,,,,,,,,,,,,,,,,,,,,,,,,,,,,,,,,,,,,,,,,,,,,,,,,,,,,,,,,,,,,,,,,,,,,,,,,,,,,,,,,,,,,,,
,,61687ebcd2a35ffb762d1928,2024-01-06_08h21.26.396,kallum_motion_pilot,2023.2.3,Win32,59.88023952,61687ebcd2a35ffb762d1928,6598e6a5d84f07970b831e70,6598f12a2faa4ff4b116d00c,0.0762,0.0763,1,114,276,86,1,eightsix,,,,,,,,,,,,,,,,,,,,,,,,,,,,,,,,,,,,,,,,,,,,,,,,,,,,,,,,,,,,,,,,,,,,,,,,,,,,,,,,,,,,,,,,,,,,,,,,,,,,,,,,,,,,,,,,,,,,,,,,,,,,,,,,,,,,,,,
,,61687ebcd2a35ffb762d1928,2024-01-06_08h21.26.396,kallum_motion_pilot,2023.2.3,Win32,59.88023952,61687ebcd2a35ffb762d1928,6598e6a5d84f07970b831e70,6598f12a2faa4ff4b116d00c,0.0764,0.0765,1,115,277,145,1,fiveseven,,,,,,,,,,,,,,,,,,,,,,,,,,,,,,,,,,,,,,,,,,,,,,,,,,,,,,,,,,,,,,,,,,,,,,,,,,,,,,,,,,,,,,,,,,,,,,,,,,,,,,,,,,,,,,,,,,,,,,,,,,,,,,,,,,,,,,,
,,61687ebcd2a35ffb762d1928,2024-01-06_08h21.26.396,kallum_motion_pilot,2023.2.3,Win32,59.88023952,61687ebcd2a35ffb762d1928,6598e6a5d84f07970b831e70,6598f12a2faa4ff4b116d00c,0.0766,0.0767,1,116,278,0,1,onetwo,,,,,,,,,,,,,,,,,,,,,,,,,,,,,,,,,,,,,,,,,,,,,,,,,,,,,,,,,,,,,,,,,,,,,,,,,,,,,,,,,,,,,,,,,,,,,,,,,,,,,,,,,,,,,,,,,,,,,,,,,,,,,,,,,,,,,,,
,,61687ebcd2a35ffb762d1928,2024-01-06_08h21.26.396,kallum_motion_pilot,2023.2.3,Win32,59.88023952,61687ebcd2a35ffb762d1928,6598e6a5d84f07970b831e70,6598f12a2faa4ff4b116d00c,0.0768,0.0769,1,117,279,73,1,onethree,,,,,,,,,,,,,,,,,,,,,,,,,,,,,,,,,,,,,,,,,,,,,,,,,,,,,,,,,,,,,,,,,,,,,,,,,,,,,,,,,,,,,,,,,,,,,,,,,,,,,,,,,,,,,,,,,,,,,,,,,,,,,,,,,,,,,,,
