startup.started,startup.stopped,Prolific ID*,date,expName,psychopyVersion,OS,frameRate,PROLIFIC_PID,STUDY_ID,SESSION_ID,stimpositions.started,stimpositions.stopped,hardcoded_stimulus_positions.thisRepN,hardcoded_stimulus_positions.thisTrialN,hardcoded_stimulus_positions.thisN,hardcoded_stimulus_positions.thisIndex,hardcoded_stimulus_positions.ran,StimulusPos,stimorientation.started,stimorientation.stopped,prac_stimorientation_import_loop.thisRepN,prac_stimorientation_import_loop.thisTrialN,prac_stimorientation_import_loop.thisN,prac_stimorientation_import_loop.thisIndex,prac_stimorientation_import_loop.ran,Stimorientation,welcome_instr.started,welcome_instr.stopped,key_resp.keys,key_resp.rt,key_resp.duration,response_steppedout_1.started,response_steppedout_1.stopped,key_resp_20.keys,key_resp_20.rt,key_resp_20.duration,response_steppedout_2.started,response_steppedout_2.stopped,key_resp_19.keys,key_resp_19.rt,key_resp_19.duration,stim_response_instr.started,stim_response_instr.stopped,key_resp_15.keys,key_resp_15.rt,key_resp_15.duration,direction_instr_2.started,direction_instr_2.stopped,key_resp_9.keys,key_resp_9.rt,key_resp_9.duration,instr_prac.started,instr_prac.stopped,key_resp_10.keys,key_resp_10.rt,key_resp_10.duration,Stim1_display_prac.started,Stim1_display_prac.stopped,Ecc,Circle1_ori,Circle2_ori,response_prac.started,similarity,response_time,response_prac.stopped,mouse_5.x,mouse_5.y,mouse_5.leftButton,mouse_5.midButton,mouse_5.rightButton,mouse_5.clicked_name,responseprac_feedback.started,responseprac_feedback.stopped,summary2_prac.started,summary2_prac.stopped,mouse_6.x,mouse_6.y,mouse_6.leftButton,mouse_6.midButton,mouse_6.rightButton,mouse_6.clicked_name,duringprac.thisRepN,duringprac.thisTrialN,duringprac.thisN,duringprac.thisIndex,duringprac.ran,begin.started,begin.stopped,key_resp_22.keys,key_resp_22.rt,key_resp_22.duration,Stim1_display.started,Stim1_display.stopped,circle1_ori,circle2_ori,blank.started,blank.stopped,response.started,response.stopped,mouse.x,mouse.y,mouse.leftButton,mouse.midButton,mouse.rightButton,mouse.clicked_name,response_2.started,response_2.stopped,mouse_2.x,mouse_2.y,mouse_2.leftButton,mouse_2.midButton,mouse_2.rightButton,mouse_2.clicked_name,special_trial.started,special_trial.stopped,catch_1.started,catch_1.stopped,mouse_3.x,mouse_3.y,mouse_3.leftButton,mouse_3.midButton,mouse_3.rightButton,catchresponse,catchnumber,response_time_catch,Catch,response_sum.started,response_sum.stopped,mouse_11.x,mouse_11.y,mouse_11.leftButton,mouse_11.midButton,mouse_11.rightButton,main_trial.thisRepN,main_trial.thisTrialN,main_trial.thisN,main_trial.thisIndex,main_trial.ran,Orientationtrialno,xcircle1_ori,xcircle2_ori,flip_presentation_sequence_for_double_pass.started,flip_presentation_sequence_for_double_pass.stopped,double_pass.thisRepN,double_pass.thisTrialN,double_pass.thisN,double_pass.thisIndex,double_pass.ran,goodbye.started,goodbye.stopped,key_resp_3.keys,key_resp_3.rt,key_resp_3.duration
0.0003,0.0006,5ed6df4000ce5d1664eed19f,2024-01-06_01h29.05.836,kallum_motion_pilot,2023.2.3,Win32,60.24096386,5ed6df4000ce5d1664eed19f,6598e6a5d84f07970b831e70,6598f0fa91e97f5662902d94,,,,,,,,,,,,,,,,,,,,,,,,,,,,,,,,,,,,,,,,,,,,,,,,,,,,,,,,,,,,,,,,,,,,,,,,,,,,,,,,,,,,,,,,,,,,,,,,,,,,,,,,,,,,,,,,,,,,,,,,,,,,,,,,,,,,,,,,,,,,,,,
,,5ed6df4000ce5d1664eed19f,2024-01-06_01h29.05.836,kallum_motion_pilot,2023.2.3,Win32,60.24096386,5ed6df4000ce5d1664eed19f,6598e6a5d84f07970b831e70,6598f0fa91e97f5662902d94,0.0226,0.0227,0,0,0,85,1,seveneight,,,,,,,,,,,,,,,,,,,,,,,,,,,,,,,,,,,,,,,,,,,,,,,,,,,,,,,,,,,,,,,,,,,,,,,,,,,,,,,,,,,,,,,,,,,,,,,,,,,,,,,,,,,,,,,,,,,,,,,,,,,,,,,,,,,,,,,
,,5ed6df4000ce5d1664eed19f,2024-01-06_01h29.05.836,kallum_motion_pilot,2023.2.3,Win32,60.24096386,5ed6df4000ce5d1664eed19f,6598e6a5d84f07970b831e70,6598f0fa91e97f5662902d94,0.0229,0.0229,0,1,1,72,1,onetwo,,,,,,,,,,,,,,,,,,,,,,,,,,,,,,,,,,,,,,,,,,,,,,,,,,,,,,,,,,,,,,,,,,,,,,,,,,,,,,,,,,,,,,,,,,,,,,,,,,,,,,,,,,,,,,,,,,,,,,,,,,,,,,,,,,,,,,,
,,5ed6df4000ce5d1664eed19f,2024-01-06_01h29.05.836,kallum_motion_pilot,2023.2.3,Win32,60.24096386,5ed6df4000ce5d1664eed19f,6598e6a5d84f07970b831e70,6598f0fa91e97f5662902d94,0.023,0.0231,0,2,2,98,1,sixfive,,,,,,,,,,,,,,,,,,,,,,,,,,,,,,,,,,,,,,,,,,,,,,,,,,,,,,,,,,,,,,,,,,,,,,,,,,,,,,,,,,,,,,,,,,,,,,,,,,,,,,,,,,,,,,,,,,,,,,,,,,,,,,,,,,,,,,,
,,5ed6df4000ce5d1664eed19f,2024-01-06_01h29.05.836,kallum_motion_pilot,2023.2.3,Win32,60.24096386,5ed6df4000ce5d1664eed19f,6598e6a5d84f07970b831e70,6598f0fa91e97f5662902d94,0.0232,0.0232,0,3,3,71,1,fourthree,,,,,,,,,,,,,,,,,,,,,,,,,,,,,,,,,,,,,,,,,,,,,,,,,,,,,,,,,,,,,,,,,,,,,,,,,,,,,,,,,,,,,,,,,,,,,,,,,,,,,,,,,,,,,,,,,,,,,,,,,,,,,,,,,,,,,,,
,,5ed6df4000ce5d1664eed19f,2024-01-06_01h29.05.836,kallum_motion_pilot,2023.2.3,Win32,60.24096386,5ed6df4000ce5d1664eed19f,6598e6a5d84f07970b831e70,6598f0fa91e97f5662902d94,0.0234,0.0234,0,4,4,55,1,fourthree,,,,,,,,,,,,,,,,,,,,,,,,,,,,,,,,,,,,,,,,,,,,,,,,,,,,,,,,,,,,,,,,,,,,,,,,,,,,,,,,,,,,,,,,,,,,,,,,,,,,,,,,,,,,,,,,,,,,,,,,,,,,,,,,,,,,,,,
,,5ed6df4000ce5d1664eed19f,2024-01-06_01h29.05.836,kallum_motion_pilot,2023.2.3,Win32,60.24096386,5ed6df4000ce5d1664eed19f,6598e6a5d84f07970b831e70,6598f0fa91e97f5662902d94,0.0234,0.0234,0,5,5,84,1,sevenfive,,,,,,,,,,,,,,,,,,,,,,,,,,,,,,,,,,,,,,,,,,,,,,,,,,,,,,,,,,,,,,,,,,,,,,,,,,,,,,,,,,,,,,,,,,,,,,,,,,,,,,,,,,,,,,,,,,,,,,,,,,,,,,,,,,,,,,,
,,5ed6df4000ce5d1664eed19f,2024-01-06_01h29.05.836,kallum_motion_pilot,2023.2.3,Win32,60.24096386,5ed6df4000ce5d1664eed19f,6598e6a5d84f07970b831e70,6598f0fa91e97f5662902d94,0.0235,0.0235,0,6,6,107,1,sixeight,,,,,,,,,,,,,,,,,,,,,,,,,,,,,,,,,,,,,,,,,,,,,,,,,,,,,,,,,,,,,,,,,,,,,,,,,,,,,,,,,,,,,,,,,,,,,,,,,,,,,,,,,,,,,,,,,,,,,,,,,,,,,,,,,,,,,,,
,,5ed6df4000ce5d1664eed19f,2024-01-06_01h29.05.836,kallum_motion_pilot,2023.2.3,Win32,60.24096386,5ed6df4000ce5d1664eed19f,6598e6a5d84f07970b831e70,6598f0fa91e97f5662902d94,0.0235,0.0236,0,7,7,37,1,threefour,,,,,,,,,,,,,,,,,,,,,,,,,,,,,,,,,,,,,,,,,,,,,,,,,,,,,,,,,,,,,,,,,,,,,,,,,,,,,,,,,,,,,,,,,,,,,,,,,,,,,,,,,,,,,,,,,,,,,,,,,,,,,,,,,,,,,,,
,,5ed6df4000ce5d1664eed19f,2024-01-06_01h29.05.836,kallum_motion_pilot,2023.2.3,Win32,60.24096386,5ed6df4000ce5d1664eed19f,6598e6a5d84f07970b831e70,6598f0fa91e97f5662902d94,0.0238,0.0238,0,8,8,48,1,onetwo,,,,,,,,,,,,,,,,,,,,,,,,,,,,,,,,,,,,,,,,,,,,,,,,,,,,,,,,,,,,,,,,,,,,,,,,,,,,,,,,,,,,,,,,,,,,,,,,,,,,,,,,,,,,,,,,,,,,,,,,,,,,,,,,,,,,,,,
,,5ed6df4000ce5d1664eed19f,2024-01-06_01h29.05.836,kallum_motion_pilot,2023.2.3,Win32,60.24096386,5ed6df4000ce5d1664eed19f,6598e6a5d84f07970b831e70,6598f0fa91e97f5662902d94,0.0239,0.0239,0,9,9,50,1,twoone,,,,,,,,,,,,,,,,,,,,,,,,,,,,,,,,,,,,,,,,,,,,,,,,,,,,,,,,,,,,,,,,,,,,,,,,,,,,,,,,,,,,,,,,,,,,,,,,,,,,,,,,,,,,,,,,,,,,,,,,,,,,,,,,,,,,,,,
,,5ed6df4000ce5d1664eed19f,2024-01-06_01h29.05.836,kallum_motion_pilot,2023.2.3,Win32,60.24096386,5ed6df4000ce5d1664eed19f,6598e6a5d84f07970b831e70,6598f0fa91e97f5662902d94,0.024,0.0241,0,10,10,158,1,eightsix,,,,,,,,,,,,,,,,,,,,,,,,,,,,,,,,,,,,,,,,,,,,,,,,,,,,,,,,,,,,,,,,,,,,,,,,,,,,,,,,,,,,,,,,,,,,,,,,,,,,,,,,,,,,,,,,,,,,,,,,,,,,,,,,,,,,,,,
,,5ed6df4000ce5d1664eed19f,2024-01-06_01h29.05.836,kallum_motion_pilot,2023.2.3,Win32,60.24096386,5ed6df4000ce5d1664eed19f,6598e6a5d84f07970b831e70,6598f0fa91e97f5662902d94,0.0242,0.0242,0,11,11,57,1,onethree,,,,,,,,,,,,,,,,,,,,,,,,,,,,,,,,,,,,,,,,,,,,,,,,,,,,,,,,,,,,,,,,,,,,,,,,,,,,,,,,,,,,,,,,,,,,,,,,,,,,,,,,,,,,,,,,,,,,,,,,,,,,,,,,,,,,,,,
,,5ed6df4000ce5d1664eed19f,2024-01-06_01h29.05.836,kallum_motion_pilot,2023.2.3,Win32,60.24096386,5ed6df4000ce5d1664eed19f,6598e6a5d84f07970b831e70,6598f0fa91e97f5662902d94,0.0243,0.0244,0,12,12,73,1,onethree,,,,,,,,,,,,,,,,,,,,,,,,,,,,,,,,,,,,,,,,,,,,,,,,,,,,,,,,,,,,,,,,,,,,,,,,,,,,,,,,,,,,,,,,,,,,,,,,,,,,,,,,,,,,,,,,,,,,,,,,,,,,,,,,,,,,,,,
,,5ed6df4000ce5d1664eed19f,2024-01-06_01h29.05.836,kallum_motion_pilot,2023.2.3,Win32,60.24096386,5ed6df4000ce5d1664eed19f,6598e6a5d84f07970b831e70,6598f0fa91e97f5662902d94,0.0245,0.0245,0,13,13,154,1,sixfive,,,,,,,,,,,,,,,,,,,,,,,,,,,,,,,,,,,,,,,,,,,,,,,,,,,,,,,,,,,,,,,,,,,,,,,,,,,,,,,,,,,,,,,,,,,,,,,,,,,,,,,,,,,,,,,,,,,,,,,,,,,,,,,,,,,,,,,
,,5ed6df4000ce5d1664eed19f,2024-01-06_01h29.05.836,kallum_motion_pilot,2023.2.3,Win32,60.24096386,5ed6df4000ce5d1664eed19f,6598e6a5d84f07970b831e70,6598f0fa91e97f5662902d94,0.0245,0.0245,0,14,14,25,1,onethree,,,,,,,,,,,,,,,,,,,,,,,,,,,,,,,,,,,,,,,,,,,,,,,,,,,,,,,,,,,,,,,,,,,,,,,,,,,,,,,,,,,,,,,,,,,,,,,,,,,,,,,,,,,,,,,,,,,,,,,,,,,,,,,,,,,,,,,
,,5ed6df4000ce5d1664eed19f,2024-01-06_01h29.05.836,kallum_motion_pilot,2023.2.3,Win32,60.24096386,5ed6df4000ce5d1664eed19f,6598e6a5d84f07970b831e70,6598f0fa91e97f5662902d94,0.0246,0.0247,0,15,15,88,1,fivesix,,,,,,,,,,,,,,,,,,,,,,,,,,,,,,,,,,,,,,,,,,,,,,,,,,,,,,,,,,,,,,,,,,,,,,,,,,,,,,,,,,,,,,,,,,,,,,,,,,,,,,,,,,,,,,,,,,,,,,,,,,,,,,,,,,,,,,,
,,5ed6df4000ce5d1664eed19f,2024-01-06_01h29.05.836,kallum_motion_pilot,2023.2.3,Win32,60.24096386,5ed6df4000ce5d1664eed19f,6598e6a5d84f07970b831e70,6598f0fa91e97f5662902d94,0.0248,0.0248,0,16,16,130,1,sixfive,,,,,,,,,,,,,,,,,,,,,,,,,,,,,,,,,,,,,,,,,,,,,,,,,,,,,,,,,,,,,,,,,,,,,,,,,,,,,,,,,,,,,,,,,,,,,,,,,,,,,,,,,,,,,,,,,,,,,,,,,,,,,,,,,,,,,,,
,,5ed6df4000ce5d1664eed19f,2024-01-06_01h29.05.836,kallum_motion_pilot,2023.2.3,Win32,60.24096386,5ed6df4000ce5d1664eed19f,6598e6a5d84f07970b831e70,6598f0fa91e97f5662902d94,0.0249,0.0249,0,17,17,33,1,onethree,,,,,,,,,,,,,,,,,,,,,,,,,,,,,,,,,,,,,,,,,,,,,,,,,,,,,,,,,,,,,,,,,,,,,,,,,,,,,,,,,,,,,,,,,,,,,,,,,,,,,,,,,,,,,,,,,,,,,,,,,,,,,,,,,,,,,,,
,,5ed6df4000ce5d1664eed19f,2024-01-06_01h29.05.836,kallum_motion_pilot,2023.2.3,Win32,60.24096386,5ed6df4000ce5d1664eed19f,6598e6a5d84f07970b831e70,6598f0fa91e97f5662902d94,0.025,0.025,0,18,18,146,1,sixfive,,,,,,,,,,,,,,,,,,,,,,,,,,,,,,,,,,,,,,,,,,,,,,,,,,,,,,,,,,,,,,,,,,,,,,,,,,,,,,,,,,,,,,,,,,,,,,,,,,,,,,,,,,,,,,,,,,,,,,,,,,,,,,,,,,,,,,,
,,5ed6df4000ce5d1664eed19f,2024-01-06_01h29.05.836,kallum_motion_pilot,2023.2.3,Win32,60.24096386,5ed6df4000ce5d1664eed19f,6598e6a5d84f07970b831e70,6598f0fa91e97f5662902d94,0.0252,0.0252,0,19,19,40,1,onetwo,,,,,,,,,,,,,,,,,,,,,,,,,,,,,,,,,,,,,,,,,,,,,,,,,,,,,,,,,,,,,,,,,,,,,,,,,,,,,,,,,,,,,,,,,,,,,,,,,,,,,,,,,,,,,,,,,,,,,,,,,,,,,,,,,,,,,,,
,,5ed6df4000ce5d1664eed19f,2024-01-06_01h29.05.836,kallum_motion_pilot,2023.2.3,Win32,60.24096386,5ed6df4000ce5d1664eed19f,6598e6a5d84f07970b831e70,6598f0fa91e97f5662902d94,0.0252,0.0254,0,20,20,35,1,twofour,,,,,,,,,,,,,,,,,,,,,,,,,,,,,,,,,,,,,,,,,,,,,,,,,,,,,,,,,,,,,,,,,,,,,,,,,,,,,,,,,,,,,,,,,,,,,,,,,,,,,,,,,,,,,,,,,,,,,,,,,,,,,,,,,,,,,,,
,,5ed6df4000ce5d1664eed19f,2024-01-06_01h29.05.836,kallum_motion_pilot,2023.2.3,Win32,60.24096386,5ed6df4000ce5d1664eed19f,6598e6a5d84f07970b831e70,6598f0fa91e97f5662902d94,0.0254,0.0255,0,21,21,67,1,twofour,,,,,,,,,,,,,,,,,,,,,,,,,,,,,,,,,,,,,,,,,,,,,,,,,,,,,,,,,,,,,,,,,,,,,,,,,,,,,,,,,,,,,,,,,,,,,,,,,,,,,,,,,,,,,,,,,,,,,,,,,,,,,,,,,,,,,,,
,,5ed6df4000ce5d1664eed19f,2024-01-06_01h29.05.836,kallum_motion_pilot,2023.2.3,Win32,60.24096386,5ed6df4000ce5d1664eed19f,6598e6a5d84f07970b831e70,6598f0fa91e97f5662902d94,0.0256,0.0256,0,22,22,61,1,threefour,,,,,,,,,,,,,,,,,,,,,,,,,,,,,,,,,,,,,,,,,,,,,,,,,,,,,,,,,,,,,,,,,,,,,,,,,,,,,,,,,,,,,,,,,,,,,,,,,,,,,,,,,,,,,,,,,,,,,,,,,,,,,,,,,,,,,,,
,,5ed6df4000ce5d1664eed19f,2024-01-06_01h29.05.836,kallum_motion_pilot,2023.2.3,Win32,60.24096386,5ed6df4000ce5d1664eed19f,6598e6a5d84f07970b831e70,6598f0fa91e97f5662902d94,0.0257,0.0258,0,23,23,27,1,twofour,,,,,,,,,,,,,,,,,,,,,,,,,,,,,,,,,,,,,,,,,,,,,,,,,,,,,,,,,,,,,,,,,,,,,,,,,,,,,,,,,,,,,,,,,,,,,,,,,,,,,,,,,,,,,,,,,,,,,,,,,,,,,,,,,,,,,,,
,,5ed6df4000ce5d1664eed19f,2024-01-06_01h29.05.836,kallum_motion_pilot,2023.2.3,Win32,60.24096386,5ed6df4000ce5d1664eed19f,6598e6a5d84f07970b831e70,6598f0fa91e97f5662902d94,0.0258,0.0259,0,24,24,43,1,twofour,,,,,,,,,,,,,,,,,,,,,,,,,,,,,,,,,,,,,,,,,,,,,,,,,,,,,,,,,,,,,,,,,,,,,,,,,,,,,,,,,,,,,,,,,,,,,,,,,,,,,,,,,,,,,,,,,,,,,,,,,,,,,,,,,,,,,,,
,,5ed6df4000ce5d1664eed19f,2024-01-06_01h29.05.836,kallum_motion_pilot,2023.2.3,Win32,60.24096386,5ed6df4000ce5d1664eed19f,6598e6a5d84f07970b831e70,6598f0fa91e97f5662902d94,0.026,0.0261,0,25,25,116,1,sevenfive,,,,,,,,,,,,,,,,,,,,,,,,,,,,,,,,,,,,,,,,,,,,,,,,,,,,,,,,,,,,,,,,,,,,,,,,,,,,,,,,,,,,,,,,,,,,,,,,,,,,,,,,,,,,,,,,,,,,,,,,,,,,,,,,,,,,,,,
,,5ed6df4000ce5d1664eed19f,2024-01-06_01h29.05.836,kallum_motion_pilot,2023.2.3,Win32,60.24096386,5ed6df4000ce5d1664eed19f,6598e6a5d84f07970b831e70,6598f0fa91e97f5662902d94,0.0262,0.0262,0,26,26,2,1,twoone,,,,,,,,,,,,,,,,,,,,,,,,,,,,,,,,,,,,,,,,,,,,,,,,,,,,,,,,,,,,,,,,,,,,,,,,,,,,,,,,,,,,,,,,,,,,,,,,,,,,,,,,,,,,,,,,,,,,,,,,,,,,,,,,,,,,,,,
,,5ed6df4000ce5d1664eed19f,2024-01-06_01h29.05.836,kallum_motion_pilot,2023.2.3,Win32,60.24096386,5ed6df4000ce5d1664eed19f,6598e6a5d84f07970b831e70,6598f0fa91e97f5662902d94,0.0262,0.0262,0,27,27,74,1,twoone,,,,,,,,,,,,,,,,,,,,,,,,,,,,,,,,,,,,,,,,,,,,,,,,,,,,,,,,,,,,,,,,,,,,,,,,,,,,,,,,,,,,,,,,,,,,,,,,,,,,,,,,,,,,,,,,,,,,,,,,,,,,,,,,,,,,,,,
,,5ed6df4000ce5d1664eed19f,2024-01-06_01h29.05.836,kallum_motion_pilot,2023.2.3,Win32,60.24096386,5ed6df4000ce5d1664eed19f,6598e6a5d84f07970b831e70,6598f0fa91e97f5662902d94,0.0264,0.0264,0,28,28,31,1,fourthree,,,,,,,,,,,,,,,,,,,,,,,,,,,,,,,,,,,,,,,,,,,,,,,,,,,,,,,,,,,,,,,,,,,,,,,,,,,,,,,,,,,,,,,,,,,,,,,,,,,,,,,,,,,,,,,,,,,,,,,,,,,,,,,,,,,,,,,
,,5ed6df4000ce5d1664eed19f,2024-01-06_01h29.05.836,kallum_motion_pilot,2023.2.3,Win32,60.24096386,5ed6df4000ce5d1664eed19f,6598e6a5d84f07970b831e70,6598f0fa91e97f5662902d94,0.0265,0.0266,0,29,29,147,1,sixeight,,,,,,,,,,,,,,,,,,,,,,,,,,,,,,,,,,,,,,,,,,,,,,,,,,,,,,,,,,,,,,,,,,,,,,,,,,,,,,,,,,,,,,,,,,,,,,,,,,,,,,,,,,,,,,,,,,,,,,,,,,,,,,,,,,,,,,,
,,5ed6df4000ce5d1664eed19f,2024-01-06_01h29.05.836,kallum_motion_pilot,2023.2.3,Win32,60.24096386,5ed6df4000ce5d1664eed19f,6598e6a5d84f07970b831e70,6598f0fa91e97f5662902d94,0.0267,0.0267,0,30,30,127,1,eightseven,,,,,,,,,,,,,,,,,,,,,,,,,,,,,,,,,,,,,,,,,,,,,,,,,,,,,,,,,,,,,,,,,,,,,,,,,,,,,,,,,,,,,,,,,,,,,,,,,,,,,,,,,,,,,,,,,,,,,,,,,,,,,,,,,,,,,,,
,,5ed6df4000ce5d1664eed19f,2024-01-06_01h29.05.836,kallum_motion_pilot,2023.2.3,Win32,60.24096386,5ed6df4000ce5d1664eed19f,6598e6a5d84f07970b831e70,6598f0fa91e97f5662902d94,0.0268,0.0268,0,31,31,89,1,fiveseven,,,,,,,,,,,,,,,,,,,,,,,,,,,,,,,,,,,,,,,,,,,,,,,,,,,,,,,,,,,,,,,,,,,,,,,,,,,,,,,,,,,,,,,,,,,,,,,,,,,,,,,,,,,,,,,,,,,,,,,,,,,,,,,,,,,,,,,
,,5ed6df4000ce5d1664eed19f,2024-01-06_01h29.05.836,kallum_motion_pilot,2023.2.3,Win32,60.24096386,5ed6df4000ce5d1664eed19f,6598e6a5d84f07970b831e70,6598f0fa91e97f5662902d94,0.0269,0.027,0,32,32,111,1,eightseven,,,,,,,,,,,,,,,,,,,,,,,,,,,,,,,,,,,,,,,,,,,,,,,,,,,,,,,,,,,,,,,,,,,,,,,,,,,,,,,,,,,,,,,,,,,,,,,,,,,,,,,,,,,,,,,,,,,,,,,,,,,,,,,,,,,,,,,
,,5ed6df4000ce5d1664eed19f,2024-01-06_01h29.05.836,kallum_motion_pilot,2023.2.3,Win32,60.24096386,5ed6df4000ce5d1664eed19f,6598e6a5d84f07970b831e70,6598f0fa91e97f5662902d94,0.0271,0.0271,0,33,33,133,1,seveneight,,,,,,,,,,,,,,,,,,,,,,,,,,,,,,,,,,,,,,,,,,,,,,,,,,,,,,,,,,,,,,,,,,,,,,,,,,,,,,,,,,,,,,,,,,,,,,,,,,,,,,,,,,,,,,,,,,,,,,,,,,,,,,,,,,,,,,,
,,5ed6df4000ce5d1664eed19f,2024-01-06_01h29.05.836,kallum_motion_pilot,2023.2.3,Win32,60.24096386,5ed6df4000ce5d1664eed19f,6598e6a5d84f07970b831e70,6598f0fa91e97f5662902d94,0.0273,0.0274,0,34,34,20,1,threeone,,,,,,,,,,,,,,,,,,,,,,,,,,,,,,,,,,,,,,,,,,,,,,,,,,,,,,,,,,,,,,,,,,,,,,,,,,,,,,,,,,,,,,,,,,,,,,,,,,,,,,,,,,,,,,,,,,,,,,,,,,,,,,,,,,,,,,,
,,5ed6df4000ce5d1664eed19f,2024-01-06_01h29.05.836,kallum_motion_pilot,2023.2.3,Win32,60.24096386,5ed6df4000ce5d1664eed19f,6598e6a5d84f07970b831e70,6598f0fa91e97f5662902d94,0.0275,0.0275,0,35,35,112,1,fivesix,,,,,,,,,,,,,,,,,,,,,,,,,,,,,,,,,,,,,,,,,,,,,,,,,,,,,,,,,,,,,,,,,,,,,,,,,,,,,,,,,,,,,,,,,,,,,,,,,,,,,,,,,,,,,,,,,,,,,,,,,,,,,,,,,,,,,,,
,,5ed6df4000ce5d1664eed19f,2024-01-06_01h29.05.836,kallum_motion_pilot,2023.2.3,Win32,60.24096386,5ed6df4000ce5d1664eed19f,6598e6a5d84f07970b831e70,6598f0fa91e97f5662902d94,0.0277,0.0277,0,36,36,135,1,eightseven,,,,,,,,,,,,,,,,,,,,,,,,,,,,,,,,,,,,,,,,,,,,,,,,,,,,,,,,,,,,,,,,,,,,,,,,,,,,,,,,,,,,,,,,,,,,,,,,,,,,,,,,,,,,,,,,,,,,,,,,,,,,,,,,,,,,,,,
,,5ed6df4000ce5d1664eed19f,2024-01-06_01h29.05.836,kallum_motion_pilot,2023.2.3,Win32,60.24096386,5ed6df4000ce5d1664eed19f,6598e6a5d84f07970b831e70,6598f0fa91e97f5662902d94,0.0278,0.0279,0,37,37,45,1,threefour,,,,,,,,,,,,,,,,,,,,,,,,,,,,,,,,,,,,,,,,,,,,,,,,,,,,,,,,,,,,,,,,,,,,,,,,,,,,,,,,,,,,,,,,,,,,,,,,,,,,,,,,,,,,,,,,,,,,,,,,,,,,,,,,,,,,,,,
,,5ed6df4000ce5d1664eed19f,2024-01-06_01h29.05.836,kallum_motion_pilot,2023.2.3,Win32,60.24096386,5ed6df4000ce5d1664eed19f,6598e6a5d84f07970b831e70,6598f0fa91e97f5662902d94,0.0279,0.028,0,38,38,142,1,eightsix,,,,,,,,,,,,,,,,,,,,,,,,,,,,,,,,,,,,,,,,,,,,,,,,,,,,,,,,,,,,,,,,,,,,,,,,,,,,,,,,,,,,,,,,,,,,,,,,,,,,,,,,,,,,,,,,,,,,,,,,,,,,,,,,,,,,,,,
,,5ed6df4000ce5d1664eed19f,2024-01-06_01h29.05.836,kallum_motion_pilot,2023.2.3,Win32,60.24096386,5ed6df4000ce5d1664eed19f,6598e6a5d84f07970b831e70,6598f0fa91e97f5662902d94,0.0281,0.0281,0,39,39,44,1,threeone,,,,,,,,,,,,,,,,,,,,,,,,,,,,,,,,,,,,,,,,,,,,,,,,,,,,,,,,,,,,,,,,,,,,,,,,,,,,,,,,,,,,,,,,,,,,,,,,,,,,,,,,,,,,,,,,,,,,,,,,,,,,,,,,,,,,,,,
,,5ed6df4000ce5d1664eed19f,2024-01-06_01h29.05.836,kallum_motion_pilot,2023.2.3,Win32,60.24096386,5ed6df4000ce5d1664eed19f,6598e6a5d84f07970b831e70,6598f0fa91e97f5662902d94,0.0283,0.0283,0,40,40,131,1,sixeight,,,,,,,,,,,,,,,,,,,,,,,,,,,,,,,,,,,,,,,,,,,,,,,,,,,,,,,,,,,,,,,,,,,,,,,,,,,,,,,,,,,,,,,,,,,,,,,,,,,,,,,,,,,,,,,,,,,,,,,,,,,,,,,,,,,,,,,
,,5ed6df4000ce5d1664eed19f,2024-01-06_01h29.05.836,kallum_motion_pilot,2023.2.3,Win32,60.24096386,5ed6df4000ce5d1664eed19f,6598e6a5d84f07970b831e70,6598f0fa91e97f5662902d94,0.0284,0.0285,0,41,41,56,1,onetwo,,,,,,,,,,,,,,,,,,,,,,,,,,,,,,,,,,,,,,,,,,,,,,,,,,,,,,,,,,,,,,,,,,,,,,,,,,,,,,,,,,,,,,,,,,,,,,,,,,,,,,,,,,,,,,,,,,,,,,,,,,,,,,,,,,,,,,,
,,5ed6df4000ce5d1664eed19f,2024-01-06_01h29.05.836,kallum_motion_pilot,2023.2.3,Win32,60.24096386,5ed6df4000ce5d1664eed19f,6598e6a5d84f07970b831e70,6598f0fa91e97f5662902d94,0.0287,0.0287,0,42,42,69,1,threefour,,,,,,,,,,,,,,,,,,,,,,,,,,,,,,,,,,,,,,,,,,,,,,,,,,,,,,,,,,,,,,,,,,,,,,,,,,,,,,,,,,,,,,,,,,,,,,,,,,,,,,,,,,,,,,,,,,,,,,,,,,,,,,,,,,,,,,,
,,5ed6df4000ce5d1664eed19f,2024-01-06_01h29.05.836,kallum_motion_pilot,2023.2.3,Win32,60.24096386,5ed6df4000ce5d1664eed19f,6598e6a5d84f07970b831e70,6598f0fa91e97f5662902d94,0.0289,0.0289,0,43,43,30,1,fourtwo,,,,,,,,,,,,,,,,,,,,,,,,,,,,,,,,,,,,,,,,,,,,,,,,,,,,,,,,,,,,,,,,,,,,,,,,,,,,,,,,,,,,,,,,,,,,,,,,,,,,,,,,,,,,,,,,,,,,,,,,,,,,,,,,,,,,,,,
,,5ed6df4000ce5d1664eed19f,2024-01-06_01h29.05.836,kallum_motion_pilot,2023.2.3,Win32,60.24096386,5ed6df4000ce5d1664eed19f,6598e6a5d84f07970b831e70,6598f0fa91e97f5662902d94,0.029,0.0291,0,44,44,15,1,fourthree,,,,,,,,,,,,,,,,,,,,,,,,,,,,,,,,,,,,,,,,,,,,,,,,,,,,,,,,,,,,,,,,,,,,,,,,,,,,,,,,,,,,,,,,,,,,,,,,,,,,,,,,,,,,,,,,,,,,,,,,,,,,,,,,,,,,,,,
,,5ed6df4000ce5d1664eed19f,2024-01-06_01h29.05.836,kallum_motion_pilot,2023.2.3,Win32,60.24096386,5ed6df4000ce5d1664eed19f,6598e6a5d84f07970b831e70,6598f0fa91e97f5662902d94,0.0292,0.0292,0,45,45,128,1,fivesix,,,,,,,,,,,,,,,,,,,,,,,,,,,,,,,,,,,,,,,,,,,,,,,,,,,,,,,,,,,,,,,,,,,,,,,,,,,,,,,,,,,,,,,,,,,,,,,,,,,,,,,,,,,,,,,,,,,,,,,,,,,,,,,,,,,,,,,
,,5ed6df4000ce5d1664eed19f,2024-01-06_01h29.05.836,kallum_motion_pilot,2023.2.3,Win32,60.24096386,5ed6df4000ce5d1664eed19f,6598e6a5d84f07970b831e70,6598f0fa91e97f5662902d94,0.0294,0.0294,0,46,46,160,1,fivesix,,,,,,,,,,,,,,,,,,,,,,,,,,,,,,,,,,,,,,,,,,,,,,,,,,,,,,,,,,,,,,,,,,,,,,,,,,,,,,,,,,,,,,,,,,,,,,,,,,,,,,,,,,,,,,,,,,,,,,,,,,,,,,,,,,,,,,,
,,5ed6df4000ce5d1664eed19f,2024-01-06_01h29.05.836,kallum_motion_pilot,2023.2.3,Win32,60.24096386,5ed6df4000ce5d1664eed19f,6598e6a5d84f07970b831e70,6598f0fa91e97f5662902d94,0.0296,0.0297,0,47,47,137,1,fiveseven,,,,,,,,,,,,,,,,,,,,,,,,,,,,,,,,,,,,,,,,,,,,,,,,,,,,,,,,,,,,,,,,,,,,,,,,,,,,,,,,,,,,,,,,,,,,,,,,,,,,,,,,,,,,,,,,,,,,,,,,,,,,,,,,,,,,,,,
,,5ed6df4000ce5d1664eed19f,2024-01-06_01h29.05.836,kallum_motion_pilot,2023.2.3,Win32,60.24096386,5ed6df4000ce5d1664eed19f,6598e6a5d84f07970b831e70,6598f0fa91e97f5662902d94,0.0298,0.0298,0,48,48,83,1,sixeight,,,,,,,,,,,,,,,,,,,,,,,,,,,,,,,,,,,,,,,,,,,,,,,,,,,,,,,,,,,,,,,,,,,,,,,,,,,,,,,,,,,,,,,,,,,,,,,,,,,,,,,,,,,,,,,,,,,,,,,,,,,,,,,,,,,,,,,
,,5ed6df4000ce5d1664eed19f,2024-01-06_01h29.05.836,kallum_motion_pilot,2023.2.3,Win32,60.24096386,5ed6df4000ce5d1664eed19f,6598e6a5d84f07970b831e70,6598f0fa91e97f5662902d94,0.0299,0.0299,0,49,49,152,1,fivesix,,,,,,,,,,,,,,,,,,,,,,,,,,,,,,,,,,,,,,,,,,,,,,,,,,,,,,,,,,,,,,,,,,,,,,,,,,,,,,,,,,,,,,,,,,,,,,,,,,,,,,,,,,,,,,,,,,,,,,,,,,,,,,,,,,,,,,,
,,5ed6df4000ce5d1664eed19f,2024-01-06_01h29.05.836,kallum_motion_pilot,2023.2.3,Win32,60.24096386,5ed6df4000ce5d1664eed19f,6598e6a5d84f07970b831e70,6598f0fa91e97f5662902d94,0.0301,0.0303,0,50,50,106,1,sixfive,,,,,,,,,,,,,,,,,,,,,,,,,,,,,,,,,,,,,,,,,,,,,,,,,,,,,,,,,,,,,,,,,,,,,,,,,,,,,,,,,,,,,,,,,,,,,,,,,,,,,,,,,,,,,,,,,,,,,,,,,,,,,,,,,,,,,,,
,,5ed6df4000ce5d1664eed19f,2024-01-06_01h29.05.836,kallum_motion_pilot,2023.2.3,Win32,60.24096386,5ed6df4000ce5d1664eed19f,6598e6a5d84f07970b831e70,6598f0fa91e97f5662902d94,0.0314,0.0315,0,51,51,124,1,sevenfive,,,,,,,,,,,,,,,,,,,,,,,,,,,,,,,,,,,,,,,,,,,,,,,,,,,,,,,,,,,,,,,,,,,,,,,,,,,,,,,,,,,,,,,,,,,,,,,,,,,,,,,,,,,,,,,,,,,,,,,,,,,,,,,,,,,,,,,
,,5ed6df4000ce5d1664eed19f,2024-01-06_01h29.05.836,kallum_motion_pilot,2023.2.3,Win32,60.24096386,5ed6df4000ce5d1664eed19f,6598e6a5d84f07970b831e70,6598f0fa91e97f5662902d94,0.0318,0.0318,0,52,52,119,1,eightseven,,,,,,,,,,,,,,,,,,,,,,,,,,,,,,,,,,,,,,,,,,,,,,,,,,,,,,,,,,,,,,,,,,,,,,,,,,,,,,,,,,,,,,,,,,,,,,,,,,,,,,,,,,,,,,,,,,,,,,,,,,,,,,,,,,,,,,,
,,5ed6df4000ce5d1664eed19f,2024-01-06_01h29.05.836,kallum_motion_pilot,2023.2.3,Win32,60.24096386,5ed6df4000ce5d1664eed19f,6598e6a5d84f07970b831e70,6598f0fa91e97f5662902d94,0.032,0.032,0,53,53,36,1,threeone,,,,,,,,,,,,,,,,,,,,,,,,,,,,,,,,,,,,,,,,,,,,,,,,,,,,,,,,,,,,,,,,,,,,,,,,,,,,,,,,,,,,,,,,,,,,,,,,,,,,,,,,,,,,,,,,,,,,,,,,,,,,,,,,,,,,,,,
,,5ed6df4000ce5d1664eed19f,2024-01-06_01h29.05.836,kallum_motion_pilot,2023.2.3,Win32,60.24096386,5ed6df4000ce5d1664eed19f,6598e6a5d84f07970b831e70,6598f0fa91e97f5662902d94,0.0321,0.0322,0,54,54,9,1,onethree,,,,,,,,,,,,,,,,,,,,,,,,,,,,,,,,,,,,,,,,,,,,,,,,,,,,,,,,,,,,,,,,,,,,,,,,,,,,,,,,,,,,,,,,,,,,,,,,,,,,,,,,,,,,,,,,,,,,,,,,,,,,,,,,,,,,,,,
,,5ed6df4000ce5d1664eed19f,2024-01-06_01h29.05.836,kallum_motion_pilot,2023.2.3,Win32,60.24096386,5ed6df4000ce5d1664eed19f,6598e6a5d84f07970b831e70,6598f0fa91e97f5662902d94,0.0324,0.0324,0,55,55,153,1,fiveseven,,,,,,,,,,,,,,,,,,,,,,,,,,,,,,,,,,,,,,,,,,,,,,,,,,,,,,,,,,,,,,,,,,,,,,,,,,,,,,,,,,,,,,,,,,,,,,,,,,,,,,,,,,,,,,,,,,,,,,,,,,,,,,,,,,,,,,,
,,5ed6df4000ce5d1664eed19f,2024-01-06_01h29.05.836,kallum_motion_pilot,2023.2.3,Win32,60.24096386,5ed6df4000ce5d1664eed19f,6598e6a5d84f07970b831e70,6598f0fa91e97f5662902d94,0.0325,0.0326,0,56,56,63,1,fourthree,,,,,,,,,,,,,,,,,,,,,,,,,,,,,,,,,,,,,,,,,,,,,,,,,,,,,,,,,,,,,,,,,,,,,,,,,,,,,,,,,,,,,,,,,,,,,,,,,,,,,,,,,,,,,,,,,,,,,,,,,,,,,,,,,,,,,,,
,,5ed6df4000ce5d1664eed19f,2024-01-06_01h29.05.836,kallum_motion_pilot,2023.2.3,Win32,60.24096386,5ed6df4000ce5d1664eed19f,6598e6a5d84f07970b831e70,6598f0fa91e97f5662902d94,0.0326,0.0326,0,57,57,64,1,onetwo,,,,,,,,,,,,,,,,,,,,,,,,,,,,,,,,,,,,,,,,,,,,,,,,,,,,,,,,,,,,,,,,,,,,,,,,,,,,,,,,,,,,,,,,,,,,,,,,,,,,,,,,,,,,,,,,,,,,,,,,,,,,,,,,,,,,,,,
,,5ed6df4000ce5d1664eed19f,2024-01-06_01h29.05.836,kallum_motion_pilot,2023.2.3,Win32,60.24096386,5ed6df4000ce5d1664eed19f,6598e6a5d84f07970b831e70,6598f0fa91e97f5662902d94,0.0327,0.0328,0,58,58,41,1,onethree,,,,,,,,,,,,,,,,,,,,,,,,,,,,,,,,,,,,,,,,,,,,,,,,,,,,,,,,,,,,,,,,,,,,,,,,,,,,,,,,,,,,,,,,,,,,,,,,,,,,,,,,,,,,,,,,,,,,,,,,,,,,,,,,,,,,,,,
,,5ed6df4000ce5d1664eed19f,2024-01-06_01h29.05.836,kallum_motion_pilot,2023.2.3,Win32,60.24096386,5ed6df4000ce5d1664eed19f,6598e6a5d84f07970b831e70,6598f0fa91e97f5662902d94,0.0328,0.0329,0,59,59,23,1,fourthree,,,,,,,,,,,,,,,,,,,,,,,,,,,,,,,,,,,,,,,,,,,,,,,,,,,,,,,,,,,,,,,,,,,,,,,,,,,,,,,,,,,,,,,,,,,,,,,,,,,,,,,,,,,,,,,,,,,,,,,,,,,,,,,,,,,,,,,
,,5ed6df4000ce5d1664eed19f,2024-01-06_01h29.05.836,kallum_motion_pilot,2023.2.3,Win32,60.24096386,5ed6df4000ce5d1664eed19f,6598e6a5d84f07970b831e70,6598f0fa91e97f5662902d94,0.033,0.033,0,60,60,68,1,threeone,,,,,,,,,,,,,,,,,,,,,,,,,,,,,,,,,,,,,,,,,,,,,,,,,,,,,,,,,,,,,,,,,,,,,,,,,,,,,,,,,,,,,,,,,,,,,,,,,,,,,,,,,,,,,,,,,,,,,,,,,,,,,,,,,,,,,,,
,,5ed6df4000ce5d1664eed19f,2024-01-06_01h29.05.836,kallum_motion_pilot,2023.2.3,Win32,60.24096386,5ed6df4000ce5d1664eed19f,6598e6a5d84f07970b831e70,6598f0fa91e97f5662902d94,0.0331,0.0331,0,61,61,51,1,twofour,,,,,,,,,,,,,,,,,,,,,,,,,,,,,,,,,,,,,,,,,,,,,,,,,,,,,,,,,,,,,,,,,,,,,,,,,,,,,,,,,,,,,,,,,,,,,,,,,,,,,,,,,,,,,,,,,,,,,,,,,,,,,,,,,,,,,,,
,,5ed6df4000ce5d1664eed19f,2024-01-06_01h29.05.836,kallum_motion_pilot,2023.2.3,Win32,60.24096386,5ed6df4000ce5d1664eed19f,6598e6a5d84f07970b831e70,6598f0fa91e97f5662902d94,0.0332,0.0333,0,62,62,53,1,threefour,,,,,,,,,,,,,,,,,,,,,,,,,,,,,,,,,,,,,,,,,,,,,,,,,,,,,,,,,,,,,,,,,,,,,,,,,,,,,,,,,,,,,,,,,,,,,,,,,,,,,,,,,,,,,,,,,,,,,,,,,,,,,,,,,,,,,,,
,,5ed6df4000ce5d1664eed19f,2024-01-06_01h29.05.836,kallum_motion_pilot,2023.2.3,Win32,60.24096386,5ed6df4000ce5d1664eed19f,6598e6a5d84f07970b831e70,6598f0fa91e97f5662902d94,0.0333,0.0334,0,63,63,59,1,twofour,,,,,,,,,,,,,,,,,,,,,,,,,,,,,,,,,,,,,,,,,,,,,,,,,,,,,,,,,,,,,,,,,,,,,,,,,,,,,,,,,,,,,,,,,,,,,,,,,,,,,,,,,,,,,,,,,,,,,,,,,,,,,,,,,,,,,,,
,,5ed6df4000ce5d1664eed19f,2024-01-06_01h29.05.836,kallum_motion_pilot,2023.2.3,Win32,60.24096386,5ed6df4000ce5d1664eed19f,6598e6a5d84f07970b831e70,6598f0fa91e97f5662902d94,0.0335,0.0335,0,64,64,96,1,fivesix,,,,,,,,,,,,,,,,,,,,,,,,,,,,,,,,,,,,,,,,,,,,,,,,,,,,,,,,,,,,,,,,,,,,,,,,,,,,,,,,,,,,,,,,,,,,,,,,,,,,,,,,,,,,,,,,,,,,,,,,,,,,,,,,,,,,,,,
,,5ed6df4000ce5d1664eed19f,2024-01-06_01h29.05.836,kallum_motion_pilot,2023.2.3,Win32,60.24096386,5ed6df4000ce5d1664eed19f,6598e6a5d84f07970b831e70,6598f0fa91e97f5662902d94,0.0337,0.0337,0,65,65,150,1,eightsix,,,,,,,,,,,,,,,,,,,,,,,,,,,,,,,,,,,,,,,,,,,,,,,,,,,,,,,,,,,,,,,,,,,,,,,,,,,,,,,,,,,,,,,,,,,,,,,,,,,,,,,,,,,,,,,,,,,,,,,,,,,,,,,,,,,,,,,
,,5ed6df4000ce5d1664eed19f,2024-01-06_01h29.05.836,kallum_motion_pilot,2023.2.3,Win32,60.24096386,5ed6df4000ce5d1664eed19f,6598e6a5d84f07970b831e70,6598f0fa91e97f5662902d94,0.0338,0.0339,0,66,66,155,1,sixeight,,,,,,,,,,,,,,,,,,,,,,,,,,,,,,,,,,,,,,,,,,,,,,,,,,,,,,,,,,,,,,,,,,,,,,,,,,,,,,,,,,,,,,,,,,,,,,,,,,,,,,,,,,,,,,,,,,,,,,,,,,,,,,,,,,,,,,,
,,5ed6df4000ce5d1664eed19f,2024-01-06_01h29.05.836,kallum_motion_pilot,2023.2.3,Win32,60.24096386,5ed6df4000ce5d1664eed19f,6598e6a5d84f07970b831e70,6598f0fa91e97f5662902d94,0.034,0.034,0,67,67,26,1,twoone,,,,,,,,,,,,,,,,,,,,,,,,,,,,,,,,,,,,,,,,,,,,,,,,,,,,,,,,,,,,,,,,,,,,,,,,,,,,,,,,,,,,,,,,,,,,,,,,,,,,,,,,,,,,,,,,,,,,,,,,,,,,,,,,,,,,,,,
,,5ed6df4000ce5d1664eed19f,2024-01-06_01h29.05.836,kallum_motion_pilot,2023.2.3,Win32,60.24096386,5ed6df4000ce5d1664eed19f,6598e6a5d84f07970b831e70,6598f0fa91e97f5662902d94,0.0341,0.0341,0,68,68,62,1,fourtwo,,,,,,,,,,,,,,,,,,,,,,,,,,,,,,,,,,,,,,,,,,,,,,,,,,,,,,,,,,,,,,,,,,,,,,,,,,,,,,,,,,,,,,,,,,,,,,,,,,,,,,,,,,,,,,,,,,,,,,,,,,,,,,,,,,,,,,,
,,5ed6df4000ce5d1664eed19f,2024-01-06_01h29.05.836,kallum_motion_pilot,2023.2.3,Win32,60.24096386,5ed6df4000ce5d1664eed19f,6598e6a5d84f07970b831e70,6598f0fa91e97f5662902d94,0.0342,0.0343,0,69,69,115,1,sixeight,,,,,,,,,,,,,,,,,,,,,,,,,,,,,,,,,,,,,,,,,,,,,,,,,,,,,,,,,,,,,,,,,,,,,,,,,,,,,,,,,,,,,,,,,,,,,,,,,,,,,,,,,,,,,,,,,,,,,,,,,,,,,,,,,,,,,,,
,,5ed6df4000ce5d1664eed19f,2024-01-06_01h29.05.836,kallum_motion_pilot,2023.2.3,Win32,60.24096386,5ed6df4000ce5d1664eed19f,6598e6a5d84f07970b831e70,6598f0fa91e97f5662902d94,0.0344,0.0345,0,70,70,134,1,eightsix,,,,,,,,,,,,,,,,,,,,,,,,,,,,,,,,,,,,,,,,,,,,,,,,,,,,,,,,,,,,,,,,,,,,,,,,,,,,,,,,,,,,,,,,,,,,,,,,,,,,,,,,,,,,,,,,,,,,,,,,,,,,,,,,,,,,,,,
,,5ed6df4000ce5d1664eed19f,2024-01-06_01h29.05.836,kallum_motion_pilot,2023.2.3,Win32,60.24096386,5ed6df4000ce5d1664eed19f,6598e6a5d84f07970b831e70,6598f0fa91e97f5662902d94,0.0345,0.0346,0,71,71,19,1,twofour,,,,,,,,,,,,,,,,,,,,,,,,,,,,,,,,,,,,,,,,,,,,,,,,,,,,,,,,,,,,,,,,,,,,,,,,,,,,,,,,,,,,,,,,,,,,,,,,,,,,,,,,,,,,,,,,,,,,,,,,,,,,,,,,,,,,,,,
,,5ed6df4000ce5d1664eed19f,2024-01-06_01h29.05.836,kallum_motion_pilot,2023.2.3,Win32,60.24096386,5ed6df4000ce5d1664eed19f,6598e6a5d84f07970b831e70,6598f0fa91e97f5662902d94,0.0346,0.0347,0,72,72,87,1,eightseven,,,,,,,,,,,,,,,,,,,,,,,,,,,,,,,,,,,,,,,,,,,,,,,,,,,,,,,,,,,,,,,,,,,,,,,,,,,,,,,,,,,,,,,,,,,,,,,,,,,,,,,,,,,,,,,,,,,,,,,,,,,,,,,,,,,,,,,
,,5ed6df4000ce5d1664eed19f,2024-01-06_01h29.05.836,kallum_motion_pilot,2023.2.3,Win32,60.24096386,5ed6df4000ce5d1664eed19f,6598e6a5d84f07970b831e70,6598f0fa91e97f5662902d94,0.0347,0.0347,0,73,73,92,1,sevenfive,,,,,,,,,,,,,,,,,,,,,,,,,,,,,,,,,,,,,,,,,,,,,,,,,,,,,,,,,,,,,,,,,,,,,,,,,,,,,,,,,,,,,,,,,,,,,,,,,,,,,,,,,,,,,,,,,,,,,,,,,,,,,,,,,,,,,,,
,,5ed6df4000ce5d1664eed19f,2024-01-06_01h29.05.836,kallum_motion_pilot,2023.2.3,Win32,60.24096386,5ed6df4000ce5d1664eed19f,6598e6a5d84f07970b831e70,6598f0fa91e97f5662902d94,0.0348,0.0349,0,74,74,125,1,seveneight,,,,,,,,,,,,,,,,,,,,,,,,,,,,,,,,,,,,,,,,,,,,,,,,,,,,,,,,,,,,,,,,,,,,,,,,,,,,,,,,,,,,,,,,,,,,,,,,,,,,,,,,,,,,,,,,,,,,,,,,,,,,,,,,,,,,,,,
,,5ed6df4000ce5d1664eed19f,2024-01-06_01h29.05.836,kallum_motion_pilot,2023.2.3,Win32,60.24096386,5ed6df4000ce5d1664eed19f,6598e6a5d84f07970b831e70,6598f0fa91e97f5662902d94,0.0349,0.0349,0,75,75,1,1,onethree,,,,,,,,,,,,,,,,,,,,,,,,,,,,,,,,,,,,,,,,,,,,,,,,,,,,,,,,,,,,,,,,,,,,,,,,,,,,,,,,,,,,,,,,,,,,,,,,,,,,,,,,,,,,,,,,,,,,,,,,,,,,,,,,,,,,,,,
,,5ed6df4000ce5d1664eed19f,2024-01-06_01h29.05.836,kallum_motion_pilot,2023.2.3,Win32,60.24096386,5ed6df4000ce5d1664eed19f,6598e6a5d84f07970b831e70,6598f0fa91e97f5662902d94,0.035,0.035,0,76,76,102,1,eightsix,,,,,,,,,,,,,,,,,,,,,,,,,,,,,,,,,,,,,,,,,,,,,,,,,,,,,,,,,,,,,,,,,,,,,,,,,,,,,,,,,,,,,,,,,,,,,,,,,,,,,,,,,,,,,,,,,,,,,,,,,,,,,,,,,,,,,,,
,,5ed6df4000ce5d1664eed19f,2024-01-06_01h29.05.836,kallum_motion_pilot,2023.2.3,Win32,60.24096386,5ed6df4000ce5d1664eed19f,6598e6a5d84f07970b831e70,6598f0fa91e97f5662902d94,0.0351,0.0351,0,77,77,101,1,seveneight,,,,,,,,,,,,,,,,,,,,,,,,,,,,,,,,,,,,,,,,,,,,,,,,,,,,,,,,,,,,,,,,,,,,,,,,,,,,,,,,,,,,,,,,,,,,,,,,,,,,,,,,,,,,,,,,,,,,,,,,,,,,,,,,,,,,,,,
,,5ed6df4000ce5d1664eed19f,2024-01-06_01h29.05.836,kallum_motion_pilot,2023.2.3,Win32,60.24096386,5ed6df4000ce5d1664eed19f,6598e6a5d84f07970b831e70,6598f0fa91e97f5662902d94,0.0352,0.0352,0,78,78,145,1,fiveseven,,,,,,,,,,,,,,,,,,,,,,,,,,,,,,,,,,,,,,,,,,,,,,,,,,,,,,,,,,,,,,,,,,,,,,,,,,,,,,,,,,,,,,,,,,,,,,,,,,,,,,,,,,,,,,,,,,,,,,,,,,,,,,,,,,,,,,,
,,5ed6df4000ce5d1664eed19f,2024-01-06_01h29.05.836,kallum_motion_pilot,2023.2.3,Win32,60.24096386,5ed6df4000ce5d1664eed19f,6598e6a5d84f07970b831e70,6598f0fa91e97f5662902d94,0.0353,0.0353,0,79,79,99,1,sixeight,,,,,,,,,,,,,,,,,,,,,,,,,,,,,,,,,,,,,,,,,,,,,,,,,,,,,,,,,,,,,,,,,,,,,,,,,,,,,,,,,,,,,,,,,,,,,,,,,,,,,,,,,,,,,,,,,,,,,,,,,,,,,,,,,,,,,,,
,,5ed6df4000ce5d1664eed19f,2024-01-06_01h29.05.836,kallum_motion_pilot,2023.2.3,Win32,60.24096386,5ed6df4000ce5d1664eed19f,6598e6a5d84f07970b831e70,6598f0fa91e97f5662902d94,0.0354,0.0354,0,80,80,6,1,fourtwo,,,,,,,,,,,,,,,,,,,,,,,,,,,,,,,,,,,,,,,,,,,,,,,,,,,,,,,,,,,,,,,,,,,,,,,,,,,,,,,,,,,,,,,,,,,,,,,,,,,,,,,,,,,,,,,,,,,,,,,,,,,,,,,,,,,,,,,
,,5ed6df4000ce5d1664eed19f,2024-01-06_01h29.05.836,kallum_motion_pilot,2023.2.3,Win32,60.24096386,5ed6df4000ce5d1664eed19f,6598e6a5d84f07970b831e70,6598f0fa91e97f5662902d94,0.0355,0.0355,0,81,81,139,1,sixeight,,,,,,,,,,,,,,,,,,,,,,,,,,,,,,,,,,,,,,,,,,,,,,,,,,,,,,,,,,,,,,,,,,,,,,,,,,,,,,,,,,,,,,,,,,,,,,,,,,,,,,,,,,,,,,,,,,,,,,,,,,,,,,,,,,,,,,,
,,5ed6df4000ce5d1664eed19f,2024-01-06_01h29.05.836,kallum_motion_pilot,2023.2.3,Win32,60.24096386,5ed6df4000ce5d1664eed19f,6598e6a5d84f07970b831e70,6598f0fa91e97f5662902d94,0.0356,0.0357,0,82,82,82,1,sixfive,,,,,,,,,,,,,,,,,,,,,,,,,,,,,,,,,,,,,,,,,,,,,,,,,,,,,,,,,,,,,,,,,,,,,,,,,,,,,,,,,,,,,,,,,,,,,,,,,,,,,,,,,,,,,,,,,,,,,,,,,,,,,,,,,,,,,,,
,,5ed6df4000ce5d1664eed19f,2024-01-06_01h29.05.836,kallum_motion_pilot,2023.2.3,Win32,60.24096386,5ed6df4000ce5d1664eed19f,6598e6a5d84f07970b831e70,6598f0fa91e97f5662902d94,0.0357,0.0357,0,83,83,22,1,fourtwo,,,,,,,,,,,,,,,,,,,,,,,,,,,,,,,,,,,,,,,,,,,,,,,,,,,,,,,,,,,,,,,,,,,,,,,,,,,,,,,,,,,,,,,,,,,,,,,,,,,,,,,,,,,,,,,,,,,,,,,,,,,,,,,,,,,,,,,
,,5ed6df4000ce5d1664eed19f,2024-01-06_01h29.05.836,kallum_motion_pilot,2023.2.3,Win32,60.24096386,5ed6df4000ce5d1664eed19f,6598e6a5d84f07970b831e70,6598f0fa91e97f5662902d94,0.0358,0.0359,0,84,84,70,1,fourtwo,,,,,,,,,,,,,,,,,,,,,,,,,,,,,,,,,,,,,,,,,,,,,,,,,,,,,,,,,,,,,,,,,,,,,,,,,,,,,,,,,,,,,,,,,,,,,,,,,,,,,,,,,,,,,,,,,,,,,,,,,,,,,,,,,,,,,,,
,,5ed6df4000ce5d1664eed19f,2024-01-06_01h29.05.836,kallum_motion_pilot,2023.2.3,Win32,60.24096386,5ed6df4000ce5d1664eed19f,6598e6a5d84f07970b831e70,6598f0fa91e97f5662902d94,0.0359,0.0359,0,85,85,143,1,eightseven,,,,,,,,,,,,,,,,,,,,,,,,,,,,,,,,,,,,,,,,,,,,,,,,,,,,,,,,,,,,,,,,,,,,,,,,,,,,,,,,,,,,,,,,,,,,,,,,,,,,,,,,,,,,,,,,,,,,,,,,,,,,,,,,,,,,,,,
,,5ed6df4000ce5d1664eed19f,2024-01-06_01h29.05.836,kallum_motion_pilot,2023.2.3,Win32,60.24096386,5ed6df4000ce5d1664eed19f,6598e6a5d84f07970b831e70,6598f0fa91e97f5662902d94,0.036,0.036,0,86,86,113,1,fiveseven,,,,,,,,,,,,,,,,,,,,,,,,,,,,,,,,,,,,,,,,,,,,,,,,,,,,,,,,,,,,,,,,,,,,,,,,,,,,,,,,,,,,,,,,,,,,,,,,,,,,,,,,,,,,,,,,,,,,,,,,,,,,,,,,,,,,,,,
,,5ed6df4000ce5d1664eed19f,2024-01-06_01h29.05.836,kallum_motion_pilot,2023.2.3,Win32,60.24096386,5ed6df4000ce5d1664eed19f,6598e6a5d84f07970b831e70,6598f0fa91e97f5662902d94,0.036,0.0361,0,87,87,86,1,eightsix,,,,,,,,,,,,,,,,,,,,,,,,,,,,,,,,,,,,,,,,,,,,,,,,,,,,,,,,,,,,,,,,,,,,,,,,,,,,,,,,,,,,,,,,,,,,,,,,,,,,,,,,,,,,,,,,,,,,,,,,,,,,,,,,,,,,,,,
,,5ed6df4000ce5d1664eed19f,2024-01-06_01h29.05.836,kallum_motion_pilot,2023.2.3,Win32,60.24096386,5ed6df4000ce5d1664eed19f,6598e6a5d84f07970b831e70,6598f0fa91e97f5662902d94,0.0361,0.0362,0,88,88,24,1,onetwo,,,,,,,,,,,,,,,,,,,,,,,,,,,,,,,,,,,,,,,,,,,,,,,,,,,,,,,,,,,,,,,,,,,,,,,,,,,,,,,,,,,,,,,,,,,,,,,,,,,,,,,,,,,,,,,,,,,,,,,,,,,,,,,,,,,,,,,
,,5ed6df4000ce5d1664eed19f,2024-01-06_01h29.05.836,kallum_motion_pilot,2023.2.3,Win32,60.24096386,5ed6df4000ce5d1664eed19f,6598e6a5d84f07970b831e70,6598f0fa91e97f5662902d94,0.0363,0.0363,0,89,89,65,1,onethree,,,,,,,,,,,,,,,,,,,,,,,,,,,,,,,,,,,,,,,,,,,,,,,,,,,,,,,,,,,,,,,,,,,,,,,,,,,,,,,,,,,,,,,,,,,,,,,,,,,,,,,,,,,,,,,,,,,,,,,,,,,,,,,,,,,,,,,
,,5ed6df4000ce5d1664eed19f,2024-01-06_01h29.05.836,kallum_motion_pilot,2023.2.3,Win32,60.24096386,5ed6df4000ce5d1664eed19f,6598e6a5d84f07970b831e70,6598f0fa91e97f5662902d94,0.0364,0.0365,0,90,90,66,1,twoone,,,,,,,,,,,,,,,,,,,,,,,,,,,,,,,,,,,,,,,,,,,,,,,,,,,,,,,,,,,,,,,,,,,,,,,,,,,,,,,,,,,,,,,,,,,,,,,,,,,,,,,,,,,,,,,,,,,,,,,,,,,,,,,,,,,,,,,
,,5ed6df4000ce5d1664eed19f,2024-01-06_01h29.05.836,kallum_motion_pilot,2023.2.3,Win32,60.24096386,5ed6df4000ce5d1664eed19f,6598e6a5d84f07970b831e70,6598f0fa91e97f5662902d94,0.0365,0.0366,0,91,91,78,1,fourtwo,,,,,,,,,,,,,,,,,,,,,,,,,,,,,,,,,,,,,,,,,,,,,,,,,,,,,,,,,,,,,,,,,,,,,,,,,,,,,,,,,,,,,,,,,,,,,,,,,,,,,,,,,,,,,,,,,,,,,,,,,,,,,,,,,,,,,,,
,,5ed6df4000ce5d1664eed19f,2024-01-06_01h29.05.836,kallum_motion_pilot,2023.2.3,Win32,60.24096386,5ed6df4000ce5d1664eed19f,6598e6a5d84f07970b831e70,6598f0fa91e97f5662902d94,0.0366,0.0367,0,92,92,132,1,sevenfive,,,,,,,,,,,,,,,,,,,,,,,,,,,,,,,,,,,,,,,,,,,,,,,,,,,,,,,,,,,,,,,,,,,,,,,,,,,,,,,,,,,,,,,,,,,,,,,,,,,,,,,,,,,,,,,,,,,,,,,,,,,,,,,,,,,,,,,
,,5ed6df4000ce5d1664eed19f,2024-01-06_01h29.05.836,kallum_motion_pilot,2023.2.3,Win32,60.24096386,5ed6df4000ce5d1664eed19f,6598e6a5d84f07970b831e70,6598f0fa91e97f5662902d94,0.0368,0.0368,0,93,93,117,1,seveneight,,,,,,,,,,,,,,,,,,,,,,,,,,,,,,,,,,,,,,,,,,,,,,,,,,,,,,,,,,,,,,,,,,,,,,,,,,,,,,,,,,,,,,,,,,,,,,,,,,,,,,,,,,,,,,,,,,,,,,,,,,,,,,,,,,,,,,,
,,5ed6df4000ce5d1664eed19f,2024-01-06_01h29.05.836,kallum_motion_pilot,2023.2.3,Win32,60.24096386,5ed6df4000ce5d1664eed19f,6598e6a5d84f07970b831e70,6598f0fa91e97f5662902d94,0.037,0.037,0,94,94,0,1,onetwo,,,,,,,,,,,,,,,,,,,,,,,,,,,,,,,,,,,,,,,,,,,,,,,,,,,,,,,,,,,,,,,,,,,,,,,,,,,,,,,,,,,,,,,,,,,,,,,,,,,,,,,,,,,,,,,,,,,,,,,,,,,,,,,,,,,,,,,
,,5ed6df4000ce5d1664eed19f,2024-01-06_01h29.05.836,kallum_motion_pilot,2023.2.3,Win32,60.24096386,5ed6df4000ce5d1664eed19f,6598e6a5d84f07970b831e70,6598f0fa91e97f5662902d94,0.037,0.037,0,95,95,39,1,fourthree,,,,,,,,,,,,,,,,,,,,,,,,,,,,,,,,,,,,,,,,,,,,,,,,,,,,,,,,,,,,,,,,,,,,,,,,,,,,,,,,,,,,,,,,,,,,,,,,,,,,,,,,,,,,,,,,,,,,,,,,,,,,,,,,,,,,,,,
,,5ed6df4000ce5d1664eed19f,2024-01-06_01h29.05.836,kallum_motion_pilot,2023.2.3,Win32,60.24096386,5ed6df4000ce5d1664eed19f,6598e6a5d84f07970b831e70,6598f0fa91e97f5662902d94,0.0372,0.0372,0,96,96,105,1,fiveseven,,,,,,,,,,,,,,,,,,,,,,,,,,,,,,,,,,,,,,,,,,,,,,,,,,,,,,,,,,,,,,,,,,,,,,,,,,,,,,,,,,,,,,,,,,,,,,,,,,,,,,,,,,,,,,,,,,,,,,,,,,,,,,,,,,,,,,,
,,5ed6df4000ce5d1664eed19f,2024-01-06_01h29.05.836,kallum_motion_pilot,2023.2.3,Win32,60.24096386,5ed6df4000ce5d1664eed19f,6598e6a5d84f07970b831e70,6598f0fa91e97f5662902d94,0.0373,0.0373,0,97,97,28,1,threeone,,,,,,,,,,,,,,,,,,,,,,,,,,,,,,,,,,,,,,,,,,,,,,,,,,,,,,,,,,,,,,,,,,,,,,,,,,,,,,,,,,,,,,,,,,,,,,,,,,,,,,,,,,,,,,,,,,,,,,,,,,,,,,,,,,,,,,,
,,5ed6df4000ce5d1664eed19f,2024-01-06_01h29.05.836,kallum_motion_pilot,2023.2.3,Win32,60.24096386,5ed6df4000ce5d1664eed19f,6598e6a5d84f07970b831e70,6598f0fa91e97f5662902d94,0.0374,0.0374,0,98,98,10,1,twoone,,,,,,,,,,,,,,,,,,,,,,,,,,,,,,,,,,,,,,,,,,,,,,,,,,,,,,,,,,,,,,,,,,,,,,,,,,,,,,,,,,,,,,,,,,,,,,,,,,,,,,,,,,,,,,,,,,,,,,,,,,,,,,,,,,,,,,,
,,5ed6df4000ce5d1664eed19f,2024-01-06_01h29.05.836,kallum_motion_pilot,2023.2.3,Win32,60.24096386,5ed6df4000ce5d1664eed19f,6598e6a5d84f07970b831e70,6598f0fa91e97f5662902d94,0.0375,0.0375,0,99,99,118,1,eightsix,,,,,,,,,,,,,,,,,,,,,,,,,,,,,,,,,,,,,,,,,,,,,,,,,,,,,,,,,,,,,,,,,,,,,,,,,,,,,,,,,,,,,,,,,,,,,,,,,,,,,,,,,,,,,,,,,,,,,,,,,,,,,,,,,,,,,,,
,,5ed6df4000ce5d1664eed19f,2024-01-06_01h29.05.836,kallum_motion_pilot,2023.2.3,Win32,60.24096386,5ed6df4000ce5d1664eed19f,6598e6a5d84f07970b831e70,6598f0fa91e97f5662902d94,0.0376,0.0376,0,100,100,136,1,fivesix,,,,,,,,,,,,,,,,,,,,,,,,,,,,,,,,,,,,,,,,,,,,,,,,,,,,,,,,,,,,,,,,,,,,,,,,,,,,,,,,,,,,,,,,,,,,,,,,,,,,,,,,,,,,,,,,,,,,,,,,,,,,,,,,,,,,,,,
,,5ed6df4000ce5d1664eed19f,2024-01-06_01h29.05.836,kallum_motion_pilot,2023.2.3,Win32,60.24096386,5ed6df4000ce5d1664eed19f,6598e6a5d84f07970b831e70,6598f0fa91e97f5662902d94,0.0376,0.0377,0,101,101,120,1,fivesix,,,,,,,,,,,,,,,,,,,,,,,,,,,,,,,,,,,,,,,,,,,,,,,,,,,,,,,,,,,,,,,,,,,,,,,,,,,,,,,,,,,,,,,,,,,,,,,,,,,,,,,,,,,,,,,,,,,,,,,,,,,,,,,,,,,,,,,
,,5ed6df4000ce5d1664eed19f,2024-01-06_01h29.05.836,kallum_motion_pilot,2023.2.3,Win32,60.24096386,5ed6df4000ce5d1664eed19f,6598e6a5d84f07970b831e70,6598f0fa91e97f5662902d94,0.0377,0.0378,0,102,102,94,1,eightsix,,,,,,,,,,,,,,,,,,,,,,,,,,,,,,,,,,,,,,,,,,,,,,,,,,,,,,,,,,,,,,,,,,,,,,,,,,,,,,,,,,,,,,,,,,,,,,,,,,,,,,,,,,,,,,,,,,,,,,,,,,,,,,,,,,,,,,,
,,5ed6df4000ce5d1664eed19f,2024-01-06_01h29.05.836,kallum_motion_pilot,2023.2.3,Win32,60.24096386,5ed6df4000ce5d1664eed19f,6598e6a5d84f07970b831e70,6598f0fa91e97f5662902d94,0.0378,0.0379,0,103,103,121,1,fiveseven,,,,,,,,,,,,,,,,,,,,,,,,,,,,,,,,,,,,,,,,,,,,,,,,,,,,,,,,,,,,,,,,,,,,,,,,,,,,,,,,,,,,,,,,,,,,,,,,,,,,,,,,,,,,,,,,,,,,,,,,,,,,,,,,,,,,,,,
,,5ed6df4000ce5d1664eed19f,2024-01-06_01h29.05.836,kallum_motion_pilot,2023.2.3,Win32,60.24096386,5ed6df4000ce5d1664eed19f,6598e6a5d84f07970b831e70,6598f0fa91e97f5662902d94,0.0379,0.0379,0,104,104,77,1,threefour,,,,,,,,,,,,,,,,,,,,,,,,,,,,,,,,,,,,,,,,,,,,,,,,,,,,,,,,,,,,,,,,,,,,,,,,,,,,,,,,,,,,,,,,,,,,,,,,,,,,,,,,,,,,,,,,,,,,,,,,,,,,,,,,,,,,,,,
,,5ed6df4000ce5d1664eed19f,2024-01-06_01h29.05.836,kallum_motion_pilot,2023.2.3,Win32,60.24096386,5ed6df4000ce5d1664eed19f,6598e6a5d84f07970b831e70,6598f0fa91e97f5662902d94,0.038,0.038,0,105,105,47,1,fourthree,,,,,,,,,,,,,,,,,,,,,,,,,,,,,,,,,,,,,,,,,,,,,,,,,,,,,,,,,,,,,,,,,,,,,,,,,,,,,,,,,,,,,,,,,,,,,,,,,,,,,,,,,,,,,,,,,,,,,,,,,,,,,,,,,,,,,,,
,,5ed6df4000ce5d1664eed19f,2024-01-06_01h29.05.836,kallum_motion_pilot,2023.2.3,Win32,60.24096386,5ed6df4000ce5d1664eed19f,6598e6a5d84f07970b831e70,6598f0fa91e97f5662902d94,0.0381,0.0381,0,106,106,149,1,seveneight,,,,,,,,,,,,,,,,,,,,,,,,,,,,,,,,,,,,,,,,,,,,,,,,,,,,,,,,,,,,,,,,,,,,,,,,,,,,,,,,,,,,,,,,,,,,,,,,,,,,,,,,,,,,,,,,,,,,,,,,,,,,,,,,,,,,,,,
,,5ed6df4000ce5d1664eed19f,2024-01-06_01h29.05.836,kallum_motion_pilot,2023.2.3,Win32,60.24096386,5ed6df4000ce5d1664eed19f,6598e6a5d84f07970b831e70,6598f0fa91e97f5662902d94,0.0382,0.0382,0,107,107,108,1,sevenfive,,,,,,,,,,,,,,,,,,,,,,,,,,,,,,,,,,,,,,,,,,,,,,,,,,,,,,,,,,,,,,,,,,,,,,,,,,,,,,,,,,,,,,,,,,,,,,,,,,,,,,,,,,,,,,,,,,,,,,,,,,,,,,,,,,,,,,,
,,5ed6df4000ce5d1664eed19f,2024-01-06_01h29.05.836,kallum_motion_pilot,2023.2.3,Win32,60.24096386,5ed6df4000ce5d1664eed19f,6598e6a5d84f07970b831e70,6598f0fa91e97f5662902d94,0.0382,0.0383,0,108,108,97,1,fiveseven,,,,,,,,,,,,,,,,,,,,,,,,,,,,,,,,,,,,,,,,,,,,,,,,,,,,,,,,,,,,,,,,,,,,,,,,,,,,,,,,,,,,,,,,,,,,,,,,,,,,,,,,,,,,,,,,,,,,,,,,,,,,,,,,,,,,,,,
,,5ed6df4000ce5d1664eed19f,2024-01-06_01h29.05.836,kallum_motion_pilot,2023.2.3,Win32,60.24096386,5ed6df4000ce5d1664eed19f,6598e6a5d84f07970b831e70,6598f0fa91e97f5662902d94,0.0383,0.0384,0,109,109,46,1,fourtwo,,,,,,,,,,,,,,,,,,,,,,,,,,,,,,,,,,,,,,,,,,,,,,,,,,,,,,,,,,,,,,,,,,,,,,,,,,,,,,,,,,,,,,,,,,,,,,,,,,,,,,,,,,,,,,,,,,,,,,,,,,,,,,,,,,,,,,,
,,5ed6df4000ce5d1664eed19f,2024-01-06_01h29.05.836,kallum_motion_pilot,2023.2.3,Win32,60.24096386,5ed6df4000ce5d1664eed19f,6598e6a5d84f07970b831e70,6598f0fa91e97f5662902d94,0.0384,0.0385,0,110,110,58,1,twoone,,,,,,,,,,,,,,,,,,,,,,,,,,,,,,,,,,,,,,,,,,,,,,,,,,,,,,,,,,,,,,,,,,,,,,,,,,,,,,,,,,,,,,,,,,,,,,,,,,,,,,,,,,,,,,,,,,,,,,,,,,,,,,,,,,,,,,,
,,5ed6df4000ce5d1664eed19f,2024-01-06_01h29.05.836,kallum_motion_pilot,2023.2.3,Win32,60.24096386,5ed6df4000ce5d1664eed19f,6598e6a5d84f07970b831e70,6598f0fa91e97f5662902d94,0.0385,0.0385,0,111,111,76,1,threeone,,,,,,,,,,,,,,,,,,,,,,,,,,,,,,,,,,,,,,,,,,,,,,,,,,,,,,,,,,,,,,,,,,,,,,,,,,,,,,,,,,,,,,,,,,,,,,,,,,,,,,,,,,,,,,,,,,,,,,,,,,,,,,,,,,,,,,,
,,5ed6df4000ce5d1664eed19f,2024-01-06_01h29.05.836,kallum_motion_pilot,2023.2.3,Win32,60.24096386,5ed6df4000ce5d1664eed19f,6598e6a5d84f07970b831e70,6598f0fa91e97f5662902d94,0.0386,0.0387,0,112,112,42,1,twoone,,,,,,,,,,,,,,,,,,,,,,,,,,,,,,,,,,,,,,,,,,,,,,,,,,,,,,,,,,,,,,,,,,,,,,,,,,,,,,,,,,,,,,,,,,,,,,,,,,,,,,,,,,,,,,,,,,,,,,,,,,,,,,,,,,,,,,,
,,5ed6df4000ce5d1664eed19f,2024-01-06_01h29.05.836,kallum_motion_pilot,2023.2.3,Win32,60.24096386,5ed6df4000ce5d1664eed19f,6598e6a5d84f07970b831e70,6598f0fa91e97f5662902d94,0.0387,0.0388,0,113,113,7,1,fourthree,,,,,,,,,,,,,,,,,,,,,,,,,,,,,,,,,,,,,,,,,,,,,,,,,,,,,,,,,,,,,,,,,,,,,,,,,,,,,,,,,,,,,,,,,,,,,,,,,,,,,,,,,,,,,,,,,,,,,,,,,,,,,,,,,,,,,,,
,,5ed6df4000ce5d1664eed19f,2024-01-06_01h29.05.836,kallum_motion_pilot,2023.2.3,Win32,60.24096386,5ed6df4000ce5d1664eed19f,6598e6a5d84f07970b831e70,6598f0fa91e97f5662902d94,0.0388,0.0388,0,114,114,100,1,sevenfive,,,,,,,,,,,,,,,,,,,,,,,,,,,,,,,,,,,,,,,,,,,,,,,,,,,,,,,,,,,,,,,,,,,,,,,,,,,,,,,,,,,,,,,,,,,,,,,,,,,,,,,,,,,,,,,,,,,,,,,,,,,,,,,,,,,,,,,
,,5ed6df4000ce5d1664eed19f,2024-01-06_01h29.05.836,kallum_motion_pilot,2023.2.3,Win32,60.24096386,5ed6df4000ce5d1664eed19f,6598e6a5d84f07970b831e70,6598f0fa91e97f5662902d94,0.0389,0.0389,0,115,115,109,1,seveneight,,,,,,,,,,,,,,,,,,,,,,,,,,,,,,,,,,,,,,,,,,,,,,,,,,,,,,,,,,,,,,,,,,,,,,,,,,,,,,,,,,,,,,,,,,,,,,,,,,,,,,,,,,,,,,,,,,,,,,,,,,,,,,,,,,,,,,,
,,5ed6df4000ce5d1664eed19f,2024-01-06_01h29.05.836,kallum_motion_pilot,2023.2.3,Win32,60.24096386,5ed6df4000ce5d1664eed19f,6598e6a5d84f07970b831e70,6598f0fa91e97f5662902d94,0.039,0.0391,0,116,116,91,1,sixeight,,,,,,,,,,,,,,,,,,,,,,,,,,,,,,,,,,,,,,,,,,,,,,,,,,,,,,,,,,,,,,,,,,,,,,,,,,,,,,,,,,,,,,,,,,,,,,,,,,,,,,,,,,,,,,,,,,,,,,,,,,,,,,,,,,,,,,,
,,5ed6df4000ce5d1664eed19f,2024-01-06_01h29.05.836,kallum_motion_pilot,2023.2.3,Win32,60.24096386,5ed6df4000ce5d1664eed19f,6598e6a5d84f07970b831e70,6598f0fa91e97f5662902d94,0.0391,0.0391,0,117,117,144,1,fivesix,,,,,,,,,,,,,,,,,,,,,,,,,,,,,,,,,,,,,,,,,,,,,,,,,,,,,,,,,,,,,,,,,,,,,,,,,,,,,,,,,,,,,,,,,,,,,,,,,,,,,,,,,,,,,,,,,,,,,,,,,,,,,,,,,,,,,,,
,,5ed6df4000ce5d1664eed19f,2024-01-06_01h29.05.836,kallum_motion_pilot,2023.2.3,Win32,60.24096386,5ed6df4000ce5d1664eed19f,6598e6a5d84f07970b831e70,6598f0fa91e97f5662902d94,0.0392,0.0393,0,118,118,3,1,twofour,,,,,,,,,,,,,,,,,,,,,,,,,,,,,,,,,,,,,,,,,,,,,,,,,,,,,,,,,,,,,,,,,,,,,,,,,,,,,,,,,,,,,,,,,,,,,,,,,,,,,,,,,,,,,,,,,,,,,,,,,,,,,,,,,,,,,,,
,,5ed6df4000ce5d1664eed19f,2024-01-06_01h29.05.836,kallum_motion_pilot,2023.2.3,Win32,60.24096386,5ed6df4000ce5d1664eed19f,6598e6a5d84f07970b831e70,6598f0fa91e97f5662902d94,0.0393,0.0393,0,119,119,21,1,threefour,,,,,,,,,,,,,,,,,,,,,,,,,,,,,,,,,,,,,,,,,,,,,,,,,,,,,,,,,,,,,,,,,,,,,,,,,,,,,,,,,,,,,,,,,,,,,,,,,,,,,,,,,,,,,,,,,,,,,,,,,,,,,,,,,,,,,,,
,,5ed6df4000ce5d1664eed19f,2024-01-06_01h29.05.836,kallum_motion_pilot,2023.2.3,Win32,60.24096386,5ed6df4000ce5d1664eed19f,6598e6a5d84f07970b831e70,6598f0fa91e97f5662902d94,0.0393,0.0394,0,120,120,34,1,twoone,,,,,,,,,,,,,,,,,,,,,,,,,,,,,,,,,,,,,,,,,,,,,,,,,,,,,,,,,,,,,,,,,,,,,,,,,,,,,,,,,,,,,,,,,,,,,,,,,,,,,,,,,,,,,,,,,,,,,,,,,,,,,,,,,,,,,,,
,,5ed6df4000ce5d1664eed19f,2024-01-06_01h29.05.836,kallum_motion_pilot,2023.2.3,Win32,60.24096386,5ed6df4000ce5d1664eed19f,6598e6a5d84f07970b831e70,6598f0fa91e97f5662902d94,0.0394,0.0395,0,121,121,38,1,fourtwo,,,,,,,,,,,,,,,,,,,,,,,,,,,,,,,,,,,,,,,,,,,,,,,,,,,,,,,,,,,,,,,,,,,,,,,,,,,,,,,,,,,,,,,,,,,,,,,,,,,,,,,,,,,,,,,,,,,,,,,,,,,,,,,,,,,,,,,
,,5ed6df4000ce5d1664eed19f,2024-01-06_01h29.05.836,kallum_motion_pilot,2023.2.3,Win32,60.24096386,5ed6df4000ce5d1664eed19f,6598e6a5d84f07970b831e70,6598f0fa91e97f5662902d94,0.0396,0.0396,0,122,122,161,1,fiveseven,,,,,,,,,,,,,,,,,,,,,,,,,,,,,,,,,,,,,,,,,,,,,,,,,,,,,,,,,,,,,,,,,,,,,,,,,,,,,,,,,,,,,,,,,,,,,,,,,,,,,,,,,,,,,,,,,,,,,,,,,,,,,,,,,,,,,,,
,,5ed6df4000ce5d1664eed19f,2024-01-06_01h29.05.836,kallum_motion_pilot,2023.2.3,Win32,60.24096386,5ed6df4000ce5d1664eed19f,6598e6a5d84f07970b831e70,6598f0fa91e97f5662902d94,0.0396,0.0397,0,123,123,81,1,fiveseven,,,,,,,,,,,,,,,,,,,,,,,,,,,,,,,,,,,,,,,,,,,,,,,,,,,,,,,,,,,,,,,,,,,,,,,,,,,,,,,,,,,,,,,,,,,,,,,,,,,,,,,,,,,,,,,,,,,,,,,,,,,,,,,,,,,,,,,
,,5ed6df4000ce5d1664eed19f,2024-01-06_01h29.05.836,kallum_motion_pilot,2023.2.3,Win32,60.24096386,5ed6df4000ce5d1664eed19f,6598e6a5d84f07970b831e70,6598f0fa91e97f5662902d94,0.0398,0.0399,0,124,124,129,1,fiveseven,,,,,,,,,,,,,,,,,,,,,,,,,,,,,,,,,,,,,,,,,,,,,,,,,,,,,,,,,,,,,,,,,,,,,,,,,,,,,,,,,,,,,,,,,,,,,,,,,,,,,,,,,,,,,,,,,,,,,,,,,,,,,,,,,,,,,,,
,,5ed6df4000ce5d1664eed19f,2024-01-06_01h29.05.836,kallum_motion_pilot,2023.2.3,Win32,60.24096386,5ed6df4000ce5d1664eed19f,6598e6a5d84f07970b831e70,6598f0fa91e97f5662902d94,0.0399,0.0399,0,125,125,93,1,seveneight,,,,,,,,,,,,,,,,,,,,,,,,,,,,,,,,,,,,,,,,,,,,,,,,,,,,,,,,,,,,,,,,,,,,,,,,,,,,,,,,,,,,,,,,,,,,,,,,,,,,,,,,,,,,,,,,,,,,,,,,,,,,,,,,,,,,,,,
,,5ed6df4000ce5d1664eed19f,2024-01-06_01h29.05.836,kallum_motion_pilot,2023.2.3,Win32,60.24096386,5ed6df4000ce5d1664eed19f,6598e6a5d84f07970b831e70,6598f0fa91e97f5662902d94,0.04,0.04,0,126,126,32,1,onetwo,,,,,,,,,,,,,,,,,,,,,,,,,,,,,,,,,,,,,,,,,,,,,,,,,,,,,,,,,,,,,,,,,,,,,,,,,,,,,,,,,,,,,,,,,,,,,,,,,,,,,,,,,,,,,,,,,,,,,,,,,,,,,,,,,,,,,,,
,,5ed6df4000ce5d1664eed19f,2024-01-06_01h29.05.836,kallum_motion_pilot,2023.2.3,Win32,60.24096386,5ed6df4000ce5d1664eed19f,6598e6a5d84f07970b831e70,6598f0fa91e97f5662902d94,0.0402,0.0402,0,127,127,16,1,onetwo,,,,,,,,,,,,,,,,,,,,,,,,,,,,,,,,,,,,,,,,,,,,,,,,,,,,,,,,,,,,,,,,,,,,,,,,,,,,,,,,,,,,,,,,,,,,,,,,,,,,,,,,,,,,,,,,,,,,,,,,,,,,,,,,,,,,,,,
,,5ed6df4000ce5d1664eed19f,2024-01-06_01h29.05.836,kallum_motion_pilot,2023.2.3,Win32,60.24096386,5ed6df4000ce5d1664eed19f,6598e6a5d84f07970b831e70,6598f0fa91e97f5662902d94,0.0403,0.0404,0,128,128,123,1,sixeight,,,,,,,,,,,,,,,,,,,,,,,,,,,,,,,,,,,,,,,,,,,,,,,,,,,,,,,,,,,,,,,,,,,,,,,,,,,,,,,,,,,,,,,,,,,,,,,,,,,,,,,,,,,,,,,,,,,,,,,,,,,,,,,,,,,,,,,
,,5ed6df4000ce5d1664eed19f,2024-01-06_01h29.05.836,kallum_motion_pilot,2023.2.3,Win32,60.24096386,5ed6df4000ce5d1664eed19f,6598e6a5d84f07970b831e70,6598f0fa91e97f5662902d94,0.0404,0.0405,0,129,129,75,1,twofour,,,,,,,,,,,,,,,,,,,,,,,,,,,,,,,,,,,,,,,,,,,,,,,,,,,,,,,,,,,,,,,,,,,,,,,,,,,,,,,,,,,,,,,,,,,,,,,,,,,,,,,,,,,,,,,,,,,,,,,,,,,,,,,,,,,,,,,
,,5ed6df4000ce5d1664eed19f,2024-01-06_01h29.05.836,kallum_motion_pilot,2023.2.3,Win32,60.24096386,5ed6df4000ce5d1664eed19f,6598e6a5d84f07970b831e70,6598f0fa91e97f5662902d94,0.0406,0.0406,0,130,130,90,1,sixfive,,,,,,,,,,,,,,,,,,,,,,,,,,,,,,,,,,,,,,,,,,,,,,,,,,,,,,,,,,,,,,,,,,,,,,,,,,,,,,,,,,,,,,,,,,,,,,,,,,,,,,,,,,,,,,,,,,,,,,,,,,,,,,,,,,,,,,,
,,5ed6df4000ce5d1664eed19f,2024-01-06_01h29.05.836,kallum_motion_pilot,2023.2.3,Win32,60.24096386,5ed6df4000ce5d1664eed19f,6598e6a5d84f07970b831e70,6598f0fa91e97f5662902d94,0.0407,0.0407,0,131,131,11,1,twofour,,,,,,,,,,,,,,,,,,,,,,,,,,,,,,,,,,,,,,,,,,,,,,,,,,,,,,,,,,,,,,,,,,,,,,,,,,,,,,,,,,,,,,,,,,,,,,,,,,,,,,,,,,,,,,,,,,,,,,,,,,,,,,,,,,,,,,,
,,5ed6df4000ce5d1664eed19f,2024-01-06_01h29.05.836,kallum_motion_pilot,2023.2.3,Win32,60.24096386,5ed6df4000ce5d1664eed19f,6598e6a5d84f07970b831e70,6598f0fa91e97f5662902d94,0.0408,0.0409,0,132,132,138,1,sixfive,,,,,,,,,,,,,,,,,,,,,,,,,,,,,,,,,,,,,,,,,,,,,,,,,,,,,,,,,,,,,,,,,,,,,,,,,,,,,,,,,,,,,,,,,,,,,,,,,,,,,,,,,,,,,,,,,,,,,,,,,,,,,,,,,,,,,,,
,,5ed6df4000ce5d1664eed19f,2024-01-06_01h29.05.836,kallum_motion_pilot,2023.2.3,Win32,60.24096386,5ed6df4000ce5d1664eed19f,6598e6a5d84f07970b831e70,6598f0fa91e97f5662902d94,0.0412,0.0412,0,133,133,103,1,eightseven,,,,,,,,,,,,,,,,,,,,,,,,,,,,,,,,,,,,,,,,,,,,,,,,,,,,,,,,,,,,,,,,,,,,,,,,,,,,,,,,,,,,,,,,,,,,,,,,,,,,,,,,,,,,,,,,,,,,,,,,,,,,,,,,,,,,,,,
,,5ed6df4000ce5d1664eed19f,2024-01-06_01h29.05.836,kallum_motion_pilot,2023.2.3,Win32,60.24096386,5ed6df4000ce5d1664eed19f,6598e6a5d84f07970b831e70,6598f0fa91e97f5662902d94,0.0413,0.0414,0,134,134,159,1,eightseven,,,,,,,,,,,,,,,,,,,,,,,,,,,,,,,,,,,,,,,,,,,,,,,,,,,,,,,,,,,,,,,,,,,,,,,,,,,,,,,,,,,,,,,,,,,,,,,,,,,,,,,,,,,,,,,,,,,,,,,,,,,,,,,,,,,,,,,
,,5ed6df4000ce5d1664eed19f,2024-01-06_01h29.05.836,kallum_motion_pilot,2023.2.3,Win32,60.24096386,5ed6df4000ce5d1664eed19f,6598e6a5d84f07970b831e70,6598f0fa91e97f5662902d94,0.0414,0.0416,0,135,135,79,1,eightseven,,,,,,,,,,,,,,,,,,,,,,,,,,,,,,,,,,,,,,,,,,,,,,,,,,,,,,,,,,,,,,,,,,,,,,,,,,,,,,,,,,,,,,,,,,,,,,,,,,,,,,,,,,,,,,,,,,,,,,,,,,,,,,,,,,,,,,,
,,5ed6df4000ce5d1664eed19f,2024-01-06_01h29.05.836,kallum_motion_pilot,2023.2.3,Win32,60.24096386,5ed6df4000ce5d1664eed19f,6598e6a5d84f07970b831e70,6598f0fa91e97f5662902d94,0.0417,0.0417,0,136,136,141,1,seveneight,,,,,,,,,,,,,,,,,,,,,,,,,,,,,,,,,,,,,,,,,,,,,,,,,,,,,,,,,,,,,,,,,,,,,,,,,,,,,,,,,,,,,,,,,,,,,,,,,,,,,,,,,,,,,,,,,,,,,,,,,,,,,,,,,,,,,,,
,,5ed6df4000ce5d1664eed19f,2024-01-06_01h29.05.836,kallum_motion_pilot,2023.2.3,Win32,60.24096386,5ed6df4000ce5d1664eed19f,6598e6a5d84f07970b831e70,6598f0fa91e97f5662902d94,0.0419,0.0419,0,137,137,126,1,eightsix,,,,,,,,,,,,,,,,,,,,,,,,,,,,,,,,,,,,,,,,,,,,,,,,,,,,,,,,,,,,,,,,,,,,,,,,,,,,,,,,,,,,,,,,,,,,,,,,,,,,,,,,,,,,,,,,,,,,,,,,,,,,,,,,,,,,,,,
,,5ed6df4000ce5d1664eed19f,2024-01-06_01h29.05.836,kallum_motion_pilot,2023.2.3,Win32,60.24096386,5ed6df4000ce5d1664eed19f,6598e6a5d84f07970b831e70,6598f0fa91e97f5662902d94,0.042,0.0421,0,138,138,157,1,seveneight,,,,,,,,,,,,,,,,,,,,,,,,,,,,,,,,,,,,,,,,,,,,,,,,,,,,,,,,,,,,,,,,,,,,,,,,,,,,,,,,,,,,,,,,,,,,,,,,,,,,,,,,,,,,,,,,,,,,,,,,,,,,,,,,,,,,,,,
,,5ed6df4000ce5d1664eed19f,2024-01-06_01h29.05.836,kallum_motion_pilot,2023.2.3,Win32,60.24096386,5ed6df4000ce5d1664eed19f,6598e6a5d84f07970b831e70,6598f0fa91e97f5662902d94,0.0422,0.0423,0,139,139,140,1,sevenfive,,,,,,,,,,,,,,,,,,,,,,,,,,,,,,,,,,,,,,,,,,,,,,,,,,,,,,,,,,,,,,,,,,,,,,,,,,,,,,,,,,,,,,,,,,,,,,,,,,,,,,,,,,,,,,,,,,,,,,,,,,,,,,,,,,,,,,,
,,5ed6df4000ce5d1664eed19f,2024-01-06_01h29.05.836,kallum_motion_pilot,2023.2.3,Win32,60.24096386,5ed6df4000ce5d1664eed19f,6598e6a5d84f07970b831e70,6598f0fa91e97f5662902d94,0.0424,0.0425,0,140,140,151,1,eightseven,,,,,,,,,,,,,,,,,,,,,,,,,,,,,,,,,,,,,,,,,,,,,,,,,,,,,,,,,,,,,,,,,,,,,,,,,,,,,,,,,,,,,,,,,,,,,,,,,,,,,,,,,,,,,,,,,,,,,,,,,,,,,,,,,,,,,,,
,,5ed6df4000ce5d1664eed19f,2024-01-06_01h29.05.836,kallum_motion_pilot,2023.2.3,Win32,60.24096386,5ed6df4000ce5d1664eed19f,6598e6a5d84f07970b831e70,6598f0fa91e97f5662902d94,0.0427,0.0427,0,141,141,49,1,onethree,,,,,,,,,,,,,,,,,,,,,,,,,,,,,,,,,,,,,,,,,,,,,,,,,,,,,,,,,,,,,,,,,,,,,,,,,,,,,,,,,,,,,,,,,,,,,,,,,,,,,,,,,,,,,,,,,,,,,,,,,,,,,,,,,,,,,,,
,,5ed6df4000ce5d1664eed19f,2024-01-06_01h29.05.836,kallum_motion_pilot,2023.2.3,Win32,60.24096386,5ed6df4000ce5d1664eed19f,6598e6a5d84f07970b831e70,6598f0fa91e97f5662902d94,0.0428,0.0429,0,142,142,52,1,threeone,,,,,,,,,,,,,,,,,,,,,,,,,,,,,,,,,,,,,,,,,,,,,,,,,,,,,,,,,,,,,,,,,,,,,,,,,,,,,,,,,,,,,,,,,,,,,,,,,,,,,,,,,,,,,,,,,,,,,,,,,,,,,,,,,,,,,,,
,,5ed6df4000ce5d1664eed19f,2024-01-06_01h29.05.836,kallum_motion_pilot,2023.2.3,Win32,60.24096386,5ed6df4000ce5d1664eed19f,6598e6a5d84f07970b831e70,6598f0fa91e97f5662902d94,0.043,0.0431,0,143,143,17,1,onethree,,,,,,,,,,,,,,,,,,,,,,,,,,,,,,,,,,,,,,,,,,,,,,,,,,,,,,,,,,,,,,,,,,,,,,,,,,,,,,,,,,,,,,,,,,,,,,,,,,,,,,,,,,,,,,,,,,,,,,,,,,,,,,,,,,,,,,,
,,5ed6df4000ce5d1664eed19f,2024-01-06_01h29.05.836,kallum_motion_pilot,2023.2.3,Win32,60.24096386,5ed6df4000ce5d1664eed19f,6598e6a5d84f07970b831e70,6598f0fa91e97f5662902d94,0.0432,0.0432,0,144,144,114,1,sixfive,,,,,,,,,,,,,,,,,,,,,,,,,,,,,,,,,,,,,,,,,,,,,,,,,,,,,,,,,,,,,,,,,,,,,,,,,,,,,,,,,,,,,,,,,,,,,,,,,,,,,,,,,,,,,,,,,,,,,,,,,,,,,,,,,,,,,,,
,,5ed6df4000ce5d1664eed19f,2024-01-06_01h29.05.836,kallum_motion_pilot,2023.2.3,Win32,60.24096386,5ed6df4000ce5d1664eed19f,6598e6a5d84f07970b831e70,6598f0fa91e97f5662902d94,0.0434,0.0434,0,145,145,5,1,threefour,,,,,,,,,,,,,,,,,,,,,,,,,,,,,,,,,,,,,,,,,,,,,,,,,,,,,,,,,,,,,,,,,,,,,,,,,,,,,,,,,,,,,,,,,,,,,,,,,,,,,,,,,,,,,,,,,,,,,,,,,,,,,,,,,,,,,,,
,,5ed6df4000ce5d1664eed19f,2024-01-06_01h29.05.836,kallum_motion_pilot,2023.2.3,Win32,60.24096386,5ed6df4000ce5d1664eed19f,6598e6a5d84f07970b831e70,6598f0fa91e97f5662902d94,0.0436,0.0437,0,146,146,18,1,twoone,,,,,,,,,,,,,,,,,,,,,,,,,,,,,,,,,,,,,,,,,,,,,,,,,,,,,,,,,,,,,,,,,,,,,,,,,,,,,,,,,,,,,,,,,,,,,,,,,,,,,,,,,,,,,,,,,,,,,,,,,,,,,,,,,,,,,,,
,,5ed6df4000ce5d1664eed19f,2024-01-06_01h29.05.836,kallum_motion_pilot,2023.2.3,Win32,60.24096386,5ed6df4000ce5d1664eed19f,6598e6a5d84f07970b831e70,6598f0fa91e97f5662902d94,0.0437,0.0438,0,147,147,4,1,threeone,,,,,,,,,,,,,,,,,,,,,,,,,,,,,,,,,,,,,,,,,,,,,,,,,,,,,,,,,,,,,,,,,,,,,,,,,,,,,,,,,,,,,,,,,,,,,,,,,,,,,,,,,,,,,,,,,,,,,,,,,,,,,,,,,,,,,,,
,,5ed6df4000ce5d1664eed19f,2024-01-06_01h29.05.836,kallum_motion_pilot,2023.2.3,Win32,60.24096386,5ed6df4000ce5d1664eed19f,6598e6a5d84f07970b831e70,6598f0fa91e97f5662902d94,0.0439,0.044,0,148,148,156,1,sevenfive,,,,,,,,,,,,,,,,,,,,,,,,,,,,,,,,,,,,,,,,,,,,,,,,,,,,,,,,,,,,,,,,,,,,,,,,,,,,,,,,,,,,,,,,,,,,,,,,,,,,,,,,,,,,,,,,,,,,,,,,,,,,,,,,,,,,,,,
,,5ed6df4000ce5d1664eed19f,2024-01-06_01h29.05.836,kallum_motion_pilot,2023.2.3,Win32,60.24096386,5ed6df4000ce5d1664eed19f,6598e6a5d84f07970b831e70,6598f0fa91e97f5662902d94,0.0442,0.0444,0,149,149,13,1,threefour,,,,,,,,,,,,,,,,,,,,,,,,,,,,,,,,,,,,,,,,,,,,,,,,,,,,,,,,,,,,,,,,,,,,,,,,,,,,,,,,,,,,,,,,,,,,,,,,,,,,,,,,,,,,,,,,,,,,,,,,,,,,,,,,,,,,,,,
,,5ed6df4000ce5d1664eed19f,2024-01-06_01h29.05.836,kallum_motion_pilot,2023.2.3,Win32,60.24096386,5ed6df4000ce5d1664eed19f,6598e6a5d84f07970b831e70,6598f0fa91e97f5662902d94,0.0445,0.0446,0,150,150,8,1,onetwo,,,,,,,,,,,,,,,,,,,,,,,,,,,,,,,,,,,,,,,,,,,,,,,,,,,,,,,,,,,,,,,,,,,,,,,,,,,,,,,,,,,,,,,,,,,,,,,,,,,,,,,,,,,,,,,,,,,,,,,,,,,,,,,,,,,,,,,
,,5ed6df4000ce5d1664eed19f,2024-01-06_01h29.05.836,kallum_motion_pilot,2023.2.3,Win32,60.24096386,5ed6df4000ce5d1664eed19f,6598e6a5d84f07970b831e70,6598f0fa91e97f5662902d94,0.0447,0.0448,0,151,151,104,1,fivesix,,,,,,,,,,,,,,,,,,,,,,,,,,,,,,,,,,,,,,,,,,,,,,,,,,,,,,,,,,,,,,,,,,,,,,,,,,,,,,,,,,,,,,,,,,,,,,,,,,,,,,,,,,,,,,,,,,,,,,,,,,,,,,,,,,,,,,,
,,5ed6df4000ce5d1664eed19f,2024-01-06_01h29.05.836,kallum_motion_pilot,2023.2.3,Win32,60.24096386,5ed6df4000ce5d1664eed19f,6598e6a5d84f07970b831e70,6598f0fa91e97f5662902d94,0.0449,0.0449,0,152,152,29,1,threefour,,,,,,,,,,,,,,,,,,,,,,,,,,,,,,,,,,,,,,,,,,,,,,,,,,,,,,,,,,,,,,,,,,,,,,,,,,,,,,,,,,,,,,,,,,,,,,,,,,,,,,,,,,,,,,,,,,,,,,,,,,,,,,,,,,,,,,,
,,5ed6df4000ce5d1664eed19f,2024-01-06_01h29.05.836,kallum_motion_pilot,2023.2.3,Win32,60.24096386,5ed6df4000ce5d1664eed19f,6598e6a5d84f07970b831e70,6598f0fa91e97f5662902d94,0.045,0.0451,0,153,153,54,1,fourtwo,,,,,,,,,,,,,,,,,,,,,,,,,,,,,,,,,,,,,,,,,,,,,,,,,,,,,,,,,,,,,,,,,,,,,,,,,,,,,,,,,,,,,,,,,,,,,,,,,,,,,,,,,,,,,,,,,,,,,,,,,,,,,,,,,,,,,,,
,,5ed6df4000ce5d1664eed19f,2024-01-06_01h29.05.836,kallum_motion_pilot,2023.2.3,Win32,60.24096386,5ed6df4000ce5d1664eed19f,6598e6a5d84f07970b831e70,6598f0fa91e97f5662902d94,0.0451,0.0454,0,154,154,60,1,threeone,,,,,,,,,,,,,,,,,,,,,,,,,,,,,,,,,,,,,,,,,,,,,,,,,,,,,,,,,,,,,,,,,,,,,,,,,,,,,,,,,,,,,,,,,,,,,,,,,,,,,,,,,,,,,,,,,,,,,,,,,,,,,,,,,,,,,,,
,,5ed6df4000ce5d1664eed19f,2024-01-06_01h29.05.836,kallum_motion_pilot,2023.2.3,Win32,60.24096386,5ed6df4000ce5d1664eed19f,6598e6a5d84f07970b831e70,6598f0fa91e97f5662902d94,0.0456,0.0457,0,155,155,12,1,threeone,,,,,,,,,,,,,,,,,,,,,,,,,,,,,,,,,,,,,,,,,,,,,,,,,,,,,,,,,,,,,,,,,,,,,,,,,,,,,,,,,,,,,,,,,,,,,,,,,,,,,,,,,,,,,,,,,,,,,,,,,,,,,,,,,,,,,,,
,,5ed6df4000ce5d1664eed19f,2024-01-06_01h29.05.836,kallum_motion_pilot,2023.2.3,Win32,60.24096386,5ed6df4000ce5d1664eed19f,6598e6a5d84f07970b831e70,6598f0fa91e97f5662902d94,0.0458,0.0459,0,156,156,148,1,sevenfive,,,,,,,,,,,,,,,,,,,,,,,,,,,,,,,,,,,,,,,,,,,,,,,,,,,,,,,,,,,,,,,,,,,,,,,,,,,,,,,,,,,,,,,,,,,,,,,,,,,,,,,,,,,,,,,,,,,,,,,,,,,,,,,,,,,,,,,
,,5ed6df4000ce5d1664eed19f,2024-01-06_01h29.05.836,kallum_motion_pilot,2023.2.3,Win32,60.24096386,5ed6df4000ce5d1664eed19f,6598e6a5d84f07970b831e70,6598f0fa91e97f5662902d94,0.046,0.0462,0,157,157,110,1,eightsix,,,,,,,,,,,,,,,,,,,,,,,,,,,,,,,,,,,,,,,,,,,,,,,,,,,,,,,,,,,,,,,,,,,,,,,,,,,,,,,,,,,,,,,,,,,,,,,,,,,,,,,,,,,,,,,,,,,,,,,,,,,,,,,,,,,,,,,
,,5ed6df4000ce5d1664eed19f,2024-01-06_01h29.05.836,kallum_motion_pilot,2023.2.3,Win32,60.24096386,5ed6df4000ce5d1664eed19f,6598e6a5d84f07970b831e70,6598f0fa91e97f5662902d94,0.0464,0.0466,0,158,158,14,1,fourtwo,,,,,,,,,,,,,,,,,,,,,,,,,,,,,,,,,,,,,,,,,,,,,,,,,,,,,,,,,,,,,,,,,,,,,,,,,,,,,,,,,,,,,,,,,,,,,,,,,,,,,,,,,,,,,,,,,,,,,,,,,,,,,,,,,,,,,,,
,,5ed6df4000ce5d1664eed19f,2024-01-06_01h29.05.836,kallum_motion_pilot,2023.2.3,Win32,60.24096386,5ed6df4000ce5d1664eed19f,6598e6a5d84f07970b831e70,6598f0fa91e97f5662902d94,0.0469,0.047,0,159,159,80,1,fivesix,,,,,,,,,,,,,,,,,,,,,,,,,,,,,,,,,,,,,,,,,,,,,,,,,,,,,,,,,,,,,,,,,,,,,,,,,,,,,,,,,,,,,,,,,,,,,,,,,,,,,,,,,,,,,,,,,,,,,,,,,,,,,,,,,,,,,,,
,,5ed6df4000ce5d1664eed19f,2024-01-06_01h29.05.836,kallum_motion_pilot,2023.2.3,Win32,60.24096386,5ed6df4000ce5d1664eed19f,6598e6a5d84f07970b831e70,6598f0fa91e97f5662902d94,0.0473,0.0474,0,160,160,95,1,eightseven,,,,,,,,,,,,,,,,,,,,,,,,,,,,,,,,,,,,,,,,,,,,,,,,,,,,,,,,,,,,,,,,,,,,,,,,,,,,,,,,,,,,,,,,,,,,,,,,,,,,,,,,,,,,,,,,,,,,,,,,,,,,,,,,,,,,,,,
,,5ed6df4000ce5d1664eed19f,2024-01-06_01h29.05.836,kallum_motion_pilot,2023.2.3,Win32,60.24096386,5ed6df4000ce5d1664eed19f,6598e6a5d84f07970b831e70,6598f0fa91e97f5662902d94,0.0475,0.0476,0,161,161,122,1,sixfive,,,,,,,,,,,,,,,,,,,,,,,,,,,,,,,,,,,,,,,,,,,,,,,,,,,,,,,,,,,,,,,,,,,,,,,,,,,,,,,,,,,,,,,,,,,,,,,,,,,,,,,,,,,,,,,,,,,,,,,,,,,,,,,,,,,,,,,
,,5ed6df4000ce5d1664eed19f,2024-01-06_01h29.05.836,kallum_motion_pilot,2023.2.3,Win32,60.24096386,5ed6df4000ce5d1664eed19f,6598e6a5d84f07970b831e70,6598f0fa91e97f5662902d94,0.0477,0.0477,1,0,162,73,1,onethree,,,,,,,,,,,,,,,,,,,,,,,,,,,,,,,,,,,,,,,,,,,,,,,,,,,,,,,,,,,,,,,,,,,,,,,,,,,,,,,,,,,,,,,,,,,,,,,,,,,,,,,,,,,,,,,,,,,,,,,,,,,,,,,,,,,,,,,
,,5ed6df4000ce5d1664eed19f,2024-01-06_01h29.05.836,kallum_motion_pilot,2023.2.3,Win32,60.24096386,5ed6df4000ce5d1664eed19f,6598e6a5d84f07970b831e70,6598f0fa91e97f5662902d94,0.0479,0.048,1,1,163,92,1,sevenfive,,,,,,,,,,,,,,,,,,,,,,,,,,,,,,,,,,,,,,,,,,,,,,,,,,,,,,,,,,,,,,,,,,,,,,,,,,,,,,,,,,,,,,,,,,,,,,,,,,,,,,,,,,,,,,,,,,,,,,,,,,,,,,,,,,,,,,,
,,5ed6df4000ce5d1664eed19f,2024-01-06_01h29.05.836,kallum_motion_pilot,2023.2.3,Win32,60.24096386,5ed6df4000ce5d1664eed19f,6598e6a5d84f07970b831e70,6598f0fa91e97f5662902d94,0.0481,0.0482,1,2,164,90,1,sixfive,,,,,,,,,,,,,,,,,,,,,,,,,,,,,,,,,,,,,,,,,,,,,,,,,,,,,,,,,,,,,,,,,,,,,,,,,,,,,,,,,,,,,,,,,,,,,,,,,,,,,,,,,,,,,,,,,,,,,,,,,,,,,,,,,,,,,,,
,,5ed6df4000ce5d1664eed19f,2024-01-06_01h29.05.836,kallum_motion_pilot,2023.2.3,Win32,60.24096386,5ed6df4000ce5d1664eed19f,6598e6a5d84f07970b831e70,6598f0fa91e97f5662902d94,0.0483,0.0483,1,3,165,31,1,fourthree,,,,,,,,,,,,,,,,,,,,,,,,,,,,,,,,,,,,,,,,,,,,,,,,,,,,,,,,,,,,,,,,,,,,,,,,,,,,,,,,,,,,,,,,,,,,,,,,,,,,,,,,,,,,,,,,,,,,,,,,,,,,,,,,,,,,,,,
,,5ed6df4000ce5d1664eed19f,2024-01-06_01h29.05.836,kallum_motion_pilot,2023.2.3,Win32,60.24096386,5ed6df4000ce5d1664eed19f,6598e6a5d84f07970b831e70,6598f0fa91e97f5662902d94,0.0484,0.0486,1,4,166,111,1,eightseven,,,,,,,,,,,,,,,,,,,,,,,,,,,,,,,,,,,,,,,,,,,,,,,,,,,,,,,,,,,,,,,,,,,,,,,,,,,,,,,,,,,,,,,,,,,,,,,,,,,,,,,,,,,,,,,,,,,,,,,,,,,,,,,,,,,,,,,
,,5ed6df4000ce5d1664eed19f,2024-01-06_01h29.05.836,kallum_motion_pilot,2023.2.3,Win32,60.24096386,5ed6df4000ce5d1664eed19f,6598e6a5d84f07970b831e70,6598f0fa91e97f5662902d94,0.0486,0.0487,1,5,167,104,1,fivesix,,,,,,,,,,,,,,,,,,,,,,,,,,,,,,,,,,,,,,,,,,,,,,,,,,,,,,,,,,,,,,,,,,,,,,,,,,,,,,,,,,,,,,,,,,,,,,,,,,,,,,,,,,,,,,,,,,,,,,,,,,,,,,,,,,,,,,,
,,5ed6df4000ce5d1664eed19f,2024-01-06_01h29.05.836,kallum_motion_pilot,2023.2.3,Win32,60.24096386,5ed6df4000ce5d1664eed19f,6598e6a5d84f07970b831e70,6598f0fa91e97f5662902d94,0.0488,0.0489,1,6,168,122,1,sixfive,,,,,,,,,,,,,,,,,,,,,,,,,,,,,,,,,,,,,,,,,,,,,,,,,,,,,,,,,,,,,,,,,,,,,,,,,,,,,,,,,,,,,,,,,,,,,,,,,,,,,,,,,,,,,,,,,,,,,,,,,,,,,,,,,,,,,,,
,,5ed6df4000ce5d1664eed19f,2024-01-06_01h29.05.836,kallum_motion_pilot,2023.2.3,Win32,60.24096386,5ed6df4000ce5d1664eed19f,6598e6a5d84f07970b831e70,6598f0fa91e97f5662902d94,0.0491,0.0491,1,7,169,142,1,eightsix,,,,,,,,,,,,,,,,,,,,,,,,,,,,,,,,,,,,,,,,,,,,,,,,,,,,,,,,,,,,,,,,,,,,,,,,,,,,,,,,,,,,,,,,,,,,,,,,,,,,,,,,,,,,,,,,,,,,,,,,,,,,,,,,,,,,,,,
,,5ed6df4000ce5d1664eed19f,2024-01-06_01h29.05.836,kallum_motion_pilot,2023.2.3,Win32,60.24096386,5ed6df4000ce5d1664eed19f,6598e6a5d84f07970b831e70,6598f0fa91e97f5662902d94,0.0492,0.0493,1,8,170,26,1,twoone,,,,,,,,,,,,,,,,,,,,,,,,,,,,,,,,,,,,,,,,,,,,,,,,,,,,,,,,,,,,,,,,,,,,,,,,,,,,,,,,,,,,,,,,,,,,,,,,,,,,,,,,,,,,,,,,,,,,,,,,,,,,,,,,,,,,,,,
,,5ed6df4000ce5d1664eed19f,2024-01-06_01h29.05.836,kallum_motion_pilot,2023.2.3,Win32,60.24096386,5ed6df4000ce5d1664eed19f,6598e6a5d84f07970b831e70,6598f0fa91e97f5662902d94,0.0494,0.0496,1,9,171,139,1,sixeight,,,,,,,,,,,,,,,,,,,,,,,,,,,,,,,,,,,,,,,,,,,,,,,,,,,,,,,,,,,,,,,,,,,,,,,,,,,,,,,,,,,,,,,,,,,,,,,,,,,,,,,,,,,,,,,,,,,,,,,,,,,,,,,,,,,,,,,
,,5ed6df4000ce5d1664eed19f,2024-01-06_01h29.05.836,kallum_motion_pilot,2023.2.3,Win32,60.24096386,5ed6df4000ce5d1664eed19f,6598e6a5d84f07970b831e70,6598f0fa91e97f5662902d94,0.0496,0.0496,1,10,172,138,1,sixfive,,,,,,,,,,,,,,,,,,,,,,,,,,,,,,,,,,,,,,,,,,,,,,,,,,,,,,,,,,,,,,,,,,,,,,,,,,,,,,,,,,,,,,,,,,,,,,,,,,,,,,,,,,,,,,,,,,,,,,,,,,,,,,,,,,,,,,,
,,5ed6df4000ce5d1664eed19f,2024-01-06_01h29.05.836,kallum_motion_pilot,2023.2.3,Win32,60.24096386,5ed6df4000ce5d1664eed19f,6598e6a5d84f07970b831e70,6598f0fa91e97f5662902d94,0.0497,0.0498,1,11,173,107,1,sixeight,,,,,,,,,,,,,,,,,,,,,,,,,,,,,,,,,,,,,,,,,,,,,,,,,,,,,,,,,,,,,,,,,,,,,,,,,,,,,,,,,,,,,,,,,,,,,,,,,,,,,,,,,,,,,,,,,,,,,,,,,,,,,,,,,,,,,,,
,,5ed6df4000ce5d1664eed19f,2024-01-06_01h29.05.836,kallum_motion_pilot,2023.2.3,Win32,60.24096386,5ed6df4000ce5d1664eed19f,6598e6a5d84f07970b831e70,6598f0fa91e97f5662902d94,0.0498,0.0499,1,12,174,119,1,eightseven,,,,,,,,,,,,,,,,,,,,,,,,,,,,,,,,,,,,,,,,,,,,,,,,,,,,,,,,,,,,,,,,,,,,,,,,,,,,,,,,,,,,,,,,,,,,,,,,,,,,,,,,,,,,,,,,,,,,,,,,,,,,,,,,,,,,,,,
,,5ed6df4000ce5d1664eed19f,2024-01-06_01h29.05.836,kallum_motion_pilot,2023.2.3,Win32,60.24096386,5ed6df4000ce5d1664eed19f,6598e6a5d84f07970b831e70,6598f0fa91e97f5662902d94,0.05,0.05,1,13,175,144,1,fivesix,,,,,,,,,,,,,,,,,,,,,,,,,,,,,,,,,,,,,,,,,,,,,,,,,,,,,,,,,,,,,,,,,,,,,,,,,,,,,,,,,,,,,,,,,,,,,,,,,,,,,,,,,,,,,,,,,,,,,,,,,,,,,,,,,,,,,,,
,,5ed6df4000ce5d1664eed19f,2024-01-06_01h29.05.836,kallum_motion_pilot,2023.2.3,Win32,60.24096386,5ed6df4000ce5d1664eed19f,6598e6a5d84f07970b831e70,6598f0fa91e97f5662902d94,0.0501,0.0501,1,14,176,60,1,threeone,,,,,,,,,,,,,,,,,,,,,,,,,,,,,,,,,,,,,,,,,,,,,,,,,,,,,,,,,,,,,,,,,,,,,,,,,,,,,,,,,,,,,,,,,,,,,,,,,,,,,,,,,,,,,,,,,,,,,,,,,,,,,,,,,,,,,,,
,,5ed6df4000ce5d1664eed19f,2024-01-06_01h29.05.836,kallum_motion_pilot,2023.2.3,Win32,60.24096386,5ed6df4000ce5d1664eed19f,6598e6a5d84f07970b831e70,6598f0fa91e97f5662902d94,0.0503,0.0504,1,15,177,134,1,eightsix,,,,,,,,,,,,,,,,,,,,,,,,,,,,,,,,,,,,,,,,,,,,,,,,,,,,,,,,,,,,,,,,,,,,,,,,,,,,,,,,,,,,,,,,,,,,,,,,,,,,,,,,,,,,,,,,,,,,,,,,,,,,,,,,,,,,,,,
,,5ed6df4000ce5d1664eed19f,2024-01-06_01h29.05.836,kallum_motion_pilot,2023.2.3,Win32,60.24096386,5ed6df4000ce5d1664eed19f,6598e6a5d84f07970b831e70,6598f0fa91e97f5662902d94,0.0504,0.0505,1,16,178,159,1,eightseven,,,,,,,,,,,,,,,,,,,,,,,,,,,,,,,,,,,,,,,,,,,,,,,,,,,,,,,,,,,,,,,,,,,,,,,,,,,,,,,,,,,,,,,,,,,,,,,,,,,,,,,,,,,,,,,,,,,,,,,,,,,,,,,,,,,,,,,
,,5ed6df4000ce5d1664eed19f,2024-01-06_01h29.05.836,kallum_motion_pilot,2023.2.3,Win32,60.24096386,5ed6df4000ce5d1664eed19f,6598e6a5d84f07970b831e70,6598f0fa91e97f5662902d94,0.0506,0.0507,1,17,179,133,1,seveneight,,,,,,,,,,,,,,,,,,,,,,,,,,,,,,,,,,,,,,,,,,,,,,,,,,,,,,,,,,,,,,,,,,,,,,,,,,,,,,,,,,,,,,,,,,,,,,,,,,,,,,,,,,,,,,,,,,,,,,,,,,,,,,,,,,,,,,,
,,5ed6df4000ce5d1664eed19f,2024-01-06_01h29.05.836,kallum_motion_pilot,2023.2.3,Win32,60.24096386,5ed6df4000ce5d1664eed19f,6598e6a5d84f07970b831e70,6598f0fa91e97f5662902d94,0.0509,0.0509,1,18,180,38,1,fourtwo,,,,,,,,,,,,,,,,,,,,,,,,,,,,,,,,,,,,,,,,,,,,,,,,,,,,,,,,,,,,,,,,,,,,,,,,,,,,,,,,,,,,,,,,,,,,,,,,,,,,,,,,,,,,,,,,,,,,,,,,,,,,,,,,,,,,,,,
,,5ed6df4000ce5d1664eed19f,2024-01-06_01h29.05.836,kallum_motion_pilot,2023.2.3,Win32,60.24096386,5ed6df4000ce5d1664eed19f,6598e6a5d84f07970b831e70,6598f0fa91e97f5662902d94,0.051,0.0511,1,19,181,161,1,fiveseven,,,,,,,,,,,,,,,,,,,,,,,,,,,,,,,,,,,,,,,,,,,,,,,,,,,,,,,,,,,,,,,,,,,,,,,,,,,,,,,,,,,,,,,,,,,,,,,,,,,,,,,,,,,,,,,,,,,,,,,,,,,,,,,,,,,,,,,
,,5ed6df4000ce5d1664eed19f,2024-01-06_01h29.05.836,kallum_motion_pilot,2023.2.3,Win32,60.24096386,5ed6df4000ce5d1664eed19f,6598e6a5d84f07970b831e70,6598f0fa91e97f5662902d94,0.0511,0.0512,1,20,182,41,1,onethree,,,,,,,,,,,,,,,,,,,,,,,,,,,,,,,,,,,,,,,,,,,,,,,,,,,,,,,,,,,,,,,,,,,,,,,,,,,,,,,,,,,,,,,,,,,,,,,,,,,,,,,,,,,,,,,,,,,,,,,,,,,,,,,,,,,,,,,
,,5ed6df4000ce5d1664eed19f,2024-01-06_01h29.05.836,kallum_motion_pilot,2023.2.3,Win32,60.24096386,5ed6df4000ce5d1664eed19f,6598e6a5d84f07970b831e70,6598f0fa91e97f5662902d94,0.0512,0.0513,1,21,183,17,1,onethree,,,,,,,,,,,,,,,,,,,,,,,,,,,,,,,,,,,,,,,,,,,,,,,,,,,,,,,,,,,,,,,,,,,,,,,,,,,,,,,,,,,,,,,,,,,,,,,,,,,,,,,,,,,,,,,,,,,,,,,,,,,,,,,,,,,,,,,
,,5ed6df4000ce5d1664eed19f,2024-01-06_01h29.05.836,kallum_motion_pilot,2023.2.3,Win32,60.24096386,5ed6df4000ce5d1664eed19f,6598e6a5d84f07970b831e70,6598f0fa91e97f5662902d94,0.0515,0.0515,1,22,184,88,1,fivesix,,,,,,,,,,,,,,,,,,,,,,,,,,,,,,,,,,,,,,,,,,,,,,,,,,,,,,,,,,,,,,,,,,,,,,,,,,,,,,,,,,,,,,,,,,,,,,,,,,,,,,,,,,,,,,,,,,,,,,,,,,,,,,,,,,,,,,,
,,5ed6df4000ce5d1664eed19f,2024-01-06_01h29.05.836,kallum_motion_pilot,2023.2.3,Win32,60.24096386,5ed6df4000ce5d1664eed19f,6598e6a5d84f07970b831e70,6598f0fa91e97f5662902d94,0.0516,0.0516,1,23,185,53,1,threefour,,,,,,,,,,,,,,,,,,,,,,,,,,,,,,,,,,,,,,,,,,,,,,,,,,,,,,,,,,,,,,,,,,,,,,,,,,,,,,,,,,,,,,,,,,,,,,,,,,,,,,,,,,,,,,,,,,,,,,,,,,,,,,,,,,,,,,,
,,5ed6df4000ce5d1664eed19f,2024-01-06_01h29.05.836,kallum_motion_pilot,2023.2.3,Win32,60.24096386,5ed6df4000ce5d1664eed19f,6598e6a5d84f07970b831e70,6598f0fa91e97f5662902d94,0.0518,0.0518,1,24,186,154,1,sixfive,,,,,,,,,,,,,,,,,,,,,,,,,,,,,,,,,,,,,,,,,,,,,,,,,,,,,,,,,,,,,,,,,,,,,,,,,,,,,,,,,,,,,,,,,,,,,,,,,,,,,,,,,,,,,,,,,,,,,,,,,,,,,,,,,,,,,,,
,,5ed6df4000ce5d1664eed19f,2024-01-06_01h29.05.836,kallum_motion_pilot,2023.2.3,Win32,60.24096386,5ed6df4000ce5d1664eed19f,6598e6a5d84f07970b831e70,6598f0fa91e97f5662902d94,0.052,0.052,1,25,187,99,1,sixeight,,,,,,,,,,,,,,,,,,,,,,,,,,,,,,,,,,,,,,,,,,,,,,,,,,,,,,,,,,,,,,,,,,,,,,,,,,,,,,,,,,,,,,,,,,,,,,,,,,,,,,,,,,,,,,,,,,,,,,,,,,,,,,,,,,,,,,,
,,5ed6df4000ce5d1664eed19f,2024-01-06_01h29.05.836,kallum_motion_pilot,2023.2.3,Win32,60.24096386,5ed6df4000ce5d1664eed19f,6598e6a5d84f07970b831e70,6598f0fa91e97f5662902d94,0.0521,0.0522,1,26,188,120,1,fivesix,,,,,,,,,,,,,,,,,,,,,,,,,,,,,,,,,,,,,,,,,,,,,,,,,,,,,,,,,,,,,,,,,,,,,,,,,,,,,,,,,,,,,,,,,,,,,,,,,,,,,,,,,,,,,,,,,,,,,,,,,,,,,,,,,,,,,,,
,,5ed6df4000ce5d1664eed19f,2024-01-06_01h29.05.836,kallum_motion_pilot,2023.2.3,Win32,60.24096386,5ed6df4000ce5d1664eed19f,6598e6a5d84f07970b831e70,6598f0fa91e97f5662902d94,0.0523,0.0525,1,27,189,57,1,onethree,,,,,,,,,,,,,,,,,,,,,,,,,,,,,,,,,,,,,,,,,,,,,,,,,,,,,,,,,,,,,,,,,,,,,,,,,,,,,,,,,,,,,,,,,,,,,,,,,,,,,,,,,,,,,,,,,,,,,,,,,,,,,,,,,,,,,,,
,,5ed6df4000ce5d1664eed19f,2024-01-06_01h29.05.836,kallum_motion_pilot,2023.2.3,Win32,60.24096386,5ed6df4000ce5d1664eed19f,6598e6a5d84f07970b831e70,6598f0fa91e97f5662902d94,0.0526,0.0526,1,28,190,54,1,fourtwo,,,,,,,,,,,,,,,,,,,,,,,,,,,,,,,,,,,,,,,,,,,,,,,,,,,,,,,,,,,,,,,,,,,,,,,,,,,,,,,,,,,,,,,,,,,,,,,,,,,,,,,,,,,,,,,,,,,,,,,,,,,,,,,,,,,,,,,
,,5ed6df4000ce5d1664eed19f,2024-01-06_01h29.05.836,kallum_motion_pilot,2023.2.3,Win32,60.24096386,5ed6df4000ce5d1664eed19f,6598e6a5d84f07970b831e70,6598f0fa91e97f5662902d94,0.0527,0.0527,1,29,191,143,1,eightseven,,,,,,,,,,,,,,,,,,,,,,,,,,,,,,,,,,,,,,,,,,,,,,,,,,,,,,,,,,,,,,,,,,,,,,,,,,,,,,,,,,,,,,,,,,,,,,,,,,,,,,,,,,,,,,,,,,,,,,,,,,,,,,,,,,,,,,,
,,5ed6df4000ce5d1664eed19f,2024-01-06_01h29.05.836,kallum_motion_pilot,2023.2.3,Win32,60.24096386,5ed6df4000ce5d1664eed19f,6598e6a5d84f07970b831e70,6598f0fa91e97f5662902d94,0.0528,0.0529,1,30,192,4,1,threeone,,,,,,,,,,,,,,,,,,,,,,,,,,,,,,,,,,,,,,,,,,,,,,,,,,,,,,,,,,,,,,,,,,,,,,,,,,,,,,,,,,,,,,,,,,,,,,,,,,,,,,,,,,,,,,,,,,,,,,,,,,,,,,,,,,,,,,,
,,5ed6df4000ce5d1664eed19f,2024-01-06_01h29.05.836,kallum_motion_pilot,2023.2.3,Win32,60.24096386,5ed6df4000ce5d1664eed19f,6598e6a5d84f07970b831e70,6598f0fa91e97f5662902d94,0.053,0.053,1,31,193,64,1,onetwo,,,,,,,,,,,,,,,,,,,,,,,,,,,,,,,,,,,,,,,,,,,,,,,,,,,,,,,,,,,,,,,,,,,,,,,,,,,,,,,,,,,,,,,,,,,,,,,,,,,,,,,,,,,,,,,,,,,,,,,,,,,,,,,,,,,,,,,
,,5ed6df4000ce5d1664eed19f,2024-01-06_01h29.05.836,kallum_motion_pilot,2023.2.3,Win32,60.24096386,5ed6df4000ce5d1664eed19f,6598e6a5d84f07970b831e70,6598f0fa91e97f5662902d94,0.0531,0.0531,1,32,194,87,1,eightseven,,,,,,,,,,,,,,,,,,,,,,,,,,,,,,,,,,,,,,,,,,,,,,,,,,,,,,,,,,,,,,,,,,,,,,,,,,,,,,,,,,,,,,,,,,,,,,,,,,,,,,,,,,,,,,,,,,,,,,,,,,,,,,,,,,,,,,,
,,5ed6df4000ce5d1664eed19f,2024-01-06_01h29.05.836,kallum_motion_pilot,2023.2.3,Win32,60.24096386,5ed6df4000ce5d1664eed19f,6598e6a5d84f07970b831e70,6598f0fa91e97f5662902d94,0.0533,0.0533,1,33,195,56,1,onetwo,,,,,,,,,,,,,,,,,,,,,,,,,,,,,,,,,,,,,,,,,,,,,,,,,,,,,,,,,,,,,,,,,,,,,,,,,,,,,,,,,,,,,,,,,,,,,,,,,,,,,,,,,,,,,,,,,,,,,,,,,,,,,,,,,,,,,,,
,,5ed6df4000ce5d1664eed19f,2024-01-06_01h29.05.836,kallum_motion_pilot,2023.2.3,Win32,60.24096386,5ed6df4000ce5d1664eed19f,6598e6a5d84f07970b831e70,6598f0fa91e97f5662902d94,0.0534,0.0534,1,34,196,27,1,twofour,,,,,,,,,,,,,,,,,,,,,,,,,,,,,,,,,,,,,,,,,,,,,,,,,,,,,,,,,,,,,,,,,,,,,,,,,,,,,,,,,,,,,,,,,,,,,,,,,,,,,,,,,,,,,,,,,,,,,,,,,,,,,,,,,,,,,,,
,,5ed6df4000ce5d1664eed19f,2024-01-06_01h29.05.836,kallum_motion_pilot,2023.2.3,Win32,60.24096386,5ed6df4000ce5d1664eed19f,6598e6a5d84f07970b831e70,6598f0fa91e97f5662902d94,0.0535,0.0535,1,35,197,96,1,fivesix,,,,,,,,,,,,,,,,,,,,,,,,,,,,,,,,,,,,,,,,,,,,,,,,,,,,,,,,,,,,,,,,,,,,,,,,,,,,,,,,,,,,,,,,,,,,,,,,,,,,,,,,,,,,,,,,,,,,,,,,,,,,,,,,,,,,,,,
,,5ed6df4000ce5d1664eed19f,2024-01-06_01h29.05.836,kallum_motion_pilot,2023.2.3,Win32,60.24096386,5ed6df4000ce5d1664eed19f,6598e6a5d84f07970b831e70,6598f0fa91e97f5662902d94,0.0536,0.0537,1,36,198,109,1,seveneight,,,,,,,,,,,,,,,,,,,,,,,,,,,,,,,,,,,,,,,,,,,,,,,,,,,,,,,,,,,,,,,,,,,,,,,,,,,,,,,,,,,,,,,,,,,,,,,,,,,,,,,,,,,,,,,,,,,,,,,,,,,,,,,,,,,,,,,
,,5ed6df4000ce5d1664eed19f,2024-01-06_01h29.05.836,kallum_motion_pilot,2023.2.3,Win32,60.24096386,5ed6df4000ce5d1664eed19f,6598e6a5d84f07970b831e70,6598f0fa91e97f5662902d94,0.0537,0.0538,1,37,199,155,1,sixeight,,,,,,,,,,,,,,,,,,,,,,,,,,,,,,,,,,,,,,,,,,,,,,,,,,,,,,,,,,,,,,,,,,,,,,,,,,,,,,,,,,,,,,,,,,,,,,,,,,,,,,,,,,,,,,,,,,,,,,,,,,,,,,,,,,,,,,,
,,5ed6df4000ce5d1664eed19f,2024-01-06_01h29.05.836,kallum_motion_pilot,2023.2.3,Win32,60.24096386,5ed6df4000ce5d1664eed19f,6598e6a5d84f07970b831e70,6598f0fa91e97f5662902d94,0.0539,0.0539,1,38,200,71,1,fourthree,,,,,,,,,,,,,,,,,,,,,,,,,,,,,,,,,,,,,,,,,,,,,,,,,,,,,,,,,,,,,,,,,,,,,,,,,,,,,,,,,,,,,,,,,,,,,,,,,,,,,,,,,,,,,,,,,,,,,,,,,,,,,,,,,,,,,,,
,,5ed6df4000ce5d1664eed19f,2024-01-06_01h29.05.836,kallum_motion_pilot,2023.2.3,Win32,60.24096386,5ed6df4000ce5d1664eed19f,6598e6a5d84f07970b831e70,6598f0fa91e97f5662902d94,0.054,0.054,1,39,201,39,1,fourthree,,,,,,,,,,,,,,,,,,,,,,,,,,,,,,,,,,,,,,,,,,,,,,,,,,,,,,,,,,,,,,,,,,,,,,,,,,,,,,,,,,,,,,,,,,,,,,,,,,,,,,,,,,,,,,,,,,,,,,,,,,,,,,,,,,,,,,,
,,5ed6df4000ce5d1664eed19f,2024-01-06_01h29.05.836,kallum_motion_pilot,2023.2.3,Win32,60.24096386,5ed6df4000ce5d1664eed19f,6598e6a5d84f07970b831e70,6598f0fa91e97f5662902d94,0.054,0.0541,1,40,202,116,1,sevenfive,,,,,,,,,,,,,,,,,,,,,,,,,,,,,,,,,,,,,,,,,,,,,,,,,,,,,,,,,,,,,,,,,,,,,,,,,,,,,,,,,,,,,,,,,,,,,,,,,,,,,,,,,,,,,,,,,,,,,,,,,,,,,,,,,,,,,,,
,,5ed6df4000ce5d1664eed19f,2024-01-06_01h29.05.836,kallum_motion_pilot,2023.2.3,Win32,60.24096386,5ed6df4000ce5d1664eed19f,6598e6a5d84f07970b831e70,6598f0fa91e97f5662902d94,0.0542,0.0542,1,41,203,28,1,threeone,,,,,,,,,,,,,,,,,,,,,,,,,,,,,,,,,,,,,,,,,,,,,,,,,,,,,,,,,,,,,,,,,,,,,,,,,,,,,,,,,,,,,,,,,,,,,,,,,,,,,,,,,,,,,,,,,,,,,,,,,,,,,,,,,,,,,,,
,,5ed6df4000ce5d1664eed19f,2024-01-06_01h29.05.836,kallum_motion_pilot,2023.2.3,Win32,60.24096386,5ed6df4000ce5d1664eed19f,6598e6a5d84f07970b831e70,6598f0fa91e97f5662902d94,0.0544,0.0544,1,42,204,20,1,threeone,,,,,,,,,,,,,,,,,,,,,,,,,,,,,,,,,,,,,,,,,,,,,,,,,,,,,,,,,,,,,,,,,,,,,,,,,,,,,,,,,,,,,,,,,,,,,,,,,,,,,,,,,,,,,,,,,,,,,,,,,,,,,,,,,,,,,,,
,,5ed6df4000ce5d1664eed19f,2024-01-06_01h29.05.836,kallum_motion_pilot,2023.2.3,Win32,60.24096386,5ed6df4000ce5d1664eed19f,6598e6a5d84f07970b831e70,6598f0fa91e97f5662902d94,0.0544,0.0545,1,43,205,63,1,fourthree,,,,,,,,,,,,,,,,,,,,,,,,,,,,,,,,,,,,,,,,,,,,,,,,,,,,,,,,,,,,,,,,,,,,,,,,,,,,,,,,,,,,,,,,,,,,,,,,,,,,,,,,,,,,,,,,,,,,,,,,,,,,,,,,,,,,,,,
,,5ed6df4000ce5d1664eed19f,2024-01-06_01h29.05.836,kallum_motion_pilot,2023.2.3,Win32,60.24096386,5ed6df4000ce5d1664eed19f,6598e6a5d84f07970b831e70,6598f0fa91e97f5662902d94,0.0546,0.0547,1,44,206,32,1,onetwo,,,,,,,,,,,,,,,,,,,,,,,,,,,,,,,,,,,,,,,,,,,,,,,,,,,,,,,,,,,,,,,,,,,,,,,,,,,,,,,,,,,,,,,,,,,,,,,,,,,,,,,,,,,,,,,,,,,,,,,,,,,,,,,,,,,,,,,
,,5ed6df4000ce5d1664eed19f,2024-01-06_01h29.05.836,kallum_motion_pilot,2023.2.3,Win32,60.24096386,5ed6df4000ce5d1664eed19f,6598e6a5d84f07970b831e70,6598f0fa91e97f5662902d94,0.0547,0.0548,1,45,207,48,1,onetwo,,,,,,,,,,,,,,,,,,,,,,,,,,,,,,,,,,,,,,,,,,,,,,,,,,,,,,,,,,,,,,,,,,,,,,,,,,,,,,,,,,,,,,,,,,,,,,,,,,,,,,,,,,,,,,,,,,,,,,,,,,,,,,,,,,,,,,,
,,5ed6df4000ce5d1664eed19f,2024-01-06_01h29.05.836,kallum_motion_pilot,2023.2.3,Win32,60.24096386,5ed6df4000ce5d1664eed19f,6598e6a5d84f07970b831e70,6598f0fa91e97f5662902d94,0.0548,0.0549,1,46,208,125,1,seveneight,,,,,,,,,,,,,,,,,,,,,,,,,,,,,,,,,,,,,,,,,,,,,,,,,,,,,,,,,,,,,,,,,,,,,,,,,,,,,,,,,,,,,,,,,,,,,,,,,,,,,,,,,,,,,,,,,,,,,,,,,,,,,,,,,,,,,,,
,,5ed6df4000ce5d1664eed19f,2024-01-06_01h29.05.836,kallum_motion_pilot,2023.2.3,Win32,60.24096386,5ed6df4000ce5d1664eed19f,6598e6a5d84f07970b831e70,6598f0fa91e97f5662902d94,0.055,0.055,1,47,209,83,1,sixeight,,,,,,,,,,,,,,,,,,,,,,,,,,,,,,,,,,,,,,,,,,,,,,,,,,,,,,,,,,,,,,,,,,,,,,,,,,,,,,,,,,,,,,,,,,,,,,,,,,,,,,,,,,,,,,,,,,,,,,,,,,,,,,,,,,,,,,,
,,5ed6df4000ce5d1664eed19f,2024-01-06_01h29.05.836,kallum_motion_pilot,2023.2.3,Win32,60.24096386,5ed6df4000ce5d1664eed19f,6598e6a5d84f07970b831e70,6598f0fa91e97f5662902d94,0.055,0.0551,1,48,210,145,1,fiveseven,,,,,,,,,,,,,,,,,,,,,,,,,,,,,,,,,,,,,,,,,,,,,,,,,,,,,,,,,,,,,,,,,,,,,,,,,,,,,,,,,,,,,,,,,,,,,,,,,,,,,,,,,,,,,,,,,,,,,,,,,,,,,,,,,,,,,,,
,,5ed6df4000ce5d1664eed19f,2024-01-06_01h29.05.836,kallum_motion_pilot,2023.2.3,Win32,60.24096386,5ed6df4000ce5d1664eed19f,6598e6a5d84f07970b831e70,6598f0fa91e97f5662902d94,0.0552,0.0552,1,49,211,82,1,sixfive,,,,,,,,,,,,,,,,,,,,,,,,,,,,,,,,,,,,,,,,,,,,,,,,,,,,,,,,,,,,,,,,,,,,,,,,,,,,,,,,,,,,,,,,,,,,,,,,,,,,,,,,,,,,,,,,,,,,,,,,,,,,,,,,,,,,,,,
,,5ed6df4000ce5d1664eed19f,2024-01-06_01h29.05.836,kallum_motion_pilot,2023.2.3,Win32,60.24096386,5ed6df4000ce5d1664eed19f,6598e6a5d84f07970b831e70,6598f0fa91e97f5662902d94,0.0553,0.0554,1,50,212,24,1,onetwo,,,,,,,,,,,,,,,,,,,,,,,,,,,,,,,,,,,,,,,,,,,,,,,,,,,,,,,,,,,,,,,,,,,,,,,,,,,,,,,,,,,,,,,,,,,,,,,,,,,,,,,,,,,,,,,,,,,,,,,,,,,,,,,,,,,,,,,
,,5ed6df4000ce5d1664eed19f,2024-01-06_01h29.05.836,kallum_motion_pilot,2023.2.3,Win32,60.24096386,5ed6df4000ce5d1664eed19f,6598e6a5d84f07970b831e70,6598f0fa91e97f5662902d94,0.0554,0.0554,1,51,213,44,1,threeone,,,,,,,,,,,,,,,,,,,,,,,,,,,,,,,,,,,,,,,,,,,,,,,,,,,,,,,,,,,,,,,,,,,,,,,,,,,,,,,,,,,,,,,,,,,,,,,,,,,,,,,,,,,,,,,,,,,,,,,,,,,,,,,,,,,,,,,
,,5ed6df4000ce5d1664eed19f,2024-01-06_01h29.05.836,kallum_motion_pilot,2023.2.3,Win32,60.24096386,5ed6df4000ce5d1664eed19f,6598e6a5d84f07970b831e70,6598f0fa91e97f5662902d94,0.0556,0.0556,1,52,214,114,1,sixfive,,,,,,,,,,,,,,,,,,,,,,,,,,,,,,,,,,,,,,,,,,,,,,,,,,,,,,,,,,,,,,,,,,,,,,,,,,,,,,,,,,,,,,,,,,,,,,,,,,,,,,,,,,,,,,,,,,,,,,,,,,,,,,,,,,,,,,,
,,5ed6df4000ce5d1664eed19f,2024-01-06_01h29.05.836,kallum_motion_pilot,2023.2.3,Win32,60.24096386,5ed6df4000ce5d1664eed19f,6598e6a5d84f07970b831e70,6598f0fa91e97f5662902d94,0.0556,0.0557,1,53,215,153,1,fiveseven,,,,,,,,,,,,,,,,,,,,,,,,,,,,,,,,,,,,,,,,,,,,,,,,,,,,,,,,,,,,,,,,,,,,,,,,,,,,,,,,,,,,,,,,,,,,,,,,,,,,,,,,,,,,,,,,,,,,,,,,,,,,,,,,,,,,,,,
,,5ed6df4000ce5d1664eed19f,2024-01-06_01h29.05.836,kallum_motion_pilot,2023.2.3,Win32,60.24096386,5ed6df4000ce5d1664eed19f,6598e6a5d84f07970b831e70,6598f0fa91e97f5662902d94,0.0558,0.0558,1,54,216,14,1,fourtwo,,,,,,,,,,,,,,,,,,,,,,,,,,,,,,,,,,,,,,,,,,,,,,,,,,,,,,,,,,,,,,,,,,,,,,,,,,,,,,,,,,,,,,,,,,,,,,,,,,,,,,,,,,,,,,,,,,,,,,,,,,,,,,,,,,,,,,,
,,5ed6df4000ce5d1664eed19f,2024-01-06_01h29.05.836,kallum_motion_pilot,2023.2.3,Win32,60.24096386,5ed6df4000ce5d1664eed19f,6598e6a5d84f07970b831e70,6598f0fa91e97f5662902d94,0.0559,0.056,1,55,217,149,1,seveneight,,,,,,,,,,,,,,,,,,,,,,,,,,,,,,,,,,,,,,,,,,,,,,,,,,,,,,,,,,,,,,,,,,,,,,,,,,,,,,,,,,,,,,,,,,,,,,,,,,,,,,,,,,,,,,,,,,,,,,,,,,,,,,,,,,,,,,,
,,5ed6df4000ce5d1664eed19f,2024-01-06_01h29.05.836,kallum_motion_pilot,2023.2.3,Win32,60.24096386,5ed6df4000ce5d1664eed19f,6598e6a5d84f07970b831e70,6598f0fa91e97f5662902d94,0.056,0.0561,1,56,218,89,1,fiveseven,,,,,,,,,,,,,,,,,,,,,,,,,,,,,,,,,,,,,,,,,,,,,,,,,,,,,,,,,,,,,,,,,,,,,,,,,,,,,,,,,,,,,,,,,,,,,,,,,,,,,,,,,,,,,,,,,,,,,,,,,,,,,,,,,,,,,,,
,,5ed6df4000ce5d1664eed19f,2024-01-06_01h29.05.836,kallum_motion_pilot,2023.2.3,Win32,60.24096386,5ed6df4000ce5d1664eed19f,6598e6a5d84f07970b831e70,6598f0fa91e97f5662902d94,0.0562,0.0562,1,57,219,30,1,fourtwo,,,,,,,,,,,,,,,,,,,,,,,,,,,,,,,,,,,,,,,,,,,,,,,,,,,,,,,,,,,,,,,,,,,,,,,,,,,,,,,,,,,,,,,,,,,,,,,,,,,,,,,,,,,,,,,,,,,,,,,,,,,,,,,,,,,,,,,
,,5ed6df4000ce5d1664eed19f,2024-01-06_01h29.05.836,kallum_motion_pilot,2023.2.3,Win32,60.24096386,5ed6df4000ce5d1664eed19f,6598e6a5d84f07970b831e70,6598f0fa91e97f5662902d94,0.0563,0.0564,1,58,220,65,1,onethree,,,,,,,,,,,,,,,,,,,,,,,,,,,,,,,,,,,,,,,,,,,,,,,,,,,,,,,,,,,,,,,,,,,,,,,,,,,,,,,,,,,,,,,,,,,,,,,,,,,,,,,,,,,,,,,,,,,,,,,,,,,,,,,,,,,,,,,
,,5ed6df4000ce5d1664eed19f,2024-01-06_01h29.05.836,kallum_motion_pilot,2023.2.3,Win32,60.24096386,5ed6df4000ce5d1664eed19f,6598e6a5d84f07970b831e70,6598f0fa91e97f5662902d94,0.0565,0.0565,1,59,221,127,1,eightseven,,,,,,,,,,,,,,,,,,,,,,,,,,,,,,,,,,,,,,,,,,,,,,,,,,,,,,,,,,,,,,,,,,,,,,,,,,,,,,,,,,,,,,,,,,,,,,,,,,,,,,,,,,,,,,,,,,,,,,,,,,,,,,,,,,,,,,,
,,5ed6df4000ce5d1664eed19f,2024-01-06_01h29.05.836,kallum_motion_pilot,2023.2.3,Win32,60.24096386,5ed6df4000ce5d1664eed19f,6598e6a5d84f07970b831e70,6598f0fa91e97f5662902d94,0.0566,0.0566,1,60,222,51,1,twofour,,,,,,,,,,,,,,,,,,,,,,,,,,,,,,,,,,,,,,,,,,,,,,,,,,,,,,,,,,,,,,,,,,,,,,,,,,,,,,,,,,,,,,,,,,,,,,,,,,,,,,,,,,,,,,,,,,,,,,,,,,,,,,,,,,,,,,,
,,5ed6df4000ce5d1664eed19f,2024-01-06_01h29.05.836,kallum_motion_pilot,2023.2.3,Win32,60.24096386,5ed6df4000ce5d1664eed19f,6598e6a5d84f07970b831e70,6598f0fa91e97f5662902d94,0.0567,0.0568,1,61,223,76,1,threeone,,,,,,,,,,,,,,,,,,,,,,,,,,,,,,,,,,,,,,,,,,,,,,,,,,,,,,,,,,,,,,,,,,,,,,,,,,,,,,,,,,,,,,,,,,,,,,,,,,,,,,,,,,,,,,,,,,,,,,,,,,,,,,,,,,,,,,,
,,5ed6df4000ce5d1664eed19f,2024-01-06_01h29.05.836,kallum_motion_pilot,2023.2.3,Win32,60.24096386,5ed6df4000ce5d1664eed19f,6598e6a5d84f07970b831e70,6598f0fa91e97f5662902d94,0.0569,0.057,1,62,224,19,1,twofour,,,,,,,,,,,,,,,,,,,,,,,,,,,,,,,,,,,,,,,,,,,,,,,,,,,,,,,,,,,,,,,,,,,,,,,,,,,,,,,,,,,,,,,,,,,,,,,,,,,,,,,,,,,,,,,,,,,,,,,,,,,,,,,,,,,,,,,
,,5ed6df4000ce5d1664eed19f,2024-01-06_01h29.05.836,kallum_motion_pilot,2023.2.3,Win32,60.24096386,5ed6df4000ce5d1664eed19f,6598e6a5d84f07970b831e70,6598f0fa91e97f5662902d94,0.0571,0.0571,1,63,225,108,1,sevenfive,,,,,,,,,,,,,,,,,,,,,,,,,,,,,,,,,,,,,,,,,,,,,,,,,,,,,,,,,,,,,,,,,,,,,,,,,,,,,,,,,,,,,,,,,,,,,,,,,,,,,,,,,,,,,,,,,,,,,,,,,,,,,,,,,,,,,,,
,,5ed6df4000ce5d1664eed19f,2024-01-06_01h29.05.836,kallum_motion_pilot,2023.2.3,Win32,60.24096386,5ed6df4000ce5d1664eed19f,6598e6a5d84f07970b831e70,6598f0fa91e97f5662902d94,0.0573,0.0574,1,64,226,59,1,twofour,,,,,,,,,,,,,,,,,,,,,,,,,,,,,,,,,,,,,,,,,,,,,,,,,,,,,,,,,,,,,,,,,,,,,,,,,,,,,,,,,,,,,,,,,,,,,,,,,,,,,,,,,,,,,,,,,,,,,,,,,,,,,,,,,,,,,,,
,,5ed6df4000ce5d1664eed19f,2024-01-06_01h29.05.836,kallum_motion_pilot,2023.2.3,Win32,60.24096386,5ed6df4000ce5d1664eed19f,6598e6a5d84f07970b831e70,6598f0fa91e97f5662902d94,0.0575,0.0577,1,65,227,157,1,seveneight,,,,,,,,,,,,,,,,,,,,,,,,,,,,,,,,,,,,,,,,,,,,,,,,,,,,,,,,,,,,,,,,,,,,,,,,,,,,,,,,,,,,,,,,,,,,,,,,,,,,,,,,,,,,,,,,,,,,,,,,,,,,,,,,,,,,,,,
,,5ed6df4000ce5d1664eed19f,2024-01-06_01h29.05.836,kallum_motion_pilot,2023.2.3,Win32,60.24096386,5ed6df4000ce5d1664eed19f,6598e6a5d84f07970b831e70,6598f0fa91e97f5662902d94,0.0578,0.0579,1,66,228,150,1,eightsix,,,,,,,,,,,,,,,,,,,,,,,,,,,,,,,,,,,,,,,,,,,,,,,,,,,,,,,,,,,,,,,,,,,,,,,,,,,,,,,,,,,,,,,,,,,,,,,,,,,,,,,,,,,,,,,,,,,,,,,,,,,,,,,,,,,,,,,
,,5ed6df4000ce5d1664eed19f,2024-01-06_01h29.05.836,kallum_motion_pilot,2023.2.3,Win32,60.24096386,5ed6df4000ce5d1664eed19f,6598e6a5d84f07970b831e70,6598f0fa91e97f5662902d94,0.0581,0.0582,1,67,229,103,1,eightseven,,,,,,,,,,,,,,,,,,,,,,,,,,,,,,,,,,,,,,,,,,,,,,,,,,,,,,,,,,,,,,,,,,,,,,,,,,,,,,,,,,,,,,,,,,,,,,,,,,,,,,,,,,,,,,,,,,,,,,,,,,,,,,,,,,,,,,,
,,5ed6df4000ce5d1664eed19f,2024-01-06_01h29.05.836,kallum_motion_pilot,2023.2.3,Win32,60.24096386,5ed6df4000ce5d1664eed19f,6598e6a5d84f07970b831e70,6598f0fa91e97f5662902d94,0.0583,0.0583,1,68,230,46,1,fourtwo,,,,,,,,,,,,,,,,,,,,,,,,,,,,,,,,,,,,,,,,,,,,,,,,,,,,,,,,,,,,,,,,,,,,,,,,,,,,,,,,,,,,,,,,,,,,,,,,,,,,,,,,,,,,,,,,,,,,,,,,,,,,,,,,,,,,,,,
,,5ed6df4000ce5d1664eed19f,2024-01-06_01h29.05.836,kallum_motion_pilot,2023.2.3,Win32,60.24096386,5ed6df4000ce5d1664eed19f,6598e6a5d84f07970b831e70,6598f0fa91e97f5662902d94,0.0584,0.0585,1,69,231,50,1,twoone,,,,,,,,,,,,,,,,,,,,,,,,,,,,,,,,,,,,,,,,,,,,,,,,,,,,,,,,,,,,,,,,,,,,,,,,,,,,,,,,,,,,,,,,,,,,,,,,,,,,,,,,,,,,,,,,,,,,,,,,,,,,,,,,,,,,,,,
,,5ed6df4000ce5d1664eed19f,2024-01-06_01h29.05.836,kallum_motion_pilot,2023.2.3,Win32,60.24096386,5ed6df4000ce5d1664eed19f,6598e6a5d84f07970b831e70,6598f0fa91e97f5662902d94,0.0586,0.0587,1,70,232,1,1,onethree,,,,,,,,,,,,,,,,,,,,,,,,,,,,,,,,,,,,,,,,,,,,,,,,,,,,,,,,,,,,,,,,,,,,,,,,,,,,,,,,,,,,,,,,,,,,,,,,,,,,,,,,,,,,,,,,,,,,,,,,,,,,,,,,,,,,,,,
,,5ed6df4000ce5d1664eed19f,2024-01-06_01h29.05.836,kallum_motion_pilot,2023.2.3,Win32,60.24096386,5ed6df4000ce5d1664eed19f,6598e6a5d84f07970b831e70,6598f0fa91e97f5662902d94,0.0596,0.0596,1,71,233,16,1,onetwo,,,,,,,,,,,,,,,,,,,,,,,,,,,,,,,,,,,,,,,,,,,,,,,,,,,,,,,,,,,,,,,,,,,,,,,,,,,,,,,,,,,,,,,,,,,,,,,,,,,,,,,,,,,,,,,,,,,,,,,,,,,,,,,,,,,,,,,
,,5ed6df4000ce5d1664eed19f,2024-01-06_01h29.05.836,kallum_motion_pilot,2023.2.3,Win32,60.24096386,5ed6df4000ce5d1664eed19f,6598e6a5d84f07970b831e70,6598f0fa91e97f5662902d94,0.0598,0.0598,1,72,234,15,1,fourthree,,,,,,,,,,,,,,,,,,,,,,,,,,,,,,,,,,,,,,,,,,,,,,,,,,,,,,,,,,,,,,,,,,,,,,,,,,,,,,,,,,,,,,,,,,,,,,,,,,,,,,,,,,,,,,,,,,,,,,,,,,,,,,,,,,,,,,,
,,5ed6df4000ce5d1664eed19f,2024-01-06_01h29.05.836,kallum_motion_pilot,2023.2.3,Win32,60.24096386,5ed6df4000ce5d1664eed19f,6598e6a5d84f07970b831e70,6598f0fa91e97f5662902d94,0.0599,0.06,1,73,235,47,1,fourthree,,,,,,,,,,,,,,,,,,,,,,,,,,,,,,,,,,,,,,,,,,,,,,,,,,,,,,,,,,,,,,,,,,,,,,,,,,,,,,,,,,,,,,,,,,,,,,,,,,,,,,,,,,,,,,,,,,,,,,,,,,,,,,,,,,,,,,,
,,5ed6df4000ce5d1664eed19f,2024-01-06_01h29.05.836,kallum_motion_pilot,2023.2.3,Win32,60.24096386,5ed6df4000ce5d1664eed19f,6598e6a5d84f07970b831e70,6598f0fa91e97f5662902d94,0.0602,0.0603,1,74,236,12,1,threeone,,,,,,,,,,,,,,,,,,,,,,,,,,,,,,,,,,,,,,,,,,,,,,,,,,,,,,,,,,,,,,,,,,,,,,,,,,,,,,,,,,,,,,,,,,,,,,,,,,,,,,,,,,,,,,,,,,,,,,,,,,,,,,,,,,,,,,,
,,5ed6df4000ce5d1664eed19f,2024-01-06_01h29.05.836,kallum_motion_pilot,2023.2.3,Win32,60.24096386,5ed6df4000ce5d1664eed19f,6598e6a5d84f07970b831e70,6598f0fa91e97f5662902d94,0.0603,0.0605,1,75,237,0,1,onetwo,,,,,,,,,,,,,,,,,,,,,,,,,,,,,,,,,,,,,,,,,,,,,,,,,,,,,,,,,,,,,,,,,,,,,,,,,,,,,,,,,,,,,,,,,,,,,,,,,,,,,,,,,,,,,,,,,,,,,,,,,,,,,,,,,,,,,,,
,,5ed6df4000ce5d1664eed19f,2024-01-06_01h29.05.836,kallum_motion_pilot,2023.2.3,Win32,60.24096386,5ed6df4000ce5d1664eed19f,6598e6a5d84f07970b831e70,6598f0fa91e97f5662902d94,0.0606,0.0607,1,76,238,80,1,fivesix,,,,,,,,,,,,,,,,,,,,,,,,,,,,,,,,,,,,,,,,,,,,,,,,,,,,,,,,,,,,,,,,,,,,,,,,,,,,,,,,,,,,,,,,,,,,,,,,,,,,,,,,,,,,,,,,,,,,,,,,,,,,,,,,,,,,,,,
,,5ed6df4000ce5d1664eed19f,2024-01-06_01h29.05.836,kallum_motion_pilot,2023.2.3,Win32,60.24096386,5ed6df4000ce5d1664eed19f,6598e6a5d84f07970b831e70,6598f0fa91e97f5662902d94,0.0608,0.0609,1,77,239,95,1,eightseven,,,,,,,,,,,,,,,,,,,,,,,,,,,,,,,,,,,,,,,,,,,,,,,,,,,,,,,,,,,,,,,,,,,,,,,,,,,,,,,,,,,,,,,,,,,,,,,,,,,,,,,,,,,,,,,,,,,,,,,,,,,,,,,,,,,,,,,
,,5ed6df4000ce5d1664eed19f,2024-01-06_01h29.05.836,kallum_motion_pilot,2023.2.3,Win32,60.24096386,5ed6df4000ce5d1664eed19f,6598e6a5d84f07970b831e70,6598f0fa91e97f5662902d94,0.0609,0.0609,1,78,240,5,1,threefour,,,,,,,,,,,,,,,,,,,,,,,,,,,,,,,,,,,,,,,,,,,,,,,,,,,,,,,,,,,,,,,,,,,,,,,,,,,,,,,,,,,,,,,,,,,,,,,,,,,,,,,,,,,,,,,,,,,,,,,,,,,,,,,,,,,,,,,
,,5ed6df4000ce5d1664eed19f,2024-01-06_01h29.05.836,kallum_motion_pilot,2023.2.3,Win32,60.24096386,5ed6df4000ce5d1664eed19f,6598e6a5d84f07970b831e70,6598f0fa91e97f5662902d94,0.061,0.0612,1,79,241,97,1,fiveseven,,,,,,,,,,,,,,,,,,,,,,,,,,,,,,,,,,,,,,,,,,,,,,,,,,,,,,,,,,,,,,,,,,,,,,,,,,,,,,,,,,,,,,,,,,,,,,,,,,,,,,,,,,,,,,,,,,,,,,,,,,,,,,,,,,,,,,,
,,5ed6df4000ce5d1664eed19f,2024-01-06_01h29.05.836,kallum_motion_pilot,2023.2.3,Win32,60.24096386,5ed6df4000ce5d1664eed19f,6598e6a5d84f07970b831e70,6598f0fa91e97f5662902d94,0.0613,0.0614,1,80,242,112,1,fivesix,,,,,,,,,,,,,,,,,,,,,,,,,,,,,,,,,,,,,,,,,,,,,,,,,,,,,,,,,,,,,,,,,,,,,,,,,,,,,,,,,,,,,,,,,,,,,,,,,,,,,,,,,,,,,,,,,,,,,,,,,,,,,,,,,,,,,,,
,,5ed6df4000ce5d1664eed19f,2024-01-06_01h29.05.836,kallum_motion_pilot,2023.2.3,Win32,60.24096386,5ed6df4000ce5d1664eed19f,6598e6a5d84f07970b831e70,6598f0fa91e97f5662902d94,0.0614,0.0616,1,81,243,81,1,fiveseven,,,,,,,,,,,,,,,,,,,,,,,,,,,,,,,,,,,,,,,,,,,,,,,,,,,,,,,,,,,,,,,,,,,,,,,,,,,,,,,,,,,,,,,,,,,,,,,,,,,,,,,,,,,,,,,,,,,,,,,,,,,,,,,,,,,,,,,
,,5ed6df4000ce5d1664eed19f,2024-01-06_01h29.05.836,kallum_motion_pilot,2023.2.3,Win32,60.24096386,5ed6df4000ce5d1664eed19f,6598e6a5d84f07970b831e70,6598f0fa91e97f5662902d94,0.0617,0.0618,1,82,244,141,1,seveneight,,,,,,,,,,,,,,,,,,,,,,,,,,,,,,,,,,,,,,,,,,,,,,,,,,,,,,,,,,,,,,,,,,,,,,,,,,,,,,,,,,,,,,,,,,,,,,,,,,,,,,,,,,,,,,,,,,,,,,,,,,,,,,,,,,,,,,,
,,5ed6df4000ce5d1664eed19f,2024-01-06_01h29.05.836,kallum_motion_pilot,2023.2.3,Win32,60.24096386,5ed6df4000ce5d1664eed19f,6598e6a5d84f07970b831e70,6598f0fa91e97f5662902d94,0.0619,0.062,1,83,245,18,1,twoone,,,,,,,,,,,,,,,,,,,,,,,,,,,,,,,,,,,,,,,,,,,,,,,,,,,,,,,,,,,,,,,,,,,,,,,,,,,,,,,,,,,,,,,,,,,,,,,,,,,,,,,,,,,,,,,,,,,,,,,,,,,,,,,,,,,,,,,
,,5ed6df4000ce5d1664eed19f,2024-01-06_01h29.05.836,kallum_motion_pilot,2023.2.3,Win32,60.24096386,5ed6df4000ce5d1664eed19f,6598e6a5d84f07970b831e70,6598f0fa91e97f5662902d94,0.0621,0.0622,1,84,246,6,1,fourtwo,,,,,,,,,,,,,,,,,,,,,,,,,,,,,,,,,,,,,,,,,,,,,,,,,,,,,,,,,,,,,,,,,,,,,,,,,,,,,,,,,,,,,,,,,,,,,,,,,,,,,,,,,,,,,,,,,,,,,,,,,,,,,,,,,,,,,,,
,,5ed6df4000ce5d1664eed19f,2024-01-06_01h29.05.836,kallum_motion_pilot,2023.2.3,Win32,60.24096386,5ed6df4000ce5d1664eed19f,6598e6a5d84f07970b831e70,6598f0fa91e97f5662902d94,0.0623,0.0623,1,85,247,121,1,fiveseven,,,,,,,,,,,,,,,,,,,,,,,,,,,,,,,,,,,,,,,,,,,,,,,,,,,,,,,,,,,,,,,,,,,,,,,,,,,,,,,,,,,,,,,,,,,,,,,,,,,,,,,,,,,,,,,,,,,,,,,,,,,,,,,,,,,,,,,
,,5ed6df4000ce5d1664eed19f,2024-01-06_01h29.05.836,kallum_motion_pilot,2023.2.3,Win32,60.24096386,5ed6df4000ce5d1664eed19f,6598e6a5d84f07970b831e70,6598f0fa91e97f5662902d94,0.0624,0.0626,1,86,248,146,1,sixfive,,,,,,,,,,,,,,,,,,,,,,,,,,,,,,,,,,,,,,,,,,,,,,,,,,,,,,,,,,,,,,,,,,,,,,,,,,,,,,,,,,,,,,,,,,,,,,,,,,,,,,,,,,,,,,,,,,,,,,,,,,,,,,,,,,,,,,,
,,5ed6df4000ce5d1664eed19f,2024-01-06_01h29.05.836,kallum_motion_pilot,2023.2.3,Win32,60.24096386,5ed6df4000ce5d1664eed19f,6598e6a5d84f07970b831e70,6598f0fa91e97f5662902d94,0.0627,0.0628,1,87,249,37,1,threefour,,,,,,,,,,,,,,,,,,,,,,,,,,,,,,,,,,,,,,,,,,,,,,,,,,,,,,,,,,,,,,,,,,,,,,,,,,,,,,,,,,,,,,,,,,,,,,,,,,,,,,,,,,,,,,,,,,,,,,,,,,,,,,,,,,,,,,,
,,5ed6df4000ce5d1664eed19f,2024-01-06_01h29.05.836,kallum_motion_pilot,2023.2.3,Win32,60.24096386,5ed6df4000ce5d1664eed19f,6598e6a5d84f07970b831e70,6598f0fa91e97f5662902d94,0.0629,0.063,1,88,250,118,1,eightsix,,,,,,,,,,,,,,,,,,,,,,,,,,,,,,,,,,,,,,,,,,,,,,,,,,,,,,,,,,,,,,,,,,,,,,,,,,,,,,,,,,,,,,,,,,,,,,,,,,,,,,,,,,,,,,,,,,,,,,,,,,,,,,,,,,,,,,,
,,5ed6df4000ce5d1664eed19f,2024-01-06_01h29.05.836,kallum_motion_pilot,2023.2.3,Win32,60.24096386,5ed6df4000ce5d1664eed19f,6598e6a5d84f07970b831e70,6598f0fa91e97f5662902d94,0.0632,0.0632,1,89,251,70,1,fourtwo,,,,,,,,,,,,,,,,,,,,,,,,,,,,,,,,,,,,,,,,,,,,,,,,,,,,,,,,,,,,,,,,,,,,,,,,,,,,,,,,,,,,,,,,,,,,,,,,,,,,,,,,,,,,,,,,,,,,,,,,,,,,,,,,,,,,,,,
,,5ed6df4000ce5d1664eed19f,2024-01-06_01h29.05.836,kallum_motion_pilot,2023.2.3,Win32,60.24096386,5ed6df4000ce5d1664eed19f,6598e6a5d84f07970b831e70,6598f0fa91e97f5662902d94,0.0633,0.0634,1,90,252,79,1,eightseven,,,,,,,,,,,,,,,,,,,,,,,,,,,,,,,,,,,,,,,,,,,,,,,,,,,,,,,,,,,,,,,,,,,,,,,,,,,,,,,,,,,,,,,,,,,,,,,,,,,,,,,,,,,,,,,,,,,,,,,,,,,,,,,,,,,,,,,
,,5ed6df4000ce5d1664eed19f,2024-01-06_01h29.05.836,kallum_motion_pilot,2023.2.3,Win32,60.24096386,5ed6df4000ce5d1664eed19f,6598e6a5d84f07970b831e70,6598f0fa91e97f5662902d94,0.0636,0.0636,1,91,253,132,1,sevenfive,,,,,,,,,,,,,,,,,,,,,,,,,,,,,,,,,,,,,,,,,,,,,,,,,,,,,,,,,,,,,,,,,,,,,,,,,,,,,,,,,,,,,,,,,,,,,,,,,,,,,,,,,,,,,,,,,,,,,,,,,,,,,,,,,,,,,,,
,,5ed6df4000ce5d1664eed19f,2024-01-06_01h29.05.836,kallum_motion_pilot,2023.2.3,Win32,60.24096386,5ed6df4000ce5d1664eed19f,6598e6a5d84f07970b831e70,6598f0fa91e97f5662902d94,0.0638,0.0639,1,92,254,105,1,fiveseven,,,,,,,,,,,,,,,,,,,,,,,,,,,,,,,,,,,,,,,,,,,,,,,,,,,,,,,,,,,,,,,,,,,,,,,,,,,,,,,,,,,,,,,,,,,,,,,,,,,,,,,,,,,,,,,,,,,,,,,,,,,,,,,,,,,,,,,
,,5ed6df4000ce5d1664eed19f,2024-01-06_01h29.05.836,kallum_motion_pilot,2023.2.3,Win32,60.24096386,5ed6df4000ce5d1664eed19f,6598e6a5d84f07970b831e70,6598f0fa91e97f5662902d94,0.0641,0.0642,1,93,255,106,1,sixfive,,,,,,,,,,,,,,,,,,,,,,,,,,,,,,,,,,,,,,,,,,,,,,,,,,,,,,,,,,,,,,,,,,,,,,,,,,,,,,,,,,,,,,,,,,,,,,,,,,,,,,,,,,,,,,,,,,,,,,,,,,,,,,,,,,,,,,,
,,5ed6df4000ce5d1664eed19f,2024-01-06_01h29.05.836,kallum_motion_pilot,2023.2.3,Win32,60.24096386,5ed6df4000ce5d1664eed19f,6598e6a5d84f07970b831e70,6598f0fa91e97f5662902d94,0.0643,0.0645,1,94,256,74,1,twoone,,,,,,,,,,,,,,,,,,,,,,,,,,,,,,,,,,,,,,,,,,,,,,,,,,,,,,,,,,,,,,,,,,,,,,,,,,,,,,,,,,,,,,,,,,,,,,,,,,,,,,,,,,,,,,,,,,,,,,,,,,,,,,,,,,,,,,,
,,5ed6df4000ce5d1664eed19f,2024-01-06_01h29.05.836,kallum_motion_pilot,2023.2.3,Win32,60.24096386,5ed6df4000ce5d1664eed19f,6598e6a5d84f07970b831e70,6598f0fa91e97f5662902d94,0.0645,0.0646,1,95,257,55,1,fourthree,,,,,,,,,,,,,,,,,,,,,,,,,,,,,,,,,,,,,,,,,,,,,,,,,,,,,,,,,,,,,,,,,,,,,,,,,,,,,,,,,,,,,,,,,,,,,,,,,,,,,,,,,,,,,,,,,,,,,,,,,,,,,,,,,,,,,,,
,,5ed6df4000ce5d1664eed19f,2024-01-06_01h29.05.836,kallum_motion_pilot,2023.2.3,Win32,60.24096386,5ed6df4000ce5d1664eed19f,6598e6a5d84f07970b831e70,6598f0fa91e97f5662902d94,0.0648,0.0649,1,96,258,84,1,sevenfive,,,,,,,,,,,,,,,,,,,,,,,,,,,,,,,,,,,,,,,,,,,,,,,,,,,,,,,,,,,,,,,,,,,,,,,,,,,,,,,,,,,,,,,,,,,,,,,,,,,,,,,,,,,,,,,,,,,,,,,,,,,,,,,,,,,,,,,
,,5ed6df4000ce5d1664eed19f,2024-01-06_01h29.05.836,kallum_motion_pilot,2023.2.3,Win32,60.24096386,5ed6df4000ce5d1664eed19f,6598e6a5d84f07970b831e70,6598f0fa91e97f5662902d94,0.065,0.065,1,97,259,25,1,onethree,,,,,,,,,,,,,,,,,,,,,,,,,,,,,,,,,,,,,,,,,,,,,,,,,,,,,,,,,,,,,,,,,,,,,,,,,,,,,,,,,,,,,,,,,,,,,,,,,,,,,,,,,,,,,,,,,,,,,,,,,,,,,,,,,,,,,,,
,,5ed6df4000ce5d1664eed19f,2024-01-06_01h29.05.836,kallum_motion_pilot,2023.2.3,Win32,60.24096386,5ed6df4000ce5d1664eed19f,6598e6a5d84f07970b831e70,6598f0fa91e97f5662902d94,0.0651,0.0654,1,98,260,58,1,twoone,,,,,,,,,,,,,,,,,,,,,,,,,,,,,,,,,,,,,,,,,,,,,,,,,,,,,,,,,,,,,,,,,,,,,,,,,,,,,,,,,,,,,,,,,,,,,,,,,,,,,,,,,,,,,,,,,,,,,,,,,,,,,,,,,,,,,,,
,,5ed6df4000ce5d1664eed19f,2024-01-06_01h29.05.836,kallum_motion_pilot,2023.2.3,Win32,60.24096386,5ed6df4000ce5d1664eed19f,6598e6a5d84f07970b831e70,6598f0fa91e97f5662902d94,0.0655,0.0656,1,99,261,43,1,twofour,,,,,,,,,,,,,,,,,,,,,,,,,,,,,,,,,,,,,,,,,,,,,,,,,,,,,,,,,,,,,,,,,,,,,,,,,,,,,,,,,,,,,,,,,,,,,,,,,,,,,,,,,,,,,,,,,,,,,,,,,,,,,,,,,,,,,,,
,,5ed6df4000ce5d1664eed19f,2024-01-06_01h29.05.836,kallum_motion_pilot,2023.2.3,Win32,60.24096386,5ed6df4000ce5d1664eed19f,6598e6a5d84f07970b831e70,6598f0fa91e97f5662902d94,0.0658,0.0659,1,100,262,115,1,sixeight,,,,,,,,,,,,,,,,,,,,,,,,,,,,,,,,,,,,,,,,,,,,,,,,,,,,,,,,,,,,,,,,,,,,,,,,,,,,,,,,,,,,,,,,,,,,,,,,,,,,,,,,,,,,,,,,,,,,,,,,,,,,,,,,,,,,,,,
,,5ed6df4000ce5d1664eed19f,2024-01-06_01h29.05.836,kallum_motion_pilot,2023.2.3,Win32,60.24096386,5ed6df4000ce5d1664eed19f,6598e6a5d84f07970b831e70,6598f0fa91e97f5662902d94,0.0661,0.0663,1,101,263,23,1,fourthree,,,,,,,,,,,,,,,,,,,,,,,,,,,,,,,,,,,,,,,,,,,,,,,,,,,,,,,,,,,,,,,,,,,,,,,,,,,,,,,,,,,,,,,,,,,,,,,,,,,,,,,,,,,,,,,,,,,,,,,,,,,,,,,,,,,,,,,
,,5ed6df4000ce5d1664eed19f,2024-01-06_01h29.05.836,kallum_motion_pilot,2023.2.3,Win32,60.24096386,5ed6df4000ce5d1664eed19f,6598e6a5d84f07970b831e70,6598f0fa91e97f5662902d94,0.0664,0.0666,1,102,264,69,1,threefour,,,,,,,,,,,,,,,,,,,,,,,,,,,,,,,,,,,,,,,,,,,,,,,,,,,,,,,,,,,,,,,,,,,,,,,,,,,,,,,,,,,,,,,,,,,,,,,,,,,,,,,,,,,,,,,,,,,,,,,,,,,,,,,,,,,,,,,
,,5ed6df4000ce5d1664eed19f,2024-01-06_01h29.05.836,kallum_motion_pilot,2023.2.3,Win32,60.24096386,5ed6df4000ce5d1664eed19f,6598e6a5d84f07970b831e70,6598f0fa91e97f5662902d94,0.0667,0.0669,1,103,265,35,1,twofour,,,,,,,,,,,,,,,,,,,,,,,,,,,,,,,,,,,,,,,,,,,,,,,,,,,,,,,,,,,,,,,,,,,,,,,,,,,,,,,,,,,,,,,,,,,,,,,,,,,,,,,,,,,,,,,,,,,,,,,,,,,,,,,,,,,,,,,
,,5ed6df4000ce5d1664eed19f,2024-01-06_01h29.05.836,kallum_motion_pilot,2023.2.3,Win32,60.24096386,5ed6df4000ce5d1664eed19f,6598e6a5d84f07970b831e70,6598f0fa91e97f5662902d94,0.067,0.0671,1,104,266,100,1,sevenfive,,,,,,,,,,,,,,,,,,,,,,,,,,,,,,,,,,,,,,,,,,,,,,,,,,,,,,,,,,,,,,,,,,,,,,,,,,,,,,,,,,,,,,,,,,,,,,,,,,,,,,,,,,,,,,,,,,,,,,,,,,,,,,,,,,,,,,,
,,5ed6df4000ce5d1664eed19f,2024-01-06_01h29.05.836,kallum_motion_pilot,2023.2.3,Win32,60.24096386,5ed6df4000ce5d1664eed19f,6598e6a5d84f07970b831e70,6598f0fa91e97f5662902d94,0.0672,0.0673,1,105,267,101,1,seveneight,,,,,,,,,,,,,,,,,,,,,,,,,,,,,,,,,,,,,,,,,,,,,,,,,,,,,,,,,,,,,,,,,,,,,,,,,,,,,,,,,,,,,,,,,,,,,,,,,,,,,,,,,,,,,,,,,,,,,,,,,,,,,,,,,,,,,,,
,,5ed6df4000ce5d1664eed19f,2024-01-06_01h29.05.836,kallum_motion_pilot,2023.2.3,Win32,60.24096386,5ed6df4000ce5d1664eed19f,6598e6a5d84f07970b831e70,6598f0fa91e97f5662902d94,0.0674,0.0674,1,106,268,13,1,threefour,,,,,,,,,,,,,,,,,,,,,,,,,,,,,,,,,,,,,,,,,,,,,,,,,,,,,,,,,,,,,,,,,,,,,,,,,,,,,,,,,,,,,,,,,,,,,,,,,,,,,,,,,,,,,,,,,,,,,,,,,,,,,,,,,,,,,,,
,,5ed6df4000ce5d1664eed19f,2024-01-06_01h29.05.836,kallum_motion_pilot,2023.2.3,Win32,60.24096386,5ed6df4000ce5d1664eed19f,6598e6a5d84f07970b831e70,6598f0fa91e97f5662902d94,0.0675,0.0676,1,107,269,29,1,threefour,,,,,,,,,,,,,,,,,,,,,,,,,,,,,,,,,,,,,,,,,,,,,,,,,,,,,,,,,,,,,,,,,,,,,,,,,,,,,,,,,,,,,,,,,,,,,,,,,,,,,,,,,,,,,,,,,,,,,,,,,,,,,,,,,,,,,,,
,,5ed6df4000ce5d1664eed19f,2024-01-06_01h29.05.836,kallum_motion_pilot,2023.2.3,Win32,60.24096386,5ed6df4000ce5d1664eed19f,6598e6a5d84f07970b831e70,6598f0fa91e97f5662902d94,0.0677,0.0677,1,108,270,62,1,fourtwo,,,,,,,,,,,,,,,,,,,,,,,,,,,,,,,,,,,,,,,,,,,,,,,,,,,,,,,,,,,,,,,,,,,,,,,,,,,,,,,,,,,,,,,,,,,,,,,,,,,,,,,,,,,,,,,,,,,,,,,,,,,,,,,,,,,,,,,
,,5ed6df4000ce5d1664eed19f,2024-01-06_01h29.05.836,kallum_motion_pilot,2023.2.3,Win32,60.24096386,5ed6df4000ce5d1664eed19f,6598e6a5d84f07970b831e70,6598f0fa91e97f5662902d94,0.0678,0.0679,1,109,271,33,1,onethree,,,,,,,,,,,,,,,,,,,,,,,,,,,,,,,,,,,,,,,,,,,,,,,,,,,,,,,,,,,,,,,,,,,,,,,,,,,,,,,,,,,,,,,,,,,,,,,,,,,,,,,,,,,,,,,,,,,,,,,,,,,,,,,,,,,,,,,
,,5ed6df4000ce5d1664eed19f,2024-01-06_01h29.05.836,kallum_motion_pilot,2023.2.3,Win32,60.24096386,5ed6df4000ce5d1664eed19f,6598e6a5d84f07970b831e70,6598f0fa91e97f5662902d94,0.0679,0.068,1,110,272,113,1,fiveseven,,,,,,,,,,,,,,,,,,,,,,,,,,,,,,,,,,,,,,,,,,,,,,,,,,,,,,,,,,,,,,,,,,,,,,,,,,,,,,,,,,,,,,,,,,,,,,,,,,,,,,,,,,,,,,,,,,,,,,,,,,,,,,,,,,,,,,,
,,5ed6df4000ce5d1664eed19f,2024-01-06_01h29.05.836,kallum_motion_pilot,2023.2.3,Win32,60.24096386,5ed6df4000ce5d1664eed19f,6598e6a5d84f07970b831e70,6598f0fa91e97f5662902d94,0.068,0.0681,1,111,273,75,1,twofour,,,,,,,,,,,,,,,,,,,,,,,,,,,,,,,,,,,,,,,,,,,,,,,,,,,,,,,,,,,,,,,,,,,,,,,,,,,,,,,,,,,,,,,,,,,,,,,,,,,,,,,,,,,,,,,,,,,,,,,,,,,,,,,,,,,,,,,
,,5ed6df4000ce5d1664eed19f,2024-01-06_01h29.05.836,kallum_motion_pilot,2023.2.3,Win32,60.24096386,5ed6df4000ce5d1664eed19f,6598e6a5d84f07970b831e70,6598f0fa91e97f5662902d94,0.0682,0.0683,1,112,274,49,1,onethree,,,,,,,,,,,,,,,,,,,,,,,,,,,,,,,,,,,,,,,,,,,,,,,,,,,,,,,,,,,,,,,,,,,,,,,,,,,,,,,,,,,,,,,,,,,,,,,,,,,,,,,,,,,,,,,,,,,,,,,,,,,,,,,,,,,,,,,
,,5ed6df4000ce5d1664eed19f,2024-01-06_01h29.05.836,kallum_motion_pilot,2023.2.3,Win32,60.24096386,5ed6df4000ce5d1664eed19f,6598e6a5d84f07970b831e70,6598f0fa91e97f5662902d94,0.0684,0.0684,1,113,275,3,1,twofour,,,,,,,,,,,,,,,,,,,,,,,,,,,,,,,,,,,,,,,,,,,,,,,,,,,,,,,,,,,,,,,,,,,,,,,,,,,,,,,,,,,,,,,,,,,,,,,,,,,,,,,,,,,,,,,,,,,,,,,,,,,,,,,,,,,,,,,
,,5ed6df4000ce5d1664eed19f,2024-01-06_01h29.05.836,kallum_motion_pilot,2023.2.3,Win32,60.24096386,5ed6df4000ce5d1664eed19f,6598e6a5d84f07970b831e70,6598f0fa91e97f5662902d94,0.0685,0.0685,1,114,276,61,1,threefour,,,,,,,,,,,,,,,,,,,,,,,,,,,,,,,,,,,,,,,,,,,,,,,,,,,,,,,,,,,,,,,,,,,,,,,,,,,,,,,,,,,,,,,,,,,,,,,,,,,,,,,,,,,,,,,,,,,,,,,,,,,,,,,,,,,,,,,
,,5ed6df4000ce5d1664eed19f,2024-01-06_01h29.05.836,kallum_motion_pilot,2023.2.3,Win32,60.24096386,5ed6df4000ce5d1664eed19f,6598e6a5d84f07970b831e70,6598f0fa91e97f5662902d94,0.0687,0.0687,1,115,277,148,1,sevenfive,,,,,,,,,,,,,,,,,,,,,,,,,,,,,,,,,,,,,,,,,,,,,,,,,,,,,,,,,,,,,,,,,,,,,,,,,,,,,,,,,,,,,,,,,,,,,,,,,,,,,,,,,,,,,,,,,,,,,,,,,,,,,,,,,,,,,,,
,,5ed6df4000ce5d1664eed19f,2024-01-06_01h29.05.836,kallum_motion_pilot,2023.2.3,Win32,60.24096386,5ed6df4000ce5d1664eed19f,6598e6a5d84f07970b831e70,6598f0fa91e97f5662902d94,0.0688,0.0689,1,116,278,10,1,twoone,,,,,,,,,,,,,,,,,,,,,,,,,,,,,,,,,,,,,,,,,,,,,,,,,,,,,,,,,,,,,,,,,,,,,,,,,,,,,,,,,,,,,,,,,,,,,,,,,,,,,,,,,,,,,,,,,,,,,,,,,,,,,,,,,,,,,,,
,,5ed6df4000ce5d1664eed19f,2024-01-06_01h29.05.836,kallum_motion_pilot,2023.2.3,Win32,60.24096386,5ed6df4000ce5d1664eed19f,6598e6a5d84f07970b831e70,6598f0fa91e97f5662902d94,0.0689,0.069,1,117,279,66,1,twoone,,,,,,,,,,,,,,,,,,,,,,,,,,,,,,,,,,,,,,,,,,,,,,,,,,,,,,,,,,,,,,,,,,,,,,,,,,,,,,,,,,,,,,,,,,,,,,,,,,,,,,,,,,,,,,,,,,,,,,,,,,,,,,,,,,,,,,,
