startup.started,startup.stopped,Prolific ID*,date,expName,psychopyVersion,OS,frameRate,PROLIFIC_PID,STUDY_ID,SESSION_ID,stimpositions.started,stimpositions.stopped,hardcoded_stimulus_positions.thisRepN,hardcoded_stimulus_positions.thisTrialN,hardcoded_stimulus_positions.thisN,hardcoded_stimulus_positions.thisIndex,hardcoded_stimulus_positions.ran,StimulusPos,stimorientation.started,stimorientation.stopped,prac_stimorientation_import_loop.thisRepN,prac_stimorientation_import_loop.thisTrialN,prac_stimorientation_import_loop.thisN,prac_stimorientation_import_loop.thisIndex,prac_stimorientation_import_loop.ran,Stimorientation,welcome_instr.started,welcome_instr.stopped,key_resp.keys,key_resp.rt,key_resp.duration,response_steppedout_1.started,response_steppedout_1.stopped,key_resp_20.keys,key_resp_20.rt,key_resp_20.duration,response_steppedout_2.started,response_steppedout_2.stopped,key_resp_19.keys,key_resp_19.rt,key_resp_19.duration,stim_response_instr.started,stim_response_instr.stopped,key_resp_15.keys,key_resp_15.rt,key_resp_15.duration,direction_instr_2.started,direction_instr_2.stopped,key_resp_9.keys,key_resp_9.rt,key_resp_9.duration,instr_prac.started,instr_prac.stopped,key_resp_10.keys,key_resp_10.rt,key_resp_10.duration,Stim1_display_prac.started,Stim1_display_prac.stopped,Ecc,Circle1_ori,Circle2_ori,response_prac.started,similarity,response_time,response_prac.stopped,mouse_5.x,mouse_5.y,mouse_5.leftButton,mouse_5.midButton,mouse_5.rightButton,mouse_5.clicked_name,responseprac_feedback.started,responseprac_feedback.stopped,summary2_prac.started,summary2_prac.stopped,mouse_6.x,mouse_6.y,mouse_6.leftButton,mouse_6.midButton,mouse_6.rightButton,mouse_6.clicked_name,duringprac.thisRepN,duringprac.thisTrialN,duringprac.thisN,duringprac.thisIndex,duringprac.ran,begin.started,begin.stopped,key_resp_22.keys,key_resp_22.rt,key_resp_22.duration,Stim1_display.started,Stim1_display.stopped,circle1_ori,circle2_ori,blank.started,blank.stopped,response.started,response.stopped,mouse.x,mouse.y,mouse.leftButton,mouse.midButton,mouse.rightButton,mouse.clicked_name,response_2.started,response_2.stopped,mouse_2.x,mouse_2.y,mouse_2.leftButton,mouse_2.midButton,mouse_2.rightButton,mouse_2.clicked_name,special_trial.started,special_trial.stopped,catch_1.started,catch_1.stopped,mouse_3.x,mouse_3.y,mouse_3.leftButton,mouse_3.midButton,mouse_3.rightButton,catchresponse,catchnumber,response_time_catch,Catch,response_sum.started,response_sum.stopped,mouse_11.x,mouse_11.y,mouse_11.leftButton,mouse_11.midButton,mouse_11.rightButton,main_trial.thisRepN,main_trial.thisTrialN,main_trial.thisN,main_trial.thisIndex,main_trial.ran,Orientationtrialno,xcircle1_ori,xcircle2_ori,flip_presentation_sequence_for_double_pass.started,flip_presentation_sequence_for_double_pass.stopped,double_pass.thisRepN,double_pass.thisTrialN,double_pass.thisN,double_pass.thisIndex,double_pass.ran,goodbye.started,goodbye.stopped,key_resp_3.keys,key_resp_3.rt,key_resp_3.duration
0.0004,0.0006,60309a142458094108f37f73,2024-01-05_23h39.42.769,kallum_motion_pilot,2023.2.3,Win32,59.88023952,60309a142458094108f37f73,6598e6a5d84f07970b831e70,6598e786f7d3baebf069650b,,,,,,,,,,,,,,,,,,,,,,,,,,,,,,,,,,,,,,,,,,,,,,,,,,,,,,,,,,,,,,,,,,,,,,,,,,,,,,,,,,,,,,,,,,,,,,,,,,,,,,,,,,,,,,,,,,,,,,,,,,,,,,,,,,,,,,,,,,,,,,,
,,60309a142458094108f37f73,2024-01-05_23h39.42.769,kallum_motion_pilot,2023.2.3,Win32,59.88023952,60309a142458094108f37f73,6598e6a5d84f07970b831e70,6598e786f7d3baebf069650b,0.0369,0.0372,0,0,0,67,1,twofour,,,,,,,,,,,,,,,,,,,,,,,,,,,,,,,,,,,,,,,,,,,,,,,,,,,,,,,,,,,,,,,,,,,,,,,,,,,,,,,,,,,,,,,,,,,,,,,,,,,,,,,,,,,,,,,,,,,,,,,,,,,,,,,,,,,,,,,
,,60309a142458094108f37f73,2024-01-05_23h39.42.769,kallum_motion_pilot,2023.2.3,Win32,59.88023952,60309a142458094108f37f73,6598e6a5d84f07970b831e70,6598e786f7d3baebf069650b,0.0376,0.0376,0,1,1,87,1,eightseven,,,,,,,,,,,,,,,,,,,,,,,,,,,,,,,,,,,,,,,,,,,,,,,,,,,,,,,,,,,,,,,,,,,,,,,,,,,,,,,,,,,,,,,,,,,,,,,,,,,,,,,,,,,,,,,,,,,,,,,,,,,,,,,,,,,,,,,
,,60309a142458094108f37f73,2024-01-05_23h39.42.769,kallum_motion_pilot,2023.2.3,Win32,59.88023952,60309a142458094108f37f73,6598e6a5d84f07970b831e70,6598e786f7d3baebf069650b,0.0379,0.0379,0,2,2,33,1,onethree,,,,,,,,,,,,,,,,,,,,,,,,,,,,,,,,,,,,,,,,,,,,,,,,,,,,,,,,,,,,,,,,,,,,,,,,,,,,,,,,,,,,,,,,,,,,,,,,,,,,,,,,,,,,,,,,,,,,,,,,,,,,,,,,,,,,,,,
,,60309a142458094108f37f73,2024-01-05_23h39.42.769,kallum_motion_pilot,2023.2.3,Win32,59.88023952,60309a142458094108f37f73,6598e6a5d84f07970b831e70,6598e786f7d3baebf069650b,0.0381,0.0381,0,3,3,16,1,onetwo,,,,,,,,,,,,,,,,,,,,,,,,,,,,,,,,,,,,,,,,,,,,,,,,,,,,,,,,,,,,,,,,,,,,,,,,,,,,,,,,,,,,,,,,,,,,,,,,,,,,,,,,,,,,,,,,,,,,,,,,,,,,,,,,,,,,,,,
,,60309a142458094108f37f73,2024-01-05_23h39.42.769,kallum_motion_pilot,2023.2.3,Win32,59.88023952,60309a142458094108f37f73,6598e6a5d84f07970b831e70,6598e786f7d3baebf069650b,0.0384,0.0384,0,4,4,59,1,twofour,,,,,,,,,,,,,,,,,,,,,,,,,,,,,,,,,,,,,,,,,,,,,,,,,,,,,,,,,,,,,,,,,,,,,,,,,,,,,,,,,,,,,,,,,,,,,,,,,,,,,,,,,,,,,,,,,,,,,,,,,,,,,,,,,,,,,,,
,,60309a142458094108f37f73,2024-01-05_23h39.42.769,kallum_motion_pilot,2023.2.3,Win32,59.88023952,60309a142458094108f37f73,6598e6a5d84f07970b831e70,6598e786f7d3baebf069650b,0.0386,0.0387,0,5,5,63,1,fourthree,,,,,,,,,,,,,,,,,,,,,,,,,,,,,,,,,,,,,,,,,,,,,,,,,,,,,,,,,,,,,,,,,,,,,,,,,,,,,,,,,,,,,,,,,,,,,,,,,,,,,,,,,,,,,,,,,,,,,,,,,,,,,,,,,,,,,,,
,,60309a142458094108f37f73,2024-01-05_23h39.42.769,kallum_motion_pilot,2023.2.3,Win32,59.88023952,60309a142458094108f37f73,6598e6a5d84f07970b831e70,6598e786f7d3baebf069650b,0.0388,0.0388,0,6,6,105,1,fiveseven,,,,,,,,,,,,,,,,,,,,,,,,,,,,,,,,,,,,,,,,,,,,,,,,,,,,,,,,,,,,,,,,,,,,,,,,,,,,,,,,,,,,,,,,,,,,,,,,,,,,,,,,,,,,,,,,,,,,,,,,,,,,,,,,,,,,,,,
,,60309a142458094108f37f73,2024-01-05_23h39.42.769,kallum_motion_pilot,2023.2.3,Win32,59.88023952,60309a142458094108f37f73,6598e6a5d84f07970b831e70,6598e786f7d3baebf069650b,0.0391,0.0392,0,7,7,44,1,threeone,,,,,,,,,,,,,,,,,,,,,,,,,,,,,,,,,,,,,,,,,,,,,,,,,,,,,,,,,,,,,,,,,,,,,,,,,,,,,,,,,,,,,,,,,,,,,,,,,,,,,,,,,,,,,,,,,,,,,,,,,,,,,,,,,,,,,,,
,,60309a142458094108f37f73,2024-01-05_23h39.42.769,kallum_motion_pilot,2023.2.3,Win32,59.88023952,60309a142458094108f37f73,6598e6a5d84f07970b831e70,6598e786f7d3baebf069650b,0.0393,0.0394,0,8,8,159,1,eightseven,,,,,,,,,,,,,,,,,,,,,,,,,,,,,,,,,,,,,,,,,,,,,,,,,,,,,,,,,,,,,,,,,,,,,,,,,,,,,,,,,,,,,,,,,,,,,,,,,,,,,,,,,,,,,,,,,,,,,,,,,,,,,,,,,,,,,,,
,,60309a142458094108f37f73,2024-01-05_23h39.42.769,kallum_motion_pilot,2023.2.3,Win32,59.88023952,60309a142458094108f37f73,6598e6a5d84f07970b831e70,6598e786f7d3baebf069650b,0.0396,0.0396,0,9,9,17,1,onethree,,,,,,,,,,,,,,,,,,,,,,,,,,,,,,,,,,,,,,,,,,,,,,,,,,,,,,,,,,,,,,,,,,,,,,,,,,,,,,,,,,,,,,,,,,,,,,,,,,,,,,,,,,,,,,,,,,,,,,,,,,,,,,,,,,,,,,,
,,60309a142458094108f37f73,2024-01-05_23h39.42.769,kallum_motion_pilot,2023.2.3,Win32,59.88023952,60309a142458094108f37f73,6598e6a5d84f07970b831e70,6598e786f7d3baebf069650b,0.0399,0.0399,0,10,10,61,1,threefour,,,,,,,,,,,,,,,,,,,,,,,,,,,,,,,,,,,,,,,,,,,,,,,,,,,,,,,,,,,,,,,,,,,,,,,,,,,,,,,,,,,,,,,,,,,,,,,,,,,,,,,,,,,,,,,,,,,,,,,,,,,,,,,,,,,,,,,
,,60309a142458094108f37f73,2024-01-05_23h39.42.769,kallum_motion_pilot,2023.2.3,Win32,59.88023952,60309a142458094108f37f73,6598e6a5d84f07970b831e70,6598e786f7d3baebf069650b,0.0401,0.0401,0,11,11,77,1,threefour,,,,,,,,,,,,,,,,,,,,,,,,,,,,,,,,,,,,,,,,,,,,,,,,,,,,,,,,,,,,,,,,,,,,,,,,,,,,,,,,,,,,,,,,,,,,,,,,,,,,,,,,,,,,,,,,,,,,,,,,,,,,,,,,,,,,,,,
,,60309a142458094108f37f73,2024-01-05_23h39.42.769,kallum_motion_pilot,2023.2.3,Win32,59.88023952,60309a142458094108f37f73,6598e6a5d84f07970b831e70,6598e786f7d3baebf069650b,0.0402,0.0404,0,12,12,155,1,sixeight,,,,,,,,,,,,,,,,,,,,,,,,,,,,,,,,,,,,,,,,,,,,,,,,,,,,,,,,,,,,,,,,,,,,,,,,,,,,,,,,,,,,,,,,,,,,,,,,,,,,,,,,,,,,,,,,,,,,,,,,,,,,,,,,,,,,,,,
,,60309a142458094108f37f73,2024-01-05_23h39.42.769,kallum_motion_pilot,2023.2.3,Win32,59.88023952,60309a142458094108f37f73,6598e6a5d84f07970b831e70,6598e786f7d3baebf069650b,0.0405,0.0405,0,13,13,12,1,threeone,,,,,,,,,,,,,,,,,,,,,,,,,,,,,,,,,,,,,,,,,,,,,,,,,,,,,,,,,,,,,,,,,,,,,,,,,,,,,,,,,,,,,,,,,,,,,,,,,,,,,,,,,,,,,,,,,,,,,,,,,,,,,,,,,,,,,,,
,,60309a142458094108f37f73,2024-01-05_23h39.42.769,kallum_motion_pilot,2023.2.3,Win32,59.88023952,60309a142458094108f37f73,6598e6a5d84f07970b831e70,6598e786f7d3baebf069650b,0.0407,0.0407,0,14,14,129,1,fiveseven,,,,,,,,,,,,,,,,,,,,,,,,,,,,,,,,,,,,,,,,,,,,,,,,,,,,,,,,,,,,,,,,,,,,,,,,,,,,,,,,,,,,,,,,,,,,,,,,,,,,,,,,,,,,,,,,,,,,,,,,,,,,,,,,,,,,,,,
,,60309a142458094108f37f73,2024-01-05_23h39.42.769,kallum_motion_pilot,2023.2.3,Win32,59.88023952,60309a142458094108f37f73,6598e6a5d84f07970b831e70,6598e786f7d3baebf069650b,0.0412,0.0414,0,15,15,66,1,twoone,,,,,,,,,,,,,,,,,,,,,,,,,,,,,,,,,,,,,,,,,,,,,,,,,,,,,,,,,,,,,,,,,,,,,,,,,,,,,,,,,,,,,,,,,,,,,,,,,,,,,,,,,,,,,,,,,,,,,,,,,,,,,,,,,,,,,,,
,,60309a142458094108f37f73,2024-01-05_23h39.42.769,kallum_motion_pilot,2023.2.3,Win32,59.88023952,60309a142458094108f37f73,6598e6a5d84f07970b831e70,6598e786f7d3baebf069650b,0.0415,0.0416,0,16,16,32,1,onetwo,,,,,,,,,,,,,,,,,,,,,,,,,,,,,,,,,,,,,,,,,,,,,,,,,,,,,,,,,,,,,,,,,,,,,,,,,,,,,,,,,,,,,,,,,,,,,,,,,,,,,,,,,,,,,,,,,,,,,,,,,,,,,,,,,,,,,,,
,,60309a142458094108f37f73,2024-01-05_23h39.42.769,kallum_motion_pilot,2023.2.3,Win32,59.88023952,60309a142458094108f37f73,6598e6a5d84f07970b831e70,6598e786f7d3baebf069650b,0.0418,0.0419,0,17,17,95,1,eightseven,,,,,,,,,,,,,,,,,,,,,,,,,,,,,,,,,,,,,,,,,,,,,,,,,,,,,,,,,,,,,,,,,,,,,,,,,,,,,,,,,,,,,,,,,,,,,,,,,,,,,,,,,,,,,,,,,,,,,,,,,,,,,,,,,,,,,,,
,,60309a142458094108f37f73,2024-01-05_23h39.42.769,kallum_motion_pilot,2023.2.3,Win32,59.88023952,60309a142458094108f37f73,6598e6a5d84f07970b831e70,6598e786f7d3baebf069650b,0.0421,0.0421,0,18,18,149,1,seveneight,,,,,,,,,,,,,,,,,,,,,,,,,,,,,,,,,,,,,,,,,,,,,,,,,,,,,,,,,,,,,,,,,,,,,,,,,,,,,,,,,,,,,,,,,,,,,,,,,,,,,,,,,,,,,,,,,,,,,,,,,,,,,,,,,,,,,,,
,,60309a142458094108f37f73,2024-01-05_23h39.42.769,kallum_motion_pilot,2023.2.3,Win32,59.88023952,60309a142458094108f37f73,6598e6a5d84f07970b831e70,6598e786f7d3baebf069650b,0.0422,0.0422,0,19,19,104,1,fivesix,,,,,,,,,,,,,,,,,,,,,,,,,,,,,,,,,,,,,,,,,,,,,,,,,,,,,,,,,,,,,,,,,,,,,,,,,,,,,,,,,,,,,,,,,,,,,,,,,,,,,,,,,,,,,,,,,,,,,,,,,,,,,,,,,,,,,,,
,,60309a142458094108f37f73,2024-01-05_23h39.42.769,kallum_motion_pilot,2023.2.3,Win32,59.88023952,60309a142458094108f37f73,6598e6a5d84f07970b831e70,6598e786f7d3baebf069650b,0.0425,0.0425,0,20,20,71,1,fourthree,,,,,,,,,,,,,,,,,,,,,,,,,,,,,,,,,,,,,,,,,,,,,,,,,,,,,,,,,,,,,,,,,,,,,,,,,,,,,,,,,,,,,,,,,,,,,,,,,,,,,,,,,,,,,,,,,,,,,,,,,,,,,,,,,,,,,,,
,,60309a142458094108f37f73,2024-01-05_23h39.42.769,kallum_motion_pilot,2023.2.3,Win32,59.88023952,60309a142458094108f37f73,6598e6a5d84f07970b831e70,6598e786f7d3baebf069650b,0.0426,0.0426,0,21,21,30,1,fourtwo,,,,,,,,,,,,,,,,,,,,,,,,,,,,,,,,,,,,,,,,,,,,,,,,,,,,,,,,,,,,,,,,,,,,,,,,,,,,,,,,,,,,,,,,,,,,,,,,,,,,,,,,,,,,,,,,,,,,,,,,,,,,,,,,,,,,,,,
,,60309a142458094108f37f73,2024-01-05_23h39.42.769,kallum_motion_pilot,2023.2.3,Win32,59.88023952,60309a142458094108f37f73,6598e6a5d84f07970b831e70,6598e786f7d3baebf069650b,0.0428,0.0429,0,22,22,57,1,onethree,,,,,,,,,,,,,,,,,,,,,,,,,,,,,,,,,,,,,,,,,,,,,,,,,,,,,,,,,,,,,,,,,,,,,,,,,,,,,,,,,,,,,,,,,,,,,,,,,,,,,,,,,,,,,,,,,,,,,,,,,,,,,,,,,,,,,,,
,,60309a142458094108f37f73,2024-01-05_23h39.42.769,kallum_motion_pilot,2023.2.3,Win32,59.88023952,60309a142458094108f37f73,6598e6a5d84f07970b831e70,6598e786f7d3baebf069650b,0.043,0.0431,0,23,23,139,1,sixeight,,,,,,,,,,,,,,,,,,,,,,,,,,,,,,,,,,,,,,,,,,,,,,,,,,,,,,,,,,,,,,,,,,,,,,,,,,,,,,,,,,,,,,,,,,,,,,,,,,,,,,,,,,,,,,,,,,,,,,,,,,,,,,,,,,,,,,,
,,60309a142458094108f37f73,2024-01-05_23h39.42.769,kallum_motion_pilot,2023.2.3,Win32,59.88023952,60309a142458094108f37f73,6598e6a5d84f07970b831e70,6598e786f7d3baebf069650b,0.0433,0.0433,0,24,24,36,1,threeone,,,,,,,,,,,,,,,,,,,,,,,,,,,,,,,,,,,,,,,,,,,,,,,,,,,,,,,,,,,,,,,,,,,,,,,,,,,,,,,,,,,,,,,,,,,,,,,,,,,,,,,,,,,,,,,,,,,,,,,,,,,,,,,,,,,,,,,
,,60309a142458094108f37f73,2024-01-05_23h39.42.769,kallum_motion_pilot,2023.2.3,Win32,59.88023952,60309a142458094108f37f73,6598e6a5d84f07970b831e70,6598e786f7d3baebf069650b,0.0434,0.0435,0,25,25,65,1,onethree,,,,,,,,,,,,,,,,,,,,,,,,,,,,,,,,,,,,,,,,,,,,,,,,,,,,,,,,,,,,,,,,,,,,,,,,,,,,,,,,,,,,,,,,,,,,,,,,,,,,,,,,,,,,,,,,,,,,,,,,,,,,,,,,,,,,,,,
,,60309a142458094108f37f73,2024-01-05_23h39.42.769,kallum_motion_pilot,2023.2.3,Win32,59.88023952,60309a142458094108f37f73,6598e6a5d84f07970b831e70,6598e786f7d3baebf069650b,0.0437,0.0437,0,26,26,52,1,threeone,,,,,,,,,,,,,,,,,,,,,,,,,,,,,,,,,,,,,,,,,,,,,,,,,,,,,,,,,,,,,,,,,,,,,,,,,,,,,,,,,,,,,,,,,,,,,,,,,,,,,,,,,,,,,,,,,,,,,,,,,,,,,,,,,,,,,,,
,,60309a142458094108f37f73,2024-01-05_23h39.42.769,kallum_motion_pilot,2023.2.3,Win32,59.88023952,60309a142458094108f37f73,6598e6a5d84f07970b831e70,6598e786f7d3baebf069650b,0.0439,0.0439,0,27,27,48,1,onetwo,,,,,,,,,,,,,,,,,,,,,,,,,,,,,,,,,,,,,,,,,,,,,,,,,,,,,,,,,,,,,,,,,,,,,,,,,,,,,,,,,,,,,,,,,,,,,,,,,,,,,,,,,,,,,,,,,,,,,,,,,,,,,,,,,,,,,,,
,,60309a142458094108f37f73,2024-01-05_23h39.42.769,kallum_motion_pilot,2023.2.3,Win32,59.88023952,60309a142458094108f37f73,6598e6a5d84f07970b831e70,6598e786f7d3baebf069650b,0.0441,0.0441,0,28,28,39,1,fourthree,,,,,,,,,,,,,,,,,,,,,,,,,,,,,,,,,,,,,,,,,,,,,,,,,,,,,,,,,,,,,,,,,,,,,,,,,,,,,,,,,,,,,,,,,,,,,,,,,,,,,,,,,,,,,,,,,,,,,,,,,,,,,,,,,,,,,,,
,,60309a142458094108f37f73,2024-01-05_23h39.42.769,kallum_motion_pilot,2023.2.3,Win32,59.88023952,60309a142458094108f37f73,6598e6a5d84f07970b831e70,6598e786f7d3baebf069650b,0.0443,0.0444,0,29,29,108,1,sevenfive,,,,,,,,,,,,,,,,,,,,,,,,,,,,,,,,,,,,,,,,,,,,,,,,,,,,,,,,,,,,,,,,,,,,,,,,,,,,,,,,,,,,,,,,,,,,,,,,,,,,,,,,,,,,,,,,,,,,,,,,,,,,,,,,,,,,,,,
,,60309a142458094108f37f73,2024-01-05_23h39.42.769,kallum_motion_pilot,2023.2.3,Win32,59.88023952,60309a142458094108f37f73,6598e6a5d84f07970b831e70,6598e786f7d3baebf069650b,0.0444,0.0445,0,30,30,70,1,fourtwo,,,,,,,,,,,,,,,,,,,,,,,,,,,,,,,,,,,,,,,,,,,,,,,,,,,,,,,,,,,,,,,,,,,,,,,,,,,,,,,,,,,,,,,,,,,,,,,,,,,,,,,,,,,,,,,,,,,,,,,,,,,,,,,,,,,,,,,
,,60309a142458094108f37f73,2024-01-05_23h39.42.769,kallum_motion_pilot,2023.2.3,Win32,59.88023952,60309a142458094108f37f73,6598e6a5d84f07970b831e70,6598e786f7d3baebf069650b,0.0447,0.0447,0,31,31,75,1,twofour,,,,,,,,,,,,,,,,,,,,,,,,,,,,,,,,,,,,,,,,,,,,,,,,,,,,,,,,,,,,,,,,,,,,,,,,,,,,,,,,,,,,,,,,,,,,,,,,,,,,,,,,,,,,,,,,,,,,,,,,,,,,,,,,,,,,,,,
,,60309a142458094108f37f73,2024-01-05_23h39.42.769,kallum_motion_pilot,2023.2.3,Win32,59.88023952,60309a142458094108f37f73,6598e6a5d84f07970b831e70,6598e786f7d3baebf069650b,0.0448,0.0449,0,32,32,112,1,fivesix,,,,,,,,,,,,,,,,,,,,,,,,,,,,,,,,,,,,,,,,,,,,,,,,,,,,,,,,,,,,,,,,,,,,,,,,,,,,,,,,,,,,,,,,,,,,,,,,,,,,,,,,,,,,,,,,,,,,,,,,,,,,,,,,,,,,,,,
,,60309a142458094108f37f73,2024-01-05_23h39.42.769,kallum_motion_pilot,2023.2.3,Win32,59.88023952,60309a142458094108f37f73,6598e6a5d84f07970b831e70,6598e786f7d3baebf069650b,0.0451,0.0451,0,33,33,145,1,fiveseven,,,,,,,,,,,,,,,,,,,,,,,,,,,,,,,,,,,,,,,,,,,,,,,,,,,,,,,,,,,,,,,,,,,,,,,,,,,,,,,,,,,,,,,,,,,,,,,,,,,,,,,,,,,,,,,,,,,,,,,,,,,,,,,,,,,,,,,
,,60309a142458094108f37f73,2024-01-05_23h39.42.769,kallum_motion_pilot,2023.2.3,Win32,59.88023952,60309a142458094108f37f73,6598e6a5d84f07970b831e70,6598e786f7d3baebf069650b,0.0453,0.0454,0,34,34,115,1,sixeight,,,,,,,,,,,,,,,,,,,,,,,,,,,,,,,,,,,,,,,,,,,,,,,,,,,,,,,,,,,,,,,,,,,,,,,,,,,,,,,,,,,,,,,,,,,,,,,,,,,,,,,,,,,,,,,,,,,,,,,,,,,,,,,,,,,,,,,
,,60309a142458094108f37f73,2024-01-05_23h39.42.769,kallum_motion_pilot,2023.2.3,Win32,59.88023952,60309a142458094108f37f73,6598e6a5d84f07970b831e70,6598e786f7d3baebf069650b,0.0456,0.0456,0,35,35,46,1,fourtwo,,,,,,,,,,,,,,,,,,,,,,,,,,,,,,,,,,,,,,,,,,,,,,,,,,,,,,,,,,,,,,,,,,,,,,,,,,,,,,,,,,,,,,,,,,,,,,,,,,,,,,,,,,,,,,,,,,,,,,,,,,,,,,,,,,,,,,,
,,60309a142458094108f37f73,2024-01-05_23h39.42.769,kallum_motion_pilot,2023.2.3,Win32,59.88023952,60309a142458094108f37f73,6598e6a5d84f07970b831e70,6598e786f7d3baebf069650b,0.0458,0.0459,0,36,36,72,1,onetwo,,,,,,,,,,,,,,,,,,,,,,,,,,,,,,,,,,,,,,,,,,,,,,,,,,,,,,,,,,,,,,,,,,,,,,,,,,,,,,,,,,,,,,,,,,,,,,,,,,,,,,,,,,,,,,,,,,,,,,,,,,,,,,,,,,,,,,,
,,60309a142458094108f37f73,2024-01-05_23h39.42.769,kallum_motion_pilot,2023.2.3,Win32,59.88023952,60309a142458094108f37f73,6598e6a5d84f07970b831e70,6598e786f7d3baebf069650b,0.0461,0.0462,0,37,37,118,1,eightsix,,,,,,,,,,,,,,,,,,,,,,,,,,,,,,,,,,,,,,,,,,,,,,,,,,,,,,,,,,,,,,,,,,,,,,,,,,,,,,,,,,,,,,,,,,,,,,,,,,,,,,,,,,,,,,,,,,,,,,,,,,,,,,,,,,,,,,,
,,60309a142458094108f37f73,2024-01-05_23h39.42.769,kallum_motion_pilot,2023.2.3,Win32,59.88023952,60309a142458094108f37f73,6598e6a5d84f07970b831e70,6598e786f7d3baebf069650b,0.0464,0.0465,0,38,38,31,1,fourthree,,,,,,,,,,,,,,,,,,,,,,,,,,,,,,,,,,,,,,,,,,,,,,,,,,,,,,,,,,,,,,,,,,,,,,,,,,,,,,,,,,,,,,,,,,,,,,,,,,,,,,,,,,,,,,,,,,,,,,,,,,,,,,,,,,,,,,,
,,60309a142458094108f37f73,2024-01-05_23h39.42.769,kallum_motion_pilot,2023.2.3,Win32,59.88023952,60309a142458094108f37f73,6598e6a5d84f07970b831e70,6598e786f7d3baebf069650b,0.0467,0.0468,0,39,39,89,1,fiveseven,,,,,,,,,,,,,,,,,,,,,,,,,,,,,,,,,,,,,,,,,,,,,,,,,,,,,,,,,,,,,,,,,,,,,,,,,,,,,,,,,,,,,,,,,,,,,,,,,,,,,,,,,,,,,,,,,,,,,,,,,,,,,,,,,,,,,,,
,,60309a142458094108f37f73,2024-01-05_23h39.42.769,kallum_motion_pilot,2023.2.3,Win32,59.88023952,60309a142458094108f37f73,6598e6a5d84f07970b831e70,6598e786f7d3baebf069650b,0.047,0.0471,0,40,40,133,1,seveneight,,,,,,,,,,,,,,,,,,,,,,,,,,,,,,,,,,,,,,,,,,,,,,,,,,,,,,,,,,,,,,,,,,,,,,,,,,,,,,,,,,,,,,,,,,,,,,,,,,,,,,,,,,,,,,,,,,,,,,,,,,,,,,,,,,,,,,,
,,60309a142458094108f37f73,2024-01-05_23h39.42.769,kallum_motion_pilot,2023.2.3,Win32,59.88023952,60309a142458094108f37f73,6598e6a5d84f07970b831e70,6598e786f7d3baebf069650b,0.0473,0.0473,0,41,41,76,1,threeone,,,,,,,,,,,,,,,,,,,,,,,,,,,,,,,,,,,,,,,,,,,,,,,,,,,,,,,,,,,,,,,,,,,,,,,,,,,,,,,,,,,,,,,,,,,,,,,,,,,,,,,,,,,,,,,,,,,,,,,,,,,,,,,,,,,,,,,
,,60309a142458094108f37f73,2024-01-05_23h39.42.769,kallum_motion_pilot,2023.2.3,Win32,59.88023952,60309a142458094108f37f73,6598e6a5d84f07970b831e70,6598e786f7d3baebf069650b,0.0476,0.0477,0,42,42,64,1,onetwo,,,,,,,,,,,,,,,,,,,,,,,,,,,,,,,,,,,,,,,,,,,,,,,,,,,,,,,,,,,,,,,,,,,,,,,,,,,,,,,,,,,,,,,,,,,,,,,,,,,,,,,,,,,,,,,,,,,,,,,,,,,,,,,,,,,,,,,
,,60309a142458094108f37f73,2024-01-05_23h39.42.769,kallum_motion_pilot,2023.2.3,Win32,59.88023952,60309a142458094108f37f73,6598e6a5d84f07970b831e70,6598e786f7d3baebf069650b,0.0478,0.0479,0,43,43,100,1,sevenfive,,,,,,,,,,,,,,,,,,,,,,,,,,,,,,,,,,,,,,,,,,,,,,,,,,,,,,,,,,,,,,,,,,,,,,,,,,,,,,,,,,,,,,,,,,,,,,,,,,,,,,,,,,,,,,,,,,,,,,,,,,,,,,,,,,,,,,,
,,60309a142458094108f37f73,2024-01-05_23h39.42.769,kallum_motion_pilot,2023.2.3,Win32,59.88023952,60309a142458094108f37f73,6598e6a5d84f07970b831e70,6598e786f7d3baebf069650b,0.048,0.0481,0,44,44,69,1,threefour,,,,,,,,,,,,,,,,,,,,,,,,,,,,,,,,,,,,,,,,,,,,,,,,,,,,,,,,,,,,,,,,,,,,,,,,,,,,,,,,,,,,,,,,,,,,,,,,,,,,,,,,,,,,,,,,,,,,,,,,,,,,,,,,,,,,,,,
,,60309a142458094108f37f73,2024-01-05_23h39.42.769,kallum_motion_pilot,2023.2.3,Win32,59.88023952,60309a142458094108f37f73,6598e6a5d84f07970b831e70,6598e786f7d3baebf069650b,0.0482,0.0484,0,45,45,14,1,fourtwo,,,,,,,,,,,,,,,,,,,,,,,,,,,,,,,,,,,,,,,,,,,,,,,,,,,,,,,,,,,,,,,,,,,,,,,,,,,,,,,,,,,,,,,,,,,,,,,,,,,,,,,,,,,,,,,,,,,,,,,,,,,,,,,,,,,,,,,
,,60309a142458094108f37f73,2024-01-05_23h39.42.769,kallum_motion_pilot,2023.2.3,Win32,59.88023952,60309a142458094108f37f73,6598e6a5d84f07970b831e70,6598e786f7d3baebf069650b,0.0485,0.0485,0,46,46,91,1,sixeight,,,,,,,,,,,,,,,,,,,,,,,,,,,,,,,,,,,,,,,,,,,,,,,,,,,,,,,,,,,,,,,,,,,,,,,,,,,,,,,,,,,,,,,,,,,,,,,,,,,,,,,,,,,,,,,,,,,,,,,,,,,,,,,,,,,,,,,
,,60309a142458094108f37f73,2024-01-05_23h39.42.769,kallum_motion_pilot,2023.2.3,Win32,59.88023952,60309a142458094108f37f73,6598e6a5d84f07970b831e70,6598e786f7d3baebf069650b,0.0488,0.0488,0,47,47,5,1,threefour,,,,,,,,,,,,,,,,,,,,,,,,,,,,,,,,,,,,,,,,,,,,,,,,,,,,,,,,,,,,,,,,,,,,,,,,,,,,,,,,,,,,,,,,,,,,,,,,,,,,,,,,,,,,,,,,,,,,,,,,,,,,,,,,,,,,,,,
,,60309a142458094108f37f73,2024-01-05_23h39.42.769,kallum_motion_pilot,2023.2.3,Win32,59.88023952,60309a142458094108f37f73,6598e6a5d84f07970b831e70,6598e786f7d3baebf069650b,0.049,0.049,0,48,48,86,1,eightsix,,,,,,,,,,,,,,,,,,,,,,,,,,,,,,,,,,,,,,,,,,,,,,,,,,,,,,,,,,,,,,,,,,,,,,,,,,,,,,,,,,,,,,,,,,,,,,,,,,,,,,,,,,,,,,,,,,,,,,,,,,,,,,,,,,,,,,,
,,60309a142458094108f37f73,2024-01-05_23h39.42.769,kallum_motion_pilot,2023.2.3,Win32,59.88023952,60309a142458094108f37f73,6598e6a5d84f07970b831e70,6598e786f7d3baebf069650b,0.0492,0.0493,0,49,49,141,1,seveneight,,,,,,,,,,,,,,,,,,,,,,,,,,,,,,,,,,,,,,,,,,,,,,,,,,,,,,,,,,,,,,,,,,,,,,,,,,,,,,,,,,,,,,,,,,,,,,,,,,,,,,,,,,,,,,,,,,,,,,,,,,,,,,,,,,,,,,,
,,60309a142458094108f37f73,2024-01-05_23h39.42.769,kallum_motion_pilot,2023.2.3,Win32,59.88023952,60309a142458094108f37f73,6598e6a5d84f07970b831e70,6598e786f7d3baebf069650b,0.0494,0.0495,0,50,50,116,1,sevenfive,,,,,,,,,,,,,,,,,,,,,,,,,,,,,,,,,,,,,,,,,,,,,,,,,,,,,,,,,,,,,,,,,,,,,,,,,,,,,,,,,,,,,,,,,,,,,,,,,,,,,,,,,,,,,,,,,,,,,,,,,,,,,,,,,,,,,,,
,,60309a142458094108f37f73,2024-01-05_23h39.42.769,kallum_motion_pilot,2023.2.3,Win32,59.88023952,60309a142458094108f37f73,6598e6a5d84f07970b831e70,6598e786f7d3baebf069650b,0.0497,0.0497,0,51,51,38,1,fourtwo,,,,,,,,,,,,,,,,,,,,,,,,,,,,,,,,,,,,,,,,,,,,,,,,,,,,,,,,,,,,,,,,,,,,,,,,,,,,,,,,,,,,,,,,,,,,,,,,,,,,,,,,,,,,,,,,,,,,,,,,,,,,,,,,,,,,,,,
,,60309a142458094108f37f73,2024-01-05_23h39.42.769,kallum_motion_pilot,2023.2.3,Win32,59.88023952,60309a142458094108f37f73,6598e6a5d84f07970b831e70,6598e786f7d3baebf069650b,0.0499,0.05,0,52,52,41,1,onethree,,,,,,,,,,,,,,,,,,,,,,,,,,,,,,,,,,,,,,,,,,,,,,,,,,,,,,,,,,,,,,,,,,,,,,,,,,,,,,,,,,,,,,,,,,,,,,,,,,,,,,,,,,,,,,,,,,,,,,,,,,,,,,,,,,,,,,,
,,60309a142458094108f37f73,2024-01-05_23h39.42.769,kallum_motion_pilot,2023.2.3,Win32,59.88023952,60309a142458094108f37f73,6598e6a5d84f07970b831e70,6598e786f7d3baebf069650b,0.0501,0.0502,0,53,53,138,1,sixfive,,,,,,,,,,,,,,,,,,,,,,,,,,,,,,,,,,,,,,,,,,,,,,,,,,,,,,,,,,,,,,,,,,,,,,,,,,,,,,,,,,,,,,,,,,,,,,,,,,,,,,,,,,,,,,,,,,,,,,,,,,,,,,,,,,,,,,,
,,60309a142458094108f37f73,2024-01-05_23h39.42.769,kallum_motion_pilot,2023.2.3,Win32,59.88023952,60309a142458094108f37f73,6598e6a5d84f07970b831e70,6598e786f7d3baebf069650b,0.0503,0.0504,0,54,54,135,1,eightseven,,,,,,,,,,,,,,,,,,,,,,,,,,,,,,,,,,,,,,,,,,,,,,,,,,,,,,,,,,,,,,,,,,,,,,,,,,,,,,,,,,,,,,,,,,,,,,,,,,,,,,,,,,,,,,,,,,,,,,,,,,,,,,,,,,,,,,,
,,60309a142458094108f37f73,2024-01-05_23h39.42.769,kallum_motion_pilot,2023.2.3,Win32,59.88023952,60309a142458094108f37f73,6598e6a5d84f07970b831e70,6598e786f7d3baebf069650b,0.0505,0.0506,0,55,55,84,1,sevenfive,,,,,,,,,,,,,,,,,,,,,,,,,,,,,,,,,,,,,,,,,,,,,,,,,,,,,,,,,,,,,,,,,,,,,,,,,,,,,,,,,,,,,,,,,,,,,,,,,,,,,,,,,,,,,,,,,,,,,,,,,,,,,,,,,,,,,,,
,,60309a142458094108f37f73,2024-01-05_23h39.42.769,kallum_motion_pilot,2023.2.3,Win32,59.88023952,60309a142458094108f37f73,6598e6a5d84f07970b831e70,6598e786f7d3baebf069650b,0.0508,0.0508,0,56,56,25,1,onethree,,,,,,,,,,,,,,,,,,,,,,,,,,,,,,,,,,,,,,,,,,,,,,,,,,,,,,,,,,,,,,,,,,,,,,,,,,,,,,,,,,,,,,,,,,,,,,,,,,,,,,,,,,,,,,,,,,,,,,,,,,,,,,,,,,,,,,,
,,60309a142458094108f37f73,2024-01-05_23h39.42.769,kallum_motion_pilot,2023.2.3,Win32,59.88023952,60309a142458094108f37f73,6598e6a5d84f07970b831e70,6598e786f7d3baebf069650b,0.051,0.051,0,57,57,110,1,eightsix,,,,,,,,,,,,,,,,,,,,,,,,,,,,,,,,,,,,,,,,,,,,,,,,,,,,,,,,,,,,,,,,,,,,,,,,,,,,,,,,,,,,,,,,,,,,,,,,,,,,,,,,,,,,,,,,,,,,,,,,,,,,,,,,,,,,,,,
,,60309a142458094108f37f73,2024-01-05_23h39.42.769,kallum_motion_pilot,2023.2.3,Win32,59.88023952,60309a142458094108f37f73,6598e6a5d84f07970b831e70,6598e786f7d3baebf069650b,0.0512,0.0513,0,58,58,37,1,threefour,,,,,,,,,,,,,,,,,,,,,,,,,,,,,,,,,,,,,,,,,,,,,,,,,,,,,,,,,,,,,,,,,,,,,,,,,,,,,,,,,,,,,,,,,,,,,,,,,,,,,,,,,,,,,,,,,,,,,,,,,,,,,,,,,,,,,,,
,,60309a142458094108f37f73,2024-01-05_23h39.42.769,kallum_motion_pilot,2023.2.3,Win32,59.88023952,60309a142458094108f37f73,6598e6a5d84f07970b831e70,6598e786f7d3baebf069650b,0.0514,0.0515,0,59,59,122,1,sixfive,,,,,,,,,,,,,,,,,,,,,,,,,,,,,,,,,,,,,,,,,,,,,,,,,,,,,,,,,,,,,,,,,,,,,,,,,,,,,,,,,,,,,,,,,,,,,,,,,,,,,,,,,,,,,,,,,,,,,,,,,,,,,,,,,,,,,,,
,,60309a142458094108f37f73,2024-01-05_23h39.42.769,kallum_motion_pilot,2023.2.3,Win32,59.88023952,60309a142458094108f37f73,6598e6a5d84f07970b831e70,6598e786f7d3baebf069650b,0.0516,0.0517,0,60,60,29,1,threefour,,,,,,,,,,,,,,,,,,,,,,,,,,,,,,,,,,,,,,,,,,,,,,,,,,,,,,,,,,,,,,,,,,,,,,,,,,,,,,,,,,,,,,,,,,,,,,,,,,,,,,,,,,,,,,,,,,,,,,,,,,,,,,,,,,,,,,,
,,60309a142458094108f37f73,2024-01-05_23h39.42.769,kallum_motion_pilot,2023.2.3,Win32,59.88023952,60309a142458094108f37f73,6598e6a5d84f07970b831e70,6598e786f7d3baebf069650b,0.0519,0.052,0,61,61,4,1,threeone,,,,,,,,,,,,,,,,,,,,,,,,,,,,,,,,,,,,,,,,,,,,,,,,,,,,,,,,,,,,,,,,,,,,,,,,,,,,,,,,,,,,,,,,,,,,,,,,,,,,,,,,,,,,,,,,,,,,,,,,,,,,,,,,,,,,,,,
,,60309a142458094108f37f73,2024-01-05_23h39.42.769,kallum_motion_pilot,2023.2.3,Win32,59.88023952,60309a142458094108f37f73,6598e6a5d84f07970b831e70,6598e786f7d3baebf069650b,0.0521,0.0522,0,62,62,96,1,fivesix,,,,,,,,,,,,,,,,,,,,,,,,,,,,,,,,,,,,,,,,,,,,,,,,,,,,,,,,,,,,,,,,,,,,,,,,,,,,,,,,,,,,,,,,,,,,,,,,,,,,,,,,,,,,,,,,,,,,,,,,,,,,,,,,,,,,,,,
,,60309a142458094108f37f73,2024-01-05_23h39.42.769,kallum_motion_pilot,2023.2.3,Win32,59.88023952,60309a142458094108f37f73,6598e6a5d84f07970b831e70,6598e786f7d3baebf069650b,0.0524,0.0527,0,63,63,123,1,sixeight,,,,,,,,,,,,,,,,,,,,,,,,,,,,,,,,,,,,,,,,,,,,,,,,,,,,,,,,,,,,,,,,,,,,,,,,,,,,,,,,,,,,,,,,,,,,,,,,,,,,,,,,,,,,,,,,,,,,,,,,,,,,,,,,,,,,,,,
,,60309a142458094108f37f73,2024-01-05_23h39.42.769,kallum_motion_pilot,2023.2.3,Win32,59.88023952,60309a142458094108f37f73,6598e6a5d84f07970b831e70,6598e786f7d3baebf069650b,0.0529,0.053,0,64,64,56,1,onetwo,,,,,,,,,,,,,,,,,,,,,,,,,,,,,,,,,,,,,,,,,,,,,,,,,,,,,,,,,,,,,,,,,,,,,,,,,,,,,,,,,,,,,,,,,,,,,,,,,,,,,,,,,,,,,,,,,,,,,,,,,,,,,,,,,,,,,,,
,,60309a142458094108f37f73,2024-01-05_23h39.42.769,kallum_motion_pilot,2023.2.3,Win32,59.88023952,60309a142458094108f37f73,6598e6a5d84f07970b831e70,6598e786f7d3baebf069650b,0.0542,0.0543,0,65,65,114,1,sixfive,,,,,,,,,,,,,,,,,,,,,,,,,,,,,,,,,,,,,,,,,,,,,,,,,,,,,,,,,,,,,,,,,,,,,,,,,,,,,,,,,,,,,,,,,,,,,,,,,,,,,,,,,,,,,,,,,,,,,,,,,,,,,,,,,,,,,,,
,,60309a142458094108f37f73,2024-01-05_23h39.42.769,kallum_motion_pilot,2023.2.3,Win32,59.88023952,60309a142458094108f37f73,6598e6a5d84f07970b831e70,6598e786f7d3baebf069650b,0.0544,0.0545,0,66,66,119,1,eightseven,,,,,,,,,,,,,,,,,,,,,,,,,,,,,,,,,,,,,,,,,,,,,,,,,,,,,,,,,,,,,,,,,,,,,,,,,,,,,,,,,,,,,,,,,,,,,,,,,,,,,,,,,,,,,,,,,,,,,,,,,,,,,,,,,,,,,,,
,,60309a142458094108f37f73,2024-01-05_23h39.42.769,kallum_motion_pilot,2023.2.3,Win32,59.88023952,60309a142458094108f37f73,6598e6a5d84f07970b831e70,6598e786f7d3baebf069650b,0.0547,0.0548,0,67,67,79,1,eightseven,,,,,,,,,,,,,,,,,,,,,,,,,,,,,,,,,,,,,,,,,,,,,,,,,,,,,,,,,,,,,,,,,,,,,,,,,,,,,,,,,,,,,,,,,,,,,,,,,,,,,,,,,,,,,,,,,,,,,,,,,,,,,,,,,,,,,,,
,,60309a142458094108f37f73,2024-01-05_23h39.42.769,kallum_motion_pilot,2023.2.3,Win32,59.88023952,60309a142458094108f37f73,6598e6a5d84f07970b831e70,6598e786f7d3baebf069650b,0.055,0.055,0,68,68,128,1,fivesix,,,,,,,,,,,,,,,,,,,,,,,,,,,,,,,,,,,,,,,,,,,,,,,,,,,,,,,,,,,,,,,,,,,,,,,,,,,,,,,,,,,,,,,,,,,,,,,,,,,,,,,,,,,,,,,,,,,,,,,,,,,,,,,,,,,,,,,
,,60309a142458094108f37f73,2024-01-05_23h39.42.769,kallum_motion_pilot,2023.2.3,Win32,59.88023952,60309a142458094108f37f73,6598e6a5d84f07970b831e70,6598e786f7d3baebf069650b,0.0552,0.0553,0,69,69,134,1,eightsix,,,,,,,,,,,,,,,,,,,,,,,,,,,,,,,,,,,,,,,,,,,,,,,,,,,,,,,,,,,,,,,,,,,,,,,,,,,,,,,,,,,,,,,,,,,,,,,,,,,,,,,,,,,,,,,,,,,,,,,,,,,,,,,,,,,,,,,
,,60309a142458094108f37f73,2024-01-05_23h39.42.769,kallum_motion_pilot,2023.2.3,Win32,59.88023952,60309a142458094108f37f73,6598e6a5d84f07970b831e70,6598e786f7d3baebf069650b,0.0555,0.0556,0,70,70,103,1,eightseven,,,,,,,,,,,,,,,,,,,,,,,,,,,,,,,,,,,,,,,,,,,,,,,,,,,,,,,,,,,,,,,,,,,,,,,,,,,,,,,,,,,,,,,,,,,,,,,,,,,,,,,,,,,,,,,,,,,,,,,,,,,,,,,,,,,,,,,
,,60309a142458094108f37f73,2024-01-05_23h39.42.769,kallum_motion_pilot,2023.2.3,Win32,59.88023952,60309a142458094108f37f73,6598e6a5d84f07970b831e70,6598e786f7d3baebf069650b,0.0558,0.0559,0,71,71,81,1,fiveseven,,,,,,,,,,,,,,,,,,,,,,,,,,,,,,,,,,,,,,,,,,,,,,,,,,,,,,,,,,,,,,,,,,,,,,,,,,,,,,,,,,,,,,,,,,,,,,,,,,,,,,,,,,,,,,,,,,,,,,,,,,,,,,,,,,,,,,,
,,60309a142458094108f37f73,2024-01-05_23h39.42.769,kallum_motion_pilot,2023.2.3,Win32,59.88023952,60309a142458094108f37f73,6598e6a5d84f07970b831e70,6598e786f7d3baebf069650b,0.056,0.0561,0,72,72,58,1,twoone,,,,,,,,,,,,,,,,,,,,,,,,,,,,,,,,,,,,,,,,,,,,,,,,,,,,,,,,,,,,,,,,,,,,,,,,,,,,,,,,,,,,,,,,,,,,,,,,,,,,,,,,,,,,,,,,,,,,,,,,,,,,,,,,,,,,,,,
,,60309a142458094108f37f73,2024-01-05_23h39.42.769,kallum_motion_pilot,2023.2.3,Win32,59.88023952,60309a142458094108f37f73,6598e6a5d84f07970b831e70,6598e786f7d3baebf069650b,0.0563,0.0564,0,73,73,92,1,sevenfive,,,,,,,,,,,,,,,,,,,,,,,,,,,,,,,,,,,,,,,,,,,,,,,,,,,,,,,,,,,,,,,,,,,,,,,,,,,,,,,,,,,,,,,,,,,,,,,,,,,,,,,,,,,,,,,,,,,,,,,,,,,,,,,,,,,,,,,
,,60309a142458094108f37f73,2024-01-05_23h39.42.769,kallum_motion_pilot,2023.2.3,Win32,59.88023952,60309a142458094108f37f73,6598e6a5d84f07970b831e70,6598e786f7d3baebf069650b,0.0566,0.0567,0,74,74,3,1,twofour,,,,,,,,,,,,,,,,,,,,,,,,,,,,,,,,,,,,,,,,,,,,,,,,,,,,,,,,,,,,,,,,,,,,,,,,,,,,,,,,,,,,,,,,,,,,,,,,,,,,,,,,,,,,,,,,,,,,,,,,,,,,,,,,,,,,,,,
,,60309a142458094108f37f73,2024-01-05_23h39.42.769,kallum_motion_pilot,2023.2.3,Win32,59.88023952,60309a142458094108f37f73,6598e6a5d84f07970b831e70,6598e786f7d3baebf069650b,0.0569,0.057,0,75,75,53,1,threefour,,,,,,,,,,,,,,,,,,,,,,,,,,,,,,,,,,,,,,,,,,,,,,,,,,,,,,,,,,,,,,,,,,,,,,,,,,,,,,,,,,,,,,,,,,,,,,,,,,,,,,,,,,,,,,,,,,,,,,,,,,,,,,,,,,,,,,,
,,60309a142458094108f37f73,2024-01-05_23h39.42.769,kallum_motion_pilot,2023.2.3,Win32,59.88023952,60309a142458094108f37f73,6598e6a5d84f07970b831e70,6598e786f7d3baebf069650b,0.0572,0.0572,0,76,76,68,1,threeone,,,,,,,,,,,,,,,,,,,,,,,,,,,,,,,,,,,,,,,,,,,,,,,,,,,,,,,,,,,,,,,,,,,,,,,,,,,,,,,,,,,,,,,,,,,,,,,,,,,,,,,,,,,,,,,,,,,,,,,,,,,,,,,,,,,,,,,
,,60309a142458094108f37f73,2024-01-05_23h39.42.769,kallum_motion_pilot,2023.2.3,Win32,59.88023952,60309a142458094108f37f73,6598e6a5d84f07970b831e70,6598e786f7d3baebf069650b,0.0573,0.0575,0,77,77,28,1,threeone,,,,,,,,,,,,,,,,,,,,,,,,,,,,,,,,,,,,,,,,,,,,,,,,,,,,,,,,,,,,,,,,,,,,,,,,,,,,,,,,,,,,,,,,,,,,,,,,,,,,,,,,,,,,,,,,,,,,,,,,,,,,,,,,,,,,,,,
,,60309a142458094108f37f73,2024-01-05_23h39.42.769,kallum_motion_pilot,2023.2.3,Win32,59.88023952,60309a142458094108f37f73,6598e6a5d84f07970b831e70,6598e786f7d3baebf069650b,0.0581,0.0581,0,78,78,40,1,onetwo,,,,,,,,,,,,,,,,,,,,,,,,,,,,,,,,,,,,,,,,,,,,,,,,,,,,,,,,,,,,,,,,,,,,,,,,,,,,,,,,,,,,,,,,,,,,,,,,,,,,,,,,,,,,,,,,,,,,,,,,,,,,,,,,,,,,,,,
,,60309a142458094108f37f73,2024-01-05_23h39.42.769,kallum_motion_pilot,2023.2.3,Win32,59.88023952,60309a142458094108f37f73,6598e6a5d84f07970b831e70,6598e786f7d3baebf069650b,0.0585,0.0586,0,79,79,117,1,seveneight,,,,,,,,,,,,,,,,,,,,,,,,,,,,,,,,,,,,,,,,,,,,,,,,,,,,,,,,,,,,,,,,,,,,,,,,,,,,,,,,,,,,,,,,,,,,,,,,,,,,,,,,,,,,,,,,,,,,,,,,,,,,,,,,,,,,,,,
,,60309a142458094108f37f73,2024-01-05_23h39.42.769,kallum_motion_pilot,2023.2.3,Win32,59.88023952,60309a142458094108f37f73,6598e6a5d84f07970b831e70,6598e786f7d3baebf069650b,0.0587,0.0588,0,80,80,22,1,fourtwo,,,,,,,,,,,,,,,,,,,,,,,,,,,,,,,,,,,,,,,,,,,,,,,,,,,,,,,,,,,,,,,,,,,,,,,,,,,,,,,,,,,,,,,,,,,,,,,,,,,,,,,,,,,,,,,,,,,,,,,,,,,,,,,,,,,,,,,
,,60309a142458094108f37f73,2024-01-05_23h39.42.769,kallum_motion_pilot,2023.2.3,Win32,59.88023952,60309a142458094108f37f73,6598e6a5d84f07970b831e70,6598e786f7d3baebf069650b,0.0589,0.059,0,81,81,54,1,fourtwo,,,,,,,,,,,,,,,,,,,,,,,,,,,,,,,,,,,,,,,,,,,,,,,,,,,,,,,,,,,,,,,,,,,,,,,,,,,,,,,,,,,,,,,,,,,,,,,,,,,,,,,,,,,,,,,,,,,,,,,,,,,,,,,,,,,,,,,
,,60309a142458094108f37f73,2024-01-05_23h39.42.769,kallum_motion_pilot,2023.2.3,Win32,59.88023952,60309a142458094108f37f73,6598e6a5d84f07970b831e70,6598e786f7d3baebf069650b,0.0592,0.0592,0,82,82,146,1,sixfive,,,,,,,,,,,,,,,,,,,,,,,,,,,,,,,,,,,,,,,,,,,,,,,,,,,,,,,,,,,,,,,,,,,,,,,,,,,,,,,,,,,,,,,,,,,,,,,,,,,,,,,,,,,,,,,,,,,,,,,,,,,,,,,,,,,,,,,
,,60309a142458094108f37f73,2024-01-05_23h39.42.769,kallum_motion_pilot,2023.2.3,Win32,59.88023952,60309a142458094108f37f73,6598e6a5d84f07970b831e70,6598e786f7d3baebf069650b,0.0593,0.0594,0,83,83,8,1,onetwo,,,,,,,,,,,,,,,,,,,,,,,,,,,,,,,,,,,,,,,,,,,,,,,,,,,,,,,,,,,,,,,,,,,,,,,,,,,,,,,,,,,,,,,,,,,,,,,,,,,,,,,,,,,,,,,,,,,,,,,,,,,,,,,,,,,,,,,
,,60309a142458094108f37f73,2024-01-05_23h39.42.769,kallum_motion_pilot,2023.2.3,Win32,59.88023952,60309a142458094108f37f73,6598e6a5d84f07970b831e70,6598e786f7d3baebf069650b,0.0595,0.0596,0,84,84,154,1,sixfive,,,,,,,,,,,,,,,,,,,,,,,,,,,,,,,,,,,,,,,,,,,,,,,,,,,,,,,,,,,,,,,,,,,,,,,,,,,,,,,,,,,,,,,,,,,,,,,,,,,,,,,,,,,,,,,,,,,,,,,,,,,,,,,,,,,,,,,
,,60309a142458094108f37f73,2024-01-05_23h39.42.769,kallum_motion_pilot,2023.2.3,Win32,59.88023952,60309a142458094108f37f73,6598e6a5d84f07970b831e70,6598e786f7d3baebf069650b,0.0597,0.0598,0,85,85,60,1,threeone,,,,,,,,,,,,,,,,,,,,,,,,,,,,,,,,,,,,,,,,,,,,,,,,,,,,,,,,,,,,,,,,,,,,,,,,,,,,,,,,,,,,,,,,,,,,,,,,,,,,,,,,,,,,,,,,,,,,,,,,,,,,,,,,,,,,,,,
,,60309a142458094108f37f73,2024-01-05_23h39.42.769,kallum_motion_pilot,2023.2.3,Win32,59.88023952,60309a142458094108f37f73,6598e6a5d84f07970b831e70,6598e786f7d3baebf069650b,0.06,0.06,0,86,86,157,1,seveneight,,,,,,,,,,,,,,,,,,,,,,,,,,,,,,,,,,,,,,,,,,,,,,,,,,,,,,,,,,,,,,,,,,,,,,,,,,,,,,,,,,,,,,,,,,,,,,,,,,,,,,,,,,,,,,,,,,,,,,,,,,,,,,,,,,,,,,,
,,60309a142458094108f37f73,2024-01-05_23h39.42.769,kallum_motion_pilot,2023.2.3,Win32,59.88023952,60309a142458094108f37f73,6598e6a5d84f07970b831e70,6598e786f7d3baebf069650b,0.0602,0.0603,0,87,87,160,1,fivesix,,,,,,,,,,,,,,,,,,,,,,,,,,,,,,,,,,,,,,,,,,,,,,,,,,,,,,,,,,,,,,,,,,,,,,,,,,,,,,,,,,,,,,,,,,,,,,,,,,,,,,,,,,,,,,,,,,,,,,,,,,,,,,,,,,,,,,,
,,60309a142458094108f37f73,2024-01-05_23h39.42.769,kallum_motion_pilot,2023.2.3,Win32,59.88023952,60309a142458094108f37f73,6598e6a5d84f07970b831e70,6598e786f7d3baebf069650b,0.0604,0.0605,0,88,88,78,1,fourtwo,,,,,,,,,,,,,,,,,,,,,,,,,,,,,,,,,,,,,,,,,,,,,,,,,,,,,,,,,,,,,,,,,,,,,,,,,,,,,,,,,,,,,,,,,,,,,,,,,,,,,,,,,,,,,,,,,,,,,,,,,,,,,,,,,,,,,,,
,,60309a142458094108f37f73,2024-01-05_23h39.42.769,kallum_motion_pilot,2023.2.3,Win32,59.88023952,60309a142458094108f37f73,6598e6a5d84f07970b831e70,6598e786f7d3baebf069650b,0.0606,0.0607,0,89,89,1,1,onethree,,,,,,,,,,,,,,,,,,,,,,,,,,,,,,,,,,,,,,,,,,,,,,,,,,,,,,,,,,,,,,,,,,,,,,,,,,,,,,,,,,,,,,,,,,,,,,,,,,,,,,,,,,,,,,,,,,,,,,,,,,,,,,,,,,,,,,,
,,60309a142458094108f37f73,2024-01-05_23h39.42.769,kallum_motion_pilot,2023.2.3,Win32,59.88023952,60309a142458094108f37f73,6598e6a5d84f07970b831e70,6598e786f7d3baebf069650b,0.0609,0.0609,0,90,90,102,1,eightsix,,,,,,,,,,,,,,,,,,,,,,,,,,,,,,,,,,,,,,,,,,,,,,,,,,,,,,,,,,,,,,,,,,,,,,,,,,,,,,,,,,,,,,,,,,,,,,,,,,,,,,,,,,,,,,,,,,,,,,,,,,,,,,,,,,,,,,,
,,60309a142458094108f37f73,2024-01-05_23h39.42.769,kallum_motion_pilot,2023.2.3,Win32,59.88023952,60309a142458094108f37f73,6598e6a5d84f07970b831e70,6598e786f7d3baebf069650b,0.061,0.0611,0,91,91,34,1,twoone,,,,,,,,,,,,,,,,,,,,,,,,,,,,,,,,,,,,,,,,,,,,,,,,,,,,,,,,,,,,,,,,,,,,,,,,,,,,,,,,,,,,,,,,,,,,,,,,,,,,,,,,,,,,,,,,,,,,,,,,,,,,,,,,,,,,,,,
,,60309a142458094108f37f73,2024-01-05_23h39.42.769,kallum_motion_pilot,2023.2.3,Win32,59.88023952,60309a142458094108f37f73,6598e6a5d84f07970b831e70,6598e786f7d3baebf069650b,0.0613,0.0614,0,92,92,121,1,fiveseven,,,,,,,,,,,,,,,,,,,,,,,,,,,,,,,,,,,,,,,,,,,,,,,,,,,,,,,,,,,,,,,,,,,,,,,,,,,,,,,,,,,,,,,,,,,,,,,,,,,,,,,,,,,,,,,,,,,,,,,,,,,,,,,,,,,,,,,
,,60309a142458094108f37f73,2024-01-05_23h39.42.769,kallum_motion_pilot,2023.2.3,Win32,59.88023952,60309a142458094108f37f73,6598e6a5d84f07970b831e70,6598e786f7d3baebf069650b,0.0616,0.0616,0,93,93,148,1,sevenfive,,,,,,,,,,,,,,,,,,,,,,,,,,,,,,,,,,,,,,,,,,,,,,,,,,,,,,,,,,,,,,,,,,,,,,,,,,,,,,,,,,,,,,,,,,,,,,,,,,,,,,,,,,,,,,,,,,,,,,,,,,,,,,,,,,,,,,,
,,60309a142458094108f37f73,2024-01-05_23h39.42.769,kallum_motion_pilot,2023.2.3,Win32,59.88023952,60309a142458094108f37f73,6598e6a5d84f07970b831e70,6598e786f7d3baebf069650b,0.0619,0.0619,0,94,94,85,1,seveneight,,,,,,,,,,,,,,,,,,,,,,,,,,,,,,,,,,,,,,,,,,,,,,,,,,,,,,,,,,,,,,,,,,,,,,,,,,,,,,,,,,,,,,,,,,,,,,,,,,,,,,,,,,,,,,,,,,,,,,,,,,,,,,,,,,,,,,,
,,60309a142458094108f37f73,2024-01-05_23h39.42.769,kallum_motion_pilot,2023.2.3,Win32,59.88023952,60309a142458094108f37f73,6598e6a5d84f07970b831e70,6598e786f7d3baebf069650b,0.0621,0.0623,0,95,95,73,1,onethree,,,,,,,,,,,,,,,,,,,,,,,,,,,,,,,,,,,,,,,,,,,,,,,,,,,,,,,,,,,,,,,,,,,,,,,,,,,,,,,,,,,,,,,,,,,,,,,,,,,,,,,,,,,,,,,,,,,,,,,,,,,,,,,,,,,,,,,
,,60309a142458094108f37f73,2024-01-05_23h39.42.769,kallum_motion_pilot,2023.2.3,Win32,59.88023952,60309a142458094108f37f73,6598e6a5d84f07970b831e70,6598e786f7d3baebf069650b,0.0624,0.0625,0,96,96,62,1,fourtwo,,,,,,,,,,,,,,,,,,,,,,,,,,,,,,,,,,,,,,,,,,,,,,,,,,,,,,,,,,,,,,,,,,,,,,,,,,,,,,,,,,,,,,,,,,,,,,,,,,,,,,,,,,,,,,,,,,,,,,,,,,,,,,,,,,,,,,,
,,60309a142458094108f37f73,2024-01-05_23h39.42.769,kallum_motion_pilot,2023.2.3,Win32,59.88023952,60309a142458094108f37f73,6598e6a5d84f07970b831e70,6598e786f7d3baebf069650b,0.0627,0.0628,0,97,97,93,1,seveneight,,,,,,,,,,,,,,,,,,,,,,,,,,,,,,,,,,,,,,,,,,,,,,,,,,,,,,,,,,,,,,,,,,,,,,,,,,,,,,,,,,,,,,,,,,,,,,,,,,,,,,,,,,,,,,,,,,,,,,,,,,,,,,,,,,,,,,,
,,60309a142458094108f37f73,2024-01-05_23h39.42.769,kallum_motion_pilot,2023.2.3,Win32,59.88023952,60309a142458094108f37f73,6598e6a5d84f07970b831e70,6598e786f7d3baebf069650b,0.063,0.063,0,98,98,42,1,twoone,,,,,,,,,,,,,,,,,,,,,,,,,,,,,,,,,,,,,,,,,,,,,,,,,,,,,,,,,,,,,,,,,,,,,,,,,,,,,,,,,,,,,,,,,,,,,,,,,,,,,,,,,,,,,,,,,,,,,,,,,,,,,,,,,,,,,,,
,,60309a142458094108f37f73,2024-01-05_23h39.42.769,kallum_motion_pilot,2023.2.3,Win32,59.88023952,60309a142458094108f37f73,6598e6a5d84f07970b831e70,6598e786f7d3baebf069650b,0.0632,0.0633,0,99,99,161,1,fiveseven,,,,,,,,,,,,,,,,,,,,,,,,,,,,,,,,,,,,,,,,,,,,,,,,,,,,,,,,,,,,,,,,,,,,,,,,,,,,,,,,,,,,,,,,,,,,,,,,,,,,,,,,,,,,,,,,,,,,,,,,,,,,,,,,,,,,,,,
,,60309a142458094108f37f73,2024-01-05_23h39.42.769,kallum_motion_pilot,2023.2.3,Win32,59.88023952,60309a142458094108f37f73,6598e6a5d84f07970b831e70,6598e786f7d3baebf069650b,0.0636,0.0637,0,100,100,94,1,eightsix,,,,,,,,,,,,,,,,,,,,,,,,,,,,,,,,,,,,,,,,,,,,,,,,,,,,,,,,,,,,,,,,,,,,,,,,,,,,,,,,,,,,,,,,,,,,,,,,,,,,,,,,,,,,,,,,,,,,,,,,,,,,,,,,,,,,,,,
,,60309a142458094108f37f73,2024-01-05_23h39.42.769,kallum_motion_pilot,2023.2.3,Win32,59.88023952,60309a142458094108f37f73,6598e6a5d84f07970b831e70,6598e786f7d3baebf069650b,0.0638,0.0639,0,101,101,88,1,fivesix,,,,,,,,,,,,,,,,,,,,,,,,,,,,,,,,,,,,,,,,,,,,,,,,,,,,,,,,,,,,,,,,,,,,,,,,,,,,,,,,,,,,,,,,,,,,,,,,,,,,,,,,,,,,,,,,,,,,,,,,,,,,,,,,,,,,,,,
,,60309a142458094108f37f73,2024-01-05_23h39.42.769,kallum_motion_pilot,2023.2.3,Win32,59.88023952,60309a142458094108f37f73,6598e6a5d84f07970b831e70,6598e786f7d3baebf069650b,0.0641,0.0642,0,102,102,80,1,fivesix,,,,,,,,,,,,,,,,,,,,,,,,,,,,,,,,,,,,,,,,,,,,,,,,,,,,,,,,,,,,,,,,,,,,,,,,,,,,,,,,,,,,,,,,,,,,,,,,,,,,,,,,,,,,,,,,,,,,,,,,,,,,,,,,,,,,,,,
,,60309a142458094108f37f73,2024-01-05_23h39.42.769,kallum_motion_pilot,2023.2.3,Win32,59.88023952,60309a142458094108f37f73,6598e6a5d84f07970b831e70,6598e786f7d3baebf069650b,0.0644,0.0646,0,103,103,10,1,twoone,,,,,,,,,,,,,,,,,,,,,,,,,,,,,,,,,,,,,,,,,,,,,,,,,,,,,,,,,,,,,,,,,,,,,,,,,,,,,,,,,,,,,,,,,,,,,,,,,,,,,,,,,,,,,,,,,,,,,,,,,,,,,,,,,,,,,,,
,,60309a142458094108f37f73,2024-01-05_23h39.42.769,kallum_motion_pilot,2023.2.3,Win32,59.88023952,60309a142458094108f37f73,6598e6a5d84f07970b831e70,6598e786f7d3baebf069650b,0.0647,0.0648,0,104,104,126,1,eightsix,,,,,,,,,,,,,,,,,,,,,,,,,,,,,,,,,,,,,,,,,,,,,,,,,,,,,,,,,,,,,,,,,,,,,,,,,,,,,,,,,,,,,,,,,,,,,,,,,,,,,,,,,,,,,,,,,,,,,,,,,,,,,,,,,,,,,,,
,,60309a142458094108f37f73,2024-01-05_23h39.42.769,kallum_motion_pilot,2023.2.3,Win32,59.88023952,60309a142458094108f37f73,6598e6a5d84f07970b831e70,6598e786f7d3baebf069650b,0.065,0.0651,0,105,105,99,1,sixeight,,,,,,,,,,,,,,,,,,,,,,,,,,,,,,,,,,,,,,,,,,,,,,,,,,,,,,,,,,,,,,,,,,,,,,,,,,,,,,,,,,,,,,,,,,,,,,,,,,,,,,,,,,,,,,,,,,,,,,,,,,,,,,,,,,,,,,,
,,60309a142458094108f37f73,2024-01-05_23h39.42.769,kallum_motion_pilot,2023.2.3,Win32,59.88023952,60309a142458094108f37f73,6598e6a5d84f07970b831e70,6598e786f7d3baebf069650b,0.0653,0.0654,0,106,106,142,1,eightsix,,,,,,,,,,,,,,,,,,,,,,,,,,,,,,,,,,,,,,,,,,,,,,,,,,,,,,,,,,,,,,,,,,,,,,,,,,,,,,,,,,,,,,,,,,,,,,,,,,,,,,,,,,,,,,,,,,,,,,,,,,,,,,,,,,,,,,,
,,60309a142458094108f37f73,2024-01-05_23h39.42.769,kallum_motion_pilot,2023.2.3,Win32,59.88023952,60309a142458094108f37f73,6598e6a5d84f07970b831e70,6598e786f7d3baebf069650b,0.0656,0.0658,0,107,107,98,1,sixfive,,,,,,,,,,,,,,,,,,,,,,,,,,,,,,,,,,,,,,,,,,,,,,,,,,,,,,,,,,,,,,,,,,,,,,,,,,,,,,,,,,,,,,,,,,,,,,,,,,,,,,,,,,,,,,,,,,,,,,,,,,,,,,,,,,,,,,,
,,60309a142458094108f37f73,2024-01-05_23h39.42.769,kallum_motion_pilot,2023.2.3,Win32,59.88023952,60309a142458094108f37f73,6598e6a5d84f07970b831e70,6598e786f7d3baebf069650b,0.0659,0.0661,0,108,108,45,1,threefour,,,,,,,,,,,,,,,,,,,,,,,,,,,,,,,,,,,,,,,,,,,,,,,,,,,,,,,,,,,,,,,,,,,,,,,,,,,,,,,,,,,,,,,,,,,,,,,,,,,,,,,,,,,,,,,,,,,,,,,,,,,,,,,,,,,,,,,
,,60309a142458094108f37f73,2024-01-05_23h39.42.769,kallum_motion_pilot,2023.2.3,Win32,59.88023952,60309a142458094108f37f73,6598e6a5d84f07970b831e70,6598e786f7d3baebf069650b,0.0663,0.0665,0,109,109,43,1,twofour,,,,,,,,,,,,,,,,,,,,,,,,,,,,,,,,,,,,,,,,,,,,,,,,,,,,,,,,,,,,,,,,,,,,,,,,,,,,,,,,,,,,,,,,,,,,,,,,,,,,,,,,,,,,,,,,,,,,,,,,,,,,,,,,,,,,,,,
,,60309a142458094108f37f73,2024-01-05_23h39.42.769,kallum_motion_pilot,2023.2.3,Win32,59.88023952,60309a142458094108f37f73,6598e6a5d84f07970b831e70,6598e786f7d3baebf069650b,0.0665,0.0667,0,110,110,120,1,fivesix,,,,,,,,,,,,,,,,,,,,,,,,,,,,,,,,,,,,,,,,,,,,,,,,,,,,,,,,,,,,,,,,,,,,,,,,,,,,,,,,,,,,,,,,,,,,,,,,,,,,,,,,,,,,,,,,,,,,,,,,,,,,,,,,,,,,,,,
,,60309a142458094108f37f73,2024-01-05_23h39.42.769,kallum_motion_pilot,2023.2.3,Win32,59.88023952,60309a142458094108f37f73,6598e6a5d84f07970b831e70,6598e786f7d3baebf069650b,0.0669,0.067,0,111,111,101,1,seveneight,,,,,,,,,,,,,,,,,,,,,,,,,,,,,,,,,,,,,,,,,,,,,,,,,,,,,,,,,,,,,,,,,,,,,,,,,,,,,,,,,,,,,,,,,,,,,,,,,,,,,,,,,,,,,,,,,,,,,,,,,,,,,,,,,,,,,,,
,,60309a142458094108f37f73,2024-01-05_23h39.42.769,kallum_motion_pilot,2023.2.3,Win32,59.88023952,60309a142458094108f37f73,6598e6a5d84f07970b831e70,6598e786f7d3baebf069650b,0.0671,0.0672,0,112,112,19,1,twofour,,,,,,,,,,,,,,,,,,,,,,,,,,,,,,,,,,,,,,,,,,,,,,,,,,,,,,,,,,,,,,,,,,,,,,,,,,,,,,,,,,,,,,,,,,,,,,,,,,,,,,,,,,,,,,,,,,,,,,,,,,,,,,,,,,,,,,,
,,60309a142458094108f37f73,2024-01-05_23h39.42.769,kallum_motion_pilot,2023.2.3,Win32,59.88023952,60309a142458094108f37f73,6598e6a5d84f07970b831e70,6598e786f7d3baebf069650b,0.0674,0.0675,0,113,113,158,1,eightsix,,,,,,,,,,,,,,,,,,,,,,,,,,,,,,,,,,,,,,,,,,,,,,,,,,,,,,,,,,,,,,,,,,,,,,,,,,,,,,,,,,,,,,,,,,,,,,,,,,,,,,,,,,,,,,,,,,,,,,,,,,,,,,,,,,,,,,,
,,60309a142458094108f37f73,2024-01-05_23h39.42.769,kallum_motion_pilot,2023.2.3,Win32,59.88023952,60309a142458094108f37f73,6598e6a5d84f07970b831e70,6598e786f7d3baebf069650b,0.0677,0.0678,0,114,114,136,1,fivesix,,,,,,,,,,,,,,,,,,,,,,,,,,,,,,,,,,,,,,,,,,,,,,,,,,,,,,,,,,,,,,,,,,,,,,,,,,,,,,,,,,,,,,,,,,,,,,,,,,,,,,,,,,,,,,,,,,,,,,,,,,,,,,,,,,,,,,,
,,60309a142458094108f37f73,2024-01-05_23h39.42.769,kallum_motion_pilot,2023.2.3,Win32,59.88023952,60309a142458094108f37f73,6598e6a5d84f07970b831e70,6598e786f7d3baebf069650b,0.0679,0.0681,0,115,115,147,1,sixeight,,,,,,,,,,,,,,,,,,,,,,,,,,,,,,,,,,,,,,,,,,,,,,,,,,,,,,,,,,,,,,,,,,,,,,,,,,,,,,,,,,,,,,,,,,,,,,,,,,,,,,,,,,,,,,,,,,,,,,,,,,,,,,,,,,,,,,,
,,60309a142458094108f37f73,2024-01-05_23h39.42.769,kallum_motion_pilot,2023.2.3,Win32,59.88023952,60309a142458094108f37f73,6598e6a5d84f07970b831e70,6598e786f7d3baebf069650b,0.0683,0.0684,0,116,116,20,1,threeone,,,,,,,,,,,,,,,,,,,,,,,,,,,,,,,,,,,,,,,,,,,,,,,,,,,,,,,,,,,,,,,,,,,,,,,,,,,,,,,,,,,,,,,,,,,,,,,,,,,,,,,,,,,,,,,,,,,,,,,,,,,,,,,,,,,,,,,
,,60309a142458094108f37f73,2024-01-05_23h39.42.769,kallum_motion_pilot,2023.2.3,Win32,59.88023952,60309a142458094108f37f73,6598e6a5d84f07970b831e70,6598e786f7d3baebf069650b,0.0686,0.0688,0,117,117,26,1,twoone,,,,,,,,,,,,,,,,,,,,,,,,,,,,,,,,,,,,,,,,,,,,,,,,,,,,,,,,,,,,,,,,,,,,,,,,,,,,,,,,,,,,,,,,,,,,,,,,,,,,,,,,,,,,,,,,,,,,,,,,,,,,,,,,,,,,,,,
,,60309a142458094108f37f73,2024-01-05_23h39.42.769,kallum_motion_pilot,2023.2.3,Win32,59.88023952,60309a142458094108f37f73,6598e6a5d84f07970b831e70,6598e786f7d3baebf069650b,0.0689,0.069,0,118,118,109,1,seveneight,,,,,,,,,,,,,,,,,,,,,,,,,,,,,,,,,,,,,,,,,,,,,,,,,,,,,,,,,,,,,,,,,,,,,,,,,,,,,,,,,,,,,,,,,,,,,,,,,,,,,,,,,,,,,,,,,,,,,,,,,,,,,,,,,,,,,,,
,,60309a142458094108f37f73,2024-01-05_23h39.42.769,kallum_motion_pilot,2023.2.3,Win32,59.88023952,60309a142458094108f37f73,6598e6a5d84f07970b831e70,6598e786f7d3baebf069650b,0.0692,0.0693,0,119,119,24,1,onetwo,,,,,,,,,,,,,,,,,,,,,,,,,,,,,,,,,,,,,,,,,,,,,,,,,,,,,,,,,,,,,,,,,,,,,,,,,,,,,,,,,,,,,,,,,,,,,,,,,,,,,,,,,,,,,,,,,,,,,,,,,,,,,,,,,,,,,,,
,,60309a142458094108f37f73,2024-01-05_23h39.42.769,kallum_motion_pilot,2023.2.3,Win32,59.88023952,60309a142458094108f37f73,6598e6a5d84f07970b831e70,6598e786f7d3baebf069650b,0.0695,0.0695,0,120,120,55,1,fourthree,,,,,,,,,,,,,,,,,,,,,,,,,,,,,,,,,,,,,,,,,,,,,,,,,,,,,,,,,,,,,,,,,,,,,,,,,,,,,,,,,,,,,,,,,,,,,,,,,,,,,,,,,,,,,,,,,,,,,,,,,,,,,,,,,,,,,,,
,,60309a142458094108f37f73,2024-01-05_23h39.42.769,kallum_motion_pilot,2023.2.3,Win32,59.88023952,60309a142458094108f37f73,6598e6a5d84f07970b831e70,6598e786f7d3baebf069650b,0.0698,0.0699,0,121,121,124,1,sevenfive,,,,,,,,,,,,,,,,,,,,,,,,,,,,,,,,,,,,,,,,,,,,,,,,,,,,,,,,,,,,,,,,,,,,,,,,,,,,,,,,,,,,,,,,,,,,,,,,,,,,,,,,,,,,,,,,,,,,,,,,,,,,,,,,,,,,,,,
,,60309a142458094108f37f73,2024-01-05_23h39.42.769,kallum_motion_pilot,2023.2.3,Win32,59.88023952,60309a142458094108f37f73,6598e6a5d84f07970b831e70,6598e786f7d3baebf069650b,0.0701,0.0702,0,122,122,74,1,twoone,,,,,,,,,,,,,,,,,,,,,,,,,,,,,,,,,,,,,,,,,,,,,,,,,,,,,,,,,,,,,,,,,,,,,,,,,,,,,,,,,,,,,,,,,,,,,,,,,,,,,,,,,,,,,,,,,,,,,,,,,,,,,,,,,,,,,,,
,,60309a142458094108f37f73,2024-01-05_23h39.42.769,kallum_motion_pilot,2023.2.3,Win32,59.88023952,60309a142458094108f37f73,6598e6a5d84f07970b831e70,6598e786f7d3baebf069650b,0.0703,0.0704,0,123,123,7,1,fourthree,,,,,,,,,,,,,,,,,,,,,,,,,,,,,,,,,,,,,,,,,,,,,,,,,,,,,,,,,,,,,,,,,,,,,,,,,,,,,,,,,,,,,,,,,,,,,,,,,,,,,,,,,,,,,,,,,,,,,,,,,,,,,,,,,,,,,,,
,,60309a142458094108f37f73,2024-01-05_23h39.42.769,kallum_motion_pilot,2023.2.3,Win32,59.88023952,60309a142458094108f37f73,6598e6a5d84f07970b831e70,6598e786f7d3baebf069650b,0.0707,0.0708,0,124,124,27,1,twofour,,,,,,,,,,,,,,,,,,,,,,,,,,,,,,,,,,,,,,,,,,,,,,,,,,,,,,,,,,,,,,,,,,,,,,,,,,,,,,,,,,,,,,,,,,,,,,,,,,,,,,,,,,,,,,,,,,,,,,,,,,,,,,,,,,,,,,,
,,60309a142458094108f37f73,2024-01-05_23h39.42.769,kallum_motion_pilot,2023.2.3,Win32,59.88023952,60309a142458094108f37f73,6598e6a5d84f07970b831e70,6598e786f7d3baebf069650b,0.071,0.0711,0,125,125,143,1,eightseven,,,,,,,,,,,,,,,,,,,,,,,,,,,,,,,,,,,,,,,,,,,,,,,,,,,,,,,,,,,,,,,,,,,,,,,,,,,,,,,,,,,,,,,,,,,,,,,,,,,,,,,,,,,,,,,,,,,,,,,,,,,,,,,,,,,,,,,
,,60309a142458094108f37f73,2024-01-05_23h39.42.769,kallum_motion_pilot,2023.2.3,Win32,59.88023952,60309a142458094108f37f73,6598e6a5d84f07970b831e70,6598e786f7d3baebf069650b,0.0714,0.0715,0,126,126,18,1,twoone,,,,,,,,,,,,,,,,,,,,,,,,,,,,,,,,,,,,,,,,,,,,,,,,,,,,,,,,,,,,,,,,,,,,,,,,,,,,,,,,,,,,,,,,,,,,,,,,,,,,,,,,,,,,,,,,,,,,,,,,,,,,,,,,,,,,,,,
,,60309a142458094108f37f73,2024-01-05_23h39.42.769,kallum_motion_pilot,2023.2.3,Win32,59.88023952,60309a142458094108f37f73,6598e6a5d84f07970b831e70,6598e786f7d3baebf069650b,0.0717,0.0719,0,127,127,13,1,threefour,,,,,,,,,,,,,,,,,,,,,,,,,,,,,,,,,,,,,,,,,,,,,,,,,,,,,,,,,,,,,,,,,,,,,,,,,,,,,,,,,,,,,,,,,,,,,,,,,,,,,,,,,,,,,,,,,,,,,,,,,,,,,,,,,,,,,,,
,,60309a142458094108f37f73,2024-01-05_23h39.42.769,kallum_motion_pilot,2023.2.3,Win32,59.88023952,60309a142458094108f37f73,6598e6a5d84f07970b831e70,6598e786f7d3baebf069650b,0.0722,0.0723,0,128,128,144,1,fivesix,,,,,,,,,,,,,,,,,,,,,,,,,,,,,,,,,,,,,,,,,,,,,,,,,,,,,,,,,,,,,,,,,,,,,,,,,,,,,,,,,,,,,,,,,,,,,,,,,,,,,,,,,,,,,,,,,,,,,,,,,,,,,,,,,,,,,,,
,,60309a142458094108f37f73,2024-01-05_23h39.42.769,kallum_motion_pilot,2023.2.3,Win32,59.88023952,60309a142458094108f37f73,6598e6a5d84f07970b831e70,6598e786f7d3baebf069650b,0.0726,0.0726,0,129,129,21,1,threefour,,,,,,,,,,,,,,,,,,,,,,,,,,,,,,,,,,,,,,,,,,,,,,,,,,,,,,,,,,,,,,,,,,,,,,,,,,,,,,,,,,,,,,,,,,,,,,,,,,,,,,,,,,,,,,,,,,,,,,,,,,,,,,,,,,,,,,,
,,60309a142458094108f37f73,2024-01-05_23h39.42.769,kallum_motion_pilot,2023.2.3,Win32,59.88023952,60309a142458094108f37f73,6598e6a5d84f07970b831e70,6598e786f7d3baebf069650b,0.0729,0.073,0,130,130,47,1,fourthree,,,,,,,,,,,,,,,,,,,,,,,,,,,,,,,,,,,,,,,,,,,,,,,,,,,,,,,,,,,,,,,,,,,,,,,,,,,,,,,,,,,,,,,,,,,,,,,,,,,,,,,,,,,,,,,,,,,,,,,,,,,,,,,,,,,,,,,
,,60309a142458094108f37f73,2024-01-05_23h39.42.769,kallum_motion_pilot,2023.2.3,Win32,59.88023952,60309a142458094108f37f73,6598e6a5d84f07970b831e70,6598e786f7d3baebf069650b,0.0731,0.0733,0,131,131,35,1,twofour,,,,,,,,,,,,,,,,,,,,,,,,,,,,,,,,,,,,,,,,,,,,,,,,,,,,,,,,,,,,,,,,,,,,,,,,,,,,,,,,,,,,,,,,,,,,,,,,,,,,,,,,,,,,,,,,,,,,,,,,,,,,,,,,,,,,,,,
,,60309a142458094108f37f73,2024-01-05_23h39.42.769,kallum_motion_pilot,2023.2.3,Win32,59.88023952,60309a142458094108f37f73,6598e6a5d84f07970b831e70,6598e786f7d3baebf069650b,0.0735,0.0735,0,132,132,151,1,eightseven,,,,,,,,,,,,,,,,,,,,,,,,,,,,,,,,,,,,,,,,,,,,,,,,,,,,,,,,,,,,,,,,,,,,,,,,,,,,,,,,,,,,,,,,,,,,,,,,,,,,,,,,,,,,,,,,,,,,,,,,,,,,,,,,,,,,,,,
,,60309a142458094108f37f73,2024-01-05_23h39.42.769,kallum_motion_pilot,2023.2.3,Win32,59.88023952,60309a142458094108f37f73,6598e6a5d84f07970b831e70,6598e786f7d3baebf069650b,0.0737,0.0738,0,133,133,152,1,fivesix,,,,,,,,,,,,,,,,,,,,,,,,,,,,,,,,,,,,,,,,,,,,,,,,,,,,,,,,,,,,,,,,,,,,,,,,,,,,,,,,,,,,,,,,,,,,,,,,,,,,,,,,,,,,,,,,,,,,,,,,,,,,,,,,,,,,,,,
,,60309a142458094108f37f73,2024-01-05_23h39.42.769,kallum_motion_pilot,2023.2.3,Win32,59.88023952,60309a142458094108f37f73,6598e6a5d84f07970b831e70,6598e786f7d3baebf069650b,0.074,0.0741,0,134,134,106,1,sixfive,,,,,,,,,,,,,,,,,,,,,,,,,,,,,,,,,,,,,,,,,,,,,,,,,,,,,,,,,,,,,,,,,,,,,,,,,,,,,,,,,,,,,,,,,,,,,,,,,,,,,,,,,,,,,,,,,,,,,,,,,,,,,,,,,,,,,,,
,,60309a142458094108f37f73,2024-01-05_23h39.42.769,kallum_motion_pilot,2023.2.3,Win32,59.88023952,60309a142458094108f37f73,6598e6a5d84f07970b831e70,6598e786f7d3baebf069650b,0.0746,0.0748,0,135,135,15,1,fourthree,,,,,,,,,,,,,,,,,,,,,,,,,,,,,,,,,,,,,,,,,,,,,,,,,,,,,,,,,,,,,,,,,,,,,,,,,,,,,,,,,,,,,,,,,,,,,,,,,,,,,,,,,,,,,,,,,,,,,,,,,,,,,,,,,,,,,,,
,,60309a142458094108f37f73,2024-01-05_23h39.42.769,kallum_motion_pilot,2023.2.3,Win32,59.88023952,60309a142458094108f37f73,6598e6a5d84f07970b831e70,6598e786f7d3baebf069650b,0.0751,0.0752,0,136,136,107,1,sixeight,,,,,,,,,,,,,,,,,,,,,,,,,,,,,,,,,,,,,,,,,,,,,,,,,,,,,,,,,,,,,,,,,,,,,,,,,,,,,,,,,,,,,,,,,,,,,,,,,,,,,,,,,,,,,,,,,,,,,,,,,,,,,,,,,,,,,,,
,,60309a142458094108f37f73,2024-01-05_23h39.42.769,kallum_motion_pilot,2023.2.3,Win32,59.88023952,60309a142458094108f37f73,6598e6a5d84f07970b831e70,6598e786f7d3baebf069650b,0.0755,0.0755,0,137,137,140,1,sevenfive,,,,,,,,,,,,,,,,,,,,,,,,,,,,,,,,,,,,,,,,,,,,,,,,,,,,,,,,,,,,,,,,,,,,,,,,,,,,,,,,,,,,,,,,,,,,,,,,,,,,,,,,,,,,,,,,,,,,,,,,,,,,,,,,,,,,,,,
,,60309a142458094108f37f73,2024-01-05_23h39.42.769,kallum_motion_pilot,2023.2.3,Win32,59.88023952,60309a142458094108f37f73,6598e6a5d84f07970b831e70,6598e786f7d3baebf069650b,0.0758,0.0759,0,138,138,125,1,seveneight,,,,,,,,,,,,,,,,,,,,,,,,,,,,,,,,,,,,,,,,,,,,,,,,,,,,,,,,,,,,,,,,,,,,,,,,,,,,,,,,,,,,,,,,,,,,,,,,,,,,,,,,,,,,,,,,,,,,,,,,,,,,,,,,,,,,,,,
,,60309a142458094108f37f73,2024-01-05_23h39.42.769,kallum_motion_pilot,2023.2.3,Win32,59.88023952,60309a142458094108f37f73,6598e6a5d84f07970b831e70,6598e786f7d3baebf069650b,0.0761,0.0763,0,139,139,82,1,sixfive,,,,,,,,,,,,,,,,,,,,,,,,,,,,,,,,,,,,,,,,,,,,,,,,,,,,,,,,,,,,,,,,,,,,,,,,,,,,,,,,,,,,,,,,,,,,,,,,,,,,,,,,,,,,,,,,,,,,,,,,,,,,,,,,,,,,,,,
,,60309a142458094108f37f73,2024-01-05_23h39.42.769,kallum_motion_pilot,2023.2.3,Win32,59.88023952,60309a142458094108f37f73,6598e6a5d84f07970b831e70,6598e786f7d3baebf069650b,0.0765,0.0766,0,140,140,150,1,eightsix,,,,,,,,,,,,,,,,,,,,,,,,,,,,,,,,,,,,,,,,,,,,,,,,,,,,,,,,,,,,,,,,,,,,,,,,,,,,,,,,,,,,,,,,,,,,,,,,,,,,,,,,,,,,,,,,,,,,,,,,,,,,,,,,,,,,,,,
,,60309a142458094108f37f73,2024-01-05_23h39.42.769,kallum_motion_pilot,2023.2.3,Win32,59.88023952,60309a142458094108f37f73,6598e6a5d84f07970b831e70,6598e786f7d3baebf069650b,0.0768,0.0769,0,141,141,51,1,twofour,,,,,,,,,,,,,,,,,,,,,,,,,,,,,,,,,,,,,,,,,,,,,,,,,,,,,,,,,,,,,,,,,,,,,,,,,,,,,,,,,,,,,,,,,,,,,,,,,,,,,,,,,,,,,,,,,,,,,,,,,,,,,,,,,,,,,,,
,,60309a142458094108f37f73,2024-01-05_23h39.42.769,kallum_motion_pilot,2023.2.3,Win32,59.88023952,60309a142458094108f37f73,6598e6a5d84f07970b831e70,6598e786f7d3baebf069650b,0.0771,0.0773,0,142,142,0,1,onetwo,,,,,,,,,,,,,,,,,,,,,,,,,,,,,,,,,,,,,,,,,,,,,,,,,,,,,,,,,,,,,,,,,,,,,,,,,,,,,,,,,,,,,,,,,,,,,,,,,,,,,,,,,,,,,,,,,,,,,,,,,,,,,,,,,,,,,,,
,,60309a142458094108f37f73,2024-01-05_23h39.42.769,kallum_motion_pilot,2023.2.3,Win32,59.88023952,60309a142458094108f37f73,6598e6a5d84f07970b831e70,6598e786f7d3baebf069650b,0.0775,0.0776,0,143,143,50,1,twoone,,,,,,,,,,,,,,,,,,,,,,,,,,,,,,,,,,,,,,,,,,,,,,,,,,,,,,,,,,,,,,,,,,,,,,,,,,,,,,,,,,,,,,,,,,,,,,,,,,,,,,,,,,,,,,,,,,,,,,,,,,,,,,,,,,,,,,,
,,60309a142458094108f37f73,2024-01-05_23h39.42.769,kallum_motion_pilot,2023.2.3,Win32,59.88023952,60309a142458094108f37f73,6598e6a5d84f07970b831e70,6598e786f7d3baebf069650b,0.0777,0.0779,0,144,144,2,1,twoone,,,,,,,,,,,,,,,,,,,,,,,,,,,,,,,,,,,,,,,,,,,,,,,,,,,,,,,,,,,,,,,,,,,,,,,,,,,,,,,,,,,,,,,,,,,,,,,,,,,,,,,,,,,,,,,,,,,,,,,,,,,,,,,,,,,,,,,
,,60309a142458094108f37f73,2024-01-05_23h39.42.769,kallum_motion_pilot,2023.2.3,Win32,59.88023952,60309a142458094108f37f73,6598e6a5d84f07970b831e70,6598e786f7d3baebf069650b,0.078,0.0781,0,145,145,137,1,fiveseven,,,,,,,,,,,,,,,,,,,,,,,,,,,,,,,,,,,,,,,,,,,,,,,,,,,,,,,,,,,,,,,,,,,,,,,,,,,,,,,,,,,,,,,,,,,,,,,,,,,,,,,,,,,,,,,,,,,,,,,,,,,,,,,,,,,,,,,
,,60309a142458094108f37f73,2024-01-05_23h39.42.769,kallum_motion_pilot,2023.2.3,Win32,59.88023952,60309a142458094108f37f73,6598e6a5d84f07970b831e70,6598e786f7d3baebf069650b,0.0784,0.0784,0,146,146,111,1,eightseven,,,,,,,,,,,,,,,,,,,,,,,,,,,,,,,,,,,,,,,,,,,,,,,,,,,,,,,,,,,,,,,,,,,,,,,,,,,,,,,,,,,,,,,,,,,,,,,,,,,,,,,,,,,,,,,,,,,,,,,,,,,,,,,,,,,,,,,
,,60309a142458094108f37f73,2024-01-05_23h39.42.769,kallum_motion_pilot,2023.2.3,Win32,59.88023952,60309a142458094108f37f73,6598e6a5d84f07970b831e70,6598e786f7d3baebf069650b,0.0787,0.0787,0,147,147,132,1,sevenfive,,,,,,,,,,,,,,,,,,,,,,,,,,,,,,,,,,,,,,,,,,,,,,,,,,,,,,,,,,,,,,,,,,,,,,,,,,,,,,,,,,,,,,,,,,,,,,,,,,,,,,,,,,,,,,,,,,,,,,,,,,,,,,,,,,,,,,,
,,60309a142458094108f37f73,2024-01-05_23h39.42.769,kallum_motion_pilot,2023.2.3,Win32,59.88023952,60309a142458094108f37f73,6598e6a5d84f07970b831e70,6598e786f7d3baebf069650b,0.079,0.0791,0,148,148,49,1,onethree,,,,,,,,,,,,,,,,,,,,,,,,,,,,,,,,,,,,,,,,,,,,,,,,,,,,,,,,,,,,,,,,,,,,,,,,,,,,,,,,,,,,,,,,,,,,,,,,,,,,,,,,,,,,,,,,,,,,,,,,,,,,,,,,,,,,,,,
,,60309a142458094108f37f73,2024-01-05_23h39.42.769,kallum_motion_pilot,2023.2.3,Win32,59.88023952,60309a142458094108f37f73,6598e6a5d84f07970b831e70,6598e786f7d3baebf069650b,0.0793,0.0794,0,149,149,83,1,sixeight,,,,,,,,,,,,,,,,,,,,,,,,,,,,,,,,,,,,,,,,,,,,,,,,,,,,,,,,,,,,,,,,,,,,,,,,,,,,,,,,,,,,,,,,,,,,,,,,,,,,,,,,,,,,,,,,,,,,,,,,,,,,,,,,,,,,,,,
,,60309a142458094108f37f73,2024-01-05_23h39.42.769,kallum_motion_pilot,2023.2.3,Win32,59.88023952,60309a142458094108f37f73,6598e6a5d84f07970b831e70,6598e786f7d3baebf069650b,0.0796,0.0797,0,150,150,156,1,sevenfive,,,,,,,,,,,,,,,,,,,,,,,,,,,,,,,,,,,,,,,,,,,,,,,,,,,,,,,,,,,,,,,,,,,,,,,,,,,,,,,,,,,,,,,,,,,,,,,,,,,,,,,,,,,,,,,,,,,,,,,,,,,,,,,,,,,,,,,
,,60309a142458094108f37f73,2024-01-05_23h39.42.769,kallum_motion_pilot,2023.2.3,Win32,59.88023952,60309a142458094108f37f73,6598e6a5d84f07970b831e70,6598e786f7d3baebf069650b,0.0799,0.08,0,151,151,130,1,sixfive,,,,,,,,,,,,,,,,,,,,,,,,,,,,,,,,,,,,,,,,,,,,,,,,,,,,,,,,,,,,,,,,,,,,,,,,,,,,,,,,,,,,,,,,,,,,,,,,,,,,,,,,,,,,,,,,,,,,,,,,,,,,,,,,,,,,,,,
,,60309a142458094108f37f73,2024-01-05_23h39.42.769,kallum_motion_pilot,2023.2.3,Win32,59.88023952,60309a142458094108f37f73,6598e6a5d84f07970b831e70,6598e786f7d3baebf069650b,0.0801,0.0803,0,152,152,11,1,twofour,,,,,,,,,,,,,,,,,,,,,,,,,,,,,,,,,,,,,,,,,,,,,,,,,,,,,,,,,,,,,,,,,,,,,,,,,,,,,,,,,,,,,,,,,,,,,,,,,,,,,,,,,,,,,,,,,,,,,,,,,,,,,,,,,,,,,,,
,,60309a142458094108f37f73,2024-01-05_23h39.42.769,kallum_motion_pilot,2023.2.3,Win32,59.88023952,60309a142458094108f37f73,6598e6a5d84f07970b831e70,6598e786f7d3baebf069650b,0.0805,0.0806,0,153,153,97,1,fiveseven,,,,,,,,,,,,,,,,,,,,,,,,,,,,,,,,,,,,,,,,,,,,,,,,,,,,,,,,,,,,,,,,,,,,,,,,,,,,,,,,,,,,,,,,,,,,,,,,,,,,,,,,,,,,,,,,,,,,,,,,,,,,,,,,,,,,,,,
,,60309a142458094108f37f73,2024-01-05_23h39.42.769,kallum_motion_pilot,2023.2.3,Win32,59.88023952,60309a142458094108f37f73,6598e6a5d84f07970b831e70,6598e786f7d3baebf069650b,0.0808,0.0808,0,154,154,90,1,sixfive,,,,,,,,,,,,,,,,,,,,,,,,,,,,,,,,,,,,,,,,,,,,,,,,,,,,,,,,,,,,,,,,,,,,,,,,,,,,,,,,,,,,,,,,,,,,,,,,,,,,,,,,,,,,,,,,,,,,,,,,,,,,,,,,,,,,,,,
,,60309a142458094108f37f73,2024-01-05_23h39.42.769,kallum_motion_pilot,2023.2.3,Win32,59.88023952,60309a142458094108f37f73,6598e6a5d84f07970b831e70,6598e786f7d3baebf069650b,0.081,0.0811,0,155,155,9,1,onethree,,,,,,,,,,,,,,,,,,,,,,,,,,,,,,,,,,,,,,,,,,,,,,,,,,,,,,,,,,,,,,,,,,,,,,,,,,,,,,,,,,,,,,,,,,,,,,,,,,,,,,,,,,,,,,,,,,,,,,,,,,,,,,,,,,,,,,,
,,60309a142458094108f37f73,2024-01-05_23h39.42.769,kallum_motion_pilot,2023.2.3,Win32,59.88023952,60309a142458094108f37f73,6598e6a5d84f07970b831e70,6598e786f7d3baebf069650b,0.0814,0.0815,0,156,156,113,1,fiveseven,,,,,,,,,,,,,,,,,,,,,,,,,,,,,,,,,,,,,,,,,,,,,,,,,,,,,,,,,,,,,,,,,,,,,,,,,,,,,,,,,,,,,,,,,,,,,,,,,,,,,,,,,,,,,,,,,,,,,,,,,,,,,,,,,,,,,,,
,,60309a142458094108f37f73,2024-01-05_23h39.42.769,kallum_motion_pilot,2023.2.3,Win32,59.88023952,60309a142458094108f37f73,6598e6a5d84f07970b831e70,6598e786f7d3baebf069650b,0.0815,0.0817,0,157,157,153,1,fiveseven,,,,,,,,,,,,,,,,,,,,,,,,,,,,,,,,,,,,,,,,,,,,,,,,,,,,,,,,,,,,,,,,,,,,,,,,,,,,,,,,,,,,,,,,,,,,,,,,,,,,,,,,,,,,,,,,,,,,,,,,,,,,,,,,,,,,,,,
,,60309a142458094108f37f73,2024-01-05_23h39.42.769,kallum_motion_pilot,2023.2.3,Win32,59.88023952,60309a142458094108f37f73,6598e6a5d84f07970b831e70,6598e786f7d3baebf069650b,0.0819,0.082,0,158,158,23,1,fourthree,,,,,,,,,,,,,,,,,,,,,,,,,,,,,,,,,,,,,,,,,,,,,,,,,,,,,,,,,,,,,,,,,,,,,,,,,,,,,,,,,,,,,,,,,,,,,,,,,,,,,,,,,,,,,,,,,,,,,,,,,,,,,,,,,,,,,,,
,,60309a142458094108f37f73,2024-01-05_23h39.42.769,kallum_motion_pilot,2023.2.3,Win32,59.88023952,60309a142458094108f37f73,6598e6a5d84f07970b831e70,6598e786f7d3baebf069650b,0.0822,0.0823,0,159,159,131,1,sixeight,,,,,,,,,,,,,,,,,,,,,,,,,,,,,,,,,,,,,,,,,,,,,,,,,,,,,,,,,,,,,,,,,,,,,,,,,,,,,,,,,,,,,,,,,,,,,,,,,,,,,,,,,,,,,,,,,,,,,,,,,,,,,,,,,,,,,,,
,,60309a142458094108f37f73,2024-01-05_23h39.42.769,kallum_motion_pilot,2023.2.3,Win32,59.88023952,60309a142458094108f37f73,6598e6a5d84f07970b831e70,6598e786f7d3baebf069650b,0.0825,0.0826,0,160,160,127,1,eightseven,,,,,,,,,,,,,,,,,,,,,,,,,,,,,,,,,,,,,,,,,,,,,,,,,,,,,,,,,,,,,,,,,,,,,,,,,,,,,,,,,,,,,,,,,,,,,,,,,,,,,,,,,,,,,,,,,,,,,,,,,,,,,,,,,,,,,,,
,,60309a142458094108f37f73,2024-01-05_23h39.42.769,kallum_motion_pilot,2023.2.3,Win32,59.88023952,60309a142458094108f37f73,6598e6a5d84f07970b831e70,6598e786f7d3baebf069650b,0.0828,0.0829,0,161,161,6,1,fourtwo,,,,,,,,,,,,,,,,,,,,,,,,,,,,,,,,,,,,,,,,,,,,,,,,,,,,,,,,,,,,,,,,,,,,,,,,,,,,,,,,,,,,,,,,,,,,,,,,,,,,,,,,,,,,,,,,,,,,,,,,,,,,,,,,,,,,,,,
,,60309a142458094108f37f73,2024-01-05_23h39.42.769,kallum_motion_pilot,2023.2.3,Win32,59.88023952,60309a142458094108f37f73,6598e6a5d84f07970b831e70,6598e786f7d3baebf069650b,0.083,0.0832,1,0,162,117,1,seveneight,,,,,,,,,,,,,,,,,,,,,,,,,,,,,,,,,,,,,,,,,,,,,,,,,,,,,,,,,,,,,,,,,,,,,,,,,,,,,,,,,,,,,,,,,,,,,,,,,,,,,,,,,,,,,,,,,,,,,,,,,,,,,,,,,,,,,,,
,,60309a142458094108f37f73,2024-01-05_23h39.42.769,kallum_motion_pilot,2023.2.3,Win32,59.88023952,60309a142458094108f37f73,6598e6a5d84f07970b831e70,6598e786f7d3baebf069650b,0.0834,0.0834,1,1,163,8,1,onetwo,,,,,,,,,,,,,,,,,,,,,,,,,,,,,,,,,,,,,,,,,,,,,,,,,,,,,,,,,,,,,,,,,,,,,,,,,,,,,,,,,,,,,,,,,,,,,,,,,,,,,,,,,,,,,,,,,,,,,,,,,,,,,,,,,,,,,,,
,,60309a142458094108f37f73,2024-01-05_23h39.42.769,kallum_motion_pilot,2023.2.3,Win32,59.88023952,60309a142458094108f37f73,6598e6a5d84f07970b831e70,6598e786f7d3baebf069650b,0.0837,0.0838,1,2,164,50,1,twoone,,,,,,,,,,,,,,,,,,,,,,,,,,,,,,,,,,,,,,,,,,,,,,,,,,,,,,,,,,,,,,,,,,,,,,,,,,,,,,,,,,,,,,,,,,,,,,,,,,,,,,,,,,,,,,,,,,,,,,,,,,,,,,,,,,,,,,,
,,60309a142458094108f37f73,2024-01-05_23h39.42.769,kallum_motion_pilot,2023.2.3,Win32,59.88023952,60309a142458094108f37f73,6598e6a5d84f07970b831e70,6598e786f7d3baebf069650b,0.084,0.0841,1,3,165,158,1,eightsix,,,,,,,,,,,,,,,,,,,,,,,,,,,,,,,,,,,,,,,,,,,,,,,,,,,,,,,,,,,,,,,,,,,,,,,,,,,,,,,,,,,,,,,,,,,,,,,,,,,,,,,,,,,,,,,,,,,,,,,,,,,,,,,,,,,,,,,
,,60309a142458094108f37f73,2024-01-05_23h39.42.769,kallum_motion_pilot,2023.2.3,Win32,59.88023952,60309a142458094108f37f73,6598e6a5d84f07970b831e70,6598e786f7d3baebf069650b,0.0842,0.0844,1,4,166,54,1,fourtwo,,,,,,,,,,,,,,,,,,,,,,,,,,,,,,,,,,,,,,,,,,,,,,,,,,,,,,,,,,,,,,,,,,,,,,,,,,,,,,,,,,,,,,,,,,,,,,,,,,,,,,,,,,,,,,,,,,,,,,,,,,,,,,,,,,,,,,,
,,60309a142458094108f37f73,2024-01-05_23h39.42.769,kallum_motion_pilot,2023.2.3,Win32,59.88023952,60309a142458094108f37f73,6598e6a5d84f07970b831e70,6598e786f7d3baebf069650b,0.0846,0.0848,1,5,167,94,1,eightsix,,,,,,,,,,,,,,,,,,,,,,,,,,,,,,,,,,,,,,,,,,,,,,,,,,,,,,,,,,,,,,,,,,,,,,,,,,,,,,,,,,,,,,,,,,,,,,,,,,,,,,,,,,,,,,,,,,,,,,,,,,,,,,,,,,,,,,,
,,60309a142458094108f37f73,2024-01-05_23h39.42.769,kallum_motion_pilot,2023.2.3,Win32,59.88023952,60309a142458094108f37f73,6598e6a5d84f07970b831e70,6598e786f7d3baebf069650b,0.085,0.0852,1,6,168,17,1,onethree,,,,,,,,,,,,,,,,,,,,,,,,,,,,,,,,,,,,,,,,,,,,,,,,,,,,,,,,,,,,,,,,,,,,,,,,,,,,,,,,,,,,,,,,,,,,,,,,,,,,,,,,,,,,,,,,,,,,,,,,,,,,,,,,,,,,,,,
,,60309a142458094108f37f73,2024-01-05_23h39.42.769,kallum_motion_pilot,2023.2.3,Win32,59.88023952,60309a142458094108f37f73,6598e6a5d84f07970b831e70,6598e786f7d3baebf069650b,0.0853,0.0854,1,7,169,30,1,fourtwo,,,,,,,,,,,,,,,,,,,,,,,,,,,,,,,,,,,,,,,,,,,,,,,,,,,,,,,,,,,,,,,,,,,,,,,,,,,,,,,,,,,,,,,,,,,,,,,,,,,,,,,,,,,,,,,,,,,,,,,,,,,,,,,,,,,,,,,
,,60309a142458094108f37f73,2024-01-05_23h39.42.769,kallum_motion_pilot,2023.2.3,Win32,59.88023952,60309a142458094108f37f73,6598e6a5d84f07970b831e70,6598e786f7d3baebf069650b,0.0856,0.0858,1,8,170,145,1,fiveseven,,,,,,,,,,,,,,,,,,,,,,,,,,,,,,,,,,,,,,,,,,,,,,,,,,,,,,,,,,,,,,,,,,,,,,,,,,,,,,,,,,,,,,,,,,,,,,,,,,,,,,,,,,,,,,,,,,,,,,,,,,,,,,,,,,,,,,,
,,60309a142458094108f37f73,2024-01-05_23h39.42.769,kallum_motion_pilot,2023.2.3,Win32,59.88023952,60309a142458094108f37f73,6598e6a5d84f07970b831e70,6598e786f7d3baebf069650b,0.0859,0.0861,1,9,171,25,1,onethree,,,,,,,,,,,,,,,,,,,,,,,,,,,,,,,,,,,,,,,,,,,,,,,,,,,,,,,,,,,,,,,,,,,,,,,,,,,,,,,,,,,,,,,,,,,,,,,,,,,,,,,,,,,,,,,,,,,,,,,,,,,,,,,,,,,,,,,
,,60309a142458094108f37f73,2024-01-05_23h39.42.769,kallum_motion_pilot,2023.2.3,Win32,59.88023952,60309a142458094108f37f73,6598e6a5d84f07970b831e70,6598e786f7d3baebf069650b,0.0863,0.0865,1,10,172,1,1,onethree,,,,,,,,,,,,,,,,,,,,,,,,,,,,,,,,,,,,,,,,,,,,,,,,,,,,,,,,,,,,,,,,,,,,,,,,,,,,,,,,,,,,,,,,,,,,,,,,,,,,,,,,,,,,,,,,,,,,,,,,,,,,,,,,,,,,,,,
,,60309a142458094108f37f73,2024-01-05_23h39.42.769,kallum_motion_pilot,2023.2.3,Win32,59.88023952,60309a142458094108f37f73,6598e6a5d84f07970b831e70,6598e786f7d3baebf069650b,0.0867,0.0869,1,11,173,65,1,onethree,,,,,,,,,,,,,,,,,,,,,,,,,,,,,,,,,,,,,,,,,,,,,,,,,,,,,,,,,,,,,,,,,,,,,,,,,,,,,,,,,,,,,,,,,,,,,,,,,,,,,,,,,,,,,,,,,,,,,,,,,,,,,,,,,,,,,,,
,,60309a142458094108f37f73,2024-01-05_23h39.42.769,kallum_motion_pilot,2023.2.3,Win32,59.88023952,60309a142458094108f37f73,6598e6a5d84f07970b831e70,6598e786f7d3baebf069650b,0.087,0.0871,1,12,174,134,1,eightsix,,,,,,,,,,,,,,,,,,,,,,,,,,,,,,,,,,,,,,,,,,,,,,,,,,,,,,,,,,,,,,,,,,,,,,,,,,,,,,,,,,,,,,,,,,,,,,,,,,,,,,,,,,,,,,,,,,,,,,,,,,,,,,,,,,,,,,,
,,60309a142458094108f37f73,2024-01-05_23h39.42.769,kallum_motion_pilot,2023.2.3,Win32,59.88023952,60309a142458094108f37f73,6598e6a5d84f07970b831e70,6598e786f7d3baebf069650b,0.0872,0.0873,1,13,175,107,1,sixeight,,,,,,,,,,,,,,,,,,,,,,,,,,,,,,,,,,,,,,,,,,,,,,,,,,,,,,,,,,,,,,,,,,,,,,,,,,,,,,,,,,,,,,,,,,,,,,,,,,,,,,,,,,,,,,,,,,,,,,,,,,,,,,,,,,,,,,,
,,60309a142458094108f37f73,2024-01-05_23h39.42.769,kallum_motion_pilot,2023.2.3,Win32,59.88023952,60309a142458094108f37f73,6598e6a5d84f07970b831e70,6598e786f7d3baebf069650b,0.0875,0.0877,1,14,176,40,1,onetwo,,,,,,,,,,,,,,,,,,,,,,,,,,,,,,,,,,,,,,,,,,,,,,,,,,,,,,,,,,,,,,,,,,,,,,,,,,,,,,,,,,,,,,,,,,,,,,,,,,,,,,,,,,,,,,,,,,,,,,,,,,,,,,,,,,,,,,,
,,60309a142458094108f37f73,2024-01-05_23h39.42.769,kallum_motion_pilot,2023.2.3,Win32,59.88023952,60309a142458094108f37f73,6598e6a5d84f07970b831e70,6598e786f7d3baebf069650b,0.0878,0.0879,1,15,177,31,1,fourthree,,,,,,,,,,,,,,,,,,,,,,,,,,,,,,,,,,,,,,,,,,,,,,,,,,,,,,,,,,,,,,,,,,,,,,,,,,,,,,,,,,,,,,,,,,,,,,,,,,,,,,,,,,,,,,,,,,,,,,,,,,,,,,,,,,,,,,,
,,60309a142458094108f37f73,2024-01-05_23h39.42.769,kallum_motion_pilot,2023.2.3,Win32,59.88023952,60309a142458094108f37f73,6598e6a5d84f07970b831e70,6598e786f7d3baebf069650b,0.0881,0.0882,1,16,178,10,1,twoone,,,,,,,,,,,,,,,,,,,,,,,,,,,,,,,,,,,,,,,,,,,,,,,,,,,,,,,,,,,,,,,,,,,,,,,,,,,,,,,,,,,,,,,,,,,,,,,,,,,,,,,,,,,,,,,,,,,,,,,,,,,,,,,,,,,,,,,
,,60309a142458094108f37f73,2024-01-05_23h39.42.769,kallum_motion_pilot,2023.2.3,Win32,59.88023952,60309a142458094108f37f73,6598e6a5d84f07970b831e70,6598e786f7d3baebf069650b,0.0883,0.0885,1,17,179,3,1,twofour,,,,,,,,,,,,,,,,,,,,,,,,,,,,,,,,,,,,,,,,,,,,,,,,,,,,,,,,,,,,,,,,,,,,,,,,,,,,,,,,,,,,,,,,,,,,,,,,,,,,,,,,,,,,,,,,,,,,,,,,,,,,,,,,,,,,,,,
,,60309a142458094108f37f73,2024-01-05_23h39.42.769,kallum_motion_pilot,2023.2.3,Win32,59.88023952,60309a142458094108f37f73,6598e6a5d84f07970b831e70,6598e786f7d3baebf069650b,0.0886,0.0887,1,18,180,48,1,onetwo,,,,,,,,,,,,,,,,,,,,,,,,,,,,,,,,,,,,,,,,,,,,,,,,,,,,,,,,,,,,,,,,,,,,,,,,,,,,,,,,,,,,,,,,,,,,,,,,,,,,,,,,,,,,,,,,,,,,,,,,,,,,,,,,,,,,,,,
,,60309a142458094108f37f73,2024-01-05_23h39.42.769,kallum_motion_pilot,2023.2.3,Win32,59.88023952,60309a142458094108f37f73,6598e6a5d84f07970b831e70,6598e786f7d3baebf069650b,0.0889,0.089,1,19,181,29,1,threefour,,,,,,,,,,,,,,,,,,,,,,,,,,,,,,,,,,,,,,,,,,,,,,,,,,,,,,,,,,,,,,,,,,,,,,,,,,,,,,,,,,,,,,,,,,,,,,,,,,,,,,,,,,,,,,,,,,,,,,,,,,,,,,,,,,,,,,,
,,60309a142458094108f37f73,2024-01-05_23h39.42.769,kallum_motion_pilot,2023.2.3,Win32,59.88023952,60309a142458094108f37f73,6598e6a5d84f07970b831e70,6598e786f7d3baebf069650b,0.0892,0.0892,1,20,182,161,1,fiveseven,,,,,,,,,,,,,,,,,,,,,,,,,,,,,,,,,,,,,,,,,,,,,,,,,,,,,,,,,,,,,,,,,,,,,,,,,,,,,,,,,,,,,,,,,,,,,,,,,,,,,,,,,,,,,,,,,,,,,,,,,,,,,,,,,,,,,,,
,,60309a142458094108f37f73,2024-01-05_23h39.42.769,kallum_motion_pilot,2023.2.3,Win32,59.88023952,60309a142458094108f37f73,6598e6a5d84f07970b831e70,6598e786f7d3baebf069650b,0.0894,0.0895,1,21,183,156,1,sevenfive,,,,,,,,,,,,,,,,,,,,,,,,,,,,,,,,,,,,,,,,,,,,,,,,,,,,,,,,,,,,,,,,,,,,,,,,,,,,,,,,,,,,,,,,,,,,,,,,,,,,,,,,,,,,,,,,,,,,,,,,,,,,,,,,,,,,,,,
,,60309a142458094108f37f73,2024-01-05_23h39.42.769,kallum_motion_pilot,2023.2.3,Win32,59.88023952,60309a142458094108f37f73,6598e6a5d84f07970b831e70,6598e786f7d3baebf069650b,0.0898,0.09,1,22,184,58,1,twoone,,,,,,,,,,,,,,,,,,,,,,,,,,,,,,,,,,,,,,,,,,,,,,,,,,,,,,,,,,,,,,,,,,,,,,,,,,,,,,,,,,,,,,,,,,,,,,,,,,,,,,,,,,,,,,,,,,,,,,,,,,,,,,,,,,,,,,,
,,60309a142458094108f37f73,2024-01-05_23h39.42.769,kallum_motion_pilot,2023.2.3,Win32,59.88023952,60309a142458094108f37f73,6598e6a5d84f07970b831e70,6598e786f7d3baebf069650b,0.0902,0.0904,1,23,185,67,1,twofour,,,,,,,,,,,,,,,,,,,,,,,,,,,,,,,,,,,,,,,,,,,,,,,,,,,,,,,,,,,,,,,,,,,,,,,,,,,,,,,,,,,,,,,,,,,,,,,,,,,,,,,,,,,,,,,,,,,,,,,,,,,,,,,,,,,,,,,
,,60309a142458094108f37f73,2024-01-05_23h39.42.769,kallum_motion_pilot,2023.2.3,Win32,59.88023952,60309a142458094108f37f73,6598e6a5d84f07970b831e70,6598e786f7d3baebf069650b,0.0905,0.0907,1,24,186,46,1,fourtwo,,,,,,,,,,,,,,,,,,,,,,,,,,,,,,,,,,,,,,,,,,,,,,,,,,,,,,,,,,,,,,,,,,,,,,,,,,,,,,,,,,,,,,,,,,,,,,,,,,,,,,,,,,,,,,,,,,,,,,,,,,,,,,,,,,,,,,,
,,60309a142458094108f37f73,2024-01-05_23h39.42.769,kallum_motion_pilot,2023.2.3,Win32,59.88023952,60309a142458094108f37f73,6598e6a5d84f07970b831e70,6598e786f7d3baebf069650b,0.0908,0.0913,1,25,187,128,1,fivesix,,,,,,,,,,,,,,,,,,,,,,,,,,,,,,,,,,,,,,,,,,,,,,,,,,,,,,,,,,,,,,,,,,,,,,,,,,,,,,,,,,,,,,,,,,,,,,,,,,,,,,,,,,,,,,,,,,,,,,,,,,,,,,,,,,,,,,,
,,60309a142458094108f37f73,2024-01-05_23h39.42.769,kallum_motion_pilot,2023.2.3,Win32,59.88023952,60309a142458094108f37f73,6598e6a5d84f07970b831e70,6598e786f7d3baebf069650b,0.0916,0.0919,1,26,188,121,1,fiveseven,,,,,,,,,,,,,,,,,,,,,,,,,,,,,,,,,,,,,,,,,,,,,,,,,,,,,,,,,,,,,,,,,,,,,,,,,,,,,,,,,,,,,,,,,,,,,,,,,,,,,,,,,,,,,,,,,,,,,,,,,,,,,,,,,,,,,,,
,,60309a142458094108f37f73,2024-01-05_23h39.42.769,kallum_motion_pilot,2023.2.3,Win32,59.88023952,60309a142458094108f37f73,6598e6a5d84f07970b831e70,6598e786f7d3baebf069650b,0.0922,0.0922,1,27,189,42,1,twoone,,,,,,,,,,,,,,,,,,,,,,,,,,,,,,,,,,,,,,,,,,,,,,,,,,,,,,,,,,,,,,,,,,,,,,,,,,,,,,,,,,,,,,,,,,,,,,,,,,,,,,,,,,,,,,,,,,,,,,,,,,,,,,,,,,,,,,,
,,60309a142458094108f37f73,2024-01-05_23h39.42.769,kallum_motion_pilot,2023.2.3,Win32,59.88023952,60309a142458094108f37f73,6598e6a5d84f07970b831e70,6598e786f7d3baebf069650b,0.0925,0.0926,1,28,190,141,1,seveneight,,,,,,,,,,,,,,,,,,,,,,,,,,,,,,,,,,,,,,,,,,,,,,,,,,,,,,,,,,,,,,,,,,,,,,,,,,,,,,,,,,,,,,,,,,,,,,,,,,,,,,,,,,,,,,,,,,,,,,,,,,,,,,,,,,,,,,,
,,60309a142458094108f37f73,2024-01-05_23h39.42.769,kallum_motion_pilot,2023.2.3,Win32,59.88023952,60309a142458094108f37f73,6598e6a5d84f07970b831e70,6598e786f7d3baebf069650b,0.0927,0.0928,1,29,191,34,1,twoone,,,,,,,,,,,,,,,,,,,,,,,,,,,,,,,,,,,,,,,,,,,,,,,,,,,,,,,,,,,,,,,,,,,,,,,,,,,,,,,,,,,,,,,,,,,,,,,,,,,,,,,,,,,,,,,,,,,,,,,,,,,,,,,,,,,,,,,
,,60309a142458094108f37f73,2024-01-05_23h39.42.769,kallum_motion_pilot,2023.2.3,Win32,59.88023952,60309a142458094108f37f73,6598e6a5d84f07970b831e70,6598e786f7d3baebf069650b,0.0929,0.0931,1,30,192,110,1,eightsix,,,,,,,,,,,,,,,,,,,,,,,,,,,,,,,,,,,,,,,,,,,,,,,,,,,,,,,,,,,,,,,,,,,,,,,,,,,,,,,,,,,,,,,,,,,,,,,,,,,,,,,,,,,,,,,,,,,,,,,,,,,,,,,,,,,,,,,
,,60309a142458094108f37f73,2024-01-05_23h39.42.769,kallum_motion_pilot,2023.2.3,Win32,59.88023952,60309a142458094108f37f73,6598e6a5d84f07970b831e70,6598e786f7d3baebf069650b,0.0934,0.0935,1,31,193,91,1,sixeight,,,,,,,,,,,,,,,,,,,,,,,,,,,,,,,,,,,,,,,,,,,,,,,,,,,,,,,,,,,,,,,,,,,,,,,,,,,,,,,,,,,,,,,,,,,,,,,,,,,,,,,,,,,,,,,,,,,,,,,,,,,,,,,,,,,,,,,
,,60309a142458094108f37f73,2024-01-05_23h39.42.769,kallum_motion_pilot,2023.2.3,Win32,59.88023952,60309a142458094108f37f73,6598e6a5d84f07970b831e70,6598e786f7d3baebf069650b,0.0938,0.094,1,32,194,73,1,onethree,,,,,,,,,,,,,,,,,,,,,,,,,,,,,,,,,,,,,,,,,,,,,,,,,,,,,,,,,,,,,,,,,,,,,,,,,,,,,,,,,,,,,,,,,,,,,,,,,,,,,,,,,,,,,,,,,,,,,,,,,,,,,,,,,,,,,,,
,,60309a142458094108f37f73,2024-01-05_23h39.42.769,kallum_motion_pilot,2023.2.3,Win32,59.88023952,60309a142458094108f37f73,6598e6a5d84f07970b831e70,6598e786f7d3baebf069650b,0.0941,0.0943,1,33,195,80,1,fivesix,,,,,,,,,,,,,,,,,,,,,,,,,,,,,,,,,,,,,,,,,,,,,,,,,,,,,,,,,,,,,,,,,,,,,,,,,,,,,,,,,,,,,,,,,,,,,,,,,,,,,,,,,,,,,,,,,,,,,,,,,,,,,,,,,,,,,,,
,,60309a142458094108f37f73,2024-01-05_23h39.42.769,kallum_motion_pilot,2023.2.3,Win32,59.88023952,60309a142458094108f37f73,6598e6a5d84f07970b831e70,6598e786f7d3baebf069650b,0.0944,0.0945,1,34,196,53,1,threefour,,,,,,,,,,,,,,,,,,,,,,,,,,,,,,,,,,,,,,,,,,,,,,,,,,,,,,,,,,,,,,,,,,,,,,,,,,,,,,,,,,,,,,,,,,,,,,,,,,,,,,,,,,,,,,,,,,,,,,,,,,,,,,,,,,,,,,,
,,60309a142458094108f37f73,2024-01-05_23h39.42.769,kallum_motion_pilot,2023.2.3,Win32,59.88023952,60309a142458094108f37f73,6598e6a5d84f07970b831e70,6598e786f7d3baebf069650b,0.0946,0.0947,1,35,197,41,1,onethree,,,,,,,,,,,,,,,,,,,,,,,,,,,,,,,,,,,,,,,,,,,,,,,,,,,,,,,,,,,,,,,,,,,,,,,,,,,,,,,,,,,,,,,,,,,,,,,,,,,,,,,,,,,,,,,,,,,,,,,,,,,,,,,,,,,,,,,
,,60309a142458094108f37f73,2024-01-05_23h39.42.769,kallum_motion_pilot,2023.2.3,Win32,59.88023952,60309a142458094108f37f73,6598e6a5d84f07970b831e70,6598e786f7d3baebf069650b,0.0949,0.095,1,36,198,101,1,seveneight,,,,,,,,,,,,,,,,,,,,,,,,,,,,,,,,,,,,,,,,,,,,,,,,,,,,,,,,,,,,,,,,,,,,,,,,,,,,,,,,,,,,,,,,,,,,,,,,,,,,,,,,,,,,,,,,,,,,,,,,,,,,,,,,,,,,,,,
,,60309a142458094108f37f73,2024-01-05_23h39.42.769,kallum_motion_pilot,2023.2.3,Win32,59.88023952,60309a142458094108f37f73,6598e6a5d84f07970b831e70,6598e786f7d3baebf069650b,0.0951,0.0953,1,37,199,146,1,sixfive,,,,,,,,,,,,,,,,,,,,,,,,,,,,,,,,,,,,,,,,,,,,,,,,,,,,,,,,,,,,,,,,,,,,,,,,,,,,,,,,,,,,,,,,,,,,,,,,,,,,,,,,,,,,,,,,,,,,,,,,,,,,,,,,,,,,,,,
,,60309a142458094108f37f73,2024-01-05_23h39.42.769,kallum_motion_pilot,2023.2.3,Win32,59.88023952,60309a142458094108f37f73,6598e6a5d84f07970b831e70,6598e786f7d3baebf069650b,0.0954,0.0955,1,38,200,16,1,onetwo,,,,,,,,,,,,,,,,,,,,,,,,,,,,,,,,,,,,,,,,,,,,,,,,,,,,,,,,,,,,,,,,,,,,,,,,,,,,,,,,,,,,,,,,,,,,,,,,,,,,,,,,,,,,,,,,,,,,,,,,,,,,,,,,,,,,,,,
,,60309a142458094108f37f73,2024-01-05_23h39.42.769,kallum_motion_pilot,2023.2.3,Win32,59.88023952,60309a142458094108f37f73,6598e6a5d84f07970b831e70,6598e786f7d3baebf069650b,0.0957,0.0958,1,39,201,12,1,threeone,,,,,,,,,,,,,,,,,,,,,,,,,,,,,,,,,,,,,,,,,,,,,,,,,,,,,,,,,,,,,,,,,,,,,,,,,,,,,,,,,,,,,,,,,,,,,,,,,,,,,,,,,,,,,,,,,,,,,,,,,,,,,,,,,,,,,,,
,,60309a142458094108f37f73,2024-01-05_23h39.42.769,kallum_motion_pilot,2023.2.3,Win32,59.88023952,60309a142458094108f37f73,6598e6a5d84f07970b831e70,6598e786f7d3baebf069650b,0.0959,0.0961,1,40,202,129,1,fiveseven,,,,,,,,,,,,,,,,,,,,,,,,,,,,,,,,,,,,,,,,,,,,,,,,,,,,,,,,,,,,,,,,,,,,,,,,,,,,,,,,,,,,,,,,,,,,,,,,,,,,,,,,,,,,,,,,,,,,,,,,,,,,,,,,,,,,,,,
,,60309a142458094108f37f73,2024-01-05_23h39.42.769,kallum_motion_pilot,2023.2.3,Win32,59.88023952,60309a142458094108f37f73,6598e6a5d84f07970b831e70,6598e786f7d3baebf069650b,0.0962,0.0965,1,41,203,68,1,threeone,,,,,,,,,,,,,,,,,,,,,,,,,,,,,,,,,,,,,,,,,,,,,,,,,,,,,,,,,,,,,,,,,,,,,,,,,,,,,,,,,,,,,,,,,,,,,,,,,,,,,,,,,,,,,,,,,,,,,,,,,,,,,,,,,,,,,,,
,,60309a142458094108f37f73,2024-01-05_23h39.42.769,kallum_motion_pilot,2023.2.3,Win32,59.88023952,60309a142458094108f37f73,6598e6a5d84f07970b831e70,6598e786f7d3baebf069650b,0.0967,0.0969,1,42,204,152,1,fivesix,,,,,,,,,,,,,,,,,,,,,,,,,,,,,,,,,,,,,,,,,,,,,,,,,,,,,,,,,,,,,,,,,,,,,,,,,,,,,,,,,,,,,,,,,,,,,,,,,,,,,,,,,,,,,,,,,,,,,,,,,,,,,,,,,,,,,,,
,,60309a142458094108f37f73,2024-01-05_23h39.42.769,kallum_motion_pilot,2023.2.3,Win32,59.88023952,60309a142458094108f37f73,6598e6a5d84f07970b831e70,6598e786f7d3baebf069650b,0.097,0.0972,1,43,205,83,1,sixeight,,,,,,,,,,,,,,,,,,,,,,,,,,,,,,,,,,,,,,,,,,,,,,,,,,,,,,,,,,,,,,,,,,,,,,,,,,,,,,,,,,,,,,,,,,,,,,,,,,,,,,,,,,,,,,,,,,,,,,,,,,,,,,,,,,,,,,,
,,60309a142458094108f37f73,2024-01-05_23h39.42.769,kallum_motion_pilot,2023.2.3,Win32,59.88023952,60309a142458094108f37f73,6598e6a5d84f07970b831e70,6598e786f7d3baebf069650b,0.0973,0.0975,1,44,206,96,1,fivesix,,,,,,,,,,,,,,,,,,,,,,,,,,,,,,,,,,,,,,,,,,,,,,,,,,,,,,,,,,,,,,,,,,,,,,,,,,,,,,,,,,,,,,,,,,,,,,,,,,,,,,,,,,,,,,,,,,,,,,,,,,,,,,,,,,,,,,,
,,60309a142458094108f37f73,2024-01-05_23h39.42.769,kallum_motion_pilot,2023.2.3,Win32,59.88023952,60309a142458094108f37f73,6598e6a5d84f07970b831e70,6598e786f7d3baebf069650b,0.0976,0.0978,1,45,207,90,1,sixfive,,,,,,,,,,,,,,,,,,,,,,,,,,,,,,,,,,,,,,,,,,,,,,,,,,,,,,,,,,,,,,,,,,,,,,,,,,,,,,,,,,,,,,,,,,,,,,,,,,,,,,,,,,,,,,,,,,,,,,,,,,,,,,,,,,,,,,,
,,60309a142458094108f37f73,2024-01-05_23h39.42.769,kallum_motion_pilot,2023.2.3,Win32,59.88023952,60309a142458094108f37f73,6598e6a5d84f07970b831e70,6598e786f7d3baebf069650b,0.0978,0.098,1,46,208,132,1,sevenfive,,,,,,,,,,,,,,,,,,,,,,,,,,,,,,,,,,,,,,,,,,,,,,,,,,,,,,,,,,,,,,,,,,,,,,,,,,,,,,,,,,,,,,,,,,,,,,,,,,,,,,,,,,,,,,,,,,,,,,,,,,,,,,,,,,,,,,,
,,60309a142458094108f37f73,2024-01-05_23h39.42.769,kallum_motion_pilot,2023.2.3,Win32,59.88023952,60309a142458094108f37f73,6598e6a5d84f07970b831e70,6598e786f7d3baebf069650b,0.0981,0.0984,1,47,209,122,1,sixfive,,,,,,,,,,,,,,,,,,,,,,,,,,,,,,,,,,,,,,,,,,,,,,,,,,,,,,,,,,,,,,,,,,,,,,,,,,,,,,,,,,,,,,,,,,,,,,,,,,,,,,,,,,,,,,,,,,,,,,,,,,,,,,,,,,,,,,,
,,60309a142458094108f37f73,2024-01-05_23h39.42.769,kallum_motion_pilot,2023.2.3,Win32,59.88023952,60309a142458094108f37f73,6598e6a5d84f07970b831e70,6598e786f7d3baebf069650b,0.0985,0.0986,1,48,210,74,1,twoone,,,,,,,,,,,,,,,,,,,,,,,,,,,,,,,,,,,,,,,,,,,,,,,,,,,,,,,,,,,,,,,,,,,,,,,,,,,,,,,,,,,,,,,,,,,,,,,,,,,,,,,,,,,,,,,,,,,,,,,,,,,,,,,,,,,,,,,
,,60309a142458094108f37f73,2024-01-05_23h39.42.769,kallum_motion_pilot,2023.2.3,Win32,59.88023952,60309a142458094108f37f73,6598e6a5d84f07970b831e70,6598e786f7d3baebf069650b,0.0987,0.099,1,49,211,154,1,sixfive,,,,,,,,,,,,,,,,,,,,,,,,,,,,,,,,,,,,,,,,,,,,,,,,,,,,,,,,,,,,,,,,,,,,,,,,,,,,,,,,,,,,,,,,,,,,,,,,,,,,,,,,,,,,,,,,,,,,,,,,,,,,,,,,,,,,,,,
,,60309a142458094108f37f73,2024-01-05_23h39.42.769,kallum_motion_pilot,2023.2.3,Win32,59.88023952,60309a142458094108f37f73,6598e6a5d84f07970b831e70,6598e786f7d3baebf069650b,0.0992,0.0993,1,50,212,63,1,fourthree,,,,,,,,,,,,,,,,,,,,,,,,,,,,,,,,,,,,,,,,,,,,,,,,,,,,,,,,,,,,,,,,,,,,,,,,,,,,,,,,,,,,,,,,,,,,,,,,,,,,,,,,,,,,,,,,,,,,,,,,,,,,,,,,,,,,,,,
,,60309a142458094108f37f73,2024-01-05_23h39.42.769,kallum_motion_pilot,2023.2.3,Win32,59.88023952,60309a142458094108f37f73,6598e6a5d84f07970b831e70,6598e786f7d3baebf069650b,0.0996,0.0997,1,51,213,27,1,twofour,,,,,,,,,,,,,,,,,,,,,,,,,,,,,,,,,,,,,,,,,,,,,,,,,,,,,,,,,,,,,,,,,,,,,,,,,,,,,,,,,,,,,,,,,,,,,,,,,,,,,,,,,,,,,,,,,,,,,,,,,,,,,,,,,,,,,,,
,,60309a142458094108f37f73,2024-01-05_23h39.42.769,kallum_motion_pilot,2023.2.3,Win32,59.88023952,60309a142458094108f37f73,6598e6a5d84f07970b831e70,6598e786f7d3baebf069650b,0.0998,0.1,1,52,214,47,1,fourthree,,,,,,,,,,,,,,,,,,,,,,,,,,,,,,,,,,,,,,,,,,,,,,,,,,,,,,,,,,,,,,,,,,,,,,,,,,,,,,,,,,,,,,,,,,,,,,,,,,,,,,,,,,,,,,,,,,,,,,,,,,,,,,,,,,,,,,,
,,60309a142458094108f37f73,2024-01-05_23h39.42.769,kallum_motion_pilot,2023.2.3,Win32,59.88023952,60309a142458094108f37f73,6598e6a5d84f07970b831e70,6598e786f7d3baebf069650b,0.1001,0.1003,1,53,215,126,1,eightsix,,,,,,,,,,,,,,,,,,,,,,,,,,,,,,,,,,,,,,,,,,,,,,,,,,,,,,,,,,,,,,,,,,,,,,,,,,,,,,,,,,,,,,,,,,,,,,,,,,,,,,,,,,,,,,,,,,,,,,,,,,,,,,,,,,,,,,,
,,60309a142458094108f37f73,2024-01-05_23h39.42.769,kallum_motion_pilot,2023.2.3,Win32,59.88023952,60309a142458094108f37f73,6598e6a5d84f07970b831e70,6598e786f7d3baebf069650b,0.1005,0.1007,1,54,216,72,1,onetwo,,,,,,,,,,,,,,,,,,,,,,,,,,,,,,,,,,,,,,,,,,,,,,,,,,,,,,,,,,,,,,,,,,,,,,,,,,,,,,,,,,,,,,,,,,,,,,,,,,,,,,,,,,,,,,,,,,,,,,,,,,,,,,,,,,,,,,,
,,60309a142458094108f37f73,2024-01-05_23h39.42.769,kallum_motion_pilot,2023.2.3,Win32,59.88023952,60309a142458094108f37f73,6598e6a5d84f07970b831e70,6598e786f7d3baebf069650b,0.1009,0.1009,1,55,217,57,1,onethree,,,,,,,,,,,,,,,,,,,,,,,,,,,,,,,,,,,,,,,,,,,,,,,,,,,,,,,,,,,,,,,,,,,,,,,,,,,,,,,,,,,,,,,,,,,,,,,,,,,,,,,,,,,,,,,,,,,,,,,,,,,,,,,,,,,,,,,
,,60309a142458094108f37f73,2024-01-05_23h39.42.769,kallum_motion_pilot,2023.2.3,Win32,59.88023952,60309a142458094108f37f73,6598e6a5d84f07970b831e70,6598e786f7d3baebf069650b,0.1012,0.1014,1,56,218,139,1,sixeight,,,,,,,,,,,,,,,,,,,,,,,,,,,,,,,,,,,,,,,,,,,,,,,,,,,,,,,,,,,,,,,,,,,,,,,,,,,,,,,,,,,,,,,,,,,,,,,,,,,,,,,,,,,,,,,,,,,,,,,,,,,,,,,,,,,,,,,
,,60309a142458094108f37f73,2024-01-05_23h39.42.769,kallum_motion_pilot,2023.2.3,Win32,59.88023952,60309a142458094108f37f73,6598e6a5d84f07970b831e70,6598e786f7d3baebf069650b,0.1016,0.1018,1,57,219,78,1,fourtwo,,,,,,,,,,,,,,,,,,,,,,,,,,,,,,,,,,,,,,,,,,,,,,,,,,,,,,,,,,,,,,,,,,,,,,,,,,,,,,,,,,,,,,,,,,,,,,,,,,,,,,,,,,,,,,,,,,,,,,,,,,,,,,,,,,,,,,,
,,60309a142458094108f37f73,2024-01-05_23h39.42.769,kallum_motion_pilot,2023.2.3,Win32,59.88023952,60309a142458094108f37f73,6598e6a5d84f07970b831e70,6598e786f7d3baebf069650b,0.1021,0.1022,1,58,220,2,1,twoone,,,,,,,,,,,,,,,,,,,,,,,,,,,,,,,,,,,,,,,,,,,,,,,,,,,,,,,,,,,,,,,,,,,,,,,,,,,,,,,,,,,,,,,,,,,,,,,,,,,,,,,,,,,,,,,,,,,,,,,,,,,,,,,,,,,,,,,
,,60309a142458094108f37f73,2024-01-05_23h39.42.769,kallum_motion_pilot,2023.2.3,Win32,59.88023952,60309a142458094108f37f73,6598e6a5d84f07970b831e70,6598e786f7d3baebf069650b,0.1025,0.1027,1,59,221,159,1,eightseven,,,,,,,,,,,,,,,,,,,,,,,,,,,,,,,,,,,,,,,,,,,,,,,,,,,,,,,,,,,,,,,,,,,,,,,,,,,,,,,,,,,,,,,,,,,,,,,,,,,,,,,,,,,,,,,,,,,,,,,,,,,,,,,,,,,,,,,
,,60309a142458094108f37f73,2024-01-05_23h39.42.769,kallum_motion_pilot,2023.2.3,Win32,59.88023952,60309a142458094108f37f73,6598e6a5d84f07970b831e70,6598e786f7d3baebf069650b,0.1029,0.103,1,60,222,43,1,twofour,,,,,,,,,,,,,,,,,,,,,,,,,,,,,,,,,,,,,,,,,,,,,,,,,,,,,,,,,,,,,,,,,,,,,,,,,,,,,,,,,,,,,,,,,,,,,,,,,,,,,,,,,,,,,,,,,,,,,,,,,,,,,,,,,,,,,,,
,,60309a142458094108f37f73,2024-01-05_23h39.42.769,kallum_motion_pilot,2023.2.3,Win32,59.88023952,60309a142458094108f37f73,6598e6a5d84f07970b831e70,6598e786f7d3baebf069650b,0.1032,0.1034,1,61,223,97,1,fiveseven,,,,,,,,,,,,,,,,,,,,,,,,,,,,,,,,,,,,,,,,,,,,,,,,,,,,,,,,,,,,,,,,,,,,,,,,,,,,,,,,,,,,,,,,,,,,,,,,,,,,,,,,,,,,,,,,,,,,,,,,,,,,,,,,,,,,,,,
,,60309a142458094108f37f73,2024-01-05_23h39.42.769,kallum_motion_pilot,2023.2.3,Win32,59.88023952,60309a142458094108f37f73,6598e6a5d84f07970b831e70,6598e786f7d3baebf069650b,0.1035,0.1037,1,62,224,14,1,fourtwo,,,,,,,,,,,,,,,,,,,,,,,,,,,,,,,,,,,,,,,,,,,,,,,,,,,,,,,,,,,,,,,,,,,,,,,,,,,,,,,,,,,,,,,,,,,,,,,,,,,,,,,,,,,,,,,,,,,,,,,,,,,,,,,,,,,,,,,
,,60309a142458094108f37f73,2024-01-05_23h39.42.769,kallum_motion_pilot,2023.2.3,Win32,59.88023952,60309a142458094108f37f73,6598e6a5d84f07970b831e70,6598e786f7d3baebf069650b,0.1038,0.104,1,63,225,84,1,sevenfive,,,,,,,,,,,,,,,,,,,,,,,,,,,,,,,,,,,,,,,,,,,,,,,,,,,,,,,,,,,,,,,,,,,,,,,,,,,,,,,,,,,,,,,,,,,,,,,,,,,,,,,,,,,,,,,,,,,,,,,,,,,,,,,,,,,,,,,
,,60309a142458094108f37f73,2024-01-05_23h39.42.769,kallum_motion_pilot,2023.2.3,Win32,59.88023952,60309a142458094108f37f73,6598e6a5d84f07970b831e70,6598e786f7d3baebf069650b,0.1042,0.1043,1,64,226,135,1,eightseven,,,,,,,,,,,,,,,,,,,,,,,,,,,,,,,,,,,,,,,,,,,,,,,,,,,,,,,,,,,,,,,,,,,,,,,,,,,,,,,,,,,,,,,,,,,,,,,,,,,,,,,,,,,,,,,,,,,,,,,,,,,,,,,,,,,,,,,
,,60309a142458094108f37f73,2024-01-05_23h39.42.769,kallum_motion_pilot,2023.2.3,Win32,59.88023952,60309a142458094108f37f73,6598e6a5d84f07970b831e70,6598e786f7d3baebf069650b,0.1045,0.1046,1,65,227,142,1,eightsix,,,,,,,,,,,,,,,,,,,,,,,,,,,,,,,,,,,,,,,,,,,,,,,,,,,,,,,,,,,,,,,,,,,,,,,,,,,,,,,,,,,,,,,,,,,,,,,,,,,,,,,,,,,,,,,,,,,,,,,,,,,,,,,,,,,,,,,
,,60309a142458094108f37f73,2024-01-05_23h39.42.769,kallum_motion_pilot,2023.2.3,Win32,59.88023952,60309a142458094108f37f73,6598e6a5d84f07970b831e70,6598e786f7d3baebf069650b,0.1047,0.1049,1,66,228,93,1,seveneight,,,,,,,,,,,,,,,,,,,,,,,,,,,,,,,,,,,,,,,,,,,,,,,,,,,,,,,,,,,,,,,,,,,,,,,,,,,,,,,,,,,,,,,,,,,,,,,,,,,,,,,,,,,,,,,,,,,,,,,,,,,,,,,,,,,,,,,
,,60309a142458094108f37f73,2024-01-05_23h39.42.769,kallum_motion_pilot,2023.2.3,Win32,59.88023952,60309a142458094108f37f73,6598e6a5d84f07970b831e70,6598e786f7d3baebf069650b,0.1051,0.1053,1,67,229,56,1,onetwo,,,,,,,,,,,,,,,,,,,,,,,,,,,,,,,,,,,,,,,,,,,,,,,,,,,,,,,,,,,,,,,,,,,,,,,,,,,,,,,,,,,,,,,,,,,,,,,,,,,,,,,,,,,,,,,,,,,,,,,,,,,,,,,,,,,,,,,
,,60309a142458094108f37f73,2024-01-05_23h39.42.769,kallum_motion_pilot,2023.2.3,Win32,59.88023952,60309a142458094108f37f73,6598e6a5d84f07970b831e70,6598e786f7d3baebf069650b,0.1055,0.1056,1,68,230,60,1,threeone,,,,,,,,,,,,,,,,,,,,,,,,,,,,,,,,,,,,,,,,,,,,,,,,,,,,,,,,,,,,,,,,,,,,,,,,,,,,,,,,,,,,,,,,,,,,,,,,,,,,,,,,,,,,,,,,,,,,,,,,,,,,,,,,,,,,,,,
,,60309a142458094108f37f73,2024-01-05_23h39.42.769,kallum_motion_pilot,2023.2.3,Win32,59.88023952,60309a142458094108f37f73,6598e6a5d84f07970b831e70,6598e786f7d3baebf069650b,0.1058,0.106,1,69,231,119,1,eightseven,,,,,,,,,,,,,,,,,,,,,,,,,,,,,,,,,,,,,,,,,,,,,,,,,,,,,,,,,,,,,,,,,,,,,,,,,,,,,,,,,,,,,,,,,,,,,,,,,,,,,,,,,,,,,,,,,,,,,,,,,,,,,,,,,,,,,,,
,,60309a142458094108f37f73,2024-01-05_23h39.42.769,kallum_motion_pilot,2023.2.3,Win32,59.88023952,60309a142458094108f37f73,6598e6a5d84f07970b831e70,6598e786f7d3baebf069650b,0.1061,0.1064,1,70,232,148,1,sevenfive,,,,,,,,,,,,,,,,,,,,,,,,,,,,,,,,,,,,,,,,,,,,,,,,,,,,,,,,,,,,,,,,,,,,,,,,,,,,,,,,,,,,,,,,,,,,,,,,,,,,,,,,,,,,,,,,,,,,,,,,,,,,,,,,,,,,,,,
,,60309a142458094108f37f73,2024-01-05_23h39.42.769,kallum_motion_pilot,2023.2.3,Win32,59.88023952,60309a142458094108f37f73,6598e6a5d84f07970b831e70,6598e786f7d3baebf069650b,0.1065,0.1066,1,71,233,44,1,threeone,,,,,,,,,,,,,,,,,,,,,,,,,,,,,,,,,,,,,,,,,,,,,,,,,,,,,,,,,,,,,,,,,,,,,,,,,,,,,,,,,,,,,,,,,,,,,,,,,,,,,,,,,,,,,,,,,,,,,,,,,,,,,,,,,,,,,,,
,,60309a142458094108f37f73,2024-01-05_23h39.42.769,kallum_motion_pilot,2023.2.3,Win32,59.88023952,60309a142458094108f37f73,6598e6a5d84f07970b831e70,6598e786f7d3baebf069650b,0.1069,0.107,1,72,234,66,1,twoone,,,,,,,,,,,,,,,,,,,,,,,,,,,,,,,,,,,,,,,,,,,,,,,,,,,,,,,,,,,,,,,,,,,,,,,,,,,,,,,,,,,,,,,,,,,,,,,,,,,,,,,,,,,,,,,,,,,,,,,,,,,,,,,,,,,,,,,
,,60309a142458094108f37f73,2024-01-05_23h39.42.769,kallum_motion_pilot,2023.2.3,Win32,59.88023952,60309a142458094108f37f73,6598e6a5d84f07970b831e70,6598e786f7d3baebf069650b,0.1073,0.1074,1,73,235,76,1,threeone,,,,,,,,,,,,,,,,,,,,,,,,,,,,,,,,,,,,,,,,,,,,,,,,,,,,,,,,,,,,,,,,,,,,,,,,,,,,,,,,,,,,,,,,,,,,,,,,,,,,,,,,,,,,,,,,,,,,,,,,,,,,,,,,,,,,,,,
,,60309a142458094108f37f73,2024-01-05_23h39.42.769,kallum_motion_pilot,2023.2.3,Win32,59.88023952,60309a142458094108f37f73,6598e6a5d84f07970b831e70,6598e786f7d3baebf069650b,0.1078,0.1081,1,74,236,106,1,sixfive,,,,,,,,,,,,,,,,,,,,,,,,,,,,,,,,,,,,,,,,,,,,,,,,,,,,,,,,,,,,,,,,,,,,,,,,,,,,,,,,,,,,,,,,,,,,,,,,,,,,,,,,,,,,,,,,,,,,,,,,,,,,,,,,,,,,,,,
,,60309a142458094108f37f73,2024-01-05_23h39.42.769,kallum_motion_pilot,2023.2.3,Win32,59.88023952,60309a142458094108f37f73,6598e6a5d84f07970b831e70,6598e786f7d3baebf069650b,0.1084,0.1086,1,75,237,114,1,sixfive,,,,,,,,,,,,,,,,,,,,,,,,,,,,,,,,,,,,,,,,,,,,,,,,,,,,,,,,,,,,,,,,,,,,,,,,,,,,,,,,,,,,,,,,,,,,,,,,,,,,,,,,,,,,,,,,,,,,,,,,,,,,,,,,,,,,,,,
,,60309a142458094108f37f73,2024-01-05_23h39.42.769,kallum_motion_pilot,2023.2.3,Win32,59.88023952,60309a142458094108f37f73,6598e6a5d84f07970b831e70,6598e786f7d3baebf069650b,0.1087,0.109,1,76,238,113,1,fiveseven,,,,,,,,,,,,,,,,,,,,,,,,,,,,,,,,,,,,,,,,,,,,,,,,,,,,,,,,,,,,,,,,,,,,,,,,,,,,,,,,,,,,,,,,,,,,,,,,,,,,,,,,,,,,,,,,,,,,,,,,,,,,,,,,,,,,,,,
,,60309a142458094108f37f73,2024-01-05_23h39.42.769,kallum_motion_pilot,2023.2.3,Win32,59.88023952,60309a142458094108f37f73,6598e6a5d84f07970b831e70,6598e786f7d3baebf069650b,0.1091,0.1092,1,77,239,6,1,fourtwo,,,,,,,,,,,,,,,,,,,,,,,,,,,,,,,,,,,,,,,,,,,,,,,,,,,,,,,,,,,,,,,,,,,,,,,,,,,,,,,,,,,,,,,,,,,,,,,,,,,,,,,,,,,,,,,,,,,,,,,,,,,,,,,,,,,,,,,
,,60309a142458094108f37f73,2024-01-05_23h39.42.769,kallum_motion_pilot,2023.2.3,Win32,59.88023952,60309a142458094108f37f73,6598e6a5d84f07970b831e70,6598e786f7d3baebf069650b,0.1094,0.1096,1,78,240,24,1,onetwo,,,,,,,,,,,,,,,,,,,,,,,,,,,,,,,,,,,,,,,,,,,,,,,,,,,,,,,,,,,,,,,,,,,,,,,,,,,,,,,,,,,,,,,,,,,,,,,,,,,,,,,,,,,,,,,,,,,,,,,,,,,,,,,,,,,,,,,
,,60309a142458094108f37f73,2024-01-05_23h39.42.769,kallum_motion_pilot,2023.2.3,Win32,59.88023952,60309a142458094108f37f73,6598e6a5d84f07970b831e70,6598e786f7d3baebf069650b,0.1097,0.1099,1,79,241,22,1,fourtwo,,,,,,,,,,,,,,,,,,,,,,,,,,,,,,,,,,,,,,,,,,,,,,,,,,,,,,,,,,,,,,,,,,,,,,,,,,,,,,,,,,,,,,,,,,,,,,,,,,,,,,,,,,,,,,,,,,,,,,,,,,,,,,,,,,,,,,,
,,60309a142458094108f37f73,2024-01-05_23h39.42.769,kallum_motion_pilot,2023.2.3,Win32,59.88023952,60309a142458094108f37f73,6598e6a5d84f07970b831e70,6598e786f7d3baebf069650b,0.11,0.1101,1,80,242,115,1,sixeight,,,,,,,,,,,,,,,,,,,,,,,,,,,,,,,,,,,,,,,,,,,,,,,,,,,,,,,,,,,,,,,,,,,,,,,,,,,,,,,,,,,,,,,,,,,,,,,,,,,,,,,,,,,,,,,,,,,,,,,,,,,,,,,,,,,,,,,
,,60309a142458094108f37f73,2024-01-05_23h39.42.769,kallum_motion_pilot,2023.2.3,Win32,59.88023952,60309a142458094108f37f73,6598e6a5d84f07970b831e70,6598e786f7d3baebf069650b,0.1103,0.1105,1,81,243,61,1,threefour,,,,,,,,,,,,,,,,,,,,,,,,,,,,,,,,,,,,,,,,,,,,,,,,,,,,,,,,,,,,,,,,,,,,,,,,,,,,,,,,,,,,,,,,,,,,,,,,,,,,,,,,,,,,,,,,,,,,,,,,,,,,,,,,,,,,,,,
,,60309a142458094108f37f73,2024-01-05_23h39.42.769,kallum_motion_pilot,2023.2.3,Win32,59.88023952,60309a142458094108f37f73,6598e6a5d84f07970b831e70,6598e786f7d3baebf069650b,0.1107,0.1108,1,82,244,52,1,threeone,,,,,,,,,,,,,,,,,,,,,,,,,,,,,,,,,,,,,,,,,,,,,,,,,,,,,,,,,,,,,,,,,,,,,,,,,,,,,,,,,,,,,,,,,,,,,,,,,,,,,,,,,,,,,,,,,,,,,,,,,,,,,,,,,,,,,,,
,,60309a142458094108f37f73,2024-01-05_23h39.42.769,kallum_motion_pilot,2023.2.3,Win32,59.88023952,60309a142458094108f37f73,6598e6a5d84f07970b831e70,6598e786f7d3baebf069650b,0.1109,0.1111,1,83,245,157,1,seveneight,,,,,,,,,,,,,,,,,,,,,,,,,,,,,,,,,,,,,,,,,,,,,,,,,,,,,,,,,,,,,,,,,,,,,,,,,,,,,,,,,,,,,,,,,,,,,,,,,,,,,,,,,,,,,,,,,,,,,,,,,,,,,,,,,,,,,,,
,,60309a142458094108f37f73,2024-01-05_23h39.42.769,kallum_motion_pilot,2023.2.3,Win32,59.88023952,60309a142458094108f37f73,6598e6a5d84f07970b831e70,6598e786f7d3baebf069650b,0.1112,0.1114,1,84,246,51,1,twofour,,,,,,,,,,,,,,,,,,,,,,,,,,,,,,,,,,,,,,,,,,,,,,,,,,,,,,,,,,,,,,,,,,,,,,,,,,,,,,,,,,,,,,,,,,,,,,,,,,,,,,,,,,,,,,,,,,,,,,,,,,,,,,,,,,,,,,,
,,60309a142458094108f37f73,2024-01-05_23h39.42.769,kallum_motion_pilot,2023.2.3,Win32,59.88023952,60309a142458094108f37f73,6598e6a5d84f07970b831e70,6598e786f7d3baebf069650b,0.1115,0.1116,1,85,247,32,1,onetwo,,,,,,,,,,,,,,,,,,,,,,,,,,,,,,,,,,,,,,,,,,,,,,,,,,,,,,,,,,,,,,,,,,,,,,,,,,,,,,,,,,,,,,,,,,,,,,,,,,,,,,,,,,,,,,,,,,,,,,,,,,,,,,,,,,,,,,,
,,60309a142458094108f37f73,2024-01-05_23h39.42.769,kallum_motion_pilot,2023.2.3,Win32,59.88023952,60309a142458094108f37f73,6598e6a5d84f07970b831e70,6598e786f7d3baebf069650b,0.1117,0.1119,1,86,248,104,1,fivesix,,,,,,,,,,,,,,,,,,,,,,,,,,,,,,,,,,,,,,,,,,,,,,,,,,,,,,,,,,,,,,,,,,,,,,,,,,,,,,,,,,,,,,,,,,,,,,,,,,,,,,,,,,,,,,,,,,,,,,,,,,,,,,,,,,,,,,,
,,60309a142458094108f37f73,2024-01-05_23h39.42.769,kallum_motion_pilot,2023.2.3,Win32,59.88023952,60309a142458094108f37f73,6598e6a5d84f07970b831e70,6598e786f7d3baebf069650b,0.1121,0.1123,1,87,249,105,1,fiveseven,,,,,,,,,,,,,,,,,,,,,,,,,,,,,,,,,,,,,,,,,,,,,,,,,,,,,,,,,,,,,,,,,,,,,,,,,,,,,,,,,,,,,,,,,,,,,,,,,,,,,,,,,,,,,,,,,,,,,,,,,,,,,,,,,,,,,,,
,,60309a142458094108f37f73,2024-01-05_23h39.42.769,kallum_motion_pilot,2023.2.3,Win32,59.88023952,60309a142458094108f37f73,6598e6a5d84f07970b831e70,6598e786f7d3baebf069650b,0.1124,0.1125,1,88,250,59,1,twofour,,,,,,,,,,,,,,,,,,,,,,,,,,,,,,,,,,,,,,,,,,,,,,,,,,,,,,,,,,,,,,,,,,,,,,,,,,,,,,,,,,,,,,,,,,,,,,,,,,,,,,,,,,,,,,,,,,,,,,,,,,,,,,,,,,,,,,,
,,60309a142458094108f37f73,2024-01-05_23h39.42.769,kallum_motion_pilot,2023.2.3,Win32,59.88023952,60309a142458094108f37f73,6598e6a5d84f07970b831e70,6598e786f7d3baebf069650b,0.1127,0.1128,1,89,251,49,1,onethree,,,,,,,,,,,,,,,,,,,,,,,,,,,,,,,,,,,,,,,,,,,,,,,,,,,,,,,,,,,,,,,,,,,,,,,,,,,,,,,,,,,,,,,,,,,,,,,,,,,,,,,,,,,,,,,,,,,,,,,,,,,,,,,,,,,,,,,
,,60309a142458094108f37f73,2024-01-05_23h39.42.769,kallum_motion_pilot,2023.2.3,Win32,59.88023952,60309a142458094108f37f73,6598e6a5d84f07970b831e70,6598e786f7d3baebf069650b,0.113,0.1132,1,90,252,86,1,eightsix,,,,,,,,,,,,,,,,,,,,,,,,,,,,,,,,,,,,,,,,,,,,,,,,,,,,,,,,,,,,,,,,,,,,,,,,,,,,,,,,,,,,,,,,,,,,,,,,,,,,,,,,,,,,,,,,,,,,,,,,,,,,,,,,,,,,,,,
,,60309a142458094108f37f73,2024-01-05_23h39.42.769,kallum_motion_pilot,2023.2.3,Win32,59.88023952,60309a142458094108f37f73,6598e6a5d84f07970b831e70,6598e786f7d3baebf069650b,0.1133,0.1135,1,91,253,19,1,twofour,,,,,,,,,,,,,,,,,,,,,,,,,,,,,,,,,,,,,,,,,,,,,,,,,,,,,,,,,,,,,,,,,,,,,,,,,,,,,,,,,,,,,,,,,,,,,,,,,,,,,,,,,,,,,,,,,,,,,,,,,,,,,,,,,,,,,,,
,,60309a142458094108f37f73,2024-01-05_23h39.42.769,kallum_motion_pilot,2023.2.3,Win32,59.88023952,60309a142458094108f37f73,6598e6a5d84f07970b831e70,6598e786f7d3baebf069650b,0.1136,0.1137,1,92,254,125,1,seveneight,,,,,,,,,,,,,,,,,,,,,,,,,,,,,,,,,,,,,,,,,,,,,,,,,,,,,,,,,,,,,,,,,,,,,,,,,,,,,,,,,,,,,,,,,,,,,,,,,,,,,,,,,,,,,,,,,,,,,,,,,,,,,,,,,,,,,,,
,,60309a142458094108f37f73,2024-01-05_23h39.42.769,kallum_motion_pilot,2023.2.3,Win32,59.88023952,60309a142458094108f37f73,6598e6a5d84f07970b831e70,6598e786f7d3baebf069650b,0.1141,0.1142,1,93,255,116,1,sevenfive,,,,,,,,,,,,,,,,,,,,,,,,,,,,,,,,,,,,,,,,,,,,,,,,,,,,,,,,,,,,,,,,,,,,,,,,,,,,,,,,,,,,,,,,,,,,,,,,,,,,,,,,,,,,,,,,,,,,,,,,,,,,,,,,,,,,,,,
,,60309a142458094108f37f73,2024-01-05_23h39.42.769,kallum_motion_pilot,2023.2.3,Win32,59.88023952,60309a142458094108f37f73,6598e6a5d84f07970b831e70,6598e786f7d3baebf069650b,0.1144,0.1146,1,94,256,9,1,onethree,,,,,,,,,,,,,,,,,,,,,,,,,,,,,,,,,,,,,,,,,,,,,,,,,,,,,,,,,,,,,,,,,,,,,,,,,,,,,,,,,,,,,,,,,,,,,,,,,,,,,,,,,,,,,,,,,,,,,,,,,,,,,,,,,,,,,,,
,,60309a142458094108f37f73,2024-01-05_23h39.42.769,kallum_motion_pilot,2023.2.3,Win32,59.88023952,60309a142458094108f37f73,6598e6a5d84f07970b831e70,6598e786f7d3baebf069650b,0.1147,0.1149,1,95,257,36,1,threeone,,,,,,,,,,,,,,,,,,,,,,,,,,,,,,,,,,,,,,,,,,,,,,,,,,,,,,,,,,,,,,,,,,,,,,,,,,,,,,,,,,,,,,,,,,,,,,,,,,,,,,,,,,,,,,,,,,,,,,,,,,,,,,,,,,,,,,,
,,60309a142458094108f37f73,2024-01-05_23h39.42.769,kallum_motion_pilot,2023.2.3,Win32,59.88023952,60309a142458094108f37f73,6598e6a5d84f07970b831e70,6598e786f7d3baebf069650b,0.1149,0.1151,1,96,258,79,1,eightseven,,,,,,,,,,,,,,,,,,,,,,,,,,,,,,,,,,,,,,,,,,,,,,,,,,,,,,,,,,,,,,,,,,,,,,,,,,,,,,,,,,,,,,,,,,,,,,,,,,,,,,,,,,,,,,,,,,,,,,,,,,,,,,,,,,,,,,,
,,60309a142458094108f37f73,2024-01-05_23h39.42.769,kallum_motion_pilot,2023.2.3,Win32,59.88023952,60309a142458094108f37f73,6598e6a5d84f07970b831e70,6598e786f7d3baebf069650b,0.1153,0.1154,1,97,259,149,1,seveneight,,,,,,,,,,,,,,,,,,,,,,,,,,,,,,,,,,,,,,,,,,,,,,,,,,,,,,,,,,,,,,,,,,,,,,,,,,,,,,,,,,,,,,,,,,,,,,,,,,,,,,,,,,,,,,,,,,,,,,,,,,,,,,,,,,,,,,,
,,60309a142458094108f37f73,2024-01-05_23h39.42.769,kallum_motion_pilot,2023.2.3,Win32,59.88023952,60309a142458094108f37f73,6598e6a5d84f07970b831e70,6598e786f7d3baebf069650b,0.1156,0.1157,1,98,260,77,1,threefour,,,,,,,,,,,,,,,,,,,,,,,,,,,,,,,,,,,,,,,,,,,,,,,,,,,,,,,,,,,,,,,,,,,,,,,,,,,,,,,,,,,,,,,,,,,,,,,,,,,,,,,,,,,,,,,,,,,,,,,,,,,,,,,,,,,,,,,
,,60309a142458094108f37f73,2024-01-05_23h39.42.769,kallum_motion_pilot,2023.2.3,Win32,59.88023952,60309a142458094108f37f73,6598e6a5d84f07970b831e70,6598e786f7d3baebf069650b,0.116,0.1162,1,99,261,133,1,seveneight,,,,,,,,,,,,,,,,,,,,,,,,,,,,,,,,,,,,,,,,,,,,,,,,,,,,,,,,,,,,,,,,,,,,,,,,,,,,,,,,,,,,,,,,,,,,,,,,,,,,,,,,,,,,,,,,,,,,,,,,,,,,,,,,,,,,,,,
,,60309a142458094108f37f73,2024-01-05_23h39.42.769,kallum_motion_pilot,2023.2.3,Win32,59.88023952,60309a142458094108f37f73,6598e6a5d84f07970b831e70,6598e786f7d3baebf069650b,0.1165,0.1166,1,100,262,130,1,sixfive,,,,,,,,,,,,,,,,,,,,,,,,,,,,,,,,,,,,,,,,,,,,,,,,,,,,,,,,,,,,,,,,,,,,,,,,,,,,,,,,,,,,,,,,,,,,,,,,,,,,,,,,,,,,,,,,,,,,,,,,,,,,,,,,,,,,,,,
,,60309a142458094108f37f73,2024-01-05_23h39.42.769,kallum_motion_pilot,2023.2.3,Win32,59.88023952,60309a142458094108f37f73,6598e6a5d84f07970b831e70,6598e786f7d3baebf069650b,0.1175,0.1177,1,101,263,127,1,eightseven,,,,,,,,,,,,,,,,,,,,,,,,,,,,,,,,,,,,,,,,,,,,,,,,,,,,,,,,,,,,,,,,,,,,,,,,,,,,,,,,,,,,,,,,,,,,,,,,,,,,,,,,,,,,,,,,,,,,,,,,,,,,,,,,,,,,,,,
,,60309a142458094108f37f73,2024-01-05_23h39.42.769,kallum_motion_pilot,2023.2.3,Win32,59.88023952,60309a142458094108f37f73,6598e6a5d84f07970b831e70,6598e786f7d3baebf069650b,0.1179,0.1181,1,102,264,7,1,fourthree,,,,,,,,,,,,,,,,,,,,,,,,,,,,,,,,,,,,,,,,,,,,,,,,,,,,,,,,,,,,,,,,,,,,,,,,,,,,,,,,,,,,,,,,,,,,,,,,,,,,,,,,,,,,,,,,,,,,,,,,,,,,,,,,,,,,,,,
,,60309a142458094108f37f73,2024-01-05_23h39.42.769,kallum_motion_pilot,2023.2.3,Win32,59.88023952,60309a142458094108f37f73,6598e6a5d84f07970b831e70,6598e786f7d3baebf069650b,0.1183,0.1185,1,103,265,26,1,twoone,,,,,,,,,,,,,,,,,,,,,,,,,,,,,,,,,,,,,,,,,,,,,,,,,,,,,,,,,,,,,,,,,,,,,,,,,,,,,,,,,,,,,,,,,,,,,,,,,,,,,,,,,,,,,,,,,,,,,,,,,,,,,,,,,,,,,,,
,,60309a142458094108f37f73,2024-01-05_23h39.42.769,kallum_motion_pilot,2023.2.3,Win32,59.88023952,60309a142458094108f37f73,6598e6a5d84f07970b831e70,6598e786f7d3baebf069650b,0.1186,0.1189,1,104,266,64,1,onetwo,,,,,,,,,,,,,,,,,,,,,,,,,,,,,,,,,,,,,,,,,,,,,,,,,,,,,,,,,,,,,,,,,,,,,,,,,,,,,,,,,,,,,,,,,,,,,,,,,,,,,,,,,,,,,,,,,,,,,,,,,,,,,,,,,,,,,,,
,,60309a142458094108f37f73,2024-01-05_23h39.42.769,kallum_motion_pilot,2023.2.3,Win32,59.88023952,60309a142458094108f37f73,6598e6a5d84f07970b831e70,6598e786f7d3baebf069650b,0.119,0.1191,1,105,267,28,1,threeone,,,,,,,,,,,,,,,,,,,,,,,,,,,,,,,,,,,,,,,,,,,,,,,,,,,,,,,,,,,,,,,,,,,,,,,,,,,,,,,,,,,,,,,,,,,,,,,,,,,,,,,,,,,,,,,,,,,,,,,,,,,,,,,,,,,,,,,
,,60309a142458094108f37f73,2024-01-05_23h39.42.769,kallum_motion_pilot,2023.2.3,Win32,59.88023952,60309a142458094108f37f73,6598e6a5d84f07970b831e70,6598e786f7d3baebf069650b,0.1193,0.1195,1,106,268,92,1,sevenfive,,,,,,,,,,,,,,,,,,,,,,,,,,,,,,,,,,,,,,,,,,,,,,,,,,,,,,,,,,,,,,,,,,,,,,,,,,,,,,,,,,,,,,,,,,,,,,,,,,,,,,,,,,,,,,,,,,,,,,,,,,,,,,,,,,,,,,,
,,60309a142458094108f37f73,2024-01-05_23h39.42.769,kallum_motion_pilot,2023.2.3,Win32,59.88023952,60309a142458094108f37f73,6598e6a5d84f07970b831e70,6598e786f7d3baebf069650b,0.1197,0.1199,1,107,269,147,1,sixeight,,,,,,,,,,,,,,,,,,,,,,,,,,,,,,,,,,,,,,,,,,,,,,,,,,,,,,,,,,,,,,,,,,,,,,,,,,,,,,,,,,,,,,,,,,,,,,,,,,,,,,,,,,,,,,,,,,,,,,,,,,,,,,,,,,,,,,,
,,60309a142458094108f37f73,2024-01-05_23h39.42.769,kallum_motion_pilot,2023.2.3,Win32,59.88023952,60309a142458094108f37f73,6598e6a5d84f07970b831e70,6598e786f7d3baebf069650b,0.12,0.1202,1,108,270,98,1,sixfive,,,,,,,,,,,,,,,,,,,,,,,,,,,,,,,,,,,,,,,,,,,,,,,,,,,,,,,,,,,,,,,,,,,,,,,,,,,,,,,,,,,,,,,,,,,,,,,,,,,,,,,,,,,,,,,,,,,,,,,,,,,,,,,,,,,,,,,
,,60309a142458094108f37f73,2024-01-05_23h39.42.769,kallum_motion_pilot,2023.2.3,Win32,59.88023952,60309a142458094108f37f73,6598e6a5d84f07970b831e70,6598e786f7d3baebf069650b,0.1203,0.1205,1,109,271,138,1,sixfive,,,,,,,,,,,,,,,,,,,,,,,,,,,,,,,,,,,,,,,,,,,,,,,,,,,,,,,,,,,,,,,,,,,,,,,,,,,,,,,,,,,,,,,,,,,,,,,,,,,,,,,,,,,,,,,,,,,,,,,,,,,,,,,,,,,,,,,
,,60309a142458094108f37f73,2024-01-05_23h39.42.769,kallum_motion_pilot,2023.2.3,Win32,59.88023952,60309a142458094108f37f73,6598e6a5d84f07970b831e70,6598e786f7d3baebf069650b,0.1207,0.1209,1,110,272,88,1,fivesix,,,,,,,,,,,,,,,,,,,,,,,,,,,,,,,,,,,,,,,,,,,,,,,,,,,,,,,,,,,,,,,,,,,,,,,,,,,,,,,,,,,,,,,,,,,,,,,,,,,,,,,,,,,,,,,,,,,,,,,,,,,,,,,,,,,,,,,
,,60309a142458094108f37f73,2024-01-05_23h39.42.769,kallum_motion_pilot,2023.2.3,Win32,59.88023952,60309a142458094108f37f73,6598e6a5d84f07970b831e70,6598e786f7d3baebf069650b,0.121,0.1213,1,111,273,39,1,fourthree,,,,,,,,,,,,,,,,,,,,,,,,,,,,,,,,,,,,,,,,,,,,,,,,,,,,,,,,,,,,,,,,,,,,,,,,,,,,,,,,,,,,,,,,,,,,,,,,,,,,,,,,,,,,,,,,,,,,,,,,,,,,,,,,,,,,,,,
,,60309a142458094108f37f73,2024-01-05_23h39.42.769,kallum_motion_pilot,2023.2.3,Win32,59.88023952,60309a142458094108f37f73,6598e6a5d84f07970b831e70,6598e786f7d3baebf069650b,0.1213,0.1215,1,112,274,89,1,fiveseven,,,,,,,,,,,,,,,,,,,,,,,,,,,,,,,,,,,,,,,,,,,,,,,,,,,,,,,,,,,,,,,,,,,,,,,,,,,,,,,,,,,,,,,,,,,,,,,,,,,,,,,,,,,,,,,,,,,,,,,,,,,,,,,,,,,,,,,
,,60309a142458094108f37f73,2024-01-05_23h39.42.769,kallum_motion_pilot,2023.2.3,Win32,59.88023952,60309a142458094108f37f73,6598e6a5d84f07970b831e70,6598e786f7d3baebf069650b,0.1217,0.122,1,113,275,81,1,fiveseven,,,,,,,,,,,,,,,,,,,,,,,,,,,,,,,,,,,,,,,,,,,,,,,,,,,,,,,,,,,,,,,,,,,,,,,,,,,,,,,,,,,,,,,,,,,,,,,,,,,,,,,,,,,,,,,,,,,,,,,,,,,,,,,,,,,,,,,
,,60309a142458094108f37f73,2024-01-05_23h39.42.769,kallum_motion_pilot,2023.2.3,Win32,59.88023952,60309a142458094108f37f73,6598e6a5d84f07970b831e70,6598e786f7d3baebf069650b,0.1221,0.1223,1,114,276,124,1,sevenfive,,,,,,,,,,,,,,,,,,,,,,,,,,,,,,,,,,,,,,,,,,,,,,,,,,,,,,,,,,,,,,,,,,,,,,,,,,,,,,,,,,,,,,,,,,,,,,,,,,,,,,,,,,,,,,,,,,,,,,,,,,,,,,,,,,,,,,,
,,60309a142458094108f37f73,2024-01-05_23h39.42.769,kallum_motion_pilot,2023.2.3,Win32,59.88023952,60309a142458094108f37f73,6598e6a5d84f07970b831e70,6598e786f7d3baebf069650b,0.1224,0.1226,1,115,277,37,1,threefour,,,,,,,,,,,,,,,,,,,,,,,,,,,,,,,,,,,,,,,,,,,,,,,,,,,,,,,,,,,,,,,,,,,,,,,,,,,,,,,,,,,,,,,,,,,,,,,,,,,,,,,,,,,,,,,,,,,,,,,,,,,,,,,,,,,,,,,
,,60309a142458094108f37f73,2024-01-05_23h39.42.769,kallum_motion_pilot,2023.2.3,Win32,59.88023952,60309a142458094108f37f73,6598e6a5d84f07970b831e70,6598e786f7d3baebf069650b,0.1227,0.123,1,116,278,75,1,twofour,,,,,,,,,,,,,,,,,,,,,,,,,,,,,,,,,,,,,,,,,,,,,,,,,,,,,,,,,,,,,,,,,,,,,,,,,,,,,,,,,,,,,,,,,,,,,,,,,,,,,,,,,,,,,,,,,,,,,,,,,,,,,,,,,,,,,,,
,,60309a142458094108f37f73,2024-01-05_23h39.42.769,kallum_motion_pilot,2023.2.3,Win32,59.88023952,60309a142458094108f37f73,6598e6a5d84f07970b831e70,6598e786f7d3baebf069650b,0.1232,0.1233,1,117,279,120,1,fivesix,,,,,,,,,,,,,,,,,,,,,,,,,,,,,,,,,,,,,,,,,,,,,,,,,,,,,,,,,,,,,,,,,,,,,,,,,,,,,,,,,,,,,,,,,,,,,,,,,,,,,,,,,,,,,,,,,,,,,,,,,,,,,,,,,,,,,,,
