startup.started,startup.stopped,Prolific ID*,date,expName,psychopyVersion,OS,frameRate,PROLIFIC_PID,STUDY_ID,SESSION_ID,stimpositions.started,stimpositions.stopped,hardcoded_stimulus_positions.thisRepN,hardcoded_stimulus_positions.thisTrialN,hardcoded_stimulus_positions.thisN,hardcoded_stimulus_positions.thisIndex,hardcoded_stimulus_positions.ran,StimulusPos,stimorientation.started,stimorientation.stopped,prac_stimorientation_import_loop.thisRepN,prac_stimorientation_import_loop.thisTrialN,prac_stimorientation_import_loop.thisN,prac_stimorientation_import_loop.thisIndex,prac_stimorientation_import_loop.ran,Stimorientation,welcome_instr.started,welcome_instr.stopped,key_resp.keys,key_resp.rt,key_resp.duration,response_steppedout_1.started,response_steppedout_1.stopped,key_resp_20.keys,key_resp_20.rt,key_resp_20.duration,response_steppedout_2.started,response_steppedout_2.stopped,key_resp_19.keys,key_resp_19.rt,key_resp_19.duration,stim_response_instr.started,stim_response_instr.stopped,key_resp_15.keys,key_resp_15.rt,key_resp_15.duration,direction_instr_2.started,direction_instr_2.stopped,key_resp_9.keys,key_resp_9.rt,key_resp_9.duration,instr_prac.started,instr_prac.stopped,key_resp_10.keys,key_resp_10.rt,key_resp_10.duration,Stim1_display_prac.started,Stim1_display_prac.stopped,Ecc,Circle1_ori,Circle2_ori,response_prac.started,similarity,response_time,response_prac.stopped,mouse_5.x,mouse_5.y,mouse_5.leftButton,mouse_5.midButton,mouse_5.rightButton,mouse_5.clicked_name,responseprac_feedback.started,responseprac_feedback.stopped,summary2_prac.started,summary2_prac.stopped,mouse_6.x,mouse_6.y,mouse_6.leftButton,mouse_6.midButton,mouse_6.rightButton,mouse_6.clicked_name,duringprac.thisRepN,duringprac.thisTrialN,duringprac.thisN,duringprac.thisIndex,duringprac.ran,begin.started,begin.stopped,key_resp_22.keys,key_resp_22.rt,key_resp_22.duration,Stim1_display.started,Stim1_display.stopped,circle1_ori,circle2_ori,blank.started,blank.stopped,response.started,response.stopped,mouse.x,mouse.y,mouse.leftButton,mouse.midButton,mouse.rightButton,mouse.clicked_name,response_2.started,response_2.stopped,mouse_2.x,mouse_2.y,mouse_2.leftButton,mouse_2.midButton,mouse_2.rightButton,mouse_2.clicked_name,special_trial.started,special_trial.stopped,catch_1.started,catch_1.stopped,mouse_3.x,mouse_3.y,mouse_3.leftButton,mouse_3.midButton,mouse_3.rightButton,catchresponse,catchnumber,response_time_catch,Catch,response_sum.started,response_sum.stopped,mouse_11.x,mouse_11.y,mouse_11.leftButton,mouse_11.midButton,mouse_11.rightButton,main_trial.thisRepN,main_trial.thisTrialN,main_trial.thisN,main_trial.thisIndex,main_trial.ran,Orientationtrialno,xcircle1_ori,xcircle2_ori,flip_presentation_sequence_for_double_pass.started,flip_presentation_sequence_for_double_pass.stopped,double_pass.thisRepN,double_pass.thisTrialN,double_pass.thisN,double_pass.thisIndex,double_pass.ran,goodbye.started,goodbye.stopped,key_resp_3.keys,key_resp_3.rt,key_resp_3.duration
0.0002,0.0003,6131460946d0022f68082db6,2024-01-06_07h49.55.408,kallum_motion_pilot,2023.2.3,Win32,59.52380952,6131460946d0022f68082db6,6598e6a5d84f07970b831e70,6598e74cc8388ee0fca05a55,,,,,,,,,,,,,,,,,,,,,,,,,,,,,,,,,,,,,,,,,,,,,,,,,,,,,,,,,,,,,,,,,,,,,,,,,,,,,,,,,,,,,,,,,,,,,,,,,,,,,,,,,,,,,,,,,,,,,,,,,,,,,,,,,,,,,,,,,,,,,,,
,,6131460946d0022f68082db6,2024-01-06_07h49.55.408,kallum_motion_pilot,2023.2.3,Win32,59.52380952,6131460946d0022f68082db6,6598e6a5d84f07970b831e70,6598e74cc8388ee0fca05a55,0.1047,0.1049,0,0,0,83,1,sixeight,,,,,,,,,,,,,,,,,,,,,,,,,,,,,,,,,,,,,,,,,,,,,,,,,,,,,,,,,,,,,,,,,,,,,,,,,,,,,,,,,,,,,,,,,,,,,,,,,,,,,,,,,,,,,,,,,,,,,,,,,,,,,,,,,,,,,,,
,,6131460946d0022f68082db6,2024-01-06_07h49.55.408,kallum_motion_pilot,2023.2.3,Win32,59.52380952,6131460946d0022f68082db6,6598e6a5d84f07970b831e70,6598e74cc8388ee0fca05a55,0.1054,0.1054,0,1,1,131,1,sixeight,,,,,,,,,,,,,,,,,,,,,,,,,,,,,,,,,,,,,,,,,,,,,,,,,,,,,,,,,,,,,,,,,,,,,,,,,,,,,,,,,,,,,,,,,,,,,,,,,,,,,,,,,,,,,,,,,,,,,,,,,,,,,,,,,,,,,,,
,,6131460946d0022f68082db6,2024-01-06_07h49.55.408,kallum_motion_pilot,2023.2.3,Win32,59.52380952,6131460946d0022f68082db6,6598e6a5d84f07970b831e70,6598e74cc8388ee0fca05a55,0.1056,0.1056,0,2,2,5,1,threefour,,,,,,,,,,,,,,,,,,,,,,,,,,,,,,,,,,,,,,,,,,,,,,,,,,,,,,,,,,,,,,,,,,,,,,,,,,,,,,,,,,,,,,,,,,,,,,,,,,,,,,,,,,,,,,,,,,,,,,,,,,,,,,,,,,,,,,,
,,6131460946d0022f68082db6,2024-01-06_07h49.55.408,kallum_motion_pilot,2023.2.3,Win32,59.52380952,6131460946d0022f68082db6,6598e6a5d84f07970b831e70,6598e74cc8388ee0fca05a55,0.1058,0.1058,0,3,3,52,1,threeone,,,,,,,,,,,,,,,,,,,,,,,,,,,,,,,,,,,,,,,,,,,,,,,,,,,,,,,,,,,,,,,,,,,,,,,,,,,,,,,,,,,,,,,,,,,,,,,,,,,,,,,,,,,,,,,,,,,,,,,,,,,,,,,,,,,,,,,
,,6131460946d0022f68082db6,2024-01-06_07h49.55.408,kallum_motion_pilot,2023.2.3,Win32,59.52380952,6131460946d0022f68082db6,6598e6a5d84f07970b831e70,6598e74cc8388ee0fca05a55,0.1059,0.106,0,4,4,101,1,seveneight,,,,,,,,,,,,,,,,,,,,,,,,,,,,,,,,,,,,,,,,,,,,,,,,,,,,,,,,,,,,,,,,,,,,,,,,,,,,,,,,,,,,,,,,,,,,,,,,,,,,,,,,,,,,,,,,,,,,,,,,,,,,,,,,,,,,,,,
,,6131460946d0022f68082db6,2024-01-06_07h49.55.408,kallum_motion_pilot,2023.2.3,Win32,59.52380952,6131460946d0022f68082db6,6598e6a5d84f07970b831e70,6598e74cc8388ee0fca05a55,0.1061,0.1062,0,5,5,12,1,threeone,,,,,,,,,,,,,,,,,,,,,,,,,,,,,,,,,,,,,,,,,,,,,,,,,,,,,,,,,,,,,,,,,,,,,,,,,,,,,,,,,,,,,,,,,,,,,,,,,,,,,,,,,,,,,,,,,,,,,,,,,,,,,,,,,,,,,,,
,,6131460946d0022f68082db6,2024-01-06_07h49.55.408,kallum_motion_pilot,2023.2.3,Win32,59.52380952,6131460946d0022f68082db6,6598e6a5d84f07970b831e70,6598e74cc8388ee0fca05a55,0.1063,0.1063,0,6,6,81,1,fiveseven,,,,,,,,,,,,,,,,,,,,,,,,,,,,,,,,,,,,,,,,,,,,,,,,,,,,,,,,,,,,,,,,,,,,,,,,,,,,,,,,,,,,,,,,,,,,,,,,,,,,,,,,,,,,,,,,,,,,,,,,,,,,,,,,,,,,,,,
,,6131460946d0022f68082db6,2024-01-06_07h49.55.408,kallum_motion_pilot,2023.2.3,Win32,59.52380952,6131460946d0022f68082db6,6598e6a5d84f07970b831e70,6598e74cc8388ee0fca05a55,0.1065,0.1065,0,7,7,142,1,eightsix,,,,,,,,,,,,,,,,,,,,,,,,,,,,,,,,,,,,,,,,,,,,,,,,,,,,,,,,,,,,,,,,,,,,,,,,,,,,,,,,,,,,,,,,,,,,,,,,,,,,,,,,,,,,,,,,,,,,,,,,,,,,,,,,,,,,,,,
,,6131460946d0022f68082db6,2024-01-06_07h49.55.408,kallum_motion_pilot,2023.2.3,Win32,59.52380952,6131460946d0022f68082db6,6598e6a5d84f07970b831e70,6598e74cc8388ee0fca05a55,0.1066,0.1066,0,8,8,11,1,twofour,,,,,,,,,,,,,,,,,,,,,,,,,,,,,,,,,,,,,,,,,,,,,,,,,,,,,,,,,,,,,,,,,,,,,,,,,,,,,,,,,,,,,,,,,,,,,,,,,,,,,,,,,,,,,,,,,,,,,,,,,,,,,,,,,,,,,,,
,,6131460946d0022f68082db6,2024-01-06_07h49.55.408,kallum_motion_pilot,2023.2.3,Win32,59.52380952,6131460946d0022f68082db6,6598e6a5d84f07970b831e70,6598e74cc8388ee0fca05a55,0.1068,0.1069,0,9,9,17,1,onethree,,,,,,,,,,,,,,,,,,,,,,,,,,,,,,,,,,,,,,,,,,,,,,,,,,,,,,,,,,,,,,,,,,,,,,,,,,,,,,,,,,,,,,,,,,,,,,,,,,,,,,,,,,,,,,,,,,,,,,,,,,,,,,,,,,,,,,,
,,6131460946d0022f68082db6,2024-01-06_07h49.55.408,kallum_motion_pilot,2023.2.3,Win32,59.52380952,6131460946d0022f68082db6,6598e6a5d84f07970b831e70,6598e74cc8388ee0fca05a55,0.107,0.1071,0,10,10,91,1,sixeight,,,,,,,,,,,,,,,,,,,,,,,,,,,,,,,,,,,,,,,,,,,,,,,,,,,,,,,,,,,,,,,,,,,,,,,,,,,,,,,,,,,,,,,,,,,,,,,,,,,,,,,,,,,,,,,,,,,,,,,,,,,,,,,,,,,,,,,
,,6131460946d0022f68082db6,2024-01-06_07h49.55.408,kallum_motion_pilot,2023.2.3,Win32,59.52380952,6131460946d0022f68082db6,6598e6a5d84f07970b831e70,6598e74cc8388ee0fca05a55,0.1072,0.1072,0,11,11,148,1,sevenfive,,,,,,,,,,,,,,,,,,,,,,,,,,,,,,,,,,,,,,,,,,,,,,,,,,,,,,,,,,,,,,,,,,,,,,,,,,,,,,,,,,,,,,,,,,,,,,,,,,,,,,,,,,,,,,,,,,,,,,,,,,,,,,,,,,,,,,,
,,6131460946d0022f68082db6,2024-01-06_07h49.55.408,kallum_motion_pilot,2023.2.3,Win32,59.52380952,6131460946d0022f68082db6,6598e6a5d84f07970b831e70,6598e74cc8388ee0fca05a55,0.1074,0.1074,0,12,12,41,1,onethree,,,,,,,,,,,,,,,,,,,,,,,,,,,,,,,,,,,,,,,,,,,,,,,,,,,,,,,,,,,,,,,,,,,,,,,,,,,,,,,,,,,,,,,,,,,,,,,,,,,,,,,,,,,,,,,,,,,,,,,,,,,,,,,,,,,,,,,
,,6131460946d0022f68082db6,2024-01-06_07h49.55.408,kallum_motion_pilot,2023.2.3,Win32,59.52380952,6131460946d0022f68082db6,6598e6a5d84f07970b831e70,6598e74cc8388ee0fca05a55,0.1075,0.1075,0,13,13,137,1,fiveseven,,,,,,,,,,,,,,,,,,,,,,,,,,,,,,,,,,,,,,,,,,,,,,,,,,,,,,,,,,,,,,,,,,,,,,,,,,,,,,,,,,,,,,,,,,,,,,,,,,,,,,,,,,,,,,,,,,,,,,,,,,,,,,,,,,,,,,,
,,6131460946d0022f68082db6,2024-01-06_07h49.55.408,kallum_motion_pilot,2023.2.3,Win32,59.52380952,6131460946d0022f68082db6,6598e6a5d84f07970b831e70,6598e74cc8388ee0fca05a55,0.1076,0.1076,0,14,14,161,1,fiveseven,,,,,,,,,,,,,,,,,,,,,,,,,,,,,,,,,,,,,,,,,,,,,,,,,,,,,,,,,,,,,,,,,,,,,,,,,,,,,,,,,,,,,,,,,,,,,,,,,,,,,,,,,,,,,,,,,,,,,,,,,,,,,,,,,,,,,,,
,,6131460946d0022f68082db6,2024-01-06_07h49.55.408,kallum_motion_pilot,2023.2.3,Win32,59.52380952,6131460946d0022f68082db6,6598e6a5d84f07970b831e70,6598e74cc8388ee0fca05a55,0.1077,0.1078,0,15,15,100,1,sevenfive,,,,,,,,,,,,,,,,,,,,,,,,,,,,,,,,,,,,,,,,,,,,,,,,,,,,,,,,,,,,,,,,,,,,,,,,,,,,,,,,,,,,,,,,,,,,,,,,,,,,,,,,,,,,,,,,,,,,,,,,,,,,,,,,,,,,,,,
,,6131460946d0022f68082db6,2024-01-06_07h49.55.408,kallum_motion_pilot,2023.2.3,Win32,59.52380952,6131460946d0022f68082db6,6598e6a5d84f07970b831e70,6598e74cc8388ee0fca05a55,0.1078,0.1079,0,16,16,98,1,sixfive,,,,,,,,,,,,,,,,,,,,,,,,,,,,,,,,,,,,,,,,,,,,,,,,,,,,,,,,,,,,,,,,,,,,,,,,,,,,,,,,,,,,,,,,,,,,,,,,,,,,,,,,,,,,,,,,,,,,,,,,,,,,,,,,,,,,,,,
,,6131460946d0022f68082db6,2024-01-06_07h49.55.408,kallum_motion_pilot,2023.2.3,Win32,59.52380952,6131460946d0022f68082db6,6598e6a5d84f07970b831e70,6598e74cc8388ee0fca05a55,0.108,0.108,0,17,17,74,1,twoone,,,,,,,,,,,,,,,,,,,,,,,,,,,,,,,,,,,,,,,,,,,,,,,,,,,,,,,,,,,,,,,,,,,,,,,,,,,,,,,,,,,,,,,,,,,,,,,,,,,,,,,,,,,,,,,,,,,,,,,,,,,,,,,,,,,,,,,
,,6131460946d0022f68082db6,2024-01-06_07h49.55.408,kallum_motion_pilot,2023.2.3,Win32,59.52380952,6131460946d0022f68082db6,6598e6a5d84f07970b831e70,6598e74cc8388ee0fca05a55,0.1082,0.1082,0,18,18,79,1,eightseven,,,,,,,,,,,,,,,,,,,,,,,,,,,,,,,,,,,,,,,,,,,,,,,,,,,,,,,,,,,,,,,,,,,,,,,,,,,,,,,,,,,,,,,,,,,,,,,,,,,,,,,,,,,,,,,,,,,,,,,,,,,,,,,,,,,,,,,
,,6131460946d0022f68082db6,2024-01-06_07h49.55.408,kallum_motion_pilot,2023.2.3,Win32,59.52380952,6131460946d0022f68082db6,6598e6a5d84f07970b831e70,6598e74cc8388ee0fca05a55,0.1083,0.1083,0,19,19,124,1,sevenfive,,,,,,,,,,,,,,,,,,,,,,,,,,,,,,,,,,,,,,,,,,,,,,,,,,,,,,,,,,,,,,,,,,,,,,,,,,,,,,,,,,,,,,,,,,,,,,,,,,,,,,,,,,,,,,,,,,,,,,,,,,,,,,,,,,,,,,,
,,6131460946d0022f68082db6,2024-01-06_07h49.55.408,kallum_motion_pilot,2023.2.3,Win32,59.52380952,6131460946d0022f68082db6,6598e6a5d84f07970b831e70,6598e74cc8388ee0fca05a55,0.1084,0.1084,0,20,20,136,1,fivesix,,,,,,,,,,,,,,,,,,,,,,,,,,,,,,,,,,,,,,,,,,,,,,,,,,,,,,,,,,,,,,,,,,,,,,,,,,,,,,,,,,,,,,,,,,,,,,,,,,,,,,,,,,,,,,,,,,,,,,,,,,,,,,,,,,,,,,,
,,6131460946d0022f68082db6,2024-01-06_07h49.55.408,kallum_motion_pilot,2023.2.3,Win32,59.52380952,6131460946d0022f68082db6,6598e6a5d84f07970b831e70,6598e74cc8388ee0fca05a55,0.1086,0.1086,0,21,21,43,1,twofour,,,,,,,,,,,,,,,,,,,,,,,,,,,,,,,,,,,,,,,,,,,,,,,,,,,,,,,,,,,,,,,,,,,,,,,,,,,,,,,,,,,,,,,,,,,,,,,,,,,,,,,,,,,,,,,,,,,,,,,,,,,,,,,,,,,,,,,
,,6131460946d0022f68082db6,2024-01-06_07h49.55.408,kallum_motion_pilot,2023.2.3,Win32,59.52380952,6131460946d0022f68082db6,6598e6a5d84f07970b831e70,6598e74cc8388ee0fca05a55,0.1087,0.1088,0,22,22,58,1,twoone,,,,,,,,,,,,,,,,,,,,,,,,,,,,,,,,,,,,,,,,,,,,,,,,,,,,,,,,,,,,,,,,,,,,,,,,,,,,,,,,,,,,,,,,,,,,,,,,,,,,,,,,,,,,,,,,,,,,,,,,,,,,,,,,,,,,,,,
,,6131460946d0022f68082db6,2024-01-06_07h49.55.408,kallum_motion_pilot,2023.2.3,Win32,59.52380952,6131460946d0022f68082db6,6598e6a5d84f07970b831e70,6598e74cc8388ee0fca05a55,0.1088,0.1088,0,23,23,51,1,twofour,,,,,,,,,,,,,,,,,,,,,,,,,,,,,,,,,,,,,,,,,,,,,,,,,,,,,,,,,,,,,,,,,,,,,,,,,,,,,,,,,,,,,,,,,,,,,,,,,,,,,,,,,,,,,,,,,,,,,,,,,,,,,,,,,,,,,,,
,,6131460946d0022f68082db6,2024-01-06_07h49.55.408,kallum_motion_pilot,2023.2.3,Win32,59.52380952,6131460946d0022f68082db6,6598e6a5d84f07970b831e70,6598e74cc8388ee0fca05a55,0.1089,0.109,0,24,24,33,1,onethree,,,,,,,,,,,,,,,,,,,,,,,,,,,,,,,,,,,,,,,,,,,,,,,,,,,,,,,,,,,,,,,,,,,,,,,,,,,,,,,,,,,,,,,,,,,,,,,,,,,,,,,,,,,,,,,,,,,,,,,,,,,,,,,,,,,,,,,
,,6131460946d0022f68082db6,2024-01-06_07h49.55.408,kallum_motion_pilot,2023.2.3,Win32,59.52380952,6131460946d0022f68082db6,6598e6a5d84f07970b831e70,6598e74cc8388ee0fca05a55,0.1091,0.1092,0,25,25,60,1,threeone,,,,,,,,,,,,,,,,,,,,,,,,,,,,,,,,,,,,,,,,,,,,,,,,,,,,,,,,,,,,,,,,,,,,,,,,,,,,,,,,,,,,,,,,,,,,,,,,,,,,,,,,,,,,,,,,,,,,,,,,,,,,,,,,,,,,,,,
,,6131460946d0022f68082db6,2024-01-06_07h49.55.408,kallum_motion_pilot,2023.2.3,Win32,59.52380952,6131460946d0022f68082db6,6598e6a5d84f07970b831e70,6598e74cc8388ee0fca05a55,0.1093,0.1093,0,26,26,157,1,seveneight,,,,,,,,,,,,,,,,,,,,,,,,,,,,,,,,,,,,,,,,,,,,,,,,,,,,,,,,,,,,,,,,,,,,,,,,,,,,,,,,,,,,,,,,,,,,,,,,,,,,,,,,,,,,,,,,,,,,,,,,,,,,,,,,,,,,,,,
,,6131460946d0022f68082db6,2024-01-06_07h49.55.408,kallum_motion_pilot,2023.2.3,Win32,59.52380952,6131460946d0022f68082db6,6598e6a5d84f07970b831e70,6598e74cc8388ee0fca05a55,0.1095,0.1095,0,27,27,138,1,sixfive,,,,,,,,,,,,,,,,,,,,,,,,,,,,,,,,,,,,,,,,,,,,,,,,,,,,,,,,,,,,,,,,,,,,,,,,,,,,,,,,,,,,,,,,,,,,,,,,,,,,,,,,,,,,,,,,,,,,,,,,,,,,,,,,,,,,,,,
,,6131460946d0022f68082db6,2024-01-06_07h49.55.408,kallum_motion_pilot,2023.2.3,Win32,59.52380952,6131460946d0022f68082db6,6598e6a5d84f07970b831e70,6598e74cc8388ee0fca05a55,0.1096,0.1096,0,28,28,123,1,sixeight,,,,,,,,,,,,,,,,,,,,,,,,,,,,,,,,,,,,,,,,,,,,,,,,,,,,,,,,,,,,,,,,,,,,,,,,,,,,,,,,,,,,,,,,,,,,,,,,,,,,,,,,,,,,,,,,,,,,,,,,,,,,,,,,,,,,,,,
,,6131460946d0022f68082db6,2024-01-06_07h49.55.408,kallum_motion_pilot,2023.2.3,Win32,59.52380952,6131460946d0022f68082db6,6598e6a5d84f07970b831e70,6598e74cc8388ee0fca05a55,0.1098,0.1098,0,29,29,78,1,fourtwo,,,,,,,,,,,,,,,,,,,,,,,,,,,,,,,,,,,,,,,,,,,,,,,,,,,,,,,,,,,,,,,,,,,,,,,,,,,,,,,,,,,,,,,,,,,,,,,,,,,,,,,,,,,,,,,,,,,,,,,,,,,,,,,,,,,,,,,
,,6131460946d0022f68082db6,2024-01-06_07h49.55.408,kallum_motion_pilot,2023.2.3,Win32,59.52380952,6131460946d0022f68082db6,6598e6a5d84f07970b831e70,6598e74cc8388ee0fca05a55,0.11,0.11,0,30,30,110,1,eightsix,,,,,,,,,,,,,,,,,,,,,,,,,,,,,,,,,,,,,,,,,,,,,,,,,,,,,,,,,,,,,,,,,,,,,,,,,,,,,,,,,,,,,,,,,,,,,,,,,,,,,,,,,,,,,,,,,,,,,,,,,,,,,,,,,,,,,,,
,,6131460946d0022f68082db6,2024-01-06_07h49.55.408,kallum_motion_pilot,2023.2.3,Win32,59.52380952,6131460946d0022f68082db6,6598e6a5d84f07970b831e70,6598e74cc8388ee0fca05a55,0.11,0.1101,0,31,31,111,1,eightseven,,,,,,,,,,,,,,,,,,,,,,,,,,,,,,,,,,,,,,,,,,,,,,,,,,,,,,,,,,,,,,,,,,,,,,,,,,,,,,,,,,,,,,,,,,,,,,,,,,,,,,,,,,,,,,,,,,,,,,,,,,,,,,,,,,,,,,,
,,6131460946d0022f68082db6,2024-01-06_07h49.55.408,kallum_motion_pilot,2023.2.3,Win32,59.52380952,6131460946d0022f68082db6,6598e6a5d84f07970b831e70,6598e74cc8388ee0fca05a55,0.1102,0.1102,0,32,32,42,1,twoone,,,,,,,,,,,,,,,,,,,,,,,,,,,,,,,,,,,,,,,,,,,,,,,,,,,,,,,,,,,,,,,,,,,,,,,,,,,,,,,,,,,,,,,,,,,,,,,,,,,,,,,,,,,,,,,,,,,,,,,,,,,,,,,,,,,,,,,
,,6131460946d0022f68082db6,2024-01-06_07h49.55.408,kallum_motion_pilot,2023.2.3,Win32,59.52380952,6131460946d0022f68082db6,6598e6a5d84f07970b831e70,6598e74cc8388ee0fca05a55,0.1102,0.1103,0,33,33,50,1,twoone,,,,,,,,,,,,,,,,,,,,,,,,,,,,,,,,,,,,,,,,,,,,,,,,,,,,,,,,,,,,,,,,,,,,,,,,,,,,,,,,,,,,,,,,,,,,,,,,,,,,,,,,,,,,,,,,,,,,,,,,,,,,,,,,,,,,,,,
,,6131460946d0022f68082db6,2024-01-06_07h49.55.408,kallum_motion_pilot,2023.2.3,Win32,59.52380952,6131460946d0022f68082db6,6598e6a5d84f07970b831e70,6598e74cc8388ee0fca05a55,0.1104,0.1104,0,34,34,104,1,fivesix,,,,,,,,,,,,,,,,,,,,,,,,,,,,,,,,,,,,,,,,,,,,,,,,,,,,,,,,,,,,,,,,,,,,,,,,,,,,,,,,,,,,,,,,,,,,,,,,,,,,,,,,,,,,,,,,,,,,,,,,,,,,,,,,,,,,,,,
,,6131460946d0022f68082db6,2024-01-06_07h49.55.408,kallum_motion_pilot,2023.2.3,Win32,59.52380952,6131460946d0022f68082db6,6598e6a5d84f07970b831e70,6598e74cc8388ee0fca05a55,0.1106,0.1106,0,35,35,57,1,onethree,,,,,,,,,,,,,,,,,,,,,,,,,,,,,,,,,,,,,,,,,,,,,,,,,,,,,,,,,,,,,,,,,,,,,,,,,,,,,,,,,,,,,,,,,,,,,,,,,,,,,,,,,,,,,,,,,,,,,,,,,,,,,,,,,,,,,,,
,,6131460946d0022f68082db6,2024-01-06_07h49.55.408,kallum_motion_pilot,2023.2.3,Win32,59.52380952,6131460946d0022f68082db6,6598e6a5d84f07970b831e70,6598e74cc8388ee0fca05a55,0.1107,0.1109,0,36,36,69,1,threefour,,,,,,,,,,,,,,,,,,,,,,,,,,,,,,,,,,,,,,,,,,,,,,,,,,,,,,,,,,,,,,,,,,,,,,,,,,,,,,,,,,,,,,,,,,,,,,,,,,,,,,,,,,,,,,,,,,,,,,,,,,,,,,,,,,,,,,,
,,6131460946d0022f68082db6,2024-01-06_07h49.55.408,kallum_motion_pilot,2023.2.3,Win32,59.52380952,6131460946d0022f68082db6,6598e6a5d84f07970b831e70,6598e74cc8388ee0fca05a55,0.111,0.111,0,37,37,0,1,onetwo,,,,,,,,,,,,,,,,,,,,,,,,,,,,,,,,,,,,,,,,,,,,,,,,,,,,,,,,,,,,,,,,,,,,,,,,,,,,,,,,,,,,,,,,,,,,,,,,,,,,,,,,,,,,,,,,,,,,,,,,,,,,,,,,,,,,,,,
,,6131460946d0022f68082db6,2024-01-06_07h49.55.408,kallum_motion_pilot,2023.2.3,Win32,59.52380952,6131460946d0022f68082db6,6598e6a5d84f07970b831e70,6598e74cc8388ee0fca05a55,0.1112,0.1113,0,38,38,26,1,twoone,,,,,,,,,,,,,,,,,,,,,,,,,,,,,,,,,,,,,,,,,,,,,,,,,,,,,,,,,,,,,,,,,,,,,,,,,,,,,,,,,,,,,,,,,,,,,,,,,,,,,,,,,,,,,,,,,,,,,,,,,,,,,,,,,,,,,,,
,,6131460946d0022f68082db6,2024-01-06_07h49.55.408,kallum_motion_pilot,2023.2.3,Win32,59.52380952,6131460946d0022f68082db6,6598e6a5d84f07970b831e70,6598e74cc8388ee0fca05a55,0.1114,0.1114,0,39,39,35,1,twofour,,,,,,,,,,,,,,,,,,,,,,,,,,,,,,,,,,,,,,,,,,,,,,,,,,,,,,,,,,,,,,,,,,,,,,,,,,,,,,,,,,,,,,,,,,,,,,,,,,,,,,,,,,,,,,,,,,,,,,,,,,,,,,,,,,,,,,,
,,6131460946d0022f68082db6,2024-01-06_07h49.55.408,kallum_motion_pilot,2023.2.3,Win32,59.52380952,6131460946d0022f68082db6,6598e6a5d84f07970b831e70,6598e74cc8388ee0fca05a55,0.1115,0.1115,0,40,40,94,1,eightsix,,,,,,,,,,,,,,,,,,,,,,,,,,,,,,,,,,,,,,,,,,,,,,,,,,,,,,,,,,,,,,,,,,,,,,,,,,,,,,,,,,,,,,,,,,,,,,,,,,,,,,,,,,,,,,,,,,,,,,,,,,,,,,,,,,,,,,,
,,6131460946d0022f68082db6,2024-01-06_07h49.55.408,kallum_motion_pilot,2023.2.3,Win32,59.52380952,6131460946d0022f68082db6,6598e6a5d84f07970b831e70,6598e74cc8388ee0fca05a55,0.1116,0.1117,0,41,41,155,1,sixeight,,,,,,,,,,,,,,,,,,,,,,,,,,,,,,,,,,,,,,,,,,,,,,,,,,,,,,,,,,,,,,,,,,,,,,,,,,,,,,,,,,,,,,,,,,,,,,,,,,,,,,,,,,,,,,,,,,,,,,,,,,,,,,,,,,,,,,,
,,6131460946d0022f68082db6,2024-01-06_07h49.55.408,kallum_motion_pilot,2023.2.3,Win32,59.52380952,6131460946d0022f68082db6,6598e6a5d84f07970b831e70,6598e74cc8388ee0fca05a55,0.1118,0.1118,0,42,42,88,1,fivesix,,,,,,,,,,,,,,,,,,,,,,,,,,,,,,,,,,,,,,,,,,,,,,,,,,,,,,,,,,,,,,,,,,,,,,,,,,,,,,,,,,,,,,,,,,,,,,,,,,,,,,,,,,,,,,,,,,,,,,,,,,,,,,,,,,,,,,,
,,6131460946d0022f68082db6,2024-01-06_07h49.55.408,kallum_motion_pilot,2023.2.3,Win32,59.52380952,6131460946d0022f68082db6,6598e6a5d84f07970b831e70,6598e74cc8388ee0fca05a55,0.1119,0.1119,0,43,43,61,1,threefour,,,,,,,,,,,,,,,,,,,,,,,,,,,,,,,,,,,,,,,,,,,,,,,,,,,,,,,,,,,,,,,,,,,,,,,,,,,,,,,,,,,,,,,,,,,,,,,,,,,,,,,,,,,,,,,,,,,,,,,,,,,,,,,,,,,,,,,
,,6131460946d0022f68082db6,2024-01-06_07h49.55.408,kallum_motion_pilot,2023.2.3,Win32,59.52380952,6131460946d0022f68082db6,6598e6a5d84f07970b831e70,6598e74cc8388ee0fca05a55,0.1121,0.1121,0,44,44,67,1,twofour,,,,,,,,,,,,,,,,,,,,,,,,,,,,,,,,,,,,,,,,,,,,,,,,,,,,,,,,,,,,,,,,,,,,,,,,,,,,,,,,,,,,,,,,,,,,,,,,,,,,,,,,,,,,,,,,,,,,,,,,,,,,,,,,,,,,,,,
,,6131460946d0022f68082db6,2024-01-06_07h49.55.408,kallum_motion_pilot,2023.2.3,Win32,59.52380952,6131460946d0022f68082db6,6598e6a5d84f07970b831e70,6598e74cc8388ee0fca05a55,0.1123,0.1123,0,45,45,152,1,fivesix,,,,,,,,,,,,,,,,,,,,,,,,,,,,,,,,,,,,,,,,,,,,,,,,,,,,,,,,,,,,,,,,,,,,,,,,,,,,,,,,,,,,,,,,,,,,,,,,,,,,,,,,,,,,,,,,,,,,,,,,,,,,,,,,,,,,,,,
,,6131460946d0022f68082db6,2024-01-06_07h49.55.408,kallum_motion_pilot,2023.2.3,Win32,59.52380952,6131460946d0022f68082db6,6598e6a5d84f07970b831e70,6598e74cc8388ee0fca05a55,0.1124,0.1124,0,46,46,141,1,seveneight,,,,,,,,,,,,,,,,,,,,,,,,,,,,,,,,,,,,,,,,,,,,,,,,,,,,,,,,,,,,,,,,,,,,,,,,,,,,,,,,,,,,,,,,,,,,,,,,,,,,,,,,,,,,,,,,,,,,,,,,,,,,,,,,,,,,,,,
,,6131460946d0022f68082db6,2024-01-06_07h49.55.408,kallum_motion_pilot,2023.2.3,Win32,59.52380952,6131460946d0022f68082db6,6598e6a5d84f07970b831e70,6598e74cc8388ee0fca05a55,0.1126,0.1126,0,47,47,28,1,threeone,,,,,,,,,,,,,,,,,,,,,,,,,,,,,,,,,,,,,,,,,,,,,,,,,,,,,,,,,,,,,,,,,,,,,,,,,,,,,,,,,,,,,,,,,,,,,,,,,,,,,,,,,,,,,,,,,,,,,,,,,,,,,,,,,,,,,,,
,,6131460946d0022f68082db6,2024-01-06_07h49.55.408,kallum_motion_pilot,2023.2.3,Win32,59.52380952,6131460946d0022f68082db6,6598e6a5d84f07970b831e70,6598e74cc8388ee0fca05a55,0.1127,0.1128,0,48,48,13,1,threefour,,,,,,,,,,,,,,,,,,,,,,,,,,,,,,,,,,,,,,,,,,,,,,,,,,,,,,,,,,,,,,,,,,,,,,,,,,,,,,,,,,,,,,,,,,,,,,,,,,,,,,,,,,,,,,,,,,,,,,,,,,,,,,,,,,,,,,,
,,6131460946d0022f68082db6,2024-01-06_07h49.55.408,kallum_motion_pilot,2023.2.3,Win32,59.52380952,6131460946d0022f68082db6,6598e6a5d84f07970b831e70,6598e74cc8388ee0fca05a55,0.1128,0.1128,0,49,49,119,1,eightseven,,,,,,,,,,,,,,,,,,,,,,,,,,,,,,,,,,,,,,,,,,,,,,,,,,,,,,,,,,,,,,,,,,,,,,,,,,,,,,,,,,,,,,,,,,,,,,,,,,,,,,,,,,,,,,,,,,,,,,,,,,,,,,,,,,,,,,,
,,6131460946d0022f68082db6,2024-01-06_07h49.55.408,kallum_motion_pilot,2023.2.3,Win32,59.52380952,6131460946d0022f68082db6,6598e6a5d84f07970b831e70,6598e74cc8388ee0fca05a55,0.113,0.113,0,50,50,82,1,sixfive,,,,,,,,,,,,,,,,,,,,,,,,,,,,,,,,,,,,,,,,,,,,,,,,,,,,,,,,,,,,,,,,,,,,,,,,,,,,,,,,,,,,,,,,,,,,,,,,,,,,,,,,,,,,,,,,,,,,,,,,,,,,,,,,,,,,,,,
,,6131460946d0022f68082db6,2024-01-06_07h49.55.408,kallum_motion_pilot,2023.2.3,Win32,59.52380952,6131460946d0022f68082db6,6598e6a5d84f07970b831e70,6598e74cc8388ee0fca05a55,0.1131,0.1131,0,51,51,8,1,onetwo,,,,,,,,,,,,,,,,,,,,,,,,,,,,,,,,,,,,,,,,,,,,,,,,,,,,,,,,,,,,,,,,,,,,,,,,,,,,,,,,,,,,,,,,,,,,,,,,,,,,,,,,,,,,,,,,,,,,,,,,,,,,,,,,,,,,,,,
,,6131460946d0022f68082db6,2024-01-06_07h49.55.408,kallum_motion_pilot,2023.2.3,Win32,59.52380952,6131460946d0022f68082db6,6598e6a5d84f07970b831e70,6598e74cc8388ee0fca05a55,0.1133,0.1133,0,52,52,30,1,fourtwo,,,,,,,,,,,,,,,,,,,,,,,,,,,,,,,,,,,,,,,,,,,,,,,,,,,,,,,,,,,,,,,,,,,,,,,,,,,,,,,,,,,,,,,,,,,,,,,,,,,,,,,,,,,,,,,,,,,,,,,,,,,,,,,,,,,,,,,
,,6131460946d0022f68082db6,2024-01-06_07h49.55.408,kallum_motion_pilot,2023.2.3,Win32,59.52380952,6131460946d0022f68082db6,6598e6a5d84f07970b831e70,6598e74cc8388ee0fca05a55,0.1134,0.1135,0,53,53,22,1,fourtwo,,,,,,,,,,,,,,,,,,,,,,,,,,,,,,,,,,,,,,,,,,,,,,,,,,,,,,,,,,,,,,,,,,,,,,,,,,,,,,,,,,,,,,,,,,,,,,,,,,,,,,,,,,,,,,,,,,,,,,,,,,,,,,,,,,,,,,,
,,6131460946d0022f68082db6,2024-01-06_07h49.55.408,kallum_motion_pilot,2023.2.3,Win32,59.52380952,6131460946d0022f68082db6,6598e6a5d84f07970b831e70,6598e74cc8388ee0fca05a55,0.1135,0.1136,0,54,54,132,1,sevenfive,,,,,,,,,,,,,,,,,,,,,,,,,,,,,,,,,,,,,,,,,,,,,,,,,,,,,,,,,,,,,,,,,,,,,,,,,,,,,,,,,,,,,,,,,,,,,,,,,,,,,,,,,,,,,,,,,,,,,,,,,,,,,,,,,,,,,,,
,,6131460946d0022f68082db6,2024-01-06_07h49.55.408,kallum_motion_pilot,2023.2.3,Win32,59.52380952,6131460946d0022f68082db6,6598e6a5d84f07970b831e70,6598e74cc8388ee0fca05a55,0.1137,0.1137,0,55,55,134,1,eightsix,,,,,,,,,,,,,,,,,,,,,,,,,,,,,,,,,,,,,,,,,,,,,,,,,,,,,,,,,,,,,,,,,,,,,,,,,,,,,,,,,,,,,,,,,,,,,,,,,,,,,,,,,,,,,,,,,,,,,,,,,,,,,,,,,,,,,,,
,,6131460946d0022f68082db6,2024-01-06_07h49.55.408,kallum_motion_pilot,2023.2.3,Win32,59.52380952,6131460946d0022f68082db6,6598e6a5d84f07970b831e70,6598e74cc8388ee0fca05a55,0.1138,0.1138,0,56,56,44,1,threeone,,,,,,,,,,,,,,,,,,,,,,,,,,,,,,,,,,,,,,,,,,,,,,,,,,,,,,,,,,,,,,,,,,,,,,,,,,,,,,,,,,,,,,,,,,,,,,,,,,,,,,,,,,,,,,,,,,,,,,,,,,,,,,,,,,,,,,,
,,6131460946d0022f68082db6,2024-01-06_07h49.55.408,kallum_motion_pilot,2023.2.3,Win32,59.52380952,6131460946d0022f68082db6,6598e6a5d84f07970b831e70,6598e74cc8388ee0fca05a55,0.1139,0.114,0,57,57,114,1,sixfive,,,,,,,,,,,,,,,,,,,,,,,,,,,,,,,,,,,,,,,,,,,,,,,,,,,,,,,,,,,,,,,,,,,,,,,,,,,,,,,,,,,,,,,,,,,,,,,,,,,,,,,,,,,,,,,,,,,,,,,,,,,,,,,,,,,,,,,
,,6131460946d0022f68082db6,2024-01-06_07h49.55.408,kallum_motion_pilot,2023.2.3,Win32,59.52380952,6131460946d0022f68082db6,6598e6a5d84f07970b831e70,6598e74cc8388ee0fca05a55,0.114,0.1141,0,58,58,7,1,fourthree,,,,,,,,,,,,,,,,,,,,,,,,,,,,,,,,,,,,,,,,,,,,,,,,,,,,,,,,,,,,,,,,,,,,,,,,,,,,,,,,,,,,,,,,,,,,,,,,,,,,,,,,,,,,,,,,,,,,,,,,,,,,,,,,,,,,,,,
,,6131460946d0022f68082db6,2024-01-06_07h49.55.408,kallum_motion_pilot,2023.2.3,Win32,59.52380952,6131460946d0022f68082db6,6598e6a5d84f07970b831e70,6598e74cc8388ee0fca05a55,0.1142,0.1143,0,59,59,14,1,fourtwo,,,,,,,,,,,,,,,,,,,,,,,,,,,,,,,,,,,,,,,,,,,,,,,,,,,,,,,,,,,,,,,,,,,,,,,,,,,,,,,,,,,,,,,,,,,,,,,,,,,,,,,,,,,,,,,,,,,,,,,,,,,,,,,,,,,,,,,
,,6131460946d0022f68082db6,2024-01-06_07h49.55.408,kallum_motion_pilot,2023.2.3,Win32,59.52380952,6131460946d0022f68082db6,6598e6a5d84f07970b831e70,6598e74cc8388ee0fca05a55,0.1143,0.1144,0,60,60,149,1,seveneight,,,,,,,,,,,,,,,,,,,,,,,,,,,,,,,,,,,,,,,,,,,,,,,,,,,,,,,,,,,,,,,,,,,,,,,,,,,,,,,,,,,,,,,,,,,,,,,,,,,,,,,,,,,,,,,,,,,,,,,,,,,,,,,,,,,,,,,
,,6131460946d0022f68082db6,2024-01-06_07h49.55.408,kallum_motion_pilot,2023.2.3,Win32,59.52380952,6131460946d0022f68082db6,6598e6a5d84f07970b831e70,6598e74cc8388ee0fca05a55,0.1145,0.1145,0,61,61,62,1,fourtwo,,,,,,,,,,,,,,,,,,,,,,,,,,,,,,,,,,,,,,,,,,,,,,,,,,,,,,,,,,,,,,,,,,,,,,,,,,,,,,,,,,,,,,,,,,,,,,,,,,,,,,,,,,,,,,,,,,,,,,,,,,,,,,,,,,,,,,,
,,6131460946d0022f68082db6,2024-01-06_07h49.55.408,kallum_motion_pilot,2023.2.3,Win32,59.52380952,6131460946d0022f68082db6,6598e6a5d84f07970b831e70,6598e74cc8388ee0fca05a55,0.1146,0.1146,0,62,62,40,1,onetwo,,,,,,,,,,,,,,,,,,,,,,,,,,,,,,,,,,,,,,,,,,,,,,,,,,,,,,,,,,,,,,,,,,,,,,,,,,,,,,,,,,,,,,,,,,,,,,,,,,,,,,,,,,,,,,,,,,,,,,,,,,,,,,,,,,,,,,,
,,6131460946d0022f68082db6,2024-01-06_07h49.55.408,kallum_motion_pilot,2023.2.3,Win32,59.52380952,6131460946d0022f68082db6,6598e6a5d84f07970b831e70,6598e74cc8388ee0fca05a55,0.1148,0.1148,0,63,63,21,1,threefour,,,,,,,,,,,,,,,,,,,,,,,,,,,,,,,,,,,,,,,,,,,,,,,,,,,,,,,,,,,,,,,,,,,,,,,,,,,,,,,,,,,,,,,,,,,,,,,,,,,,,,,,,,,,,,,,,,,,,,,,,,,,,,,,,,,,,,,
,,6131460946d0022f68082db6,2024-01-06_07h49.55.408,kallum_motion_pilot,2023.2.3,Win32,59.52380952,6131460946d0022f68082db6,6598e6a5d84f07970b831e70,6598e74cc8388ee0fca05a55,0.1149,0.115,0,64,64,147,1,sixeight,,,,,,,,,,,,,,,,,,,,,,,,,,,,,,,,,,,,,,,,,,,,,,,,,,,,,,,,,,,,,,,,,,,,,,,,,,,,,,,,,,,,,,,,,,,,,,,,,,,,,,,,,,,,,,,,,,,,,,,,,,,,,,,,,,,,,,,
,,6131460946d0022f68082db6,2024-01-06_07h49.55.408,kallum_motion_pilot,2023.2.3,Win32,59.52380952,6131460946d0022f68082db6,6598e6a5d84f07970b831e70,6598e74cc8388ee0fca05a55,0.1151,0.1151,0,65,65,71,1,fourthree,,,,,,,,,,,,,,,,,,,,,,,,,,,,,,,,,,,,,,,,,,,,,,,,,,,,,,,,,,,,,,,,,,,,,,,,,,,,,,,,,,,,,,,,,,,,,,,,,,,,,,,,,,,,,,,,,,,,,,,,,,,,,,,,,,,,,,,
,,6131460946d0022f68082db6,2024-01-06_07h49.55.408,kallum_motion_pilot,2023.2.3,Win32,59.52380952,6131460946d0022f68082db6,6598e6a5d84f07970b831e70,6598e74cc8388ee0fca05a55,0.1151,0.1153,0,66,66,3,1,twofour,,,,,,,,,,,,,,,,,,,,,,,,,,,,,,,,,,,,,,,,,,,,,,,,,,,,,,,,,,,,,,,,,,,,,,,,,,,,,,,,,,,,,,,,,,,,,,,,,,,,,,,,,,,,,,,,,,,,,,,,,,,,,,,,,,,,,,,
,,6131460946d0022f68082db6,2024-01-06_07h49.55.408,kallum_motion_pilot,2023.2.3,Win32,59.52380952,6131460946d0022f68082db6,6598e6a5d84f07970b831e70,6598e74cc8388ee0fca05a55,0.1153,0.1154,0,67,67,109,1,seveneight,,,,,,,,,,,,,,,,,,,,,,,,,,,,,,,,,,,,,,,,,,,,,,,,,,,,,,,,,,,,,,,,,,,,,,,,,,,,,,,,,,,,,,,,,,,,,,,,,,,,,,,,,,,,,,,,,,,,,,,,,,,,,,,,,,,,,,,
,,6131460946d0022f68082db6,2024-01-06_07h49.55.408,kallum_motion_pilot,2023.2.3,Win32,59.52380952,6131460946d0022f68082db6,6598e6a5d84f07970b831e70,6598e74cc8388ee0fca05a55,0.1154,0.1155,0,68,68,156,1,sevenfive,,,,,,,,,,,,,,,,,,,,,,,,,,,,,,,,,,,,,,,,,,,,,,,,,,,,,,,,,,,,,,,,,,,,,,,,,,,,,,,,,,,,,,,,,,,,,,,,,,,,,,,,,,,,,,,,,,,,,,,,,,,,,,,,,,,,,,,
,,6131460946d0022f68082db6,2024-01-06_07h49.55.408,kallum_motion_pilot,2023.2.3,Win32,59.52380952,6131460946d0022f68082db6,6598e6a5d84f07970b831e70,6598e74cc8388ee0fca05a55,0.1156,0.1156,0,69,69,102,1,eightsix,,,,,,,,,,,,,,,,,,,,,,,,,,,,,,,,,,,,,,,,,,,,,,,,,,,,,,,,,,,,,,,,,,,,,,,,,,,,,,,,,,,,,,,,,,,,,,,,,,,,,,,,,,,,,,,,,,,,,,,,,,,,,,,,,,,,,,,
,,6131460946d0022f68082db6,2024-01-06_07h49.55.408,kallum_motion_pilot,2023.2.3,Win32,59.52380952,6131460946d0022f68082db6,6598e6a5d84f07970b831e70,6598e74cc8388ee0fca05a55,0.1157,0.1158,0,70,70,151,1,eightseven,,,,,,,,,,,,,,,,,,,,,,,,,,,,,,,,,,,,,,,,,,,,,,,,,,,,,,,,,,,,,,,,,,,,,,,,,,,,,,,,,,,,,,,,,,,,,,,,,,,,,,,,,,,,,,,,,,,,,,,,,,,,,,,,,,,,,,,
,,6131460946d0022f68082db6,2024-01-06_07h49.55.408,kallum_motion_pilot,2023.2.3,Win32,59.52380952,6131460946d0022f68082db6,6598e6a5d84f07970b831e70,6598e74cc8388ee0fca05a55,0.1159,0.1159,0,71,71,140,1,sevenfive,,,,,,,,,,,,,,,,,,,,,,,,,,,,,,,,,,,,,,,,,,,,,,,,,,,,,,,,,,,,,,,,,,,,,,,,,,,,,,,,,,,,,,,,,,,,,,,,,,,,,,,,,,,,,,,,,,,,,,,,,,,,,,,,,,,,,,,
,,6131460946d0022f68082db6,2024-01-06_07h49.55.408,kallum_motion_pilot,2023.2.3,Win32,59.52380952,6131460946d0022f68082db6,6598e6a5d84f07970b831e70,6598e74cc8388ee0fca05a55,0.116,0.1161,0,72,72,160,1,fivesix,,,,,,,,,,,,,,,,,,,,,,,,,,,,,,,,,,,,,,,,,,,,,,,,,,,,,,,,,,,,,,,,,,,,,,,,,,,,,,,,,,,,,,,,,,,,,,,,,,,,,,,,,,,,,,,,,,,,,,,,,,,,,,,,,,,,,,,
,,6131460946d0022f68082db6,2024-01-06_07h49.55.408,kallum_motion_pilot,2023.2.3,Win32,59.52380952,6131460946d0022f68082db6,6598e6a5d84f07970b831e70,6598e74cc8388ee0fca05a55,0.1161,0.1162,0,73,73,144,1,fivesix,,,,,,,,,,,,,,,,,,,,,,,,,,,,,,,,,,,,,,,,,,,,,,,,,,,,,,,,,,,,,,,,,,,,,,,,,,,,,,,,,,,,,,,,,,,,,,,,,,,,,,,,,,,,,,,,,,,,,,,,,,,,,,,,,,,,,,,
,,6131460946d0022f68082db6,2024-01-06_07h49.55.408,kallum_motion_pilot,2023.2.3,Win32,59.52380952,6131460946d0022f68082db6,6598e6a5d84f07970b831e70,6598e74cc8388ee0fca05a55,0.1163,0.1164,0,74,74,87,1,eightseven,,,,,,,,,,,,,,,,,,,,,,,,,,,,,,,,,,,,,,,,,,,,,,,,,,,,,,,,,,,,,,,,,,,,,,,,,,,,,,,,,,,,,,,,,,,,,,,,,,,,,,,,,,,,,,,,,,,,,,,,,,,,,,,,,,,,,,,
,,6131460946d0022f68082db6,2024-01-06_07h49.55.408,kallum_motion_pilot,2023.2.3,Win32,59.52380952,6131460946d0022f68082db6,6598e6a5d84f07970b831e70,6598e74cc8388ee0fca05a55,0.1165,0.1166,0,75,75,75,1,twofour,,,,,,,,,,,,,,,,,,,,,,,,,,,,,,,,,,,,,,,,,,,,,,,,,,,,,,,,,,,,,,,,,,,,,,,,,,,,,,,,,,,,,,,,,,,,,,,,,,,,,,,,,,,,,,,,,,,,,,,,,,,,,,,,,,,,,,,
,,6131460946d0022f68082db6,2024-01-06_07h49.55.408,kallum_motion_pilot,2023.2.3,Win32,59.52380952,6131460946d0022f68082db6,6598e6a5d84f07970b831e70,6598e74cc8388ee0fca05a55,0.1167,0.1167,0,76,76,48,1,onetwo,,,,,,,,,,,,,,,,,,,,,,,,,,,,,,,,,,,,,,,,,,,,,,,,,,,,,,,,,,,,,,,,,,,,,,,,,,,,,,,,,,,,,,,,,,,,,,,,,,,,,,,,,,,,,,,,,,,,,,,,,,,,,,,,,,,,,,,
,,6131460946d0022f68082db6,2024-01-06_07h49.55.408,kallum_motion_pilot,2023.2.3,Win32,59.52380952,6131460946d0022f68082db6,6598e6a5d84f07970b831e70,6598e74cc8388ee0fca05a55,0.1168,0.1168,0,77,77,64,1,onetwo,,,,,,,,,,,,,,,,,,,,,,,,,,,,,,,,,,,,,,,,,,,,,,,,,,,,,,,,,,,,,,,,,,,,,,,,,,,,,,,,,,,,,,,,,,,,,,,,,,,,,,,,,,,,,,,,,,,,,,,,,,,,,,,,,,,,,,,
,,6131460946d0022f68082db6,2024-01-06_07h49.55.408,kallum_motion_pilot,2023.2.3,Win32,59.52380952,6131460946d0022f68082db6,6598e6a5d84f07970b831e70,6598e74cc8388ee0fca05a55,0.117,0.117,0,78,78,145,1,fiveseven,,,,,,,,,,,,,,,,,,,,,,,,,,,,,,,,,,,,,,,,,,,,,,,,,,,,,,,,,,,,,,,,,,,,,,,,,,,,,,,,,,,,,,,,,,,,,,,,,,,,,,,,,,,,,,,,,,,,,,,,,,,,,,,,,,,,,,,
,,6131460946d0022f68082db6,2024-01-06_07h49.55.408,kallum_motion_pilot,2023.2.3,Win32,59.52380952,6131460946d0022f68082db6,6598e6a5d84f07970b831e70,6598e74cc8388ee0fca05a55,0.1171,0.1171,0,79,79,53,1,threefour,,,,,,,,,,,,,,,,,,,,,,,,,,,,,,,,,,,,,,,,,,,,,,,,,,,,,,,,,,,,,,,,,,,,,,,,,,,,,,,,,,,,,,,,,,,,,,,,,,,,,,,,,,,,,,,,,,,,,,,,,,,,,,,,,,,,,,,
,,6131460946d0022f68082db6,2024-01-06_07h49.55.408,kallum_motion_pilot,2023.2.3,Win32,59.52380952,6131460946d0022f68082db6,6598e6a5d84f07970b831e70,6598e74cc8388ee0fca05a55,0.1173,0.1173,0,80,80,90,1,sixfive,,,,,,,,,,,,,,,,,,,,,,,,,,,,,,,,,,,,,,,,,,,,,,,,,,,,,,,,,,,,,,,,,,,,,,,,,,,,,,,,,,,,,,,,,,,,,,,,,,,,,,,,,,,,,,,,,,,,,,,,,,,,,,,,,,,,,,,
,,6131460946d0022f68082db6,2024-01-06_07h49.55.408,kallum_motion_pilot,2023.2.3,Win32,59.52380952,6131460946d0022f68082db6,6598e6a5d84f07970b831e70,6598e74cc8388ee0fca05a55,0.1173,0.1174,0,81,81,146,1,sixfive,,,,,,,,,,,,,,,,,,,,,,,,,,,,,,,,,,,,,,,,,,,,,,,,,,,,,,,,,,,,,,,,,,,,,,,,,,,,,,,,,,,,,,,,,,,,,,,,,,,,,,,,,,,,,,,,,,,,,,,,,,,,,,,,,,,,,,,
,,6131460946d0022f68082db6,2024-01-06_07h49.55.408,kallum_motion_pilot,2023.2.3,Win32,59.52380952,6131460946d0022f68082db6,6598e6a5d84f07970b831e70,6598e74cc8388ee0fca05a55,0.1176,0.1176,0,82,82,150,1,eightsix,,,,,,,,,,,,,,,,,,,,,,,,,,,,,,,,,,,,,,,,,,,,,,,,,,,,,,,,,,,,,,,,,,,,,,,,,,,,,,,,,,,,,,,,,,,,,,,,,,,,,,,,,,,,,,,,,,,,,,,,,,,,,,,,,,,,,,,
,,6131460946d0022f68082db6,2024-01-06_07h49.55.408,kallum_motion_pilot,2023.2.3,Win32,59.52380952,6131460946d0022f68082db6,6598e6a5d84f07970b831e70,6598e74cc8388ee0fca05a55,0.1177,0.1177,0,83,83,86,1,eightsix,,,,,,,,,,,,,,,,,,,,,,,,,,,,,,,,,,,,,,,,,,,,,,,,,,,,,,,,,,,,,,,,,,,,,,,,,,,,,,,,,,,,,,,,,,,,,,,,,,,,,,,,,,,,,,,,,,,,,,,,,,,,,,,,,,,,,,,
,,6131460946d0022f68082db6,2024-01-06_07h49.55.408,kallum_motion_pilot,2023.2.3,Win32,59.52380952,6131460946d0022f68082db6,6598e6a5d84f07970b831e70,6598e74cc8388ee0fca05a55,0.1178,0.1179,0,84,84,10,1,twoone,,,,,,,,,,,,,,,,,,,,,,,,,,,,,,,,,,,,,,,,,,,,,,,,,,,,,,,,,,,,,,,,,,,,,,,,,,,,,,,,,,,,,,,,,,,,,,,,,,,,,,,,,,,,,,,,,,,,,,,,,,,,,,,,,,,,,,,
,,6131460946d0022f68082db6,2024-01-06_07h49.55.408,kallum_motion_pilot,2023.2.3,Win32,59.52380952,6131460946d0022f68082db6,6598e6a5d84f07970b831e70,6598e74cc8388ee0fca05a55,0.118,0.118,0,85,85,112,1,fivesix,,,,,,,,,,,,,,,,,,,,,,,,,,,,,,,,,,,,,,,,,,,,,,,,,,,,,,,,,,,,,,,,,,,,,,,,,,,,,,,,,,,,,,,,,,,,,,,,,,,,,,,,,,,,,,,,,,,,,,,,,,,,,,,,,,,,,,,
,,6131460946d0022f68082db6,2024-01-06_07h49.55.408,kallum_motion_pilot,2023.2.3,Win32,59.52380952,6131460946d0022f68082db6,6598e6a5d84f07970b831e70,6598e74cc8388ee0fca05a55,0.1181,0.1182,0,86,86,143,1,eightseven,,,,,,,,,,,,,,,,,,,,,,,,,,,,,,,,,,,,,,,,,,,,,,,,,,,,,,,,,,,,,,,,,,,,,,,,,,,,,,,,,,,,,,,,,,,,,,,,,,,,,,,,,,,,,,,,,,,,,,,,,,,,,,,,,,,,,,,
,,6131460946d0022f68082db6,2024-01-06_07h49.55.408,kallum_motion_pilot,2023.2.3,Win32,59.52380952,6131460946d0022f68082db6,6598e6a5d84f07970b831e70,6598e74cc8388ee0fca05a55,0.1182,0.1183,0,87,87,120,1,fivesix,,,,,,,,,,,,,,,,,,,,,,,,,,,,,,,,,,,,,,,,,,,,,,,,,,,,,,,,,,,,,,,,,,,,,,,,,,,,,,,,,,,,,,,,,,,,,,,,,,,,,,,,,,,,,,,,,,,,,,,,,,,,,,,,,,,,,,,
,,6131460946d0022f68082db6,2024-01-06_07h49.55.408,kallum_motion_pilot,2023.2.3,Win32,59.52380952,6131460946d0022f68082db6,6598e6a5d84f07970b831e70,6598e74cc8388ee0fca05a55,0.1185,0.1185,0,88,88,80,1,fivesix,,,,,,,,,,,,,,,,,,,,,,,,,,,,,,,,,,,,,,,,,,,,,,,,,,,,,,,,,,,,,,,,,,,,,,,,,,,,,,,,,,,,,,,,,,,,,,,,,,,,,,,,,,,,,,,,,,,,,,,,,,,,,,,,,,,,,,,
,,6131460946d0022f68082db6,2024-01-06_07h49.55.408,kallum_motion_pilot,2023.2.3,Win32,59.52380952,6131460946d0022f68082db6,6598e6a5d84f07970b831e70,6598e74cc8388ee0fca05a55,0.1186,0.1187,0,89,89,37,1,threefour,,,,,,,,,,,,,,,,,,,,,,,,,,,,,,,,,,,,,,,,,,,,,,,,,,,,,,,,,,,,,,,,,,,,,,,,,,,,,,,,,,,,,,,,,,,,,,,,,,,,,,,,,,,,,,,,,,,,,,,,,,,,,,,,,,,,,,,
,,6131460946d0022f68082db6,2024-01-06_07h49.55.408,kallum_motion_pilot,2023.2.3,Win32,59.52380952,6131460946d0022f68082db6,6598e6a5d84f07970b831e70,6598e74cc8388ee0fca05a55,0.1187,0.1188,0,90,90,70,1,fourtwo,,,,,,,,,,,,,,,,,,,,,,,,,,,,,,,,,,,,,,,,,,,,,,,,,,,,,,,,,,,,,,,,,,,,,,,,,,,,,,,,,,,,,,,,,,,,,,,,,,,,,,,,,,,,,,,,,,,,,,,,,,,,,,,,,,,,,,,
,,6131460946d0022f68082db6,2024-01-06_07h49.55.408,kallum_motion_pilot,2023.2.3,Win32,59.52380952,6131460946d0022f68082db6,6598e6a5d84f07970b831e70,6598e74cc8388ee0fca05a55,0.1189,0.1189,0,91,91,128,1,fivesix,,,,,,,,,,,,,,,,,,,,,,,,,,,,,,,,,,,,,,,,,,,,,,,,,,,,,,,,,,,,,,,,,,,,,,,,,,,,,,,,,,,,,,,,,,,,,,,,,,,,,,,,,,,,,,,,,,,,,,,,,,,,,,,,,,,,,,,
,,6131460946d0022f68082db6,2024-01-06_07h49.55.408,kallum_motion_pilot,2023.2.3,Win32,59.52380952,6131460946d0022f68082db6,6598e6a5d84f07970b831e70,6598e74cc8388ee0fca05a55,0.119,0.1191,0,92,92,65,1,onethree,,,,,,,,,,,,,,,,,,,,,,,,,,,,,,,,,,,,,,,,,,,,,,,,,,,,,,,,,,,,,,,,,,,,,,,,,,,,,,,,,,,,,,,,,,,,,,,,,,,,,,,,,,,,,,,,,,,,,,,,,,,,,,,,,,,,,,,
,,6131460946d0022f68082db6,2024-01-06_07h49.55.408,kallum_motion_pilot,2023.2.3,Win32,59.52380952,6131460946d0022f68082db6,6598e6a5d84f07970b831e70,6598e74cc8388ee0fca05a55,0.1192,0.1192,0,93,93,6,1,fourtwo,,,,,,,,,,,,,,,,,,,,,,,,,,,,,,,,,,,,,,,,,,,,,,,,,,,,,,,,,,,,,,,,,,,,,,,,,,,,,,,,,,,,,,,,,,,,,,,,,,,,,,,,,,,,,,,,,,,,,,,,,,,,,,,,,,,,,,,
,,6131460946d0022f68082db6,2024-01-06_07h49.55.408,kallum_motion_pilot,2023.2.3,Win32,59.52380952,6131460946d0022f68082db6,6598e6a5d84f07970b831e70,6598e74cc8388ee0fca05a55,0.1194,0.1194,0,94,94,113,1,fiveseven,,,,,,,,,,,,,,,,,,,,,,,,,,,,,,,,,,,,,,,,,,,,,,,,,,,,,,,,,,,,,,,,,,,,,,,,,,,,,,,,,,,,,,,,,,,,,,,,,,,,,,,,,,,,,,,,,,,,,,,,,,,,,,,,,,,,,,,
,,6131460946d0022f68082db6,2024-01-06_07h49.55.408,kallum_motion_pilot,2023.2.3,Win32,59.52380952,6131460946d0022f68082db6,6598e6a5d84f07970b831e70,6598e74cc8388ee0fca05a55,0.1195,0.1196,0,95,95,127,1,eightseven,,,,,,,,,,,,,,,,,,,,,,,,,,,,,,,,,,,,,,,,,,,,,,,,,,,,,,,,,,,,,,,,,,,,,,,,,,,,,,,,,,,,,,,,,,,,,,,,,,,,,,,,,,,,,,,,,,,,,,,,,,,,,,,,,,,,,,,
,,6131460946d0022f68082db6,2024-01-06_07h49.55.408,kallum_motion_pilot,2023.2.3,Win32,59.52380952,6131460946d0022f68082db6,6598e6a5d84f07970b831e70,6598e74cc8388ee0fca05a55,0.1197,0.1198,0,96,96,4,1,threeone,,,,,,,,,,,,,,,,,,,,,,,,,,,,,,,,,,,,,,,,,,,,,,,,,,,,,,,,,,,,,,,,,,,,,,,,,,,,,,,,,,,,,,,,,,,,,,,,,,,,,,,,,,,,,,,,,,,,,,,,,,,,,,,,,,,,,,,
,,6131460946d0022f68082db6,2024-01-06_07h49.55.408,kallum_motion_pilot,2023.2.3,Win32,59.52380952,6131460946d0022f68082db6,6598e6a5d84f07970b831e70,6598e74cc8388ee0fca05a55,0.1198,0.1199,0,97,97,68,1,threeone,,,,,,,,,,,,,,,,,,,,,,,,,,,,,,,,,,,,,,,,,,,,,,,,,,,,,,,,,,,,,,,,,,,,,,,,,,,,,,,,,,,,,,,,,,,,,,,,,,,,,,,,,,,,,,,,,,,,,,,,,,,,,,,,,,,,,,,
,,6131460946d0022f68082db6,2024-01-06_07h49.55.408,kallum_motion_pilot,2023.2.3,Win32,59.52380952,6131460946d0022f68082db6,6598e6a5d84f07970b831e70,6598e74cc8388ee0fca05a55,0.12,0.12,0,98,98,56,1,onetwo,,,,,,,,,,,,,,,,,,,,,,,,,,,,,,,,,,,,,,,,,,,,,,,,,,,,,,,,,,,,,,,,,,,,,,,,,,,,,,,,,,,,,,,,,,,,,,,,,,,,,,,,,,,,,,,,,,,,,,,,,,,,,,,,,,,,,,,
,,6131460946d0022f68082db6,2024-01-06_07h49.55.408,kallum_motion_pilot,2023.2.3,Win32,59.52380952,6131460946d0022f68082db6,6598e6a5d84f07970b831e70,6598e74cc8388ee0fca05a55,0.1201,0.1202,0,99,99,45,1,threefour,,,,,,,,,,,,,,,,,,,,,,,,,,,,,,,,,,,,,,,,,,,,,,,,,,,,,,,,,,,,,,,,,,,,,,,,,,,,,,,,,,,,,,,,,,,,,,,,,,,,,,,,,,,,,,,,,,,,,,,,,,,,,,,,,,,,,,,
,,6131460946d0022f68082db6,2024-01-06_07h49.55.408,kallum_motion_pilot,2023.2.3,Win32,59.52380952,6131460946d0022f68082db6,6598e6a5d84f07970b831e70,6598e74cc8388ee0fca05a55,0.1203,0.1203,0,100,100,49,1,onethree,,,,,,,,,,,,,,,,,,,,,,,,,,,,,,,,,,,,,,,,,,,,,,,,,,,,,,,,,,,,,,,,,,,,,,,,,,,,,,,,,,,,,,,,,,,,,,,,,,,,,,,,,,,,,,,,,,,,,,,,,,,,,,,,,,,,,,,
,,6131460946d0022f68082db6,2024-01-06_07h49.55.408,kallum_motion_pilot,2023.2.3,Win32,59.52380952,6131460946d0022f68082db6,6598e6a5d84f07970b831e70,6598e74cc8388ee0fca05a55,0.1204,0.1204,0,101,101,130,1,sixfive,,,,,,,,,,,,,,,,,,,,,,,,,,,,,,,,,,,,,,,,,,,,,,,,,,,,,,,,,,,,,,,,,,,,,,,,,,,,,,,,,,,,,,,,,,,,,,,,,,,,,,,,,,,,,,,,,,,,,,,,,,,,,,,,,,,,,,,
,,6131460946d0022f68082db6,2024-01-06_07h49.55.408,kallum_motion_pilot,2023.2.3,Win32,59.52380952,6131460946d0022f68082db6,6598e6a5d84f07970b831e70,6598e74cc8388ee0fca05a55,0.1205,0.1206,0,102,102,39,1,fourthree,,,,,,,,,,,,,,,,,,,,,,,,,,,,,,,,,,,,,,,,,,,,,,,,,,,,,,,,,,,,,,,,,,,,,,,,,,,,,,,,,,,,,,,,,,,,,,,,,,,,,,,,,,,,,,,,,,,,,,,,,,,,,,,,,,,,,,,
,,6131460946d0022f68082db6,2024-01-06_07h49.55.408,kallum_motion_pilot,2023.2.3,Win32,59.52380952,6131460946d0022f68082db6,6598e6a5d84f07970b831e70,6598e74cc8388ee0fca05a55,0.1207,0.1207,0,103,103,73,1,onethree,,,,,,,,,,,,,,,,,,,,,,,,,,,,,,,,,,,,,,,,,,,,,,,,,,,,,,,,,,,,,,,,,,,,,,,,,,,,,,,,,,,,,,,,,,,,,,,,,,,,,,,,,,,,,,,,,,,,,,,,,,,,,,,,,,,,,,,
,,6131460946d0022f68082db6,2024-01-06_07h49.55.408,kallum_motion_pilot,2023.2.3,Win32,59.52380952,6131460946d0022f68082db6,6598e6a5d84f07970b831e70,6598e74cc8388ee0fca05a55,0.1208,0.1209,0,104,104,96,1,fivesix,,,,,,,,,,,,,,,,,,,,,,,,,,,,,,,,,,,,,,,,,,,,,,,,,,,,,,,,,,,,,,,,,,,,,,,,,,,,,,,,,,,,,,,,,,,,,,,,,,,,,,,,,,,,,,,,,,,,,,,,,,,,,,,,,,,,,,,
,,6131460946d0022f68082db6,2024-01-06_07h49.55.408,kallum_motion_pilot,2023.2.3,Win32,59.52380952,6131460946d0022f68082db6,6598e6a5d84f07970b831e70,6598e74cc8388ee0fca05a55,0.1212,0.1213,0,105,105,59,1,twofour,,,,,,,,,,,,,,,,,,,,,,,,,,,,,,,,,,,,,,,,,,,,,,,,,,,,,,,,,,,,,,,,,,,,,,,,,,,,,,,,,,,,,,,,,,,,,,,,,,,,,,,,,,,,,,,,,,,,,,,,,,,,,,,,,,,,,,,
,,6131460946d0022f68082db6,2024-01-06_07h49.55.408,kallum_motion_pilot,2023.2.3,Win32,59.52380952,6131460946d0022f68082db6,6598e6a5d84f07970b831e70,6598e74cc8388ee0fca05a55,0.1214,0.1214,0,106,106,66,1,twoone,,,,,,,,,,,,,,,,,,,,,,,,,,,,,,,,,,,,,,,,,,,,,,,,,,,,,,,,,,,,,,,,,,,,,,,,,,,,,,,,,,,,,,,,,,,,,,,,,,,,,,,,,,,,,,,,,,,,,,,,,,,,,,,,,,,,,,,
,,6131460946d0022f68082db6,2024-01-06_07h49.55.408,kallum_motion_pilot,2023.2.3,Win32,59.52380952,6131460946d0022f68082db6,6598e6a5d84f07970b831e70,6598e74cc8388ee0fca05a55,0.1216,0.1216,0,107,107,63,1,fourthree,,,,,,,,,,,,,,,,,,,,,,,,,,,,,,,,,,,,,,,,,,,,,,,,,,,,,,,,,,,,,,,,,,,,,,,,,,,,,,,,,,,,,,,,,,,,,,,,,,,,,,,,,,,,,,,,,,,,,,,,,,,,,,,,,,,,,,,
,,6131460946d0022f68082db6,2024-01-06_07h49.55.408,kallum_motion_pilot,2023.2.3,Win32,59.52380952,6131460946d0022f68082db6,6598e6a5d84f07970b831e70,6598e74cc8388ee0fca05a55,0.1218,0.1218,0,108,108,117,1,seveneight,,,,,,,,,,,,,,,,,,,,,,,,,,,,,,,,,,,,,,,,,,,,,,,,,,,,,,,,,,,,,,,,,,,,,,,,,,,,,,,,,,,,,,,,,,,,,,,,,,,,,,,,,,,,,,,,,,,,,,,,,,,,,,,,,,,,,,,
,,6131460946d0022f68082db6,2024-01-06_07h49.55.408,kallum_motion_pilot,2023.2.3,Win32,59.52380952,6131460946d0022f68082db6,6598e6a5d84f07970b831e70,6598e74cc8388ee0fca05a55,0.1219,0.122,0,109,109,25,1,onethree,,,,,,,,,,,,,,,,,,,,,,,,,,,,,,,,,,,,,,,,,,,,,,,,,,,,,,,,,,,,,,,,,,,,,,,,,,,,,,,,,,,,,,,,,,,,,,,,,,,,,,,,,,,,,,,,,,,,,,,,,,,,,,,,,,,,,,,
,,6131460946d0022f68082db6,2024-01-06_07h49.55.408,kallum_motion_pilot,2023.2.3,Win32,59.52380952,6131460946d0022f68082db6,6598e6a5d84f07970b831e70,6598e74cc8388ee0fca05a55,0.122,0.1221,0,110,110,20,1,threeone,,,,,,,,,,,,,,,,,,,,,,,,,,,,,,,,,,,,,,,,,,,,,,,,,,,,,,,,,,,,,,,,,,,,,,,,,,,,,,,,,,,,,,,,,,,,,,,,,,,,,,,,,,,,,,,,,,,,,,,,,,,,,,,,,,,,,,,
,,6131460946d0022f68082db6,2024-01-06_07h49.55.408,kallum_motion_pilot,2023.2.3,Win32,59.52380952,6131460946d0022f68082db6,6598e6a5d84f07970b831e70,6598e74cc8388ee0fca05a55,0.1222,0.1223,0,111,111,27,1,twofour,,,,,,,,,,,,,,,,,,,,,,,,,,,,,,,,,,,,,,,,,,,,,,,,,,,,,,,,,,,,,,,,,,,,,,,,,,,,,,,,,,,,,,,,,,,,,,,,,,,,,,,,,,,,,,,,,,,,,,,,,,,,,,,,,,,,,,,
,,6131460946d0022f68082db6,2024-01-06_07h49.55.408,kallum_motion_pilot,2023.2.3,Win32,59.52380952,6131460946d0022f68082db6,6598e6a5d84f07970b831e70,6598e74cc8388ee0fca05a55,0.1223,0.1223,0,112,112,118,1,eightsix,,,,,,,,,,,,,,,,,,,,,,,,,,,,,,,,,,,,,,,,,,,,,,,,,,,,,,,,,,,,,,,,,,,,,,,,,,,,,,,,,,,,,,,,,,,,,,,,,,,,,,,,,,,,,,,,,,,,,,,,,,,,,,,,,,,,,,,
,,6131460946d0022f68082db6,2024-01-06_07h49.55.408,kallum_motion_pilot,2023.2.3,Win32,59.52380952,6131460946d0022f68082db6,6598e6a5d84f07970b831e70,6598e74cc8388ee0fca05a55,0.1224,0.1225,0,113,113,97,1,fiveseven,,,,,,,,,,,,,,,,,,,,,,,,,,,,,,,,,,,,,,,,,,,,,,,,,,,,,,,,,,,,,,,,,,,,,,,,,,,,,,,,,,,,,,,,,,,,,,,,,,,,,,,,,,,,,,,,,,,,,,,,,,,,,,,,,,,,,,,
,,6131460946d0022f68082db6,2024-01-06_07h49.55.408,kallum_motion_pilot,2023.2.3,Win32,59.52380952,6131460946d0022f68082db6,6598e6a5d84f07970b831e70,6598e74cc8388ee0fca05a55,0.1226,0.1226,0,114,114,125,1,seveneight,,,,,,,,,,,,,,,,,,,,,,,,,,,,,,,,,,,,,,,,,,,,,,,,,,,,,,,,,,,,,,,,,,,,,,,,,,,,,,,,,,,,,,,,,,,,,,,,,,,,,,,,,,,,,,,,,,,,,,,,,,,,,,,,,,,,,,,
,,6131460946d0022f68082db6,2024-01-06_07h49.55.408,kallum_motion_pilot,2023.2.3,Win32,59.52380952,6131460946d0022f68082db6,6598e6a5d84f07970b831e70,6598e74cc8388ee0fca05a55,0.1227,0.1228,0,115,115,18,1,twoone,,,,,,,,,,,,,,,,,,,,,,,,,,,,,,,,,,,,,,,,,,,,,,,,,,,,,,,,,,,,,,,,,,,,,,,,,,,,,,,,,,,,,,,,,,,,,,,,,,,,,,,,,,,,,,,,,,,,,,,,,,,,,,,,,,,,,,,
,,6131460946d0022f68082db6,2024-01-06_07h49.55.408,kallum_motion_pilot,2023.2.3,Win32,59.52380952,6131460946d0022f68082db6,6598e6a5d84f07970b831e70,6598e74cc8388ee0fca05a55,0.1229,0.1229,0,116,116,154,1,sixfive,,,,,,,,,,,,,,,,,,,,,,,,,,,,,,,,,,,,,,,,,,,,,,,,,,,,,,,,,,,,,,,,,,,,,,,,,,,,,,,,,,,,,,,,,,,,,,,,,,,,,,,,,,,,,,,,,,,,,,,,,,,,,,,,,,,,,,,
,,6131460946d0022f68082db6,2024-01-06_07h49.55.408,kallum_motion_pilot,2023.2.3,Win32,59.52380952,6131460946d0022f68082db6,6598e6a5d84f07970b831e70,6598e74cc8388ee0fca05a55,0.123,0.1231,0,117,117,47,1,fourthree,,,,,,,,,,,,,,,,,,,,,,,,,,,,,,,,,,,,,,,,,,,,,,,,,,,,,,,,,,,,,,,,,,,,,,,,,,,,,,,,,,,,,,,,,,,,,,,,,,,,,,,,,,,,,,,,,,,,,,,,,,,,,,,,,,,,,,,
,,6131460946d0022f68082db6,2024-01-06_07h49.55.408,kallum_motion_pilot,2023.2.3,Win32,59.52380952,6131460946d0022f68082db6,6598e6a5d84f07970b831e70,6598e74cc8388ee0fca05a55,0.1232,0.1232,0,118,118,46,1,fourtwo,,,,,,,,,,,,,,,,,,,,,,,,,,,,,,,,,,,,,,,,,,,,,,,,,,,,,,,,,,,,,,,,,,,,,,,,,,,,,,,,,,,,,,,,,,,,,,,,,,,,,,,,,,,,,,,,,,,,,,,,,,,,,,,,,,,,,,,
,,6131460946d0022f68082db6,2024-01-06_07h49.55.408,kallum_motion_pilot,2023.2.3,Win32,59.52380952,6131460946d0022f68082db6,6598e6a5d84f07970b831e70,6598e74cc8388ee0fca05a55,0.1234,0.1234,0,119,119,99,1,sixeight,,,,,,,,,,,,,,,,,,,,,,,,,,,,,,,,,,,,,,,,,,,,,,,,,,,,,,,,,,,,,,,,,,,,,,,,,,,,,,,,,,,,,,,,,,,,,,,,,,,,,,,,,,,,,,,,,,,,,,,,,,,,,,,,,,,,,,,
,,6131460946d0022f68082db6,2024-01-06_07h49.55.408,kallum_motion_pilot,2023.2.3,Win32,59.52380952,6131460946d0022f68082db6,6598e6a5d84f07970b831e70,6598e74cc8388ee0fca05a55,0.1235,0.1235,0,120,120,38,1,fourtwo,,,,,,,,,,,,,,,,,,,,,,,,,,,,,,,,,,,,,,,,,,,,,,,,,,,,,,,,,,,,,,,,,,,,,,,,,,,,,,,,,,,,,,,,,,,,,,,,,,,,,,,,,,,,,,,,,,,,,,,,,,,,,,,,,,,,,,,
,,6131460946d0022f68082db6,2024-01-06_07h49.55.408,kallum_motion_pilot,2023.2.3,Win32,59.52380952,6131460946d0022f68082db6,6598e6a5d84f07970b831e70,6598e74cc8388ee0fca05a55,0.1236,0.1237,0,121,121,89,1,fiveseven,,,,,,,,,,,,,,,,,,,,,,,,,,,,,,,,,,,,,,,,,,,,,,,,,,,,,,,,,,,,,,,,,,,,,,,,,,,,,,,,,,,,,,,,,,,,,,,,,,,,,,,,,,,,,,,,,,,,,,,,,,,,,,,,,,,,,,,
,,6131460946d0022f68082db6,2024-01-06_07h49.55.408,kallum_motion_pilot,2023.2.3,Win32,59.52380952,6131460946d0022f68082db6,6598e6a5d84f07970b831e70,6598e74cc8388ee0fca05a55,0.1238,0.1238,0,122,122,54,1,fourtwo,,,,,,,,,,,,,,,,,,,,,,,,,,,,,,,,,,,,,,,,,,,,,,,,,,,,,,,,,,,,,,,,,,,,,,,,,,,,,,,,,,,,,,,,,,,,,,,,,,,,,,,,,,,,,,,,,,,,,,,,,,,,,,,,,,,,,,,
,,6131460946d0022f68082db6,2024-01-06_07h49.55.408,kallum_motion_pilot,2023.2.3,Win32,59.52380952,6131460946d0022f68082db6,6598e6a5d84f07970b831e70,6598e74cc8388ee0fca05a55,0.1239,0.124,0,123,123,55,1,fourthree,,,,,,,,,,,,,,,,,,,,,,,,,,,,,,,,,,,,,,,,,,,,,,,,,,,,,,,,,,,,,,,,,,,,,,,,,,,,,,,,,,,,,,,,,,,,,,,,,,,,,,,,,,,,,,,,,,,,,,,,,,,,,,,,,,,,,,,
,,6131460946d0022f68082db6,2024-01-06_07h49.55.408,kallum_motion_pilot,2023.2.3,Win32,59.52380952,6131460946d0022f68082db6,6598e6a5d84f07970b831e70,6598e74cc8388ee0fca05a55,0.1241,0.1242,0,124,124,139,1,sixeight,,,,,,,,,,,,,,,,,,,,,,,,,,,,,,,,,,,,,,,,,,,,,,,,,,,,,,,,,,,,,,,,,,,,,,,,,,,,,,,,,,,,,,,,,,,,,,,,,,,,,,,,,,,,,,,,,,,,,,,,,,,,,,,,,,,,,,,
,,6131460946d0022f68082db6,2024-01-06_07h49.55.408,kallum_motion_pilot,2023.2.3,Win32,59.52380952,6131460946d0022f68082db6,6598e6a5d84f07970b831e70,6598e74cc8388ee0fca05a55,0.1243,0.1243,0,125,125,2,1,twoone,,,,,,,,,,,,,,,,,,,,,,,,,,,,,,,,,,,,,,,,,,,,,,,,,,,,,,,,,,,,,,,,,,,,,,,,,,,,,,,,,,,,,,,,,,,,,,,,,,,,,,,,,,,,,,,,,,,,,,,,,,,,,,,,,,,,,,,
,,6131460946d0022f68082db6,2024-01-06_07h49.55.408,kallum_motion_pilot,2023.2.3,Win32,59.52380952,6131460946d0022f68082db6,6598e6a5d84f07970b831e70,6598e74cc8388ee0fca05a55,0.1244,0.1246,0,126,126,36,1,threeone,,,,,,,,,,,,,,,,,,,,,,,,,,,,,,,,,,,,,,,,,,,,,,,,,,,,,,,,,,,,,,,,,,,,,,,,,,,,,,,,,,,,,,,,,,,,,,,,,,,,,,,,,,,,,,,,,,,,,,,,,,,,,,,,,,,,,,,
,,6131460946d0022f68082db6,2024-01-06_07h49.55.408,kallum_motion_pilot,2023.2.3,Win32,59.52380952,6131460946d0022f68082db6,6598e6a5d84f07970b831e70,6598e74cc8388ee0fca05a55,0.1246,0.1246,0,127,127,72,1,onetwo,,,,,,,,,,,,,,,,,,,,,,,,,,,,,,,,,,,,,,,,,,,,,,,,,,,,,,,,,,,,,,,,,,,,,,,,,,,,,,,,,,,,,,,,,,,,,,,,,,,,,,,,,,,,,,,,,,,,,,,,,,,,,,,,,,,,,,,
,,6131460946d0022f68082db6,2024-01-06_07h49.55.408,kallum_motion_pilot,2023.2.3,Win32,59.52380952,6131460946d0022f68082db6,6598e6a5d84f07970b831e70,6598e74cc8388ee0fca05a55,0.1248,0.1249,0,128,128,29,1,threefour,,,,,,,,,,,,,,,,,,,,,,,,,,,,,,,,,,,,,,,,,,,,,,,,,,,,,,,,,,,,,,,,,,,,,,,,,,,,,,,,,,,,,,,,,,,,,,,,,,,,,,,,,,,,,,,,,,,,,,,,,,,,,,,,,,,,,,,
,,6131460946d0022f68082db6,2024-01-06_07h49.55.408,kallum_motion_pilot,2023.2.3,Win32,59.52380952,6131460946d0022f68082db6,6598e6a5d84f07970b831e70,6598e74cc8388ee0fca05a55,0.1249,0.125,0,129,129,103,1,eightseven,,,,,,,,,,,,,,,,,,,,,,,,,,,,,,,,,,,,,,,,,,,,,,,,,,,,,,,,,,,,,,,,,,,,,,,,,,,,,,,,,,,,,,,,,,,,,,,,,,,,,,,,,,,,,,,,,,,,,,,,,,,,,,,,,,,,,,,
,,6131460946d0022f68082db6,2024-01-06_07h49.55.408,kallum_motion_pilot,2023.2.3,Win32,59.52380952,6131460946d0022f68082db6,6598e6a5d84f07970b831e70,6598e74cc8388ee0fca05a55,0.1251,0.1252,0,130,130,121,1,fiveseven,,,,,,,,,,,,,,,,,,,,,,,,,,,,,,,,,,,,,,,,,,,,,,,,,,,,,,,,,,,,,,,,,,,,,,,,,,,,,,,,,,,,,,,,,,,,,,,,,,,,,,,,,,,,,,,,,,,,,,,,,,,,,,,,,,,,,,,
,,6131460946d0022f68082db6,2024-01-06_07h49.55.408,kallum_motion_pilot,2023.2.3,Win32,59.52380952,6131460946d0022f68082db6,6598e6a5d84f07970b831e70,6598e74cc8388ee0fca05a55,0.1252,0.1253,0,131,131,9,1,onethree,,,,,,,,,,,,,,,,,,,,,,,,,,,,,,,,,,,,,,,,,,,,,,,,,,,,,,,,,,,,,,,,,,,,,,,,,,,,,,,,,,,,,,,,,,,,,,,,,,,,,,,,,,,,,,,,,,,,,,,,,,,,,,,,,,,,,,,
,,6131460946d0022f68082db6,2024-01-06_07h49.55.408,kallum_motion_pilot,2023.2.3,Win32,59.52380952,6131460946d0022f68082db6,6598e6a5d84f07970b831e70,6598e74cc8388ee0fca05a55,0.1254,0.1254,0,132,132,34,1,twoone,,,,,,,,,,,,,,,,,,,,,,,,,,,,,,,,,,,,,,,,,,,,,,,,,,,,,,,,,,,,,,,,,,,,,,,,,,,,,,,,,,,,,,,,,,,,,,,,,,,,,,,,,,,,,,,,,,,,,,,,,,,,,,,,,,,,,,,
,,6131460946d0022f68082db6,2024-01-06_07h49.55.408,kallum_motion_pilot,2023.2.3,Win32,59.52380952,6131460946d0022f68082db6,6598e6a5d84f07970b831e70,6598e74cc8388ee0fca05a55,0.1256,0.1256,0,133,133,108,1,sevenfive,,,,,,,,,,,,,,,,,,,,,,,,,,,,,,,,,,,,,,,,,,,,,,,,,,,,,,,,,,,,,,,,,,,,,,,,,,,,,,,,,,,,,,,,,,,,,,,,,,,,,,,,,,,,,,,,,,,,,,,,,,,,,,,,,,,,,,,
,,6131460946d0022f68082db6,2024-01-06_07h49.55.408,kallum_motion_pilot,2023.2.3,Win32,59.52380952,6131460946d0022f68082db6,6598e6a5d84f07970b831e70,6598e74cc8388ee0fca05a55,0.1257,0.1257,0,134,134,16,1,onetwo,,,,,,,,,,,,,,,,,,,,,,,,,,,,,,,,,,,,,,,,,,,,,,,,,,,,,,,,,,,,,,,,,,,,,,,,,,,,,,,,,,,,,,,,,,,,,,,,,,,,,,,,,,,,,,,,,,,,,,,,,,,,,,,,,,,,,,,
,,6131460946d0022f68082db6,2024-01-06_07h49.55.408,kallum_motion_pilot,2023.2.3,Win32,59.52380952,6131460946d0022f68082db6,6598e6a5d84f07970b831e70,6598e74cc8388ee0fca05a55,0.1258,0.1259,0,135,135,115,1,sixeight,,,,,,,,,,,,,,,,,,,,,,,,,,,,,,,,,,,,,,,,,,,,,,,,,,,,,,,,,,,,,,,,,,,,,,,,,,,,,,,,,,,,,,,,,,,,,,,,,,,,,,,,,,,,,,,,,,,,,,,,,,,,,,,,,,,,,,,
,,6131460946d0022f68082db6,2024-01-06_07h49.55.408,kallum_motion_pilot,2023.2.3,Win32,59.52380952,6131460946d0022f68082db6,6598e6a5d84f07970b831e70,6598e74cc8388ee0fca05a55,0.126,0.126,0,136,136,133,1,seveneight,,,,,,,,,,,,,,,,,,,,,,,,,,,,,,,,,,,,,,,,,,,,,,,,,,,,,,,,,,,,,,,,,,,,,,,,,,,,,,,,,,,,,,,,,,,,,,,,,,,,,,,,,,,,,,,,,,,,,,,,,,,,,,,,,,,,,,,
,,6131460946d0022f68082db6,2024-01-06_07h49.55.408,kallum_motion_pilot,2023.2.3,Win32,59.52380952,6131460946d0022f68082db6,6598e6a5d84f07970b831e70,6598e74cc8388ee0fca05a55,0.1262,0.1262,0,137,137,23,1,fourthree,,,,,,,,,,,,,,,,,,,,,,,,,,,,,,,,,,,,,,,,,,,,,,,,,,,,,,,,,,,,,,,,,,,,,,,,,,,,,,,,,,,,,,,,,,,,,,,,,,,,,,,,,,,,,,,,,,,,,,,,,,,,,,,,,,,,,,,
,,6131460946d0022f68082db6,2024-01-06_07h49.55.408,kallum_motion_pilot,2023.2.3,Win32,59.52380952,6131460946d0022f68082db6,6598e6a5d84f07970b831e70,6598e74cc8388ee0fca05a55,0.1263,0.1264,0,138,138,95,1,eightseven,,,,,,,,,,,,,,,,,,,,,,,,,,,,,,,,,,,,,,,,,,,,,,,,,,,,,,,,,,,,,,,,,,,,,,,,,,,,,,,,,,,,,,,,,,,,,,,,,,,,,,,,,,,,,,,,,,,,,,,,,,,,,,,,,,,,,,,
,,6131460946d0022f68082db6,2024-01-06_07h49.55.408,kallum_motion_pilot,2023.2.3,Win32,59.52380952,6131460946d0022f68082db6,6598e6a5d84f07970b831e70,6598e74cc8388ee0fca05a55,0.1264,0.1265,0,139,139,158,1,eightsix,,,,,,,,,,,,,,,,,,,,,,,,,,,,,,,,,,,,,,,,,,,,,,,,,,,,,,,,,,,,,,,,,,,,,,,,,,,,,,,,,,,,,,,,,,,,,,,,,,,,,,,,,,,,,,,,,,,,,,,,,,,,,,,,,,,,,,,
,,6131460946d0022f68082db6,2024-01-06_07h49.55.408,kallum_motion_pilot,2023.2.3,Win32,59.52380952,6131460946d0022f68082db6,6598e6a5d84f07970b831e70,6598e74cc8388ee0fca05a55,0.1266,0.1267,0,140,140,84,1,sevenfive,,,,,,,,,,,,,,,,,,,,,,,,,,,,,,,,,,,,,,,,,,,,,,,,,,,,,,,,,,,,,,,,,,,,,,,,,,,,,,,,,,,,,,,,,,,,,,,,,,,,,,,,,,,,,,,,,,,,,,,,,,,,,,,,,,,,,,,
,,6131460946d0022f68082db6,2024-01-06_07h49.55.408,kallum_motion_pilot,2023.2.3,Win32,59.52380952,6131460946d0022f68082db6,6598e6a5d84f07970b831e70,6598e74cc8388ee0fca05a55,0.1268,0.1268,0,141,141,15,1,fourthree,,,,,,,,,,,,,,,,,,,,,,,,,,,,,,,,,,,,,,,,,,,,,,,,,,,,,,,,,,,,,,,,,,,,,,,,,,,,,,,,,,,,,,,,,,,,,,,,,,,,,,,,,,,,,,,,,,,,,,,,,,,,,,,,,,,,,,,
,,6131460946d0022f68082db6,2024-01-06_07h49.55.408,kallum_motion_pilot,2023.2.3,Win32,59.52380952,6131460946d0022f68082db6,6598e6a5d84f07970b831e70,6598e74cc8388ee0fca05a55,0.1269,0.127,0,142,142,32,1,onetwo,,,,,,,,,,,,,,,,,,,,,,,,,,,,,,,,,,,,,,,,,,,,,,,,,,,,,,,,,,,,,,,,,,,,,,,,,,,,,,,,,,,,,,,,,,,,,,,,,,,,,,,,,,,,,,,,,,,,,,,,,,,,,,,,,,,,,,,
,,6131460946d0022f68082db6,2024-01-06_07h49.55.408,kallum_motion_pilot,2023.2.3,Win32,59.52380952,6131460946d0022f68082db6,6598e6a5d84f07970b831e70,6598e74cc8388ee0fca05a55,0.127,0.1271,0,143,143,24,1,onetwo,,,,,,,,,,,,,,,,,,,,,,,,,,,,,,,,,,,,,,,,,,,,,,,,,,,,,,,,,,,,,,,,,,,,,,,,,,,,,,,,,,,,,,,,,,,,,,,,,,,,,,,,,,,,,,,,,,,,,,,,,,,,,,,,,,,,,,,
,,6131460946d0022f68082db6,2024-01-06_07h49.55.408,kallum_motion_pilot,2023.2.3,Win32,59.52380952,6131460946d0022f68082db6,6598e6a5d84f07970b831e70,6598e74cc8388ee0fca05a55,0.1271,0.1273,0,144,144,116,1,sevenfive,,,,,,,,,,,,,,,,,,,,,,,,,,,,,,,,,,,,,,,,,,,,,,,,,,,,,,,,,,,,,,,,,,,,,,,,,,,,,,,,,,,,,,,,,,,,,,,,,,,,,,,,,,,,,,,,,,,,,,,,,,,,,,,,,,,,,,,
,,6131460946d0022f68082db6,2024-01-06_07h49.55.408,kallum_motion_pilot,2023.2.3,Win32,59.52380952,6131460946d0022f68082db6,6598e6a5d84f07970b831e70,6598e74cc8388ee0fca05a55,0.1274,0.1274,0,145,145,85,1,seveneight,,,,,,,,,,,,,,,,,,,,,,,,,,,,,,,,,,,,,,,,,,,,,,,,,,,,,,,,,,,,,,,,,,,,,,,,,,,,,,,,,,,,,,,,,,,,,,,,,,,,,,,,,,,,,,,,,,,,,,,,,,,,,,,,,,,,,,,
,,6131460946d0022f68082db6,2024-01-06_07h49.55.408,kallum_motion_pilot,2023.2.3,Win32,59.52380952,6131460946d0022f68082db6,6598e6a5d84f07970b831e70,6598e74cc8388ee0fca05a55,0.1275,0.1275,0,146,146,93,1,seveneight,,,,,,,,,,,,,,,,,,,,,,,,,,,,,,,,,,,,,,,,,,,,,,,,,,,,,,,,,,,,,,,,,,,,,,,,,,,,,,,,,,,,,,,,,,,,,,,,,,,,,,,,,,,,,,,,,,,,,,,,,,,,,,,,,,,,,,,
,,6131460946d0022f68082db6,2024-01-06_07h49.55.408,kallum_motion_pilot,2023.2.3,Win32,59.52380952,6131460946d0022f68082db6,6598e6a5d84f07970b831e70,6598e74cc8388ee0fca05a55,0.1276,0.1277,0,147,147,19,1,twofour,,,,,,,,,,,,,,,,,,,,,,,,,,,,,,,,,,,,,,,,,,,,,,,,,,,,,,,,,,,,,,,,,,,,,,,,,,,,,,,,,,,,,,,,,,,,,,,,,,,,,,,,,,,,,,,,,,,,,,,,,,,,,,,,,,,,,,,
,,6131460946d0022f68082db6,2024-01-06_07h49.55.408,kallum_motion_pilot,2023.2.3,Win32,59.52380952,6131460946d0022f68082db6,6598e6a5d84f07970b831e70,6598e74cc8388ee0fca05a55,0.1278,0.1279,0,148,148,31,1,fourthree,,,,,,,,,,,,,,,,,,,,,,,,,,,,,,,,,,,,,,,,,,,,,,,,,,,,,,,,,,,,,,,,,,,,,,,,,,,,,,,,,,,,,,,,,,,,,,,,,,,,,,,,,,,,,,,,,,,,,,,,,,,,,,,,,,,,,,,
,,6131460946d0022f68082db6,2024-01-06_07h49.55.408,kallum_motion_pilot,2023.2.3,Win32,59.52380952,6131460946d0022f68082db6,6598e6a5d84f07970b831e70,6598e74cc8388ee0fca05a55,0.1279,0.128,0,149,149,107,1,sixeight,,,,,,,,,,,,,,,,,,,,,,,,,,,,,,,,,,,,,,,,,,,,,,,,,,,,,,,,,,,,,,,,,,,,,,,,,,,,,,,,,,,,,,,,,,,,,,,,,,,,,,,,,,,,,,,,,,,,,,,,,,,,,,,,,,,,,,,
,,6131460946d0022f68082db6,2024-01-06_07h49.55.408,kallum_motion_pilot,2023.2.3,Win32,59.52380952,6131460946d0022f68082db6,6598e6a5d84f07970b831e70,6598e74cc8388ee0fca05a55,0.1281,0.1281,0,150,150,135,1,eightseven,,,,,,,,,,,,,,,,,,,,,,,,,,,,,,,,,,,,,,,,,,,,,,,,,,,,,,,,,,,,,,,,,,,,,,,,,,,,,,,,,,,,,,,,,,,,,,,,,,,,,,,,,,,,,,,,,,,,,,,,,,,,,,,,,,,,,,,
,,6131460946d0022f68082db6,2024-01-06_07h49.55.408,kallum_motion_pilot,2023.2.3,Win32,59.52380952,6131460946d0022f68082db6,6598e6a5d84f07970b831e70,6598e74cc8388ee0fca05a55,0.1282,0.1284,0,151,151,126,1,eightsix,,,,,,,,,,,,,,,,,,,,,,,,,,,,,,,,,,,,,,,,,,,,,,,,,,,,,,,,,,,,,,,,,,,,,,,,,,,,,,,,,,,,,,,,,,,,,,,,,,,,,,,,,,,,,,,,,,,,,,,,,,,,,,,,,,,,,,,
,,6131460946d0022f68082db6,2024-01-06_07h49.55.408,kallum_motion_pilot,2023.2.3,Win32,59.52380952,6131460946d0022f68082db6,6598e6a5d84f07970b831e70,6598e74cc8388ee0fca05a55,0.1284,0.1285,0,152,152,76,1,threeone,,,,,,,,,,,,,,,,,,,,,,,,,,,,,,,,,,,,,,,,,,,,,,,,,,,,,,,,,,,,,,,,,,,,,,,,,,,,,,,,,,,,,,,,,,,,,,,,,,,,,,,,,,,,,,,,,,,,,,,,,,,,,,,,,,,,,,,
,,6131460946d0022f68082db6,2024-01-06_07h49.55.408,kallum_motion_pilot,2023.2.3,Win32,59.52380952,6131460946d0022f68082db6,6598e6a5d84f07970b831e70,6598e74cc8388ee0fca05a55,0.1285,0.1286,0,153,153,1,1,onethree,,,,,,,,,,,,,,,,,,,,,,,,,,,,,,,,,,,,,,,,,,,,,,,,,,,,,,,,,,,,,,,,,,,,,,,,,,,,,,,,,,,,,,,,,,,,,,,,,,,,,,,,,,,,,,,,,,,,,,,,,,,,,,,,,,,,,,,
,,6131460946d0022f68082db6,2024-01-06_07h49.55.408,kallum_motion_pilot,2023.2.3,Win32,59.52380952,6131460946d0022f68082db6,6598e6a5d84f07970b831e70,6598e74cc8388ee0fca05a55,0.1287,0.1287,0,154,154,105,1,fiveseven,,,,,,,,,,,,,,,,,,,,,,,,,,,,,,,,,,,,,,,,,,,,,,,,,,,,,,,,,,,,,,,,,,,,,,,,,,,,,,,,,,,,,,,,,,,,,,,,,,,,,,,,,,,,,,,,,,,,,,,,,,,,,,,,,,,,,,,
,,6131460946d0022f68082db6,2024-01-06_07h49.55.408,kallum_motion_pilot,2023.2.3,Win32,59.52380952,6131460946d0022f68082db6,6598e6a5d84f07970b831e70,6598e74cc8388ee0fca05a55,0.1288,0.1289,0,155,155,153,1,fiveseven,,,,,,,,,,,,,,,,,,,,,,,,,,,,,,,,,,,,,,,,,,,,,,,,,,,,,,,,,,,,,,,,,,,,,,,,,,,,,,,,,,,,,,,,,,,,,,,,,,,,,,,,,,,,,,,,,,,,,,,,,,,,,,,,,,,,,,,
,,6131460946d0022f68082db6,2024-01-06_07h49.55.408,kallum_motion_pilot,2023.2.3,Win32,59.52380952,6131460946d0022f68082db6,6598e6a5d84f07970b831e70,6598e74cc8388ee0fca05a55,0.129,0.129,0,156,156,106,1,sixfive,,,,,,,,,,,,,,,,,,,,,,,,,,,,,,,,,,,,,,,,,,,,,,,,,,,,,,,,,,,,,,,,,,,,,,,,,,,,,,,,,,,,,,,,,,,,,,,,,,,,,,,,,,,,,,,,,,,,,,,,,,,,,,,,,,,,,,,
,,6131460946d0022f68082db6,2024-01-06_07h49.55.408,kallum_motion_pilot,2023.2.3,Win32,59.52380952,6131460946d0022f68082db6,6598e6a5d84f07970b831e70,6598e74cc8388ee0fca05a55,0.1292,0.1292,0,157,157,92,1,sevenfive,,,,,,,,,,,,,,,,,,,,,,,,,,,,,,,,,,,,,,,,,,,,,,,,,,,,,,,,,,,,,,,,,,,,,,,,,,,,,,,,,,,,,,,,,,,,,,,,,,,,,,,,,,,,,,,,,,,,,,,,,,,,,,,,,,,,,,,
,,6131460946d0022f68082db6,2024-01-06_07h49.55.408,kallum_motion_pilot,2023.2.3,Win32,59.52380952,6131460946d0022f68082db6,6598e6a5d84f07970b831e70,6598e74cc8388ee0fca05a55,0.1326,0.1327,0,158,158,129,1,fiveseven,,,,,,,,,,,,,,,,,,,,,,,,,,,,,,,,,,,,,,,,,,,,,,,,,,,,,,,,,,,,,,,,,,,,,,,,,,,,,,,,,,,,,,,,,,,,,,,,,,,,,,,,,,,,,,,,,,,,,,,,,,,,,,,,,,,,,,,
,,6131460946d0022f68082db6,2024-01-06_07h49.55.408,kallum_motion_pilot,2023.2.3,Win32,59.52380952,6131460946d0022f68082db6,6598e6a5d84f07970b831e70,6598e74cc8388ee0fca05a55,0.1328,0.1329,0,159,159,159,1,eightseven,,,,,,,,,,,,,,,,,,,,,,,,,,,,,,,,,,,,,,,,,,,,,,,,,,,,,,,,,,,,,,,,,,,,,,,,,,,,,,,,,,,,,,,,,,,,,,,,,,,,,,,,,,,,,,,,,,,,,,,,,,,,,,,,,,,,,,,
,,6131460946d0022f68082db6,2024-01-06_07h49.55.408,kallum_motion_pilot,2023.2.3,Win32,59.52380952,6131460946d0022f68082db6,6598e6a5d84f07970b831e70,6598e74cc8388ee0fca05a55,0.1331,0.1331,0,160,160,122,1,sixfive,,,,,,,,,,,,,,,,,,,,,,,,,,,,,,,,,,,,,,,,,,,,,,,,,,,,,,,,,,,,,,,,,,,,,,,,,,,,,,,,,,,,,,,,,,,,,,,,,,,,,,,,,,,,,,,,,,,,,,,,,,,,,,,,,,,,,,,
,,6131460946d0022f68082db6,2024-01-06_07h49.55.408,kallum_motion_pilot,2023.2.3,Win32,59.52380952,6131460946d0022f68082db6,6598e6a5d84f07970b831e70,6598e74cc8388ee0fca05a55,0.1333,0.1333,0,161,161,77,1,threefour,,,,,,,,,,,,,,,,,,,,,,,,,,,,,,,,,,,,,,,,,,,,,,,,,,,,,,,,,,,,,,,,,,,,,,,,,,,,,,,,,,,,,,,,,,,,,,,,,,,,,,,,,,,,,,,,,,,,,,,,,,,,,,,,,,,,,,,
,,6131460946d0022f68082db6,2024-01-06_07h49.55.408,kallum_motion_pilot,2023.2.3,Win32,59.52380952,6131460946d0022f68082db6,6598e6a5d84f07970b831e70,6598e74cc8388ee0fca05a55,0.1335,0.1335,1,0,162,75,1,twofour,,,,,,,,,,,,,,,,,,,,,,,,,,,,,,,,,,,,,,,,,,,,,,,,,,,,,,,,,,,,,,,,,,,,,,,,,,,,,,,,,,,,,,,,,,,,,,,,,,,,,,,,,,,,,,,,,,,,,,,,,,,,,,,,,,,,,,,
,,6131460946d0022f68082db6,2024-01-06_07h49.55.408,kallum_motion_pilot,2023.2.3,Win32,59.52380952,6131460946d0022f68082db6,6598e6a5d84f07970b831e70,6598e74cc8388ee0fca05a55,0.1337,0.1337,1,1,163,46,1,fourtwo,,,,,,,,,,,,,,,,,,,,,,,,,,,,,,,,,,,,,,,,,,,,,,,,,,,,,,,,,,,,,,,,,,,,,,,,,,,,,,,,,,,,,,,,,,,,,,,,,,,,,,,,,,,,,,,,,,,,,,,,,,,,,,,,,,,,,,,
,,6131460946d0022f68082db6,2024-01-06_07h49.55.408,kallum_motion_pilot,2023.2.3,Win32,59.52380952,6131460946d0022f68082db6,6598e6a5d84f07970b831e70,6598e74cc8388ee0fca05a55,0.1338,0.1338,1,2,164,140,1,sevenfive,,,,,,,,,,,,,,,,,,,,,,,,,,,,,,,,,,,,,,,,,,,,,,,,,,,,,,,,,,,,,,,,,,,,,,,,,,,,,,,,,,,,,,,,,,,,,,,,,,,,,,,,,,,,,,,,,,,,,,,,,,,,,,,,,,,,,,,
,,6131460946d0022f68082db6,2024-01-06_07h49.55.408,kallum_motion_pilot,2023.2.3,Win32,59.52380952,6131460946d0022f68082db6,6598e6a5d84f07970b831e70,6598e74cc8388ee0fca05a55,0.134,0.1341,1,3,165,160,1,fivesix,,,,,,,,,,,,,,,,,,,,,,,,,,,,,,,,,,,,,,,,,,,,,,,,,,,,,,,,,,,,,,,,,,,,,,,,,,,,,,,,,,,,,,,,,,,,,,,,,,,,,,,,,,,,,,,,,,,,,,,,,,,,,,,,,,,,,,,
,,6131460946d0022f68082db6,2024-01-06_07h49.55.408,kallum_motion_pilot,2023.2.3,Win32,59.52380952,6131460946d0022f68082db6,6598e6a5d84f07970b831e70,6598e74cc8388ee0fca05a55,0.1342,0.1342,1,4,166,61,1,threefour,,,,,,,,,,,,,,,,,,,,,,,,,,,,,,,,,,,,,,,,,,,,,,,,,,,,,,,,,,,,,,,,,,,,,,,,,,,,,,,,,,,,,,,,,,,,,,,,,,,,,,,,,,,,,,,,,,,,,,,,,,,,,,,,,,,,,,,
,,6131460946d0022f68082db6,2024-01-06_07h49.55.408,kallum_motion_pilot,2023.2.3,Win32,59.52380952,6131460946d0022f68082db6,6598e6a5d84f07970b831e70,6598e74cc8388ee0fca05a55,0.1343,0.1344,1,5,167,29,1,threefour,,,,,,,,,,,,,,,,,,,,,,,,,,,,,,,,,,,,,,,,,,,,,,,,,,,,,,,,,,,,,,,,,,,,,,,,,,,,,,,,,,,,,,,,,,,,,,,,,,,,,,,,,,,,,,,,,,,,,,,,,,,,,,,,,,,,,,,
,,6131460946d0022f68082db6,2024-01-06_07h49.55.408,kallum_motion_pilot,2023.2.3,Win32,59.52380952,6131460946d0022f68082db6,6598e6a5d84f07970b831e70,6598e74cc8388ee0fca05a55,0.1345,0.1346,1,6,168,159,1,eightseven,,,,,,,,,,,,,,,,,,,,,,,,,,,,,,,,,,,,,,,,,,,,,,,,,,,,,,,,,,,,,,,,,,,,,,,,,,,,,,,,,,,,,,,,,,,,,,,,,,,,,,,,,,,,,,,,,,,,,,,,,,,,,,,,,,,,,,,
,,6131460946d0022f68082db6,2024-01-06_07h49.55.408,kallum_motion_pilot,2023.2.3,Win32,59.52380952,6131460946d0022f68082db6,6598e6a5d84f07970b831e70,6598e74cc8388ee0fca05a55,0.1347,0.1347,1,7,169,25,1,onethree,,,,,,,,,,,,,,,,,,,,,,,,,,,,,,,,,,,,,,,,,,,,,,,,,,,,,,,,,,,,,,,,,,,,,,,,,,,,,,,,,,,,,,,,,,,,,,,,,,,,,,,,,,,,,,,,,,,,,,,,,,,,,,,,,,,,,,,
,,6131460946d0022f68082db6,2024-01-06_07h49.55.408,kallum_motion_pilot,2023.2.3,Win32,59.52380952,6131460946d0022f68082db6,6598e6a5d84f07970b831e70,6598e74cc8388ee0fca05a55,0.1349,0.1349,1,8,170,15,1,fourthree,,,,,,,,,,,,,,,,,,,,,,,,,,,,,,,,,,,,,,,,,,,,,,,,,,,,,,,,,,,,,,,,,,,,,,,,,,,,,,,,,,,,,,,,,,,,,,,,,,,,,,,,,,,,,,,,,,,,,,,,,,,,,,,,,,,,,,,
,,6131460946d0022f68082db6,2024-01-06_07h49.55.408,kallum_motion_pilot,2023.2.3,Win32,59.52380952,6131460946d0022f68082db6,6598e6a5d84f07970b831e70,6598e74cc8388ee0fca05a55,0.1349,0.135,1,9,171,153,1,fiveseven,,,,,,,,,,,,,,,,,,,,,,,,,,,,,,,,,,,,,,,,,,,,,,,,,,,,,,,,,,,,,,,,,,,,,,,,,,,,,,,,,,,,,,,,,,,,,,,,,,,,,,,,,,,,,,,,,,,,,,,,,,,,,,,,,,,,,,,
,,6131460946d0022f68082db6,2024-01-06_07h49.55.408,kallum_motion_pilot,2023.2.3,Win32,59.52380952,6131460946d0022f68082db6,6598e6a5d84f07970b831e70,6598e74cc8388ee0fca05a55,0.1352,0.1352,1,10,172,44,1,threeone,,,,,,,,,,,,,,,,,,,,,,,,,,,,,,,,,,,,,,,,,,,,,,,,,,,,,,,,,,,,,,,,,,,,,,,,,,,,,,,,,,,,,,,,,,,,,,,,,,,,,,,,,,,,,,,,,,,,,,,,,,,,,,,,,,,,,,,
,,6131460946d0022f68082db6,2024-01-06_07h49.55.408,kallum_motion_pilot,2023.2.3,Win32,59.52380952,6131460946d0022f68082db6,6598e6a5d84f07970b831e70,6598e74cc8388ee0fca05a55,0.1353,0.1354,1,11,173,133,1,seveneight,,,,,,,,,,,,,,,,,,,,,,,,,,,,,,,,,,,,,,,,,,,,,,,,,,,,,,,,,,,,,,,,,,,,,,,,,,,,,,,,,,,,,,,,,,,,,,,,,,,,,,,,,,,,,,,,,,,,,,,,,,,,,,,,,,,,,,,
,,6131460946d0022f68082db6,2024-01-06_07h49.55.408,kallum_motion_pilot,2023.2.3,Win32,59.52380952,6131460946d0022f68082db6,6598e6a5d84f07970b831e70,6598e74cc8388ee0fca05a55,0.1355,0.1355,1,12,174,161,1,fiveseven,,,,,,,,,,,,,,,,,,,,,,,,,,,,,,,,,,,,,,,,,,,,,,,,,,,,,,,,,,,,,,,,,,,,,,,,,,,,,,,,,,,,,,,,,,,,,,,,,,,,,,,,,,,,,,,,,,,,,,,,,,,,,,,,,,,,,,,
,,6131460946d0022f68082db6,2024-01-06_07h49.55.408,kallum_motion_pilot,2023.2.3,Win32,59.52380952,6131460946d0022f68082db6,6598e6a5d84f07970b831e70,6598e74cc8388ee0fca05a55,0.1357,0.1357,1,13,175,30,1,fourtwo,,,,,,,,,,,,,,,,,,,,,,,,,,,,,,,,,,,,,,,,,,,,,,,,,,,,,,,,,,,,,,,,,,,,,,,,,,,,,,,,,,,,,,,,,,,,,,,,,,,,,,,,,,,,,,,,,,,,,,,,,,,,,,,,,,,,,,,
,,6131460946d0022f68082db6,2024-01-06_07h49.55.408,kallum_motion_pilot,2023.2.3,Win32,59.52380952,6131460946d0022f68082db6,6598e6a5d84f07970b831e70,6598e74cc8388ee0fca05a55,0.1358,0.1359,1,14,176,36,1,threeone,,,,,,,,,,,,,,,,,,,,,,,,,,,,,,,,,,,,,,,,,,,,,,,,,,,,,,,,,,,,,,,,,,,,,,,,,,,,,,,,,,,,,,,,,,,,,,,,,,,,,,,,,,,,,,,,,,,,,,,,,,,,,,,,,,,,,,,
,,6131460946d0022f68082db6,2024-01-06_07h49.55.408,kallum_motion_pilot,2023.2.3,Win32,59.52380952,6131460946d0022f68082db6,6598e6a5d84f07970b831e70,6598e74cc8388ee0fca05a55,0.1359,0.136,1,15,177,117,1,seveneight,,,,,,,,,,,,,,,,,,,,,,,,,,,,,,,,,,,,,,,,,,,,,,,,,,,,,,,,,,,,,,,,,,,,,,,,,,,,,,,,,,,,,,,,,,,,,,,,,,,,,,,,,,,,,,,,,,,,,,,,,,,,,,,,,,,,,,,
,,6131460946d0022f68082db6,2024-01-06_07h49.55.408,kallum_motion_pilot,2023.2.3,Win32,59.52380952,6131460946d0022f68082db6,6598e6a5d84f07970b831e70,6598e74cc8388ee0fca05a55,0.1361,0.1362,1,16,178,53,1,threefour,,,,,,,,,,,,,,,,,,,,,,,,,,,,,,,,,,,,,,,,,,,,,,,,,,,,,,,,,,,,,,,,,,,,,,,,,,,,,,,,,,,,,,,,,,,,,,,,,,,,,,,,,,,,,,,,,,,,,,,,,,,,,,,,,,,,,,,
,,6131460946d0022f68082db6,2024-01-06_07h49.55.408,kallum_motion_pilot,2023.2.3,Win32,59.52380952,6131460946d0022f68082db6,6598e6a5d84f07970b831e70,6598e74cc8388ee0fca05a55,0.1363,0.1364,1,17,179,8,1,onetwo,,,,,,,,,,,,,,,,,,,,,,,,,,,,,,,,,,,,,,,,,,,,,,,,,,,,,,,,,,,,,,,,,,,,,,,,,,,,,,,,,,,,,,,,,,,,,,,,,,,,,,,,,,,,,,,,,,,,,,,,,,,,,,,,,,,,,,,
,,6131460946d0022f68082db6,2024-01-06_07h49.55.408,kallum_motion_pilot,2023.2.3,Win32,59.52380952,6131460946d0022f68082db6,6598e6a5d84f07970b831e70,6598e74cc8388ee0fca05a55,0.1364,0.1366,1,18,180,136,1,fivesix,,,,,,,,,,,,,,,,,,,,,,,,,,,,,,,,,,,,,,,,,,,,,,,,,,,,,,,,,,,,,,,,,,,,,,,,,,,,,,,,,,,,,,,,,,,,,,,,,,,,,,,,,,,,,,,,,,,,,,,,,,,,,,,,,,,,,,,
,,6131460946d0022f68082db6,2024-01-06_07h49.55.408,kallum_motion_pilot,2023.2.3,Win32,59.52380952,6131460946d0022f68082db6,6598e6a5d84f07970b831e70,6598e74cc8388ee0fca05a55,0.1368,0.1368,1,19,181,78,1,fourtwo,,,,,,,,,,,,,,,,,,,,,,,,,,,,,,,,,,,,,,,,,,,,,,,,,,,,,,,,,,,,,,,,,,,,,,,,,,,,,,,,,,,,,,,,,,,,,,,,,,,,,,,,,,,,,,,,,,,,,,,,,,,,,,,,,,,,,,,
,,6131460946d0022f68082db6,2024-01-06_07h49.55.408,kallum_motion_pilot,2023.2.3,Win32,59.52380952,6131460946d0022f68082db6,6598e6a5d84f07970b831e70,6598e74cc8388ee0fca05a55,0.137,0.1371,1,20,182,151,1,eightseven,,,,,,,,,,,,,,,,,,,,,,,,,,,,,,,,,,,,,,,,,,,,,,,,,,,,,,,,,,,,,,,,,,,,,,,,,,,,,,,,,,,,,,,,,,,,,,,,,,,,,,,,,,,,,,,,,,,,,,,,,,,,,,,,,,,,,,,
,,6131460946d0022f68082db6,2024-01-06_07h49.55.408,kallum_motion_pilot,2023.2.3,Win32,59.52380952,6131460946d0022f68082db6,6598e6a5d84f07970b831e70,6598e74cc8388ee0fca05a55,0.1371,0.1372,1,21,183,155,1,sixeight,,,,,,,,,,,,,,,,,,,,,,,,,,,,,,,,,,,,,,,,,,,,,,,,,,,,,,,,,,,,,,,,,,,,,,,,,,,,,,,,,,,,,,,,,,,,,,,,,,,,,,,,,,,,,,,,,,,,,,,,,,,,,,,,,,,,,,,
,,6131460946d0022f68082db6,2024-01-06_07h49.55.408,kallum_motion_pilot,2023.2.3,Win32,59.52380952,6131460946d0022f68082db6,6598e6a5d84f07970b831e70,6598e74cc8388ee0fca05a55,0.1374,0.1374,1,22,184,65,1,onethree,,,,,,,,,,,,,,,,,,,,,,,,,,,,,,,,,,,,,,,,,,,,,,,,,,,,,,,,,,,,,,,,,,,,,,,,,,,,,,,,,,,,,,,,,,,,,,,,,,,,,,,,,,,,,,,,,,,,,,,,,,,,,,,,,,,,,,,
,,6131460946d0022f68082db6,2024-01-06_07h49.55.408,kallum_motion_pilot,2023.2.3,Win32,59.52380952,6131460946d0022f68082db6,6598e6a5d84f07970b831e70,6598e74cc8388ee0fca05a55,0.1375,0.1377,1,23,185,145,1,fiveseven,,,,,,,,,,,,,,,,,,,,,,,,,,,,,,,,,,,,,,,,,,,,,,,,,,,,,,,,,,,,,,,,,,,,,,,,,,,,,,,,,,,,,,,,,,,,,,,,,,,,,,,,,,,,,,,,,,,,,,,,,,,,,,,,,,,,,,,
,,6131460946d0022f68082db6,2024-01-06_07h49.55.408,kallum_motion_pilot,2023.2.3,Win32,59.52380952,6131460946d0022f68082db6,6598e6a5d84f07970b831e70,6598e74cc8388ee0fca05a55,0.1379,0.1379,1,24,186,16,1,onetwo,,,,,,,,,,,,,,,,,,,,,,,,,,,,,,,,,,,,,,,,,,,,,,,,,,,,,,,,,,,,,,,,,,,,,,,,,,,,,,,,,,,,,,,,,,,,,,,,,,,,,,,,,,,,,,,,,,,,,,,,,,,,,,,,,,,,,,,
,,6131460946d0022f68082db6,2024-01-06_07h49.55.408,kallum_motion_pilot,2023.2.3,Win32,59.52380952,6131460946d0022f68082db6,6598e6a5d84f07970b831e70,6598e74cc8388ee0fca05a55,0.1381,0.1382,1,25,187,19,1,twofour,,,,,,,,,,,,,,,,,,,,,,,,,,,,,,,,,,,,,,,,,,,,,,,,,,,,,,,,,,,,,,,,,,,,,,,,,,,,,,,,,,,,,,,,,,,,,,,,,,,,,,,,,,,,,,,,,,,,,,,,,,,,,,,,,,,,,,,
,,6131460946d0022f68082db6,2024-01-06_07h49.55.408,kallum_motion_pilot,2023.2.3,Win32,59.52380952,6131460946d0022f68082db6,6598e6a5d84f07970b831e70,6598e74cc8388ee0fca05a55,0.1383,0.1383,1,26,188,7,1,fourthree,,,,,,,,,,,,,,,,,,,,,,,,,,,,,,,,,,,,,,,,,,,,,,,,,,,,,,,,,,,,,,,,,,,,,,,,,,,,,,,,,,,,,,,,,,,,,,,,,,,,,,,,,,,,,,,,,,,,,,,,,,,,,,,,,,,,,,,
,,6131460946d0022f68082db6,2024-01-06_07h49.55.408,kallum_motion_pilot,2023.2.3,Win32,59.52380952,6131460946d0022f68082db6,6598e6a5d84f07970b831e70,6598e74cc8388ee0fca05a55,0.1384,0.1384,1,27,189,48,1,onetwo,,,,,,,,,,,,,,,,,,,,,,,,,,,,,,,,,,,,,,,,,,,,,,,,,,,,,,,,,,,,,,,,,,,,,,,,,,,,,,,,,,,,,,,,,,,,,,,,,,,,,,,,,,,,,,,,,,,,,,,,,,,,,,,,,,,,,,,
,,6131460946d0022f68082db6,2024-01-06_07h49.55.408,kallum_motion_pilot,2023.2.3,Win32,59.52380952,6131460946d0022f68082db6,6598e6a5d84f07970b831e70,6598e74cc8388ee0fca05a55,0.1386,0.1386,1,28,190,76,1,threeone,,,,,,,,,,,,,,,,,,,,,,,,,,,,,,,,,,,,,,,,,,,,,,,,,,,,,,,,,,,,,,,,,,,,,,,,,,,,,,,,,,,,,,,,,,,,,,,,,,,,,,,,,,,,,,,,,,,,,,,,,,,,,,,,,,,,,,,
,,6131460946d0022f68082db6,2024-01-06_07h49.55.408,kallum_motion_pilot,2023.2.3,Win32,59.52380952,6131460946d0022f68082db6,6598e6a5d84f07970b831e70,6598e74cc8388ee0fca05a55,0.1387,0.1388,1,29,191,1,1,onethree,,,,,,,,,,,,,,,,,,,,,,,,,,,,,,,,,,,,,,,,,,,,,,,,,,,,,,,,,,,,,,,,,,,,,,,,,,,,,,,,,,,,,,,,,,,,,,,,,,,,,,,,,,,,,,,,,,,,,,,,,,,,,,,,,,,,,,,
,,6131460946d0022f68082db6,2024-01-06_07h49.55.408,kallum_motion_pilot,2023.2.3,Win32,59.52380952,6131460946d0022f68082db6,6598e6a5d84f07970b831e70,6598e74cc8388ee0fca05a55,0.1389,0.139,1,30,192,68,1,threeone,,,,,,,,,,,,,,,,,,,,,,,,,,,,,,,,,,,,,,,,,,,,,,,,,,,,,,,,,,,,,,,,,,,,,,,,,,,,,,,,,,,,,,,,,,,,,,,,,,,,,,,,,,,,,,,,,,,,,,,,,,,,,,,,,,,,,,,
,,6131460946d0022f68082db6,2024-01-06_07h49.55.408,kallum_motion_pilot,2023.2.3,Win32,59.52380952,6131460946d0022f68082db6,6598e6a5d84f07970b831e70,6598e74cc8388ee0fca05a55,0.1391,0.1392,1,31,193,0,1,onetwo,,,,,,,,,,,,,,,,,,,,,,,,,,,,,,,,,,,,,,,,,,,,,,,,,,,,,,,,,,,,,,,,,,,,,,,,,,,,,,,,,,,,,,,,,,,,,,,,,,,,,,,,,,,,,,,,,,,,,,,,,,,,,,,,,,,,,,,
,,6131460946d0022f68082db6,2024-01-06_07h49.55.408,kallum_motion_pilot,2023.2.3,Win32,59.52380952,6131460946d0022f68082db6,6598e6a5d84f07970b831e70,6598e74cc8388ee0fca05a55,0.1393,0.1394,1,32,194,23,1,fourthree,,,,,,,,,,,,,,,,,,,,,,,,,,,,,,,,,,,,,,,,,,,,,,,,,,,,,,,,,,,,,,,,,,,,,,,,,,,,,,,,,,,,,,,,,,,,,,,,,,,,,,,,,,,,,,,,,,,,,,,,,,,,,,,,,,,,,,,
,,6131460946d0022f68082db6,2024-01-06_07h49.55.408,kallum_motion_pilot,2023.2.3,Win32,59.52380952,6131460946d0022f68082db6,6598e6a5d84f07970b831e70,6598e74cc8388ee0fca05a55,0.1394,0.1396,1,33,195,90,1,sixfive,,,,,,,,,,,,,,,,,,,,,,,,,,,,,,,,,,,,,,,,,,,,,,,,,,,,,,,,,,,,,,,,,,,,,,,,,,,,,,,,,,,,,,,,,,,,,,,,,,,,,,,,,,,,,,,,,,,,,,,,,,,,,,,,,,,,,,,
,,6131460946d0022f68082db6,2024-01-06_07h49.55.408,kallum_motion_pilot,2023.2.3,Win32,59.52380952,6131460946d0022f68082db6,6598e6a5d84f07970b831e70,6598e74cc8388ee0fca05a55,0.1397,0.1397,1,34,196,116,1,sevenfive,,,,,,,,,,,,,,,,,,,,,,,,,,,,,,,,,,,,,,,,,,,,,,,,,,,,,,,,,,,,,,,,,,,,,,,,,,,,,,,,,,,,,,,,,,,,,,,,,,,,,,,,,,,,,,,,,,,,,,,,,,,,,,,,,,,,,,,
,,6131460946d0022f68082db6,2024-01-06_07h49.55.408,kallum_motion_pilot,2023.2.3,Win32,59.52380952,6131460946d0022f68082db6,6598e6a5d84f07970b831e70,6598e74cc8388ee0fca05a55,0.1399,0.1399,1,35,197,47,1,fourthree,,,,,,,,,,,,,,,,,,,,,,,,,,,,,,,,,,,,,,,,,,,,,,,,,,,,,,,,,,,,,,,,,,,,,,,,,,,,,,,,,,,,,,,,,,,,,,,,,,,,,,,,,,,,,,,,,,,,,,,,,,,,,,,,,,,,,,,
,,6131460946d0022f68082db6,2024-01-06_07h49.55.408,kallum_motion_pilot,2023.2.3,Win32,59.52380952,6131460946d0022f68082db6,6598e6a5d84f07970b831e70,6598e74cc8388ee0fca05a55,0.1401,0.1401,1,36,198,92,1,sevenfive,,,,,,,,,,,,,,,,,,,,,,,,,,,,,,,,,,,,,,,,,,,,,,,,,,,,,,,,,,,,,,,,,,,,,,,,,,,,,,,,,,,,,,,,,,,,,,,,,,,,,,,,,,,,,,,,,,,,,,,,,,,,,,,,,,,,,,,
,,6131460946d0022f68082db6,2024-01-06_07h49.55.408,kallum_motion_pilot,2023.2.3,Win32,59.52380952,6131460946d0022f68082db6,6598e6a5d84f07970b831e70,6598e74cc8388ee0fca05a55,0.1401,0.1402,1,37,199,108,1,sevenfive,,,,,,,,,,,,,,,,,,,,,,,,,,,,,,,,,,,,,,,,,,,,,,,,,,,,,,,,,,,,,,,,,,,,,,,,,,,,,,,,,,,,,,,,,,,,,,,,,,,,,,,,,,,,,,,,,,,,,,,,,,,,,,,,,,,,,,,
,,6131460946d0022f68082db6,2024-01-06_07h49.55.408,kallum_motion_pilot,2023.2.3,Win32,59.52380952,6131460946d0022f68082db6,6598e6a5d84f07970b831e70,6598e74cc8388ee0fca05a55,0.1403,0.1404,1,38,200,81,1,fiveseven,,,,,,,,,,,,,,,,,,,,,,,,,,,,,,,,,,,,,,,,,,,,,,,,,,,,,,,,,,,,,,,,,,,,,,,,,,,,,,,,,,,,,,,,,,,,,,,,,,,,,,,,,,,,,,,,,,,,,,,,,,,,,,,,,,,,,,,
,,6131460946d0022f68082db6,2024-01-06_07h49.55.408,kallum_motion_pilot,2023.2.3,Win32,59.52380952,6131460946d0022f68082db6,6598e6a5d84f07970b831e70,6598e74cc8388ee0fca05a55,0.1405,0.1406,1,39,201,38,1,fourtwo,,,,,,,,,,,,,,,,,,,,,,,,,,,,,,,,,,,,,,,,,,,,,,,,,,,,,,,,,,,,,,,,,,,,,,,,,,,,,,,,,,,,,,,,,,,,,,,,,,,,,,,,,,,,,,,,,,,,,,,,,,,,,,,,,,,,,,,
,,6131460946d0022f68082db6,2024-01-06_07h49.55.408,kallum_motion_pilot,2023.2.3,Win32,59.52380952,6131460946d0022f68082db6,6598e6a5d84f07970b831e70,6598e74cc8388ee0fca05a55,0.1406,0.1408,1,40,202,27,1,twofour,,,,,,,,,,,,,,,,,,,,,,,,,,,,,,,,,,,,,,,,,,,,,,,,,,,,,,,,,,,,,,,,,,,,,,,,,,,,,,,,,,,,,,,,,,,,,,,,,,,,,,,,,,,,,,,,,,,,,,,,,,,,,,,,,,,,,,,
,,6131460946d0022f68082db6,2024-01-06_07h49.55.408,kallum_motion_pilot,2023.2.3,Win32,59.52380952,6131460946d0022f68082db6,6598e6a5d84f07970b831e70,6598e74cc8388ee0fca05a55,0.1408,0.1409,1,41,203,11,1,twofour,,,,,,,,,,,,,,,,,,,,,,,,,,,,,,,,,,,,,,,,,,,,,,,,,,,,,,,,,,,,,,,,,,,,,,,,,,,,,,,,,,,,,,,,,,,,,,,,,,,,,,,,,,,,,,,,,,,,,,,,,,,,,,,,,,,,,,,
,,6131460946d0022f68082db6,2024-01-06_07h49.55.408,kallum_motion_pilot,2023.2.3,Win32,59.52380952,6131460946d0022f68082db6,6598e6a5d84f07970b831e70,6598e74cc8388ee0fca05a55,0.1411,0.1411,1,42,204,147,1,sixeight,,,,,,,,,,,,,,,,,,,,,,,,,,,,,,,,,,,,,,,,,,,,,,,,,,,,,,,,,,,,,,,,,,,,,,,,,,,,,,,,,,,,,,,,,,,,,,,,,,,,,,,,,,,,,,,,,,,,,,,,,,,,,,,,,,,,,,,
,,6131460946d0022f68082db6,2024-01-06_07h49.55.408,kallum_motion_pilot,2023.2.3,Win32,59.52380952,6131460946d0022f68082db6,6598e6a5d84f07970b831e70,6598e74cc8388ee0fca05a55,0.1412,0.1413,1,43,205,37,1,threefour,,,,,,,,,,,,,,,,,,,,,,,,,,,,,,,,,,,,,,,,,,,,,,,,,,,,,,,,,,,,,,,,,,,,,,,,,,,,,,,,,,,,,,,,,,,,,,,,,,,,,,,,,,,,,,,,,,,,,,,,,,,,,,,,,,,,,,,
,,6131460946d0022f68082db6,2024-01-06_07h49.55.408,kallum_motion_pilot,2023.2.3,Win32,59.52380952,6131460946d0022f68082db6,6598e6a5d84f07970b831e70,6598e74cc8388ee0fca05a55,0.1414,0.1415,1,44,206,130,1,sixfive,,,,,,,,,,,,,,,,,,,,,,,,,,,,,,,,,,,,,,,,,,,,,,,,,,,,,,,,,,,,,,,,,,,,,,,,,,,,,,,,,,,,,,,,,,,,,,,,,,,,,,,,,,,,,,,,,,,,,,,,,,,,,,,,,,,,,,,
,,6131460946d0022f68082db6,2024-01-06_07h49.55.408,kallum_motion_pilot,2023.2.3,Win32,59.52380952,6131460946d0022f68082db6,6598e6a5d84f07970b831e70,6598e74cc8388ee0fca05a55,0.1417,0.1417,1,45,207,21,1,threefour,,,,,,,,,,,,,,,,,,,,,,,,,,,,,,,,,,,,,,,,,,,,,,,,,,,,,,,,,,,,,,,,,,,,,,,,,,,,,,,,,,,,,,,,,,,,,,,,,,,,,,,,,,,,,,,,,,,,,,,,,,,,,,,,,,,,,,,
,,6131460946d0022f68082db6,2024-01-06_07h49.55.408,kallum_motion_pilot,2023.2.3,Win32,59.52380952,6131460946d0022f68082db6,6598e6a5d84f07970b831e70,6598e74cc8388ee0fca05a55,0.1418,0.1418,1,46,208,122,1,sixfive,,,,,,,,,,,,,,,,,,,,,,,,,,,,,,,,,,,,,,,,,,,,,,,,,,,,,,,,,,,,,,,,,,,,,,,,,,,,,,,,,,,,,,,,,,,,,,,,,,,,,,,,,,,,,,,,,,,,,,,,,,,,,,,,,,,,,,,
,,6131460946d0022f68082db6,2024-01-06_07h49.55.408,kallum_motion_pilot,2023.2.3,Win32,59.52380952,6131460946d0022f68082db6,6598e6a5d84f07970b831e70,6598e74cc8388ee0fca05a55,0.1419,0.142,1,47,209,142,1,eightsix,,,,,,,,,,,,,,,,,,,,,,,,,,,,,,,,,,,,,,,,,,,,,,,,,,,,,,,,,,,,,,,,,,,,,,,,,,,,,,,,,,,,,,,,,,,,,,,,,,,,,,,,,,,,,,,,,,,,,,,,,,,,,,,,,,,,,,,
,,6131460946d0022f68082db6,2024-01-06_07h49.55.408,kallum_motion_pilot,2023.2.3,Win32,59.52380952,6131460946d0022f68082db6,6598e6a5d84f07970b831e70,6598e74cc8388ee0fca05a55,0.142,0.1421,1,48,210,115,1,sixeight,,,,,,,,,,,,,,,,,,,,,,,,,,,,,,,,,,,,,,,,,,,,,,,,,,,,,,,,,,,,,,,,,,,,,,,,,,,,,,,,,,,,,,,,,,,,,,,,,,,,,,,,,,,,,,,,,,,,,,,,,,,,,,,,,,,,,,,
,,6131460946d0022f68082db6,2024-01-06_07h49.55.408,kallum_motion_pilot,2023.2.3,Win32,59.52380952,6131460946d0022f68082db6,6598e6a5d84f07970b831e70,6598e74cc8388ee0fca05a55,0.1422,0.1423,1,49,211,143,1,eightseven,,,,,,,,,,,,,,,,,,,,,,,,,,,,,,,,,,,,,,,,,,,,,,,,,,,,,,,,,,,,,,,,,,,,,,,,,,,,,,,,,,,,,,,,,,,,,,,,,,,,,,,,,,,,,,,,,,,,,,,,,,,,,,,,,,,,,,,
,,6131460946d0022f68082db6,2024-01-06_07h49.55.408,kallum_motion_pilot,2023.2.3,Win32,59.52380952,6131460946d0022f68082db6,6598e6a5d84f07970b831e70,6598e74cc8388ee0fca05a55,0.1424,0.1424,1,50,212,138,1,sixfive,,,,,,,,,,,,,,,,,,,,,,,,,,,,,,,,,,,,,,,,,,,,,,,,,,,,,,,,,,,,,,,,,,,,,,,,,,,,,,,,,,,,,,,,,,,,,,,,,,,,,,,,,,,,,,,,,,,,,,,,,,,,,,,,,,,,,,,
,,6131460946d0022f68082db6,2024-01-06_07h49.55.408,kallum_motion_pilot,2023.2.3,Win32,59.52380952,6131460946d0022f68082db6,6598e6a5d84f07970b831e70,6598e74cc8388ee0fca05a55,0.1425,0.1426,1,51,213,80,1,fivesix,,,,,,,,,,,,,,,,,,,,,,,,,,,,,,,,,,,,,,,,,,,,,,,,,,,,,,,,,,,,,,,,,,,,,,,,,,,,,,,,,,,,,,,,,,,,,,,,,,,,,,,,,,,,,,,,,,,,,,,,,,,,,,,,,,,,,,,
,,6131460946d0022f68082db6,2024-01-06_07h49.55.408,kallum_motion_pilot,2023.2.3,Win32,59.52380952,6131460946d0022f68082db6,6598e6a5d84f07970b831e70,6598e74cc8388ee0fca05a55,0.1427,0.1428,1,52,214,17,1,onethree,,,,,,,,,,,,,,,,,,,,,,,,,,,,,,,,,,,,,,,,,,,,,,,,,,,,,,,,,,,,,,,,,,,,,,,,,,,,,,,,,,,,,,,,,,,,,,,,,,,,,,,,,,,,,,,,,,,,,,,,,,,,,,,,,,,,,,,
,,6131460946d0022f68082db6,2024-01-06_07h49.55.408,kallum_motion_pilot,2023.2.3,Win32,59.52380952,6131460946d0022f68082db6,6598e6a5d84f07970b831e70,6598e74cc8388ee0fca05a55,0.1429,0.143,1,53,215,2,1,twoone,,,,,,,,,,,,,,,,,,,,,,,,,,,,,,,,,,,,,,,,,,,,,,,,,,,,,,,,,,,,,,,,,,,,,,,,,,,,,,,,,,,,,,,,,,,,,,,,,,,,,,,,,,,,,,,,,,,,,,,,,,,,,,,,,,,,,,,
,,6131460946d0022f68082db6,2024-01-06_07h49.55.408,kallum_motion_pilot,2023.2.3,Win32,59.52380952,6131460946d0022f68082db6,6598e6a5d84f07970b831e70,6598e74cc8388ee0fca05a55,0.143,0.1431,1,54,216,51,1,twofour,,,,,,,,,,,,,,,,,,,,,,,,,,,,,,,,,,,,,,,,,,,,,,,,,,,,,,,,,,,,,,,,,,,,,,,,,,,,,,,,,,,,,,,,,,,,,,,,,,,,,,,,,,,,,,,,,,,,,,,,,,,,,,,,,,,,,,,
,,6131460946d0022f68082db6,2024-01-06_07h49.55.408,kallum_motion_pilot,2023.2.3,Win32,59.52380952,6131460946d0022f68082db6,6598e6a5d84f07970b831e70,6598e74cc8388ee0fca05a55,0.1432,0.1433,1,55,217,22,1,fourtwo,,,,,,,,,,,,,,,,,,,,,,,,,,,,,,,,,,,,,,,,,,,,,,,,,,,,,,,,,,,,,,,,,,,,,,,,,,,,,,,,,,,,,,,,,,,,,,,,,,,,,,,,,,,,,,,,,,,,,,,,,,,,,,,,,,,,,,,
,,6131460946d0022f68082db6,2024-01-06_07h49.55.408,kallum_motion_pilot,2023.2.3,Win32,59.52380952,6131460946d0022f68082db6,6598e6a5d84f07970b831e70,6598e74cc8388ee0fca05a55,0.1433,0.1434,1,56,218,35,1,twofour,,,,,,,,,,,,,,,,,,,,,,,,,,,,,,,,,,,,,,,,,,,,,,,,,,,,,,,,,,,,,,,,,,,,,,,,,,,,,,,,,,,,,,,,,,,,,,,,,,,,,,,,,,,,,,,,,,,,,,,,,,,,,,,,,,,,,,,
,,6131460946d0022f68082db6,2024-01-06_07h49.55.408,kallum_motion_pilot,2023.2.3,Win32,59.52380952,6131460946d0022f68082db6,6598e6a5d84f07970b831e70,6598e74cc8388ee0fca05a55,0.1434,0.1436,1,57,219,5,1,threefour,,,,,,,,,,,,,,,,,,,,,,,,,,,,,,,,,,,,,,,,,,,,,,,,,,,,,,,,,,,,,,,,,,,,,,,,,,,,,,,,,,,,,,,,,,,,,,,,,,,,,,,,,,,,,,,,,,,,,,,,,,,,,,,,,,,,,,,
,,6131460946d0022f68082db6,2024-01-06_07h49.55.408,kallum_motion_pilot,2023.2.3,Win32,59.52380952,6131460946d0022f68082db6,6598e6a5d84f07970b831e70,6598e74cc8388ee0fca05a55,0.1437,0.1437,1,58,220,96,1,fivesix,,,,,,,,,,,,,,,,,,,,,,,,,,,,,,,,,,,,,,,,,,,,,,,,,,,,,,,,,,,,,,,,,,,,,,,,,,,,,,,,,,,,,,,,,,,,,,,,,,,,,,,,,,,,,,,,,,,,,,,,,,,,,,,,,,,,,,,
,,6131460946d0022f68082db6,2024-01-06_07h49.55.408,kallum_motion_pilot,2023.2.3,Win32,59.52380952,6131460946d0022f68082db6,6598e6a5d84f07970b831e70,6598e74cc8388ee0fca05a55,0.1438,0.1439,1,59,221,43,1,twofour,,,,,,,,,,,,,,,,,,,,,,,,,,,,,,,,,,,,,,,,,,,,,,,,,,,,,,,,,,,,,,,,,,,,,,,,,,,,,,,,,,,,,,,,,,,,,,,,,,,,,,,,,,,,,,,,,,,,,,,,,,,,,,,,,,,,,,,
,,6131460946d0022f68082db6,2024-01-06_07h49.55.408,kallum_motion_pilot,2023.2.3,Win32,59.52380952,6131460946d0022f68082db6,6598e6a5d84f07970b831e70,6598e74cc8388ee0fca05a55,0.144,0.1441,1,60,222,109,1,seveneight,,,,,,,,,,,,,,,,,,,,,,,,,,,,,,,,,,,,,,,,,,,,,,,,,,,,,,,,,,,,,,,,,,,,,,,,,,,,,,,,,,,,,,,,,,,,,,,,,,,,,,,,,,,,,,,,,,,,,,,,,,,,,,,,,,,,,,,
,,6131460946d0022f68082db6,2024-01-06_07h49.55.408,kallum_motion_pilot,2023.2.3,Win32,59.52380952,6131460946d0022f68082db6,6598e6a5d84f07970b831e70,6598e74cc8388ee0fca05a55,0.1442,0.1443,1,61,223,150,1,eightsix,,,,,,,,,,,,,,,,,,,,,,,,,,,,,,,,,,,,,,,,,,,,,,,,,,,,,,,,,,,,,,,,,,,,,,,,,,,,,,,,,,,,,,,,,,,,,,,,,,,,,,,,,,,,,,,,,,,,,,,,,,,,,,,,,,,,,,,
,,6131460946d0022f68082db6,2024-01-06_07h49.55.408,kallum_motion_pilot,2023.2.3,Win32,59.52380952,6131460946d0022f68082db6,6598e6a5d84f07970b831e70,6598e74cc8388ee0fca05a55,0.1444,0.1445,1,62,224,77,1,threefour,,,,,,,,,,,,,,,,,,,,,,,,,,,,,,,,,,,,,,,,,,,,,,,,,,,,,,,,,,,,,,,,,,,,,,,,,,,,,,,,,,,,,,,,,,,,,,,,,,,,,,,,,,,,,,,,,,,,,,,,,,,,,,,,,,,,,,,
,,6131460946d0022f68082db6,2024-01-06_07h49.55.408,kallum_motion_pilot,2023.2.3,Win32,59.52380952,6131460946d0022f68082db6,6598e6a5d84f07970b831e70,6598e74cc8388ee0fca05a55,0.1446,0.1447,1,63,225,9,1,onethree,,,,,,,,,,,,,,,,,,,,,,,,,,,,,,,,,,,,,,,,,,,,,,,,,,,,,,,,,,,,,,,,,,,,,,,,,,,,,,,,,,,,,,,,,,,,,,,,,,,,,,,,,,,,,,,,,,,,,,,,,,,,,,,,,,,,,,,
,,6131460946d0022f68082db6,2024-01-06_07h49.55.408,kallum_motion_pilot,2023.2.3,Win32,59.52380952,6131460946d0022f68082db6,6598e6a5d84f07970b831e70,6598e74cc8388ee0fca05a55,0.1447,0.1448,1,64,226,70,1,fourtwo,,,,,,,,,,,,,,,,,,,,,,,,,,,,,,,,,,,,,,,,,,,,,,,,,,,,,,,,,,,,,,,,,,,,,,,,,,,,,,,,,,,,,,,,,,,,,,,,,,,,,,,,,,,,,,,,,,,,,,,,,,,,,,,,,,,,,,,
,,6131460946d0022f68082db6,2024-01-06_07h49.55.408,kallum_motion_pilot,2023.2.3,Win32,59.52380952,6131460946d0022f68082db6,6598e6a5d84f07970b831e70,6598e74cc8388ee0fca05a55,0.1449,0.1451,1,65,227,41,1,onethree,,,,,,,,,,,,,,,,,,,,,,,,,,,,,,,,,,,,,,,,,,,,,,,,,,,,,,,,,,,,,,,,,,,,,,,,,,,,,,,,,,,,,,,,,,,,,,,,,,,,,,,,,,,,,,,,,,,,,,,,,,,,,,,,,,,,,,,
,,6131460946d0022f68082db6,2024-01-06_07h49.55.408,kallum_motion_pilot,2023.2.3,Win32,59.52380952,6131460946d0022f68082db6,6598e6a5d84f07970b831e70,6598e74cc8388ee0fca05a55,0.1451,0.1452,1,66,228,54,1,fourtwo,,,,,,,,,,,,,,,,,,,,,,,,,,,,,,,,,,,,,,,,,,,,,,,,,,,,,,,,,,,,,,,,,,,,,,,,,,,,,,,,,,,,,,,,,,,,,,,,,,,,,,,,,,,,,,,,,,,,,,,,,,,,,,,,,,,,,,,
,,6131460946d0022f68082db6,2024-01-06_07h49.55.408,kallum_motion_pilot,2023.2.3,Win32,59.52380952,6131460946d0022f68082db6,6598e6a5d84f07970b831e70,6598e74cc8388ee0fca05a55,0.1453,0.1453,1,67,229,24,1,onetwo,,,,,,,,,,,,,,,,,,,,,,,,,,,,,,,,,,,,,,,,,,,,,,,,,,,,,,,,,,,,,,,,,,,,,,,,,,,,,,,,,,,,,,,,,,,,,,,,,,,,,,,,,,,,,,,,,,,,,,,,,,,,,,,,,,,,,,,
,,6131460946d0022f68082db6,2024-01-06_07h49.55.408,kallum_motion_pilot,2023.2.3,Win32,59.52380952,6131460946d0022f68082db6,6598e6a5d84f07970b831e70,6598e74cc8388ee0fca05a55,0.1455,0.1456,1,68,230,134,1,eightsix,,,,,,,,,,,,,,,,,,,,,,,,,,,,,,,,,,,,,,,,,,,,,,,,,,,,,,,,,,,,,,,,,,,,,,,,,,,,,,,,,,,,,,,,,,,,,,,,,,,,,,,,,,,,,,,,,,,,,,,,,,,,,,,,,,,,,,,
,,6131460946d0022f68082db6,2024-01-06_07h49.55.408,kallum_motion_pilot,2023.2.3,Win32,59.52380952,6131460946d0022f68082db6,6598e6a5d84f07970b831e70,6598e74cc8388ee0fca05a55,0.1456,0.1456,1,69,231,94,1,eightsix,,,,,,,,,,,,,,,,,,,,,,,,,,,,,,,,,,,,,,,,,,,,,,,,,,,,,,,,,,,,,,,,,,,,,,,,,,,,,,,,,,,,,,,,,,,,,,,,,,,,,,,,,,,,,,,,,,,,,,,,,,,,,,,,,,,,,,,
,,6131460946d0022f68082db6,2024-01-06_07h49.55.408,kallum_motion_pilot,2023.2.3,Win32,59.52380952,6131460946d0022f68082db6,6598e6a5d84f07970b831e70,6598e74cc8388ee0fca05a55,0.1458,0.1459,1,70,232,110,1,eightsix,,,,,,,,,,,,,,,,,,,,,,,,,,,,,,,,,,,,,,,,,,,,,,,,,,,,,,,,,,,,,,,,,,,,,,,,,,,,,,,,,,,,,,,,,,,,,,,,,,,,,,,,,,,,,,,,,,,,,,,,,,,,,,,,,,,,,,,
,,6131460946d0022f68082db6,2024-01-06_07h49.55.408,kallum_motion_pilot,2023.2.3,Win32,59.52380952,6131460946d0022f68082db6,6598e6a5d84f07970b831e70,6598e74cc8388ee0fca05a55,0.1459,0.1461,1,71,233,10,1,twoone,,,,,,,,,,,,,,,,,,,,,,,,,,,,,,,,,,,,,,,,,,,,,,,,,,,,,,,,,,,,,,,,,,,,,,,,,,,,,,,,,,,,,,,,,,,,,,,,,,,,,,,,,,,,,,,,,,,,,,,,,,,,,,,,,,,,,,,
,,6131460946d0022f68082db6,2024-01-06_07h49.55.408,kallum_motion_pilot,2023.2.3,Win32,59.52380952,6131460946d0022f68082db6,6598e6a5d84f07970b831e70,6598e74cc8388ee0fca05a55,0.1461,0.1462,1,72,234,127,1,eightseven,,,,,,,,,,,,,,,,,,,,,,,,,,,,,,,,,,,,,,,,,,,,,,,,,,,,,,,,,,,,,,,,,,,,,,,,,,,,,,,,,,,,,,,,,,,,,,,,,,,,,,,,,,,,,,,,,,,,,,,,,,,,,,,,,,,,,,,
,,6131460946d0022f68082db6,2024-01-06_07h49.55.408,kallum_motion_pilot,2023.2.3,Win32,59.52380952,6131460946d0022f68082db6,6598e6a5d84f07970b831e70,6598e74cc8388ee0fca05a55,0.1463,0.1464,1,73,235,74,1,twoone,,,,,,,,,,,,,,,,,,,,,,,,,,,,,,,,,,,,,,,,,,,,,,,,,,,,,,,,,,,,,,,,,,,,,,,,,,,,,,,,,,,,,,,,,,,,,,,,,,,,,,,,,,,,,,,,,,,,,,,,,,,,,,,,,,,,,,,
,,6131460946d0022f68082db6,2024-01-06_07h49.55.408,kallum_motion_pilot,2023.2.3,Win32,59.52380952,6131460946d0022f68082db6,6598e6a5d84f07970b831e70,6598e74cc8388ee0fca05a55,0.1464,0.1466,1,74,236,71,1,fourthree,,,,,,,,,,,,,,,,,,,,,,,,,,,,,,,,,,,,,,,,,,,,,,,,,,,,,,,,,,,,,,,,,,,,,,,,,,,,,,,,,,,,,,,,,,,,,,,,,,,,,,,,,,,,,,,,,,,,,,,,,,,,,,,,,,,,,,,
,,6131460946d0022f68082db6,2024-01-06_07h49.55.408,kallum_motion_pilot,2023.2.3,Win32,59.52380952,6131460946d0022f68082db6,6598e6a5d84f07970b831e70,6598e74cc8388ee0fca05a55,0.1467,0.1468,1,75,237,45,1,threefour,,,,,,,,,,,,,,,,,,,,,,,,,,,,,,,,,,,,,,,,,,,,,,,,,,,,,,,,,,,,,,,,,,,,,,,,,,,,,,,,,,,,,,,,,,,,,,,,,,,,,,,,,,,,,,,,,,,,,,,,,,,,,,,,,,,,,,,
,,6131460946d0022f68082db6,2024-01-06_07h49.55.408,kallum_motion_pilot,2023.2.3,Win32,59.52380952,6131460946d0022f68082db6,6598e6a5d84f07970b831e70,6598e74cc8388ee0fca05a55,0.1469,0.147,1,76,238,62,1,fourtwo,,,,,,,,,,,,,,,,,,,,,,,,,,,,,,,,,,,,,,,,,,,,,,,,,,,,,,,,,,,,,,,,,,,,,,,,,,,,,,,,,,,,,,,,,,,,,,,,,,,,,,,,,,,,,,,,,,,,,,,,,,,,,,,,,,,,,,,
,,6131460946d0022f68082db6,2024-01-06_07h49.55.408,kallum_motion_pilot,2023.2.3,Win32,59.52380952,6131460946d0022f68082db6,6598e6a5d84f07970b831e70,6598e74cc8388ee0fca05a55,0.1471,0.1471,1,77,239,148,1,sevenfive,,,,,,,,,,,,,,,,,,,,,,,,,,,,,,,,,,,,,,,,,,,,,,,,,,,,,,,,,,,,,,,,,,,,,,,,,,,,,,,,,,,,,,,,,,,,,,,,,,,,,,,,,,,,,,,,,,,,,,,,,,,,,,,,,,,,,,,
,,6131460946d0022f68082db6,2024-01-06_07h49.55.408,kallum_motion_pilot,2023.2.3,Win32,59.52380952,6131460946d0022f68082db6,6598e6a5d84f07970b831e70,6598e74cc8388ee0fca05a55,0.1472,0.1472,1,78,240,20,1,threeone,,,,,,,,,,,,,,,,,,,,,,,,,,,,,,,,,,,,,,,,,,,,,,,,,,,,,,,,,,,,,,,,,,,,,,,,,,,,,,,,,,,,,,,,,,,,,,,,,,,,,,,,,,,,,,,,,,,,,,,,,,,,,,,,,,,,,,,
,,6131460946d0022f68082db6,2024-01-06_07h49.55.408,kallum_motion_pilot,2023.2.3,Win32,59.52380952,6131460946d0022f68082db6,6598e6a5d84f07970b831e70,6598e74cc8388ee0fca05a55,0.1474,0.1475,1,79,241,69,1,threefour,,,,,,,,,,,,,,,,,,,,,,,,,,,,,,,,,,,,,,,,,,,,,,,,,,,,,,,,,,,,,,,,,,,,,,,,,,,,,,,,,,,,,,,,,,,,,,,,,,,,,,,,,,,,,,,,,,,,,,,,,,,,,,,,,,,,,,,
,,6131460946d0022f68082db6,2024-01-06_07h49.55.408,kallum_motion_pilot,2023.2.3,Win32,59.52380952,6131460946d0022f68082db6,6598e6a5d84f07970b831e70,6598e74cc8388ee0fca05a55,0.1476,0.1476,1,80,242,100,1,sevenfive,,,,,,,,,,,,,,,,,,,,,,,,,,,,,,,,,,,,,,,,,,,,,,,,,,,,,,,,,,,,,,,,,,,,,,,,,,,,,,,,,,,,,,,,,,,,,,,,,,,,,,,,,,,,,,,,,,,,,,,,,,,,,,,,,,,,,,,
,,6131460946d0022f68082db6,2024-01-06_07h49.55.408,kallum_motion_pilot,2023.2.3,Win32,59.52380952,6131460946d0022f68082db6,6598e6a5d84f07970b831e70,6598e74cc8388ee0fca05a55,0.1477,0.1478,1,81,243,28,1,threeone,,,,,,,,,,,,,,,,,,,,,,,,,,,,,,,,,,,,,,,,,,,,,,,,,,,,,,,,,,,,,,,,,,,,,,,,,,,,,,,,,,,,,,,,,,,,,,,,,,,,,,,,,,,,,,,,,,,,,,,,,,,,,,,,,,,,,,,
,,6131460946d0022f68082db6,2024-01-06_07h49.55.408,kallum_motion_pilot,2023.2.3,Win32,59.52380952,6131460946d0022f68082db6,6598e6a5d84f07970b831e70,6598e74cc8388ee0fca05a55,0.1478,0.1479,1,82,244,50,1,twoone,,,,,,,,,,,,,,,,,,,,,,,,,,,,,,,,,,,,,,,,,,,,,,,,,,,,,,,,,,,,,,,,,,,,,,,,,,,,,,,,,,,,,,,,,,,,,,,,,,,,,,,,,,,,,,,,,,,,,,,,,,,,,,,,,,,,,,,
,,6131460946d0022f68082db6,2024-01-06_07h49.55.408,kallum_motion_pilot,2023.2.3,Win32,59.52380952,6131460946d0022f68082db6,6598e6a5d84f07970b831e70,6598e74cc8388ee0fca05a55,0.148,0.1481,1,83,245,63,1,fourthree,,,,,,,,,,,,,,,,,,,,,,,,,,,,,,,,,,,,,,,,,,,,,,,,,,,,,,,,,,,,,,,,,,,,,,,,,,,,,,,,,,,,,,,,,,,,,,,,,,,,,,,,,,,,,,,,,,,,,,,,,,,,,,,,,,,,,,,
,,6131460946d0022f68082db6,2024-01-06_07h49.55.408,kallum_motion_pilot,2023.2.3,Win32,59.52380952,6131460946d0022f68082db6,6598e6a5d84f07970b831e70,6598e74cc8388ee0fca05a55,0.1482,0.1483,1,84,246,158,1,eightsix,,,,,,,,,,,,,,,,,,,,,,,,,,,,,,,,,,,,,,,,,,,,,,,,,,,,,,,,,,,,,,,,,,,,,,,,,,,,,,,,,,,,,,,,,,,,,,,,,,,,,,,,,,,,,,,,,,,,,,,,,,,,,,,,,,,,,,,
,,6131460946d0022f68082db6,2024-01-06_07h49.55.408,kallum_motion_pilot,2023.2.3,Win32,59.52380952,6131460946d0022f68082db6,6598e6a5d84f07970b831e70,6598e74cc8388ee0fca05a55,0.1484,0.1485,1,85,247,157,1,seveneight,,,,,,,,,,,,,,,,,,,,,,,,,,,,,,,,,,,,,,,,,,,,,,,,,,,,,,,,,,,,,,,,,,,,,,,,,,,,,,,,,,,,,,,,,,,,,,,,,,,,,,,,,,,,,,,,,,,,,,,,,,,,,,,,,,,,,,,
,,6131460946d0022f68082db6,2024-01-06_07h49.55.408,kallum_motion_pilot,2023.2.3,Win32,59.52380952,6131460946d0022f68082db6,6598e6a5d84f07970b831e70,6598e74cc8388ee0fca05a55,0.1485,0.1486,1,86,248,146,1,sixfive,,,,,,,,,,,,,,,,,,,,,,,,,,,,,,,,,,,,,,,,,,,,,,,,,,,,,,,,,,,,,,,,,,,,,,,,,,,,,,,,,,,,,,,,,,,,,,,,,,,,,,,,,,,,,,,,,,,,,,,,,,,,,,,,,,,,,,,
,,6131460946d0022f68082db6,2024-01-06_07h49.55.408,kallum_motion_pilot,2023.2.3,Win32,59.52380952,6131460946d0022f68082db6,6598e6a5d84f07970b831e70,6598e74cc8388ee0fca05a55,0.1487,0.1488,1,87,249,135,1,eightseven,,,,,,,,,,,,,,,,,,,,,,,,,,,,,,,,,,,,,,,,,,,,,,,,,,,,,,,,,,,,,,,,,,,,,,,,,,,,,,,,,,,,,,,,,,,,,,,,,,,,,,,,,,,,,,,,,,,,,,,,,,,,,,,,,,,,,,,
,,6131460946d0022f68082db6,2024-01-06_07h49.55.408,kallum_motion_pilot,2023.2.3,Win32,59.52380952,6131460946d0022f68082db6,6598e6a5d84f07970b831e70,6598e74cc8388ee0fca05a55,0.1489,0.1489,1,88,250,97,1,fiveseven,,,,,,,,,,,,,,,,,,,,,,,,,,,,,,,,,,,,,,,,,,,,,,,,,,,,,,,,,,,,,,,,,,,,,,,,,,,,,,,,,,,,,,,,,,,,,,,,,,,,,,,,,,,,,,,,,,,,,,,,,,,,,,,,,,,,,,,
,,6131460946d0022f68082db6,2024-01-06_07h49.55.408,kallum_motion_pilot,2023.2.3,Win32,59.52380952,6131460946d0022f68082db6,6598e6a5d84f07970b831e70,6598e74cc8388ee0fca05a55,0.149,0.1491,1,89,251,6,1,fourtwo,,,,,,,,,,,,,,,,,,,,,,,,,,,,,,,,,,,,,,,,,,,,,,,,,,,,,,,,,,,,,,,,,,,,,,,,,,,,,,,,,,,,,,,,,,,,,,,,,,,,,,,,,,,,,,,,,,,,,,,,,,,,,,,,,,,,,,,
,,6131460946d0022f68082db6,2024-01-06_07h49.55.408,kallum_motion_pilot,2023.2.3,Win32,59.52380952,6131460946d0022f68082db6,6598e6a5d84f07970b831e70,6598e74cc8388ee0fca05a55,0.1492,0.1493,1,90,252,33,1,onethree,,,,,,,,,,,,,,,,,,,,,,,,,,,,,,,,,,,,,,,,,,,,,,,,,,,,,,,,,,,,,,,,,,,,,,,,,,,,,,,,,,,,,,,,,,,,,,,,,,,,,,,,,,,,,,,,,,,,,,,,,,,,,,,,,,,,,,,
,,6131460946d0022f68082db6,2024-01-06_07h49.55.408,kallum_motion_pilot,2023.2.3,Win32,59.52380952,6131460946d0022f68082db6,6598e6a5d84f07970b831e70,6598e74cc8388ee0fca05a55,0.1493,0.1495,1,91,253,95,1,eightseven,,,,,,,,,,,,,,,,,,,,,,,,,,,,,,,,,,,,,,,,,,,,,,,,,,,,,,,,,,,,,,,,,,,,,,,,,,,,,,,,,,,,,,,,,,,,,,,,,,,,,,,,,,,,,,,,,,,,,,,,,,,,,,,,,,,,,,,
,,6131460946d0022f68082db6,2024-01-06_07h49.55.408,kallum_motion_pilot,2023.2.3,Win32,59.52380952,6131460946d0022f68082db6,6598e6a5d84f07970b831e70,6598e74cc8388ee0fca05a55,0.1495,0.1496,1,92,254,102,1,eightsix,,,,,,,,,,,,,,,,,,,,,,,,,,,,,,,,,,,,,,,,,,,,,,,,,,,,,,,,,,,,,,,,,,,,,,,,,,,,,,,,,,,,,,,,,,,,,,,,,,,,,,,,,,,,,,,,,,,,,,,,,,,,,,,,,,,,,,,
,,6131460946d0022f68082db6,2024-01-06_07h49.55.408,kallum_motion_pilot,2023.2.3,Win32,59.52380952,6131460946d0022f68082db6,6598e6a5d84f07970b831e70,6598e74cc8388ee0fca05a55,0.1498,0.1498,1,93,255,120,1,fivesix,,,,,,,,,,,,,,,,,,,,,,,,,,,,,,,,,,,,,,,,,,,,,,,,,,,,,,,,,,,,,,,,,,,,,,,,,,,,,,,,,,,,,,,,,,,,,,,,,,,,,,,,,,,,,,,,,,,,,,,,,,,,,,,,,,,,,,,
,,6131460946d0022f68082db6,2024-01-06_07h49.55.408,kallum_motion_pilot,2023.2.3,Win32,59.52380952,6131460946d0022f68082db6,6598e6a5d84f07970b831e70,6598e74cc8388ee0fca05a55,0.1499,0.15,1,94,256,66,1,twoone,,,,,,,,,,,,,,,,,,,,,,,,,,,,,,,,,,,,,,,,,,,,,,,,,,,,,,,,,,,,,,,,,,,,,,,,,,,,,,,,,,,,,,,,,,,,,,,,,,,,,,,,,,,,,,,,,,,,,,,,,,,,,,,,,,,,,,,
,,6131460946d0022f68082db6,2024-01-06_07h49.55.408,kallum_motion_pilot,2023.2.3,Win32,59.52380952,6131460946d0022f68082db6,6598e6a5d84f07970b831e70,6598e74cc8388ee0fca05a55,0.1501,0.1502,1,95,257,113,1,fiveseven,,,,,,,,,,,,,,,,,,,,,,,,,,,,,,,,,,,,,,,,,,,,,,,,,,,,,,,,,,,,,,,,,,,,,,,,,,,,,,,,,,,,,,,,,,,,,,,,,,,,,,,,,,,,,,,,,,,,,,,,,,,,,,,,,,,,,,,
,,6131460946d0022f68082db6,2024-01-06_07h49.55.408,kallum_motion_pilot,2023.2.3,Win32,59.52380952,6131460946d0022f68082db6,6598e6a5d84f07970b831e70,6598e74cc8388ee0fca05a55,0.1504,0.1504,1,96,258,42,1,twoone,,,,,,,,,,,,,,,,,,,,,,,,,,,,,,,,,,,,,,,,,,,,,,,,,,,,,,,,,,,,,,,,,,,,,,,,,,,,,,,,,,,,,,,,,,,,,,,,,,,,,,,,,,,,,,,,,,,,,,,,,,,,,,,,,,,,,,,
,,6131460946d0022f68082db6,2024-01-06_07h49.55.408,kallum_motion_pilot,2023.2.3,Win32,59.52380952,6131460946d0022f68082db6,6598e6a5d84f07970b831e70,6598e74cc8388ee0fca05a55,0.1506,0.1507,1,97,259,114,1,sixfive,,,,,,,,,,,,,,,,,,,,,,,,,,,,,,,,,,,,,,,,,,,,,,,,,,,,,,,,,,,,,,,,,,,,,,,,,,,,,,,,,,,,,,,,,,,,,,,,,,,,,,,,,,,,,,,,,,,,,,,,,,,,,,,,,,,,,,,
,,6131460946d0022f68082db6,2024-01-06_07h49.55.408,kallum_motion_pilot,2023.2.3,Win32,59.52380952,6131460946d0022f68082db6,6598e6a5d84f07970b831e70,6598e74cc8388ee0fca05a55,0.1508,0.1509,1,98,260,82,1,sixfive,,,,,,,,,,,,,,,,,,,,,,,,,,,,,,,,,,,,,,,,,,,,,,,,,,,,,,,,,,,,,,,,,,,,,,,,,,,,,,,,,,,,,,,,,,,,,,,,,,,,,,,,,,,,,,,,,,,,,,,,,,,,,,,,,,,,,,,
,,6131460946d0022f68082db6,2024-01-06_07h49.55.408,kallum_motion_pilot,2023.2.3,Win32,59.52380952,6131460946d0022f68082db6,6598e6a5d84f07970b831e70,6598e74cc8388ee0fca05a55,0.1511,0.1512,1,99,261,156,1,sevenfive,,,,,,,,,,,,,,,,,,,,,,,,,,,,,,,,,,,,,,,,,,,,,,,,,,,,,,,,,,,,,,,,,,,,,,,,,,,,,,,,,,,,,,,,,,,,,,,,,,,,,,,,,,,,,,,,,,,,,,,,,,,,,,,,,,,,,,,
,,6131460946d0022f68082db6,2024-01-06_07h49.55.408,kallum_motion_pilot,2023.2.3,Win32,59.52380952,6131460946d0022f68082db6,6598e6a5d84f07970b831e70,6598e74cc8388ee0fca05a55,0.1513,0.1514,1,100,262,107,1,sixeight,,,,,,,,,,,,,,,,,,,,,,,,,,,,,,,,,,,,,,,,,,,,,,,,,,,,,,,,,,,,,,,,,,,,,,,,,,,,,,,,,,,,,,,,,,,,,,,,,,,,,,,,,,,,,,,,,,,,,,,,,,,,,,,,,,,,,,,
,,6131460946d0022f68082db6,2024-01-06_07h49.55.408,kallum_motion_pilot,2023.2.3,Win32,59.52380952,6131460946d0022f68082db6,6598e6a5d84f07970b831e70,6598e74cc8388ee0fca05a55,0.1515,0.1516,1,101,263,98,1,sixfive,,,,,,,,,,,,,,,,,,,,,,,,,,,,,,,,,,,,,,,,,,,,,,,,,,,,,,,,,,,,,,,,,,,,,,,,,,,,,,,,,,,,,,,,,,,,,,,,,,,,,,,,,,,,,,,,,,,,,,,,,,,,,,,,,,,,,,,
,,6131460946d0022f68082db6,2024-01-06_07h49.55.408,kallum_motion_pilot,2023.2.3,Win32,59.52380952,6131460946d0022f68082db6,6598e6a5d84f07970b831e70,6598e74cc8388ee0fca05a55,0.1517,0.1519,1,102,264,64,1,onetwo,,,,,,,,,,,,,,,,,,,,,,,,,,,,,,,,,,,,,,,,,,,,,,,,,,,,,,,,,,,,,,,,,,,,,,,,,,,,,,,,,,,,,,,,,,,,,,,,,,,,,,,,,,,,,,,,,,,,,,,,,,,,,,,,,,,,,,,
,,6131460946d0022f68082db6,2024-01-06_07h49.55.408,kallum_motion_pilot,2023.2.3,Win32,59.52380952,6131460946d0022f68082db6,6598e6a5d84f07970b831e70,6598e74cc8388ee0fca05a55,0.152,0.1521,1,103,265,72,1,onetwo,,,,,,,,,,,,,,,,,,,,,,,,,,,,,,,,,,,,,,,,,,,,,,,,,,,,,,,,,,,,,,,,,,,,,,,,,,,,,,,,,,,,,,,,,,,,,,,,,,,,,,,,,,,,,,,,,,,,,,,,,,,,,,,,,,,,,,,
,,6131460946d0022f68082db6,2024-01-06_07h49.55.408,kallum_motion_pilot,2023.2.3,Win32,59.52380952,6131460946d0022f68082db6,6598e6a5d84f07970b831e70,6598e74cc8388ee0fca05a55,0.1522,0.1523,1,104,266,141,1,seveneight,,,,,,,,,,,,,,,,,,,,,,,,,,,,,,,,,,,,,,,,,,,,,,,,,,,,,,,,,,,,,,,,,,,,,,,,,,,,,,,,,,,,,,,,,,,,,,,,,,,,,,,,,,,,,,,,,,,,,,,,,,,,,,,,,,,,,,,
,,6131460946d0022f68082db6,2024-01-06_07h49.55.408,kallum_motion_pilot,2023.2.3,Win32,59.52380952,6131460946d0022f68082db6,6598e6a5d84f07970b831e70,6598e74cc8388ee0fca05a55,0.1524,0.1526,1,105,267,103,1,eightseven,,,,,,,,,,,,,,,,,,,,,,,,,,,,,,,,,,,,,,,,,,,,,,,,,,,,,,,,,,,,,,,,,,,,,,,,,,,,,,,,,,,,,,,,,,,,,,,,,,,,,,,,,,,,,,,,,,,,,,,,,,,,,,,,,,,,,,,
,,6131460946d0022f68082db6,2024-01-06_07h49.55.408,kallum_motion_pilot,2023.2.3,Win32,59.52380952,6131460946d0022f68082db6,6598e6a5d84f07970b831e70,6598e74cc8388ee0fca05a55,0.1527,0.1528,1,106,268,39,1,fourthree,,,,,,,,,,,,,,,,,,,,,,,,,,,,,,,,,,,,,,,,,,,,,,,,,,,,,,,,,,,,,,,,,,,,,,,,,,,,,,,,,,,,,,,,,,,,,,,,,,,,,,,,,,,,,,,,,,,,,,,,,,,,,,,,,,,,,,,
,,6131460946d0022f68082db6,2024-01-06_07h49.55.408,kallum_motion_pilot,2023.2.3,Win32,59.52380952,6131460946d0022f68082db6,6598e6a5d84f07970b831e70,6598e74cc8388ee0fca05a55,0.1528,0.153,1,107,269,3,1,twofour,,,,,,,,,,,,,,,,,,,,,,,,,,,,,,,,,,,,,,,,,,,,,,,,,,,,,,,,,,,,,,,,,,,,,,,,,,,,,,,,,,,,,,,,,,,,,,,,,,,,,,,,,,,,,,,,,,,,,,,,,,,,,,,,,,,,,,,
,,6131460946d0022f68082db6,2024-01-06_07h49.55.408,kallum_motion_pilot,2023.2.3,Win32,59.52380952,6131460946d0022f68082db6,6598e6a5d84f07970b831e70,6598e74cc8388ee0fca05a55,0.1531,0.1532,1,108,270,126,1,eightsix,,,,,,,,,,,,,,,,,,,,,,,,,,,,,,,,,,,,,,,,,,,,,,,,,,,,,,,,,,,,,,,,,,,,,,,,,,,,,,,,,,,,,,,,,,,,,,,,,,,,,,,,,,,,,,,,,,,,,,,,,,,,,,,,,,,,,,,
,,6131460946d0022f68082db6,2024-01-06_07h49.55.408,kallum_motion_pilot,2023.2.3,Win32,59.52380952,6131460946d0022f68082db6,6598e6a5d84f07970b831e70,6598e74cc8388ee0fca05a55,0.1533,0.1534,1,109,271,139,1,sixeight,,,,,,,,,,,,,,,,,,,,,,,,,,,,,,,,,,,,,,,,,,,,,,,,,,,,,,,,,,,,,,,,,,,,,,,,,,,,,,,,,,,,,,,,,,,,,,,,,,,,,,,,,,,,,,,,,,,,,,,,,,,,,,,,,,,,,,,
,,6131460946d0022f68082db6,2024-01-06_07h49.55.408,kallum_motion_pilot,2023.2.3,Win32,59.52380952,6131460946d0022f68082db6,6598e6a5d84f07970b831e70,6598e74cc8388ee0fca05a55,0.1535,0.1536,1,110,272,104,1,fivesix,,,,,,,,,,,,,,,,,,,,,,,,,,,,,,,,,,,,,,,,,,,,,,,,,,,,,,,,,,,,,,,,,,,,,,,,,,,,,,,,,,,,,,,,,,,,,,,,,,,,,,,,,,,,,,,,,,,,,,,,,,,,,,,,,,,,,,,
,,6131460946d0022f68082db6,2024-01-06_07h49.55.408,kallum_motion_pilot,2023.2.3,Win32,59.52380952,6131460946d0022f68082db6,6598e6a5d84f07970b831e70,6598e74cc8388ee0fca05a55,0.1537,0.1539,1,111,273,26,1,twoone,,,,,,,,,,,,,,,,,,,,,,,,,,,,,,,,,,,,,,,,,,,,,,,,,,,,,,,,,,,,,,,,,,,,,,,,,,,,,,,,,,,,,,,,,,,,,,,,,,,,,,,,,,,,,,,,,,,,,,,,,,,,,,,,,,,,,,,
,,6131460946d0022f68082db6,2024-01-06_07h49.55.408,kallum_motion_pilot,2023.2.3,Win32,59.52380952,6131460946d0022f68082db6,6598e6a5d84f07970b831e70,6598e74cc8388ee0fca05a55,0.1539,0.1541,1,112,274,56,1,onetwo,,,,,,,,,,,,,,,,,,,,,,,,,,,,,,,,,,,,,,,,,,,,,,,,,,,,,,,,,,,,,,,,,,,,,,,,,,,,,,,,,,,,,,,,,,,,,,,,,,,,,,,,,,,,,,,,,,,,,,,,,,,,,,,,,,,,,,,
,,6131460946d0022f68082db6,2024-01-06_07h49.55.408,kallum_motion_pilot,2023.2.3,Win32,59.52380952,6131460946d0022f68082db6,6598e6a5d84f07970b831e70,6598e74cc8388ee0fca05a55,0.1541,0.1543,1,113,275,118,1,eightsix,,,,,,,,,,,,,,,,,,,,,,,,,,,,,,,,,,,,,,,,,,,,,,,,,,,,,,,,,,,,,,,,,,,,,,,,,,,,,,,,,,,,,,,,,,,,,,,,,,,,,,,,,,,,,,,,,,,,,,,,,,,,,,,,,,,,,,,
,,6131460946d0022f68082db6,2024-01-06_07h49.55.408,kallum_motion_pilot,2023.2.3,Win32,59.52380952,6131460946d0022f68082db6,6598e6a5d84f07970b831e70,6598e74cc8388ee0fca05a55,0.1545,0.1545,1,114,276,111,1,eightseven,,,,,,,,,,,,,,,,,,,,,,,,,,,,,,,,,,,,,,,,,,,,,,,,,,,,,,,,,,,,,,,,,,,,,,,,,,,,,,,,,,,,,,,,,,,,,,,,,,,,,,,,,,,,,,,,,,,,,,,,,,,,,,,,,,,,,,,
,,6131460946d0022f68082db6,2024-01-06_07h49.55.408,kallum_motion_pilot,2023.2.3,Win32,59.52380952,6131460946d0022f68082db6,6598e6a5d84f07970b831e70,6598e74cc8388ee0fca05a55,0.1548,0.1548,1,115,277,125,1,seveneight,,,,,,,,,,,,,,,,,,,,,,,,,,,,,,,,,,,,,,,,,,,,,,,,,,,,,,,,,,,,,,,,,,,,,,,,,,,,,,,,,,,,,,,,,,,,,,,,,,,,,,,,,,,,,,,,,,,,,,,,,,,,,,,,,,,,,,,
,,6131460946d0022f68082db6,2024-01-06_07h49.55.408,kallum_motion_pilot,2023.2.3,Win32,59.52380952,6131460946d0022f68082db6,6598e6a5d84f07970b831e70,6598e74cc8388ee0fca05a55,0.155,0.1551,1,116,278,131,1,sixeight,,,,,,,,,,,,,,,,,,,,,,,,,,,,,,,,,,,,,,,,,,,,,,,,,,,,,,,,,,,,,,,,,,,,,,,,,,,,,,,,,,,,,,,,,,,,,,,,,,,,,,,,,,,,,,,,,,,,,,,,,,,,,,,,,,,,,,,
,,6131460946d0022f68082db6,2024-01-06_07h49.55.408,kallum_motion_pilot,2023.2.3,Win32,59.52380952,6131460946d0022f68082db6,6598e6a5d84f07970b831e70,6598e74cc8388ee0fca05a55,0.1552,0.1552,1,117,279,91,1,sixeight,,,,,,,,,,,,,,,,,,,,,,,,,,,,,,,,,,,,,,,,,,,,,,,,,,,,,,,,,,,,,,,,,,,,,,,,,,,,,,,,,,,,,,,,,,,,,,,,,,,,,,,,,,,,,,,,,,,,,,,,,,,,,,,,,,,,,,,
