startup.started,startup.stopped,Prolific ID*,date,expName,psychopyVersion,OS,frameRate,PROLIFIC_PID,STUDY_ID,SESSION_ID,stimpositions.started,stimpositions.stopped,hardcoded_stimulus_positions.thisRepN,hardcoded_stimulus_positions.thisTrialN,hardcoded_stimulus_positions.thisN,hardcoded_stimulus_positions.thisIndex,hardcoded_stimulus_positions.ran,StimulusPos,stimorientation.started,stimorientation.stopped,prac_stimorientation_import_loop.thisRepN,prac_stimorientation_import_loop.thisTrialN,prac_stimorientation_import_loop.thisN,prac_stimorientation_import_loop.thisIndex,prac_stimorientation_import_loop.ran,Stimorientation,welcome_instr.started,welcome_instr.stopped,key_resp.keys,key_resp.rt,key_resp.duration,response_steppedout_1.started,response_steppedout_1.stopped,key_resp_20.keys,key_resp_20.rt,key_resp_20.duration,response_steppedout_2.started,response_steppedout_2.stopped,key_resp_19.keys,key_resp_19.rt,key_resp_19.duration,stim_response_instr.started,stim_response_instr.stopped,key_resp_15.keys,key_resp_15.rt,key_resp_15.duration,direction_instr_2.started,direction_instr_2.stopped,key_resp_9.keys,key_resp_9.rt,key_resp_9.duration,instr_prac.started,instr_prac.stopped,key_resp_10.keys,key_resp_10.rt,key_resp_10.duration,Stim1_display_prac.started,Stim1_display_prac.stopped,Ecc,Circle1_ori,Circle2_ori,response_prac.started,similarity,response_time,response_prac.stopped,mouse_5.x,mouse_5.y,mouse_5.leftButton,mouse_5.midButton,mouse_5.rightButton,mouse_5.clicked_name,responseprac_feedback.started,responseprac_feedback.stopped,summary2_prac.started,summary2_prac.stopped,mouse_6.x,mouse_6.y,mouse_6.leftButton,mouse_6.midButton,mouse_6.rightButton,mouse_6.clicked_name,duringprac.thisRepN,duringprac.thisTrialN,duringprac.thisN,duringprac.thisIndex,duringprac.ran,begin.started,begin.stopped,key_resp_22.keys,key_resp_22.rt,key_resp_22.duration,Stim1_display.started,Stim1_display.stopped,circle1_ori,circle2_ori,blank.started,blank.stopped,response.started,response.stopped,mouse.x,mouse.y,mouse.leftButton,mouse.midButton,mouse.rightButton,mouse.clicked_name,response_2.started,response_2.stopped,mouse_2.x,mouse_2.y,mouse_2.leftButton,mouse_2.midButton,mouse_2.rightButton,mouse_2.clicked_name,special_trial.started,special_trial.stopped,catch_1.started,catch_1.stopped,mouse_3.x,mouse_3.y,mouse_3.leftButton,mouse_3.midButton,mouse_3.rightButton,catchresponse,catchnumber,response_time_catch,Catch,response_sum.started,response_sum.stopped,mouse_11.x,mouse_11.y,mouse_11.leftButton,mouse_11.midButton,mouse_11.rightButton,main_trial.thisRepN,main_trial.thisTrialN,main_trial.thisN,main_trial.thisIndex,main_trial.ran,Orientationtrialno,xcircle1_ori,xcircle2_ori,flip_presentation_sequence_for_double_pass.started,flip_presentation_sequence_for_double_pass.stopped,double_pass.thisRepN,double_pass.thisTrialN,double_pass.thisN,double_pass.thisIndex,double_pass.ran,goodbye.started,goodbye.stopped,key_resp_3.keys,key_resp_3.rt,key_resp_3.duration
0.0011,0.0014,5d66f23706e589000157e7ec,2024-01-06_05h49.12.761,kallum_motion_pilot,2023.2.3,Win32,59.88023952,5d66f23706e589000157e7ec,6598e6a5d84f07970b831e70,6598e7a1028cf37c59bf7974,,,,,,,,,,,,,,,,,,,,,,,,,,,,,,,,,,,,,,,,,,,,,,,,,,,,,,,,,,,,,,,,,,,,,,,,,,,,,,,,,,,,,,,,,,,,,,,,,,,,,,,,,,,,,,,,,,,,,,,,,,,,,,,,,,,,,,,,,,,,,,,
,,5d66f23706e589000157e7ec,2024-01-06_05h49.12.761,kallum_motion_pilot,2023.2.3,Win32,59.88023952,5d66f23706e589000157e7ec,6598e6a5d84f07970b831e70,6598e7a1028cf37c59bf7974,0.0488,0.0493,0,0,0,34,1,twoone,,,,,,,,,,,,,,,,,,,,,,,,,,,,,,,,,,,,,,,,,,,,,,,,,,,,,,,,,,,,,,,,,,,,,,,,,,,,,,,,,,,,,,,,,,,,,,,,,,,,,,,,,,,,,,,,,,,,,,,,,,,,,,,,,,,,,,,
,,5d66f23706e589000157e7ec,2024-01-06_05h49.12.761,kallum_motion_pilot,2023.2.3,Win32,59.88023952,5d66f23706e589000157e7ec,6598e6a5d84f07970b831e70,6598e7a1028cf37c59bf7974,0.0499,0.05,0,1,1,62,1,fourtwo,,,,,,,,,,,,,,,,,,,,,,,,,,,,,,,,,,,,,,,,,,,,,,,,,,,,,,,,,,,,,,,,,,,,,,,,,,,,,,,,,,,,,,,,,,,,,,,,,,,,,,,,,,,,,,,,,,,,,,,,,,,,,,,,,,,,,,,
,,5d66f23706e589000157e7ec,2024-01-06_05h49.12.761,kallum_motion_pilot,2023.2.3,Win32,59.88023952,5d66f23706e589000157e7ec,6598e6a5d84f07970b831e70,6598e7a1028cf37c59bf7974,0.0503,0.0507,0,2,2,12,1,threeone,,,,,,,,,,,,,,,,,,,,,,,,,,,,,,,,,,,,,,,,,,,,,,,,,,,,,,,,,,,,,,,,,,,,,,,,,,,,,,,,,,,,,,,,,,,,,,,,,,,,,,,,,,,,,,,,,,,,,,,,,,,,,,,,,,,,,,,
,,5d66f23706e589000157e7ec,2024-01-06_05h49.12.761,kallum_motion_pilot,2023.2.3,Win32,59.88023952,5d66f23706e589000157e7ec,6598e6a5d84f07970b831e70,6598e7a1028cf37c59bf7974,0.0513,0.0514,0,3,3,102,1,eightsix,,,,,,,,,,,,,,,,,,,,,,,,,,,,,,,,,,,,,,,,,,,,,,,,,,,,,,,,,,,,,,,,,,,,,,,,,,,,,,,,,,,,,,,,,,,,,,,,,,,,,,,,,,,,,,,,,,,,,,,,,,,,,,,,,,,,,,,
,,5d66f23706e589000157e7ec,2024-01-06_05h49.12.761,kallum_motion_pilot,2023.2.3,Win32,59.88023952,5d66f23706e589000157e7ec,6598e6a5d84f07970b831e70,6598e7a1028cf37c59bf7974,0.0516,0.0518,0,4,4,132,1,sevenfive,,,,,,,,,,,,,,,,,,,,,,,,,,,,,,,,,,,,,,,,,,,,,,,,,,,,,,,,,,,,,,,,,,,,,,,,,,,,,,,,,,,,,,,,,,,,,,,,,,,,,,,,,,,,,,,,,,,,,,,,,,,,,,,,,,,,,,,
,,5d66f23706e589000157e7ec,2024-01-06_05h49.12.761,kallum_motion_pilot,2023.2.3,Win32,59.88023952,5d66f23706e589000157e7ec,6598e6a5d84f07970b831e70,6598e7a1028cf37c59bf7974,0.0519,0.0519,0,5,5,112,1,fivesix,,,,,,,,,,,,,,,,,,,,,,,,,,,,,,,,,,,,,,,,,,,,,,,,,,,,,,,,,,,,,,,,,,,,,,,,,,,,,,,,,,,,,,,,,,,,,,,,,,,,,,,,,,,,,,,,,,,,,,,,,,,,,,,,,,,,,,,
,,5d66f23706e589000157e7ec,2024-01-06_05h49.12.761,kallum_motion_pilot,2023.2.3,Win32,59.88023952,5d66f23706e589000157e7ec,6598e6a5d84f07970b831e70,6598e7a1028cf37c59bf7974,0.0522,0.0522,0,6,6,113,1,fiveseven,,,,,,,,,,,,,,,,,,,,,,,,,,,,,,,,,,,,,,,,,,,,,,,,,,,,,,,,,,,,,,,,,,,,,,,,,,,,,,,,,,,,,,,,,,,,,,,,,,,,,,,,,,,,,,,,,,,,,,,,,,,,,,,,,,,,,,,
,,5d66f23706e589000157e7ec,2024-01-06_05h49.12.761,kallum_motion_pilot,2023.2.3,Win32,59.88023952,5d66f23706e589000157e7ec,6598e6a5d84f07970b831e70,6598e7a1028cf37c59bf7974,0.0524,0.0525,0,7,7,24,1,onetwo,,,,,,,,,,,,,,,,,,,,,,,,,,,,,,,,,,,,,,,,,,,,,,,,,,,,,,,,,,,,,,,,,,,,,,,,,,,,,,,,,,,,,,,,,,,,,,,,,,,,,,,,,,,,,,,,,,,,,,,,,,,,,,,,,,,,,,,
,,5d66f23706e589000157e7ec,2024-01-06_05h49.12.761,kallum_motion_pilot,2023.2.3,Win32,59.88023952,5d66f23706e589000157e7ec,6598e6a5d84f07970b831e70,6598e7a1028cf37c59bf7974,0.0527,0.0528,0,8,8,5,1,threefour,,,,,,,,,,,,,,,,,,,,,,,,,,,,,,,,,,,,,,,,,,,,,,,,,,,,,,,,,,,,,,,,,,,,,,,,,,,,,,,,,,,,,,,,,,,,,,,,,,,,,,,,,,,,,,,,,,,,,,,,,,,,,,,,,,,,,,,
,,5d66f23706e589000157e7ec,2024-01-06_05h49.12.761,kallum_motion_pilot,2023.2.3,Win32,59.88023952,5d66f23706e589000157e7ec,6598e6a5d84f07970b831e70,6598e7a1028cf37c59bf7974,0.053,0.0531,0,9,9,79,1,eightseven,,,,,,,,,,,,,,,,,,,,,,,,,,,,,,,,,,,,,,,,,,,,,,,,,,,,,,,,,,,,,,,,,,,,,,,,,,,,,,,,,,,,,,,,,,,,,,,,,,,,,,,,,,,,,,,,,,,,,,,,,,,,,,,,,,,,,,,
,,5d66f23706e589000157e7ec,2024-01-06_05h49.12.761,kallum_motion_pilot,2023.2.3,Win32,59.88023952,5d66f23706e589000157e7ec,6598e6a5d84f07970b831e70,6598e7a1028cf37c59bf7974,0.0534,0.0535,0,10,10,47,1,fourthree,,,,,,,,,,,,,,,,,,,,,,,,,,,,,,,,,,,,,,,,,,,,,,,,,,,,,,,,,,,,,,,,,,,,,,,,,,,,,,,,,,,,,,,,,,,,,,,,,,,,,,,,,,,,,,,,,,,,,,,,,,,,,,,,,,,,,,,
,,5d66f23706e589000157e7ec,2024-01-06_05h49.12.761,kallum_motion_pilot,2023.2.3,Win32,59.88023952,5d66f23706e589000157e7ec,6598e6a5d84f07970b831e70,6598e7a1028cf37c59bf7974,0.0537,0.0537,0,11,11,55,1,fourthree,,,,,,,,,,,,,,,,,,,,,,,,,,,,,,,,,,,,,,,,,,,,,,,,,,,,,,,,,,,,,,,,,,,,,,,,,,,,,,,,,,,,,,,,,,,,,,,,,,,,,,,,,,,,,,,,,,,,,,,,,,,,,,,,,,,,,,,
,,5d66f23706e589000157e7ec,2024-01-06_05h49.12.761,kallum_motion_pilot,2023.2.3,Win32,59.88023952,5d66f23706e589000157e7ec,6598e6a5d84f07970b831e70,6598e7a1028cf37c59bf7974,0.0539,0.0539,0,12,12,17,1,onethree,,,,,,,,,,,,,,,,,,,,,,,,,,,,,,,,,,,,,,,,,,,,,,,,,,,,,,,,,,,,,,,,,,,,,,,,,,,,,,,,,,,,,,,,,,,,,,,,,,,,,,,,,,,,,,,,,,,,,,,,,,,,,,,,,,,,,,,
,,5d66f23706e589000157e7ec,2024-01-06_05h49.12.761,kallum_motion_pilot,2023.2.3,Win32,59.88023952,5d66f23706e589000157e7ec,6598e6a5d84f07970b831e70,6598e7a1028cf37c59bf7974,0.0542,0.0542,0,13,13,13,1,threefour,,,,,,,,,,,,,,,,,,,,,,,,,,,,,,,,,,,,,,,,,,,,,,,,,,,,,,,,,,,,,,,,,,,,,,,,,,,,,,,,,,,,,,,,,,,,,,,,,,,,,,,,,,,,,,,,,,,,,,,,,,,,,,,,,,,,,,,
,,5d66f23706e589000157e7ec,2024-01-06_05h49.12.761,kallum_motion_pilot,2023.2.3,Win32,59.88023952,5d66f23706e589000157e7ec,6598e6a5d84f07970b831e70,6598e7a1028cf37c59bf7974,0.0544,0.0545,0,14,14,1,1,onethree,,,,,,,,,,,,,,,,,,,,,,,,,,,,,,,,,,,,,,,,,,,,,,,,,,,,,,,,,,,,,,,,,,,,,,,,,,,,,,,,,,,,,,,,,,,,,,,,,,,,,,,,,,,,,,,,,,,,,,,,,,,,,,,,,,,,,,,
,,5d66f23706e589000157e7ec,2024-01-06_05h49.12.761,kallum_motion_pilot,2023.2.3,Win32,59.88023952,5d66f23706e589000157e7ec,6598e6a5d84f07970b831e70,6598e7a1028cf37c59bf7974,0.0546,0.0547,0,15,15,25,1,onethree,,,,,,,,,,,,,,,,,,,,,,,,,,,,,,,,,,,,,,,,,,,,,,,,,,,,,,,,,,,,,,,,,,,,,,,,,,,,,,,,,,,,,,,,,,,,,,,,,,,,,,,,,,,,,,,,,,,,,,,,,,,,,,,,,,,,,,,
,,5d66f23706e589000157e7ec,2024-01-06_05h49.12.761,kallum_motion_pilot,2023.2.3,Win32,59.88023952,5d66f23706e589000157e7ec,6598e6a5d84f07970b831e70,6598e7a1028cf37c59bf7974,0.0549,0.0549,0,16,16,35,1,twofour,,,,,,,,,,,,,,,,,,,,,,,,,,,,,,,,,,,,,,,,,,,,,,,,,,,,,,,,,,,,,,,,,,,,,,,,,,,,,,,,,,,,,,,,,,,,,,,,,,,,,,,,,,,,,,,,,,,,,,,,,,,,,,,,,,,,,,,
,,5d66f23706e589000157e7ec,2024-01-06_05h49.12.761,kallum_motion_pilot,2023.2.3,Win32,59.88023952,5d66f23706e589000157e7ec,6598e6a5d84f07970b831e70,6598e7a1028cf37c59bf7974,0.055,0.0551,0,17,17,15,1,fourthree,,,,,,,,,,,,,,,,,,,,,,,,,,,,,,,,,,,,,,,,,,,,,,,,,,,,,,,,,,,,,,,,,,,,,,,,,,,,,,,,,,,,,,,,,,,,,,,,,,,,,,,,,,,,,,,,,,,,,,,,,,,,,,,,,,,,,,,
,,5d66f23706e589000157e7ec,2024-01-06_05h49.12.761,kallum_motion_pilot,2023.2.3,Win32,59.88023952,5d66f23706e589000157e7ec,6598e6a5d84f07970b831e70,6598e7a1028cf37c59bf7974,0.0553,0.0554,0,18,18,30,1,fourtwo,,,,,,,,,,,,,,,,,,,,,,,,,,,,,,,,,,,,,,,,,,,,,,,,,,,,,,,,,,,,,,,,,,,,,,,,,,,,,,,,,,,,,,,,,,,,,,,,,,,,,,,,,,,,,,,,,,,,,,,,,,,,,,,,,,,,,,,
,,5d66f23706e589000157e7ec,2024-01-06_05h49.12.761,kallum_motion_pilot,2023.2.3,Win32,59.88023952,5d66f23706e589000157e7ec,6598e6a5d84f07970b831e70,6598e7a1028cf37c59bf7974,0.0555,0.0555,0,19,19,158,1,eightsix,,,,,,,,,,,,,,,,,,,,,,,,,,,,,,,,,,,,,,,,,,,,,,,,,,,,,,,,,,,,,,,,,,,,,,,,,,,,,,,,,,,,,,,,,,,,,,,,,,,,,,,,,,,,,,,,,,,,,,,,,,,,,,,,,,,,,,,
,,5d66f23706e589000157e7ec,2024-01-06_05h49.12.761,kallum_motion_pilot,2023.2.3,Win32,59.88023952,5d66f23706e589000157e7ec,6598e6a5d84f07970b831e70,6598e7a1028cf37c59bf7974,0.0557,0.0558,0,20,20,121,1,fiveseven,,,,,,,,,,,,,,,,,,,,,,,,,,,,,,,,,,,,,,,,,,,,,,,,,,,,,,,,,,,,,,,,,,,,,,,,,,,,,,,,,,,,,,,,,,,,,,,,,,,,,,,,,,,,,,,,,,,,,,,,,,,,,,,,,,,,,,,
,,5d66f23706e589000157e7ec,2024-01-06_05h49.12.761,kallum_motion_pilot,2023.2.3,Win32,59.88023952,5d66f23706e589000157e7ec,6598e6a5d84f07970b831e70,6598e7a1028cf37c59bf7974,0.056,0.0561,0,21,21,27,1,twofour,,,,,,,,,,,,,,,,,,,,,,,,,,,,,,,,,,,,,,,,,,,,,,,,,,,,,,,,,,,,,,,,,,,,,,,,,,,,,,,,,,,,,,,,,,,,,,,,,,,,,,,,,,,,,,,,,,,,,,,,,,,,,,,,,,,,,,,
,,5d66f23706e589000157e7ec,2024-01-06_05h49.12.761,kallum_motion_pilot,2023.2.3,Win32,59.88023952,5d66f23706e589000157e7ec,6598e6a5d84f07970b831e70,6598e7a1028cf37c59bf7974,0.0563,0.0563,0,22,22,36,1,threeone,,,,,,,,,,,,,,,,,,,,,,,,,,,,,,,,,,,,,,,,,,,,,,,,,,,,,,,,,,,,,,,,,,,,,,,,,,,,,,,,,,,,,,,,,,,,,,,,,,,,,,,,,,,,,,,,,,,,,,,,,,,,,,,,,,,,,,,
,,5d66f23706e589000157e7ec,2024-01-06_05h49.12.761,kallum_motion_pilot,2023.2.3,Win32,59.88023952,5d66f23706e589000157e7ec,6598e6a5d84f07970b831e70,6598e7a1028cf37c59bf7974,0.0565,0.0566,0,23,23,84,1,sevenfive,,,,,,,,,,,,,,,,,,,,,,,,,,,,,,,,,,,,,,,,,,,,,,,,,,,,,,,,,,,,,,,,,,,,,,,,,,,,,,,,,,,,,,,,,,,,,,,,,,,,,,,,,,,,,,,,,,,,,,,,,,,,,,,,,,,,,,,
,,5d66f23706e589000157e7ec,2024-01-06_05h49.12.761,kallum_motion_pilot,2023.2.3,Win32,59.88023952,5d66f23706e589000157e7ec,6598e6a5d84f07970b831e70,6598e7a1028cf37c59bf7974,0.0568,0.0568,0,24,24,9,1,onethree,,,,,,,,,,,,,,,,,,,,,,,,,,,,,,,,,,,,,,,,,,,,,,,,,,,,,,,,,,,,,,,,,,,,,,,,,,,,,,,,,,,,,,,,,,,,,,,,,,,,,,,,,,,,,,,,,,,,,,,,,,,,,,,,,,,,,,,
,,5d66f23706e589000157e7ec,2024-01-06_05h49.12.761,kallum_motion_pilot,2023.2.3,Win32,59.88023952,5d66f23706e589000157e7ec,6598e6a5d84f07970b831e70,6598e7a1028cf37c59bf7974,0.057,0.057,0,25,25,160,1,fivesix,,,,,,,,,,,,,,,,,,,,,,,,,,,,,,,,,,,,,,,,,,,,,,,,,,,,,,,,,,,,,,,,,,,,,,,,,,,,,,,,,,,,,,,,,,,,,,,,,,,,,,,,,,,,,,,,,,,,,,,,,,,,,,,,,,,,,,,
,,5d66f23706e589000157e7ec,2024-01-06_05h49.12.761,kallum_motion_pilot,2023.2.3,Win32,59.88023952,5d66f23706e589000157e7ec,6598e6a5d84f07970b831e70,6598e7a1028cf37c59bf7974,0.0572,0.0573,0,26,26,65,1,onethree,,,,,,,,,,,,,,,,,,,,,,,,,,,,,,,,,,,,,,,,,,,,,,,,,,,,,,,,,,,,,,,,,,,,,,,,,,,,,,,,,,,,,,,,,,,,,,,,,,,,,,,,,,,,,,,,,,,,,,,,,,,,,,,,,,,,,,,
,,5d66f23706e589000157e7ec,2024-01-06_05h49.12.761,kallum_motion_pilot,2023.2.3,Win32,59.88023952,5d66f23706e589000157e7ec,6598e6a5d84f07970b831e70,6598e7a1028cf37c59bf7974,0.0575,0.0575,0,27,27,20,1,threeone,,,,,,,,,,,,,,,,,,,,,,,,,,,,,,,,,,,,,,,,,,,,,,,,,,,,,,,,,,,,,,,,,,,,,,,,,,,,,,,,,,,,,,,,,,,,,,,,,,,,,,,,,,,,,,,,,,,,,,,,,,,,,,,,,,,,,,,
,,5d66f23706e589000157e7ec,2024-01-06_05h49.12.761,kallum_motion_pilot,2023.2.3,Win32,59.88023952,5d66f23706e589000157e7ec,6598e6a5d84f07970b831e70,6598e7a1028cf37c59bf7974,0.0577,0.0578,0,28,28,140,1,sevenfive,,,,,,,,,,,,,,,,,,,,,,,,,,,,,,,,,,,,,,,,,,,,,,,,,,,,,,,,,,,,,,,,,,,,,,,,,,,,,,,,,,,,,,,,,,,,,,,,,,,,,,,,,,,,,,,,,,,,,,,,,,,,,,,,,,,,,,,
,,5d66f23706e589000157e7ec,2024-01-06_05h49.12.761,kallum_motion_pilot,2023.2.3,Win32,59.88023952,5d66f23706e589000157e7ec,6598e6a5d84f07970b831e70,6598e7a1028cf37c59bf7974,0.058,0.058,0,29,29,81,1,fiveseven,,,,,,,,,,,,,,,,,,,,,,,,,,,,,,,,,,,,,,,,,,,,,,,,,,,,,,,,,,,,,,,,,,,,,,,,,,,,,,,,,,,,,,,,,,,,,,,,,,,,,,,,,,,,,,,,,,,,,,,,,,,,,,,,,,,,,,,
,,5d66f23706e589000157e7ec,2024-01-06_05h49.12.761,kallum_motion_pilot,2023.2.3,Win32,59.88023952,5d66f23706e589000157e7ec,6598e6a5d84f07970b831e70,6598e7a1028cf37c59bf7974,0.0582,0.0583,0,30,30,108,1,sevenfive,,,,,,,,,,,,,,,,,,,,,,,,,,,,,,,,,,,,,,,,,,,,,,,,,,,,,,,,,,,,,,,,,,,,,,,,,,,,,,,,,,,,,,,,,,,,,,,,,,,,,,,,,,,,,,,,,,,,,,,,,,,,,,,,,,,,,,,
,,5d66f23706e589000157e7ec,2024-01-06_05h49.12.761,kallum_motion_pilot,2023.2.3,Win32,59.88023952,5d66f23706e589000157e7ec,6598e6a5d84f07970b831e70,6598e7a1028cf37c59bf7974,0.0584,0.0585,0,31,31,142,1,eightsix,,,,,,,,,,,,,,,,,,,,,,,,,,,,,,,,,,,,,,,,,,,,,,,,,,,,,,,,,,,,,,,,,,,,,,,,,,,,,,,,,,,,,,,,,,,,,,,,,,,,,,,,,,,,,,,,,,,,,,,,,,,,,,,,,,,,,,,
,,5d66f23706e589000157e7ec,2024-01-06_05h49.12.761,kallum_motion_pilot,2023.2.3,Win32,59.88023952,5d66f23706e589000157e7ec,6598e6a5d84f07970b831e70,6598e7a1028cf37c59bf7974,0.0587,0.0588,0,32,32,10,1,twoone,,,,,,,,,,,,,,,,,,,,,,,,,,,,,,,,,,,,,,,,,,,,,,,,,,,,,,,,,,,,,,,,,,,,,,,,,,,,,,,,,,,,,,,,,,,,,,,,,,,,,,,,,,,,,,,,,,,,,,,,,,,,,,,,,,,,,,,
,,5d66f23706e589000157e7ec,2024-01-06_05h49.12.761,kallum_motion_pilot,2023.2.3,Win32,59.88023952,5d66f23706e589000157e7ec,6598e6a5d84f07970b831e70,6598e7a1028cf37c59bf7974,0.059,0.059,0,33,33,144,1,fivesix,,,,,,,,,,,,,,,,,,,,,,,,,,,,,,,,,,,,,,,,,,,,,,,,,,,,,,,,,,,,,,,,,,,,,,,,,,,,,,,,,,,,,,,,,,,,,,,,,,,,,,,,,,,,,,,,,,,,,,,,,,,,,,,,,,,,,,,
,,5d66f23706e589000157e7ec,2024-01-06_05h49.12.761,kallum_motion_pilot,2023.2.3,Win32,59.88023952,5d66f23706e589000157e7ec,6598e6a5d84f07970b831e70,6598e7a1028cf37c59bf7974,0.0592,0.0593,0,34,34,143,1,eightseven,,,,,,,,,,,,,,,,,,,,,,,,,,,,,,,,,,,,,,,,,,,,,,,,,,,,,,,,,,,,,,,,,,,,,,,,,,,,,,,,,,,,,,,,,,,,,,,,,,,,,,,,,,,,,,,,,,,,,,,,,,,,,,,,,,,,,,,
,,5d66f23706e589000157e7ec,2024-01-06_05h49.12.761,kallum_motion_pilot,2023.2.3,Win32,59.88023952,5d66f23706e589000157e7ec,6598e6a5d84f07970b831e70,6598e7a1028cf37c59bf7974,0.0594,0.0595,0,35,35,19,1,twofour,,,,,,,,,,,,,,,,,,,,,,,,,,,,,,,,,,,,,,,,,,,,,,,,,,,,,,,,,,,,,,,,,,,,,,,,,,,,,,,,,,,,,,,,,,,,,,,,,,,,,,,,,,,,,,,,,,,,,,,,,,,,,,,,,,,,,,,
,,5d66f23706e589000157e7ec,2024-01-06_05h49.12.761,kallum_motion_pilot,2023.2.3,Win32,59.88023952,5d66f23706e589000157e7ec,6598e6a5d84f07970b831e70,6598e7a1028cf37c59bf7974,0.0598,0.0598,0,36,36,21,1,threefour,,,,,,,,,,,,,,,,,,,,,,,,,,,,,,,,,,,,,,,,,,,,,,,,,,,,,,,,,,,,,,,,,,,,,,,,,,,,,,,,,,,,,,,,,,,,,,,,,,,,,,,,,,,,,,,,,,,,,,,,,,,,,,,,,,,,,,,
,,5d66f23706e589000157e7ec,2024-01-06_05h49.12.761,kallum_motion_pilot,2023.2.3,Win32,59.88023952,5d66f23706e589000157e7ec,6598e6a5d84f07970b831e70,6598e7a1028cf37c59bf7974,0.0601,0.0602,0,37,37,82,1,sixfive,,,,,,,,,,,,,,,,,,,,,,,,,,,,,,,,,,,,,,,,,,,,,,,,,,,,,,,,,,,,,,,,,,,,,,,,,,,,,,,,,,,,,,,,,,,,,,,,,,,,,,,,,,,,,,,,,,,,,,,,,,,,,,,,,,,,,,,
,,5d66f23706e589000157e7ec,2024-01-06_05h49.12.761,kallum_motion_pilot,2023.2.3,Win32,59.88023952,5d66f23706e589000157e7ec,6598e6a5d84f07970b831e70,6598e7a1028cf37c59bf7974,0.0603,0.0604,0,38,38,161,1,fiveseven,,,,,,,,,,,,,,,,,,,,,,,,,,,,,,,,,,,,,,,,,,,,,,,,,,,,,,,,,,,,,,,,,,,,,,,,,,,,,,,,,,,,,,,,,,,,,,,,,,,,,,,,,,,,,,,,,,,,,,,,,,,,,,,,,,,,,,,
,,5d66f23706e589000157e7ec,2024-01-06_05h49.12.761,kallum_motion_pilot,2023.2.3,Win32,59.88023952,5d66f23706e589000157e7ec,6598e6a5d84f07970b831e70,6598e7a1028cf37c59bf7974,0.0607,0.0607,0,39,39,4,1,threeone,,,,,,,,,,,,,,,,,,,,,,,,,,,,,,,,,,,,,,,,,,,,,,,,,,,,,,,,,,,,,,,,,,,,,,,,,,,,,,,,,,,,,,,,,,,,,,,,,,,,,,,,,,,,,,,,,,,,,,,,,,,,,,,,,,,,,,,
,,5d66f23706e589000157e7ec,2024-01-06_05h49.12.761,kallum_motion_pilot,2023.2.3,Win32,59.88023952,5d66f23706e589000157e7ec,6598e6a5d84f07970b831e70,6598e7a1028cf37c59bf7974,0.0609,0.061,0,40,40,135,1,eightseven,,,,,,,,,,,,,,,,,,,,,,,,,,,,,,,,,,,,,,,,,,,,,,,,,,,,,,,,,,,,,,,,,,,,,,,,,,,,,,,,,,,,,,,,,,,,,,,,,,,,,,,,,,,,,,,,,,,,,,,,,,,,,,,,,,,,,,,
,,5d66f23706e589000157e7ec,2024-01-06_05h49.12.761,kallum_motion_pilot,2023.2.3,Win32,59.88023952,5d66f23706e589000157e7ec,6598e6a5d84f07970b831e70,6598e7a1028cf37c59bf7974,0.0612,0.0612,0,41,41,8,1,onetwo,,,,,,,,,,,,,,,,,,,,,,,,,,,,,,,,,,,,,,,,,,,,,,,,,,,,,,,,,,,,,,,,,,,,,,,,,,,,,,,,,,,,,,,,,,,,,,,,,,,,,,,,,,,,,,,,,,,,,,,,,,,,,,,,,,,,,,,
,,5d66f23706e589000157e7ec,2024-01-06_05h49.12.761,kallum_motion_pilot,2023.2.3,Win32,59.88023952,5d66f23706e589000157e7ec,6598e6a5d84f07970b831e70,6598e7a1028cf37c59bf7974,0.0614,0.0615,0,42,42,90,1,sixfive,,,,,,,,,,,,,,,,,,,,,,,,,,,,,,,,,,,,,,,,,,,,,,,,,,,,,,,,,,,,,,,,,,,,,,,,,,,,,,,,,,,,,,,,,,,,,,,,,,,,,,,,,,,,,,,,,,,,,,,,,,,,,,,,,,,,,,,
,,5d66f23706e589000157e7ec,2024-01-06_05h49.12.761,kallum_motion_pilot,2023.2.3,Win32,59.88023952,5d66f23706e589000157e7ec,6598e6a5d84f07970b831e70,6598e7a1028cf37c59bf7974,0.0616,0.0617,0,43,43,117,1,seveneight,,,,,,,,,,,,,,,,,,,,,,,,,,,,,,,,,,,,,,,,,,,,,,,,,,,,,,,,,,,,,,,,,,,,,,,,,,,,,,,,,,,,,,,,,,,,,,,,,,,,,,,,,,,,,,,,,,,,,,,,,,,,,,,,,,,,,,,
,,5d66f23706e589000157e7ec,2024-01-06_05h49.12.761,kallum_motion_pilot,2023.2.3,Win32,59.88023952,5d66f23706e589000157e7ec,6598e6a5d84f07970b831e70,6598e7a1028cf37c59bf7974,0.062,0.062,0,44,44,28,1,threeone,,,,,,,,,,,,,,,,,,,,,,,,,,,,,,,,,,,,,,,,,,,,,,,,,,,,,,,,,,,,,,,,,,,,,,,,,,,,,,,,,,,,,,,,,,,,,,,,,,,,,,,,,,,,,,,,,,,,,,,,,,,,,,,,,,,,,,,
,,5d66f23706e589000157e7ec,2024-01-06_05h49.12.761,kallum_motion_pilot,2023.2.3,Win32,59.88023952,5d66f23706e589000157e7ec,6598e6a5d84f07970b831e70,6598e7a1028cf37c59bf7974,0.0622,0.0623,0,45,45,111,1,eightseven,,,,,,,,,,,,,,,,,,,,,,,,,,,,,,,,,,,,,,,,,,,,,,,,,,,,,,,,,,,,,,,,,,,,,,,,,,,,,,,,,,,,,,,,,,,,,,,,,,,,,,,,,,,,,,,,,,,,,,,,,,,,,,,,,,,,,,,
,,5d66f23706e589000157e7ec,2024-01-06_05h49.12.761,kallum_motion_pilot,2023.2.3,Win32,59.88023952,5d66f23706e589000157e7ec,6598e6a5d84f07970b831e70,6598e7a1028cf37c59bf7974,0.0624,0.0625,0,46,46,71,1,fourthree,,,,,,,,,,,,,,,,,,,,,,,,,,,,,,,,,,,,,,,,,,,,,,,,,,,,,,,,,,,,,,,,,,,,,,,,,,,,,,,,,,,,,,,,,,,,,,,,,,,,,,,,,,,,,,,,,,,,,,,,,,,,,,,,,,,,,,,
,,5d66f23706e589000157e7ec,2024-01-06_05h49.12.761,kallum_motion_pilot,2023.2.3,Win32,59.88023952,5d66f23706e589000157e7ec,6598e6a5d84f07970b831e70,6598e7a1028cf37c59bf7974,0.0626,0.0627,0,47,47,136,1,fivesix,,,,,,,,,,,,,,,,,,,,,,,,,,,,,,,,,,,,,,,,,,,,,,,,,,,,,,,,,,,,,,,,,,,,,,,,,,,,,,,,,,,,,,,,,,,,,,,,,,,,,,,,,,,,,,,,,,,,,,,,,,,,,,,,,,,,,,,
,,5d66f23706e589000157e7ec,2024-01-06_05h49.12.761,kallum_motion_pilot,2023.2.3,Win32,59.88023952,5d66f23706e589000157e7ec,6598e6a5d84f07970b831e70,6598e7a1028cf37c59bf7974,0.0629,0.063,0,48,48,46,1,fourtwo,,,,,,,,,,,,,,,,,,,,,,,,,,,,,,,,,,,,,,,,,,,,,,,,,,,,,,,,,,,,,,,,,,,,,,,,,,,,,,,,,,,,,,,,,,,,,,,,,,,,,,,,,,,,,,,,,,,,,,,,,,,,,,,,,,,,,,,
,,5d66f23706e589000157e7ec,2024-01-06_05h49.12.761,kallum_motion_pilot,2023.2.3,Win32,59.88023952,5d66f23706e589000157e7ec,6598e6a5d84f07970b831e70,6598e7a1028cf37c59bf7974,0.0632,0.0632,0,49,49,40,1,onetwo,,,,,,,,,,,,,,,,,,,,,,,,,,,,,,,,,,,,,,,,,,,,,,,,,,,,,,,,,,,,,,,,,,,,,,,,,,,,,,,,,,,,,,,,,,,,,,,,,,,,,,,,,,,,,,,,,,,,,,,,,,,,,,,,,,,,,,,
,,5d66f23706e589000157e7ec,2024-01-06_05h49.12.761,kallum_motion_pilot,2023.2.3,Win32,59.88023952,5d66f23706e589000157e7ec,6598e6a5d84f07970b831e70,6598e7a1028cf37c59bf7974,0.0634,0.0634,0,50,50,141,1,seveneight,,,,,,,,,,,,,,,,,,,,,,,,,,,,,,,,,,,,,,,,,,,,,,,,,,,,,,,,,,,,,,,,,,,,,,,,,,,,,,,,,,,,,,,,,,,,,,,,,,,,,,,,,,,,,,,,,,,,,,,,,,,,,,,,,,,,,,,
,,5d66f23706e589000157e7ec,2024-01-06_05h49.12.761,kallum_motion_pilot,2023.2.3,Win32,59.88023952,5d66f23706e589000157e7ec,6598e6a5d84f07970b831e70,6598e7a1028cf37c59bf7974,0.0636,0.0637,0,51,51,145,1,fiveseven,,,,,,,,,,,,,,,,,,,,,,,,,,,,,,,,,,,,,,,,,,,,,,,,,,,,,,,,,,,,,,,,,,,,,,,,,,,,,,,,,,,,,,,,,,,,,,,,,,,,,,,,,,,,,,,,,,,,,,,,,,,,,,,,,,,,,,,
,,5d66f23706e589000157e7ec,2024-01-06_05h49.12.761,kallum_motion_pilot,2023.2.3,Win32,59.88023952,5d66f23706e589000157e7ec,6598e6a5d84f07970b831e70,6598e7a1028cf37c59bf7974,0.0639,0.0639,0,52,52,53,1,threefour,,,,,,,,,,,,,,,,,,,,,,,,,,,,,,,,,,,,,,,,,,,,,,,,,,,,,,,,,,,,,,,,,,,,,,,,,,,,,,,,,,,,,,,,,,,,,,,,,,,,,,,,,,,,,,,,,,,,,,,,,,,,,,,,,,,,,,,
,,5d66f23706e589000157e7ec,2024-01-06_05h49.12.761,kallum_motion_pilot,2023.2.3,Win32,59.88023952,5d66f23706e589000157e7ec,6598e6a5d84f07970b831e70,6598e7a1028cf37c59bf7974,0.0641,0.0642,0,53,53,91,1,sixeight,,,,,,,,,,,,,,,,,,,,,,,,,,,,,,,,,,,,,,,,,,,,,,,,,,,,,,,,,,,,,,,,,,,,,,,,,,,,,,,,,,,,,,,,,,,,,,,,,,,,,,,,,,,,,,,,,,,,,,,,,,,,,,,,,,,,,,,
,,5d66f23706e589000157e7ec,2024-01-06_05h49.12.761,kallum_motion_pilot,2023.2.3,Win32,59.88023952,5d66f23706e589000157e7ec,6598e6a5d84f07970b831e70,6598e7a1028cf37c59bf7974,0.0664,0.0666,0,54,54,67,1,twofour,,,,,,,,,,,,,,,,,,,,,,,,,,,,,,,,,,,,,,,,,,,,,,,,,,,,,,,,,,,,,,,,,,,,,,,,,,,,,,,,,,,,,,,,,,,,,,,,,,,,,,,,,,,,,,,,,,,,,,,,,,,,,,,,,,,,,,,
,,5d66f23706e589000157e7ec,2024-01-06_05h49.12.761,kallum_motion_pilot,2023.2.3,Win32,59.88023952,5d66f23706e589000157e7ec,6598e6a5d84f07970b831e70,6598e7a1028cf37c59bf7974,0.067,0.0671,0,55,55,127,1,eightseven,,,,,,,,,,,,,,,,,,,,,,,,,,,,,,,,,,,,,,,,,,,,,,,,,,,,,,,,,,,,,,,,,,,,,,,,,,,,,,,,,,,,,,,,,,,,,,,,,,,,,,,,,,,,,,,,,,,,,,,,,,,,,,,,,,,,,,,
,,5d66f23706e589000157e7ec,2024-01-06_05h49.12.761,kallum_motion_pilot,2023.2.3,Win32,59.88023952,5d66f23706e589000157e7ec,6598e6a5d84f07970b831e70,6598e7a1028cf37c59bf7974,0.0674,0.0677,0,56,56,61,1,threefour,,,,,,,,,,,,,,,,,,,,,,,,,,,,,,,,,,,,,,,,,,,,,,,,,,,,,,,,,,,,,,,,,,,,,,,,,,,,,,,,,,,,,,,,,,,,,,,,,,,,,,,,,,,,,,,,,,,,,,,,,,,,,,,,,,,,,,,
,,5d66f23706e589000157e7ec,2024-01-06_05h49.12.761,kallum_motion_pilot,2023.2.3,Win32,59.88023952,5d66f23706e589000157e7ec,6598e6a5d84f07970b831e70,6598e7a1028cf37c59bf7974,0.0683,0.0685,0,57,57,155,1,sixeight,,,,,,,,,,,,,,,,,,,,,,,,,,,,,,,,,,,,,,,,,,,,,,,,,,,,,,,,,,,,,,,,,,,,,,,,,,,,,,,,,,,,,,,,,,,,,,,,,,,,,,,,,,,,,,,,,,,,,,,,,,,,,,,,,,,,,,,
,,5d66f23706e589000157e7ec,2024-01-06_05h49.12.761,kallum_motion_pilot,2023.2.3,Win32,59.88023952,5d66f23706e589000157e7ec,6598e6a5d84f07970b831e70,6598e7a1028cf37c59bf7974,0.0688,0.069,0,58,58,99,1,sixeight,,,,,,,,,,,,,,,,,,,,,,,,,,,,,,,,,,,,,,,,,,,,,,,,,,,,,,,,,,,,,,,,,,,,,,,,,,,,,,,,,,,,,,,,,,,,,,,,,,,,,,,,,,,,,,,,,,,,,,,,,,,,,,,,,,,,,,,
,,5d66f23706e589000157e7ec,2024-01-06_05h49.12.761,kallum_motion_pilot,2023.2.3,Win32,59.88023952,5d66f23706e589000157e7ec,6598e6a5d84f07970b831e70,6598e7a1028cf37c59bf7974,0.0692,0.0693,0,59,59,154,1,sixfive,,,,,,,,,,,,,,,,,,,,,,,,,,,,,,,,,,,,,,,,,,,,,,,,,,,,,,,,,,,,,,,,,,,,,,,,,,,,,,,,,,,,,,,,,,,,,,,,,,,,,,,,,,,,,,,,,,,,,,,,,,,,,,,,,,,,,,,
,,5d66f23706e589000157e7ec,2024-01-06_05h49.12.761,kallum_motion_pilot,2023.2.3,Win32,59.88023952,5d66f23706e589000157e7ec,6598e6a5d84f07970b831e70,6598e7a1028cf37c59bf7974,0.0695,0.0696,0,60,60,44,1,threeone,,,,,,,,,,,,,,,,,,,,,,,,,,,,,,,,,,,,,,,,,,,,,,,,,,,,,,,,,,,,,,,,,,,,,,,,,,,,,,,,,,,,,,,,,,,,,,,,,,,,,,,,,,,,,,,,,,,,,,,,,,,,,,,,,,,,,,,
,,5d66f23706e589000157e7ec,2024-01-06_05h49.12.761,kallum_motion_pilot,2023.2.3,Win32,59.88023952,5d66f23706e589000157e7ec,6598e6a5d84f07970b831e70,6598e7a1028cf37c59bf7974,0.0698,0.0698,0,61,61,87,1,eightseven,,,,,,,,,,,,,,,,,,,,,,,,,,,,,,,,,,,,,,,,,,,,,,,,,,,,,,,,,,,,,,,,,,,,,,,,,,,,,,,,,,,,,,,,,,,,,,,,,,,,,,,,,,,,,,,,,,,,,,,,,,,,,,,,,,,,,,,
,,5d66f23706e589000157e7ec,2024-01-06_05h49.12.761,kallum_motion_pilot,2023.2.3,Win32,59.88023952,5d66f23706e589000157e7ec,6598e6a5d84f07970b831e70,6598e7a1028cf37c59bf7974,0.0701,0.0701,0,62,62,125,1,seveneight,,,,,,,,,,,,,,,,,,,,,,,,,,,,,,,,,,,,,,,,,,,,,,,,,,,,,,,,,,,,,,,,,,,,,,,,,,,,,,,,,,,,,,,,,,,,,,,,,,,,,,,,,,,,,,,,,,,,,,,,,,,,,,,,,,,,,,,
,,5d66f23706e589000157e7ec,2024-01-06_05h49.12.761,kallum_motion_pilot,2023.2.3,Win32,59.88023952,5d66f23706e589000157e7ec,6598e6a5d84f07970b831e70,6598e7a1028cf37c59bf7974,0.0704,0.0705,0,63,63,120,1,fivesix,,,,,,,,,,,,,,,,,,,,,,,,,,,,,,,,,,,,,,,,,,,,,,,,,,,,,,,,,,,,,,,,,,,,,,,,,,,,,,,,,,,,,,,,,,,,,,,,,,,,,,,,,,,,,,,,,,,,,,,,,,,,,,,,,,,,,,,
,,5d66f23706e589000157e7ec,2024-01-06_05h49.12.761,kallum_motion_pilot,2023.2.3,Win32,59.88023952,5d66f23706e589000157e7ec,6598e6a5d84f07970b831e70,6598e7a1028cf37c59bf7974,0.0708,0.0709,0,64,64,43,1,twofour,,,,,,,,,,,,,,,,,,,,,,,,,,,,,,,,,,,,,,,,,,,,,,,,,,,,,,,,,,,,,,,,,,,,,,,,,,,,,,,,,,,,,,,,,,,,,,,,,,,,,,,,,,,,,,,,,,,,,,,,,,,,,,,,,,,,,,,
,,5d66f23706e589000157e7ec,2024-01-06_05h49.12.761,kallum_motion_pilot,2023.2.3,Win32,59.88023952,5d66f23706e589000157e7ec,6598e6a5d84f07970b831e70,6598e7a1028cf37c59bf7974,0.0711,0.0711,0,65,65,119,1,eightseven,,,,,,,,,,,,,,,,,,,,,,,,,,,,,,,,,,,,,,,,,,,,,,,,,,,,,,,,,,,,,,,,,,,,,,,,,,,,,,,,,,,,,,,,,,,,,,,,,,,,,,,,,,,,,,,,,,,,,,,,,,,,,,,,,,,,,,,
,,5d66f23706e589000157e7ec,2024-01-06_05h49.12.761,kallum_motion_pilot,2023.2.3,Win32,59.88023952,5d66f23706e589000157e7ec,6598e6a5d84f07970b831e70,6598e7a1028cf37c59bf7974,0.0714,0.0714,0,66,66,106,1,sixfive,,,,,,,,,,,,,,,,,,,,,,,,,,,,,,,,,,,,,,,,,,,,,,,,,,,,,,,,,,,,,,,,,,,,,,,,,,,,,,,,,,,,,,,,,,,,,,,,,,,,,,,,,,,,,,,,,,,,,,,,,,,,,,,,,,,,,,,
,,5d66f23706e589000157e7ec,2024-01-06_05h49.12.761,kallum_motion_pilot,2023.2.3,Win32,59.88023952,5d66f23706e589000157e7ec,6598e6a5d84f07970b831e70,6598e7a1028cf37c59bf7974,0.0716,0.0717,0,67,67,51,1,twofour,,,,,,,,,,,,,,,,,,,,,,,,,,,,,,,,,,,,,,,,,,,,,,,,,,,,,,,,,,,,,,,,,,,,,,,,,,,,,,,,,,,,,,,,,,,,,,,,,,,,,,,,,,,,,,,,,,,,,,,,,,,,,,,,,,,,,,,
,,5d66f23706e589000157e7ec,2024-01-06_05h49.12.761,kallum_motion_pilot,2023.2.3,Win32,59.88023952,5d66f23706e589000157e7ec,6598e6a5d84f07970b831e70,6598e7a1028cf37c59bf7974,0.0719,0.072,0,68,68,148,1,sevenfive,,,,,,,,,,,,,,,,,,,,,,,,,,,,,,,,,,,,,,,,,,,,,,,,,,,,,,,,,,,,,,,,,,,,,,,,,,,,,,,,,,,,,,,,,,,,,,,,,,,,,,,,,,,,,,,,,,,,,,,,,,,,,,,,,,,,,,,
,,5d66f23706e589000157e7ec,2024-01-06_05h49.12.761,kallum_motion_pilot,2023.2.3,Win32,59.88023952,5d66f23706e589000157e7ec,6598e6a5d84f07970b831e70,6598e7a1028cf37c59bf7974,0.0721,0.0722,0,69,69,50,1,twoone,,,,,,,,,,,,,,,,,,,,,,,,,,,,,,,,,,,,,,,,,,,,,,,,,,,,,,,,,,,,,,,,,,,,,,,,,,,,,,,,,,,,,,,,,,,,,,,,,,,,,,,,,,,,,,,,,,,,,,,,,,,,,,,,,,,,,,,
,,5d66f23706e589000157e7ec,2024-01-06_05h49.12.761,kallum_motion_pilot,2023.2.3,Win32,59.88023952,5d66f23706e589000157e7ec,6598e6a5d84f07970b831e70,6598e7a1028cf37c59bf7974,0.0725,0.0725,0,70,70,37,1,threefour,,,,,,,,,,,,,,,,,,,,,,,,,,,,,,,,,,,,,,,,,,,,,,,,,,,,,,,,,,,,,,,,,,,,,,,,,,,,,,,,,,,,,,,,,,,,,,,,,,,,,,,,,,,,,,,,,,,,,,,,,,,,,,,,,,,,,,,
,,5d66f23706e589000157e7ec,2024-01-06_05h49.12.761,kallum_motion_pilot,2023.2.3,Win32,59.88023952,5d66f23706e589000157e7ec,6598e6a5d84f07970b831e70,6598e7a1028cf37c59bf7974,0.0728,0.0728,0,71,71,59,1,twofour,,,,,,,,,,,,,,,,,,,,,,,,,,,,,,,,,,,,,,,,,,,,,,,,,,,,,,,,,,,,,,,,,,,,,,,,,,,,,,,,,,,,,,,,,,,,,,,,,,,,,,,,,,,,,,,,,,,,,,,,,,,,,,,,,,,,,,,
,,5d66f23706e589000157e7ec,2024-01-06_05h49.12.761,kallum_motion_pilot,2023.2.3,Win32,59.88023952,5d66f23706e589000157e7ec,6598e6a5d84f07970b831e70,6598e7a1028cf37c59bf7974,0.073,0.073,0,72,72,38,1,fourtwo,,,,,,,,,,,,,,,,,,,,,,,,,,,,,,,,,,,,,,,,,,,,,,,,,,,,,,,,,,,,,,,,,,,,,,,,,,,,,,,,,,,,,,,,,,,,,,,,,,,,,,,,,,,,,,,,,,,,,,,,,,,,,,,,,,,,,,,
,,5d66f23706e589000157e7ec,2024-01-06_05h49.12.761,kallum_motion_pilot,2023.2.3,Win32,59.88023952,5d66f23706e589000157e7ec,6598e6a5d84f07970b831e70,6598e7a1028cf37c59bf7974,0.0733,0.0734,0,73,73,94,1,eightsix,,,,,,,,,,,,,,,,,,,,,,,,,,,,,,,,,,,,,,,,,,,,,,,,,,,,,,,,,,,,,,,,,,,,,,,,,,,,,,,,,,,,,,,,,,,,,,,,,,,,,,,,,,,,,,,,,,,,,,,,,,,,,,,,,,,,,,,
,,5d66f23706e589000157e7ec,2024-01-06_05h49.12.761,kallum_motion_pilot,2023.2.3,Win32,59.88023952,5d66f23706e589000157e7ec,6598e6a5d84f07970b831e70,6598e7a1028cf37c59bf7974,0.0735,0.0737,0,74,74,149,1,seveneight,,,,,,,,,,,,,,,,,,,,,,,,,,,,,,,,,,,,,,,,,,,,,,,,,,,,,,,,,,,,,,,,,,,,,,,,,,,,,,,,,,,,,,,,,,,,,,,,,,,,,,,,,,,,,,,,,,,,,,,,,,,,,,,,,,,,,,,
,,5d66f23706e589000157e7ec,2024-01-06_05h49.12.761,kallum_motion_pilot,2023.2.3,Win32,59.88023952,5d66f23706e589000157e7ec,6598e6a5d84f07970b831e70,6598e7a1028cf37c59bf7974,0.0739,0.074,0,75,75,68,1,threeone,,,,,,,,,,,,,,,,,,,,,,,,,,,,,,,,,,,,,,,,,,,,,,,,,,,,,,,,,,,,,,,,,,,,,,,,,,,,,,,,,,,,,,,,,,,,,,,,,,,,,,,,,,,,,,,,,,,,,,,,,,,,,,,,,,,,,,,
,,5d66f23706e589000157e7ec,2024-01-06_05h49.12.761,kallum_motion_pilot,2023.2.3,Win32,59.88023952,5d66f23706e589000157e7ec,6598e6a5d84f07970b831e70,6598e7a1028cf37c59bf7974,0.0741,0.0743,0,76,76,123,1,sixeight,,,,,,,,,,,,,,,,,,,,,,,,,,,,,,,,,,,,,,,,,,,,,,,,,,,,,,,,,,,,,,,,,,,,,,,,,,,,,,,,,,,,,,,,,,,,,,,,,,,,,,,,,,,,,,,,,,,,,,,,,,,,,,,,,,,,,,,
,,5d66f23706e589000157e7ec,2024-01-06_05h49.12.761,kallum_motion_pilot,2023.2.3,Win32,59.88023952,5d66f23706e589000157e7ec,6598e6a5d84f07970b831e70,6598e7a1028cf37c59bf7974,0.0744,0.0745,0,77,77,129,1,fiveseven,,,,,,,,,,,,,,,,,,,,,,,,,,,,,,,,,,,,,,,,,,,,,,,,,,,,,,,,,,,,,,,,,,,,,,,,,,,,,,,,,,,,,,,,,,,,,,,,,,,,,,,,,,,,,,,,,,,,,,,,,,,,,,,,,,,,,,,
,,5d66f23706e589000157e7ec,2024-01-06_05h49.12.761,kallum_motion_pilot,2023.2.3,Win32,59.88023952,5d66f23706e589000157e7ec,6598e6a5d84f07970b831e70,6598e7a1028cf37c59bf7974,0.0746,0.0748,0,78,78,150,1,eightsix,,,,,,,,,,,,,,,,,,,,,,,,,,,,,,,,,,,,,,,,,,,,,,,,,,,,,,,,,,,,,,,,,,,,,,,,,,,,,,,,,,,,,,,,,,,,,,,,,,,,,,,,,,,,,,,,,,,,,,,,,,,,,,,,,,,,,,,
,,5d66f23706e589000157e7ec,2024-01-06_05h49.12.761,kallum_motion_pilot,2023.2.3,Win32,59.88023952,5d66f23706e589000157e7ec,6598e6a5d84f07970b831e70,6598e7a1028cf37c59bf7974,0.0749,0.075,0,79,79,45,1,threefour,,,,,,,,,,,,,,,,,,,,,,,,,,,,,,,,,,,,,,,,,,,,,,,,,,,,,,,,,,,,,,,,,,,,,,,,,,,,,,,,,,,,,,,,,,,,,,,,,,,,,,,,,,,,,,,,,,,,,,,,,,,,,,,,,,,,,,,
,,5d66f23706e589000157e7ec,2024-01-06_05h49.12.761,kallum_motion_pilot,2023.2.3,Win32,59.88023952,5d66f23706e589000157e7ec,6598e6a5d84f07970b831e70,6598e7a1028cf37c59bf7974,0.0753,0.0754,0,80,80,138,1,sixfive,,,,,,,,,,,,,,,,,,,,,,,,,,,,,,,,,,,,,,,,,,,,,,,,,,,,,,,,,,,,,,,,,,,,,,,,,,,,,,,,,,,,,,,,,,,,,,,,,,,,,,,,,,,,,,,,,,,,,,,,,,,,,,,,,,,,,,,
,,5d66f23706e589000157e7ec,2024-01-06_05h49.12.761,kallum_motion_pilot,2023.2.3,Win32,59.88023952,5d66f23706e589000157e7ec,6598e6a5d84f07970b831e70,6598e7a1028cf37c59bf7974,0.0757,0.0757,0,81,81,93,1,seveneight,,,,,,,,,,,,,,,,,,,,,,,,,,,,,,,,,,,,,,,,,,,,,,,,,,,,,,,,,,,,,,,,,,,,,,,,,,,,,,,,,,,,,,,,,,,,,,,,,,,,,,,,,,,,,,,,,,,,,,,,,,,,,,,,,,,,,,,
,,5d66f23706e589000157e7ec,2024-01-06_05h49.12.761,kallum_motion_pilot,2023.2.3,Win32,59.88023952,5d66f23706e589000157e7ec,6598e6a5d84f07970b831e70,6598e7a1028cf37c59bf7974,0.0759,0.076,0,82,82,2,1,twoone,,,,,,,,,,,,,,,,,,,,,,,,,,,,,,,,,,,,,,,,,,,,,,,,,,,,,,,,,,,,,,,,,,,,,,,,,,,,,,,,,,,,,,,,,,,,,,,,,,,,,,,,,,,,,,,,,,,,,,,,,,,,,,,,,,,,,,,
,,5d66f23706e589000157e7ec,2024-01-06_05h49.12.761,kallum_motion_pilot,2023.2.3,Win32,59.88023952,5d66f23706e589000157e7ec,6598e6a5d84f07970b831e70,6598e7a1028cf37c59bf7974,0.0762,0.0763,0,83,83,78,1,fourtwo,,,,,,,,,,,,,,,,,,,,,,,,,,,,,,,,,,,,,,,,,,,,,,,,,,,,,,,,,,,,,,,,,,,,,,,,,,,,,,,,,,,,,,,,,,,,,,,,,,,,,,,,,,,,,,,,,,,,,,,,,,,,,,,,,,,,,,,
,,5d66f23706e589000157e7ec,2024-01-06_05h49.12.761,kallum_motion_pilot,2023.2.3,Win32,59.88023952,5d66f23706e589000157e7ec,6598e6a5d84f07970b831e70,6598e7a1028cf37c59bf7974,0.0766,0.0767,0,84,84,98,1,sixfive,,,,,,,,,,,,,,,,,,,,,,,,,,,,,,,,,,,,,,,,,,,,,,,,,,,,,,,,,,,,,,,,,,,,,,,,,,,,,,,,,,,,,,,,,,,,,,,,,,,,,,,,,,,,,,,,,,,,,,,,,,,,,,,,,,,,,,,
,,5d66f23706e589000157e7ec,2024-01-06_05h49.12.761,kallum_motion_pilot,2023.2.3,Win32,59.88023952,5d66f23706e589000157e7ec,6598e6a5d84f07970b831e70,6598e7a1028cf37c59bf7974,0.0769,0.0771,0,85,85,122,1,sixfive,,,,,,,,,,,,,,,,,,,,,,,,,,,,,,,,,,,,,,,,,,,,,,,,,,,,,,,,,,,,,,,,,,,,,,,,,,,,,,,,,,,,,,,,,,,,,,,,,,,,,,,,,,,,,,,,,,,,,,,,,,,,,,,,,,,,,,,
,,5d66f23706e589000157e7ec,2024-01-06_05h49.12.761,kallum_motion_pilot,2023.2.3,Win32,59.88023952,5d66f23706e589000157e7ec,6598e6a5d84f07970b831e70,6598e7a1028cf37c59bf7974,0.0773,0.0774,0,86,86,69,1,threefour,,,,,,,,,,,,,,,,,,,,,,,,,,,,,,,,,,,,,,,,,,,,,,,,,,,,,,,,,,,,,,,,,,,,,,,,,,,,,,,,,,,,,,,,,,,,,,,,,,,,,,,,,,,,,,,,,,,,,,,,,,,,,,,,,,,,,,,
,,5d66f23706e589000157e7ec,2024-01-06_05h49.12.761,kallum_motion_pilot,2023.2.3,Win32,59.88023952,5d66f23706e589000157e7ec,6598e6a5d84f07970b831e70,6598e7a1028cf37c59bf7974,0.0776,0.0778,0,87,87,124,1,sevenfive,,,,,,,,,,,,,,,,,,,,,,,,,,,,,,,,,,,,,,,,,,,,,,,,,,,,,,,,,,,,,,,,,,,,,,,,,,,,,,,,,,,,,,,,,,,,,,,,,,,,,,,,,,,,,,,,,,,,,,,,,,,,,,,,,,,,,,,
,,5d66f23706e589000157e7ec,2024-01-06_05h49.12.761,kallum_motion_pilot,2023.2.3,Win32,59.88023952,5d66f23706e589000157e7ec,6598e6a5d84f07970b831e70,6598e7a1028cf37c59bf7974,0.0779,0.0781,0,88,88,134,1,eightsix,,,,,,,,,,,,,,,,,,,,,,,,,,,,,,,,,,,,,,,,,,,,,,,,,,,,,,,,,,,,,,,,,,,,,,,,,,,,,,,,,,,,,,,,,,,,,,,,,,,,,,,,,,,,,,,,,,,,,,,,,,,,,,,,,,,,,,,
,,5d66f23706e589000157e7ec,2024-01-06_05h49.12.761,kallum_motion_pilot,2023.2.3,Win32,59.88023952,5d66f23706e589000157e7ec,6598e6a5d84f07970b831e70,6598e7a1028cf37c59bf7974,0.0783,0.0784,0,89,89,131,1,sixeight,,,,,,,,,,,,,,,,,,,,,,,,,,,,,,,,,,,,,,,,,,,,,,,,,,,,,,,,,,,,,,,,,,,,,,,,,,,,,,,,,,,,,,,,,,,,,,,,,,,,,,,,,,,,,,,,,,,,,,,,,,,,,,,,,,,,,,,
,,5d66f23706e589000157e7ec,2024-01-06_05h49.12.761,kallum_motion_pilot,2023.2.3,Win32,59.88023952,5d66f23706e589000157e7ec,6598e6a5d84f07970b831e70,6598e7a1028cf37c59bf7974,0.0786,0.0787,0,90,90,157,1,seveneight,,,,,,,,,,,,,,,,,,,,,,,,,,,,,,,,,,,,,,,,,,,,,,,,,,,,,,,,,,,,,,,,,,,,,,,,,,,,,,,,,,,,,,,,,,,,,,,,,,,,,,,,,,,,,,,,,,,,,,,,,,,,,,,,,,,,,,,
,,5d66f23706e589000157e7ec,2024-01-06_05h49.12.761,kallum_motion_pilot,2023.2.3,Win32,59.88023952,5d66f23706e589000157e7ec,6598e6a5d84f07970b831e70,6598e7a1028cf37c59bf7974,0.0789,0.0791,0,91,91,75,1,twofour,,,,,,,,,,,,,,,,,,,,,,,,,,,,,,,,,,,,,,,,,,,,,,,,,,,,,,,,,,,,,,,,,,,,,,,,,,,,,,,,,,,,,,,,,,,,,,,,,,,,,,,,,,,,,,,,,,,,,,,,,,,,,,,,,,,,,,,
,,5d66f23706e589000157e7ec,2024-01-06_05h49.12.761,kallum_motion_pilot,2023.2.3,Win32,59.88023952,5d66f23706e589000157e7ec,6598e6a5d84f07970b831e70,6598e7a1028cf37c59bf7974,0.0792,0.0794,0,92,92,32,1,onetwo,,,,,,,,,,,,,,,,,,,,,,,,,,,,,,,,,,,,,,,,,,,,,,,,,,,,,,,,,,,,,,,,,,,,,,,,,,,,,,,,,,,,,,,,,,,,,,,,,,,,,,,,,,,,,,,,,,,,,,,,,,,,,,,,,,,,,,,
,,5d66f23706e589000157e7ec,2024-01-06_05h49.12.761,kallum_motion_pilot,2023.2.3,Win32,59.88023952,5d66f23706e589000157e7ec,6598e6a5d84f07970b831e70,6598e7a1028cf37c59bf7974,0.0796,0.0797,0,93,93,64,1,onetwo,,,,,,,,,,,,,,,,,,,,,,,,,,,,,,,,,,,,,,,,,,,,,,,,,,,,,,,,,,,,,,,,,,,,,,,,,,,,,,,,,,,,,,,,,,,,,,,,,,,,,,,,,,,,,,,,,,,,,,,,,,,,,,,,,,,,,,,
,,5d66f23706e589000157e7ec,2024-01-06_05h49.12.761,kallum_motion_pilot,2023.2.3,Win32,59.88023952,5d66f23706e589000157e7ec,6598e6a5d84f07970b831e70,6598e7a1028cf37c59bf7974,0.0799,0.0801,0,94,94,147,1,sixeight,,,,,,,,,,,,,,,,,,,,,,,,,,,,,,,,,,,,,,,,,,,,,,,,,,,,,,,,,,,,,,,,,,,,,,,,,,,,,,,,,,,,,,,,,,,,,,,,,,,,,,,,,,,,,,,,,,,,,,,,,,,,,,,,,,,,,,,
,,5d66f23706e589000157e7ec,2024-01-06_05h49.12.761,kallum_motion_pilot,2023.2.3,Win32,59.88023952,5d66f23706e589000157e7ec,6598e6a5d84f07970b831e70,6598e7a1028cf37c59bf7974,0.0803,0.0804,0,95,95,48,1,onetwo,,,,,,,,,,,,,,,,,,,,,,,,,,,,,,,,,,,,,,,,,,,,,,,,,,,,,,,,,,,,,,,,,,,,,,,,,,,,,,,,,,,,,,,,,,,,,,,,,,,,,,,,,,,,,,,,,,,,,,,,,,,,,,,,,,,,,,,
,,5d66f23706e589000157e7ec,2024-01-06_05h49.12.761,kallum_motion_pilot,2023.2.3,Win32,59.88023952,5d66f23706e589000157e7ec,6598e6a5d84f07970b831e70,6598e7a1028cf37c59bf7974,0.0807,0.0808,0,96,96,137,1,fiveseven,,,,,,,,,,,,,,,,,,,,,,,,,,,,,,,,,,,,,,,,,,,,,,,,,,,,,,,,,,,,,,,,,,,,,,,,,,,,,,,,,,,,,,,,,,,,,,,,,,,,,,,,,,,,,,,,,,,,,,,,,,,,,,,,,,,,,,,
,,5d66f23706e589000157e7ec,2024-01-06_05h49.12.761,kallum_motion_pilot,2023.2.3,Win32,59.88023952,5d66f23706e589000157e7ec,6598e6a5d84f07970b831e70,6598e7a1028cf37c59bf7974,0.081,0.0811,0,97,97,156,1,sevenfive,,,,,,,,,,,,,,,,,,,,,,,,,,,,,,,,,,,,,,,,,,,,,,,,,,,,,,,,,,,,,,,,,,,,,,,,,,,,,,,,,,,,,,,,,,,,,,,,,,,,,,,,,,,,,,,,,,,,,,,,,,,,,,,,,,,,,,,
,,5d66f23706e589000157e7ec,2024-01-06_05h49.12.761,kallum_motion_pilot,2023.2.3,Win32,59.88023952,5d66f23706e589000157e7ec,6598e6a5d84f07970b831e70,6598e7a1028cf37c59bf7974,0.0813,0.0815,0,98,98,72,1,onetwo,,,,,,,,,,,,,,,,,,,,,,,,,,,,,,,,,,,,,,,,,,,,,,,,,,,,,,,,,,,,,,,,,,,,,,,,,,,,,,,,,,,,,,,,,,,,,,,,,,,,,,,,,,,,,,,,,,,,,,,,,,,,,,,,,,,,,,,
,,5d66f23706e589000157e7ec,2024-01-06_05h49.12.761,kallum_motion_pilot,2023.2.3,Win32,59.88023952,5d66f23706e589000157e7ec,6598e6a5d84f07970b831e70,6598e7a1028cf37c59bf7974,0.0817,0.0819,0,99,99,26,1,twoone,,,,,,,,,,,,,,,,,,,,,,,,,,,,,,,,,,,,,,,,,,,,,,,,,,,,,,,,,,,,,,,,,,,,,,,,,,,,,,,,,,,,,,,,,,,,,,,,,,,,,,,,,,,,,,,,,,,,,,,,,,,,,,,,,,,,,,,
,,5d66f23706e589000157e7ec,2024-01-06_05h49.12.761,kallum_motion_pilot,2023.2.3,Win32,59.88023952,5d66f23706e589000157e7ec,6598e6a5d84f07970b831e70,6598e7a1028cf37c59bf7974,0.0821,0.0822,0,100,100,114,1,sixfive,,,,,,,,,,,,,,,,,,,,,,,,,,,,,,,,,,,,,,,,,,,,,,,,,,,,,,,,,,,,,,,,,,,,,,,,,,,,,,,,,,,,,,,,,,,,,,,,,,,,,,,,,,,,,,,,,,,,,,,,,,,,,,,,,,,,,,,
,,5d66f23706e589000157e7ec,2024-01-06_05h49.12.761,kallum_motion_pilot,2023.2.3,Win32,59.88023952,5d66f23706e589000157e7ec,6598e6a5d84f07970b831e70,6598e7a1028cf37c59bf7974,0.0824,0.0827,0,101,101,14,1,fourtwo,,,,,,,,,,,,,,,,,,,,,,,,,,,,,,,,,,,,,,,,,,,,,,,,,,,,,,,,,,,,,,,,,,,,,,,,,,,,,,,,,,,,,,,,,,,,,,,,,,,,,,,,,,,,,,,,,,,,,,,,,,,,,,,,,,,,,,,
,,5d66f23706e589000157e7ec,2024-01-06_05h49.12.761,kallum_motion_pilot,2023.2.3,Win32,59.88023952,5d66f23706e589000157e7ec,6598e6a5d84f07970b831e70,6598e7a1028cf37c59bf7974,0.0836,0.0839,0,102,102,86,1,eightsix,,,,,,,,,,,,,,,,,,,,,,,,,,,,,,,,,,,,,,,,,,,,,,,,,,,,,,,,,,,,,,,,,,,,,,,,,,,,,,,,,,,,,,,,,,,,,,,,,,,,,,,,,,,,,,,,,,,,,,,,,,,,,,,,,,,,,,,
,,5d66f23706e589000157e7ec,2024-01-06_05h49.12.761,kallum_motion_pilot,2023.2.3,Win32,59.88023952,5d66f23706e589000157e7ec,6598e6a5d84f07970b831e70,6598e7a1028cf37c59bf7974,0.0842,0.0843,0,103,103,89,1,fiveseven,,,,,,,,,,,,,,,,,,,,,,,,,,,,,,,,,,,,,,,,,,,,,,,,,,,,,,,,,,,,,,,,,,,,,,,,,,,,,,,,,,,,,,,,,,,,,,,,,,,,,,,,,,,,,,,,,,,,,,,,,,,,,,,,,,,,,,,
,,5d66f23706e589000157e7ec,2024-01-06_05h49.12.761,kallum_motion_pilot,2023.2.3,Win32,59.88023952,5d66f23706e589000157e7ec,6598e6a5d84f07970b831e70,6598e7a1028cf37c59bf7974,0.0846,0.0848,0,104,104,115,1,sixeight,,,,,,,,,,,,,,,,,,,,,,,,,,,,,,,,,,,,,,,,,,,,,,,,,,,,,,,,,,,,,,,,,,,,,,,,,,,,,,,,,,,,,,,,,,,,,,,,,,,,,,,,,,,,,,,,,,,,,,,,,,,,,,,,,,,,,,,
,,5d66f23706e589000157e7ec,2024-01-06_05h49.12.761,kallum_motion_pilot,2023.2.3,Win32,59.88023952,5d66f23706e589000157e7ec,6598e6a5d84f07970b831e70,6598e7a1028cf37c59bf7974,0.0849,0.085,0,105,105,80,1,fivesix,,,,,,,,,,,,,,,,,,,,,,,,,,,,,,,,,,,,,,,,,,,,,,,,,,,,,,,,,,,,,,,,,,,,,,,,,,,,,,,,,,,,,,,,,,,,,,,,,,,,,,,,,,,,,,,,,,,,,,,,,,,,,,,,,,,,,,,
,,5d66f23706e589000157e7ec,2024-01-06_05h49.12.761,kallum_motion_pilot,2023.2.3,Win32,59.88023952,5d66f23706e589000157e7ec,6598e6a5d84f07970b831e70,6598e7a1028cf37c59bf7974,0.0852,0.0854,0,106,106,6,1,fourtwo,,,,,,,,,,,,,,,,,,,,,,,,,,,,,,,,,,,,,,,,,,,,,,,,,,,,,,,,,,,,,,,,,,,,,,,,,,,,,,,,,,,,,,,,,,,,,,,,,,,,,,,,,,,,,,,,,,,,,,,,,,,,,,,,,,,,,,,
,,5d66f23706e589000157e7ec,2024-01-06_05h49.12.761,kallum_motion_pilot,2023.2.3,Win32,59.88023952,5d66f23706e589000157e7ec,6598e6a5d84f07970b831e70,6598e7a1028cf37c59bf7974,0.0858,0.0859,0,107,107,66,1,twoone,,,,,,,,,,,,,,,,,,,,,,,,,,,,,,,,,,,,,,,,,,,,,,,,,,,,,,,,,,,,,,,,,,,,,,,,,,,,,,,,,,,,,,,,,,,,,,,,,,,,,,,,,,,,,,,,,,,,,,,,,,,,,,,,,,,,,,,
,,5d66f23706e589000157e7ec,2024-01-06_05h49.12.761,kallum_motion_pilot,2023.2.3,Win32,59.88023952,5d66f23706e589000157e7ec,6598e6a5d84f07970b831e70,6598e7a1028cf37c59bf7974,0.0862,0.0863,0,108,108,49,1,onethree,,,,,,,,,,,,,,,,,,,,,,,,,,,,,,,,,,,,,,,,,,,,,,,,,,,,,,,,,,,,,,,,,,,,,,,,,,,,,,,,,,,,,,,,,,,,,,,,,,,,,,,,,,,,,,,,,,,,,,,,,,,,,,,,,,,,,,,
,,5d66f23706e589000157e7ec,2024-01-06_05h49.12.761,kallum_motion_pilot,2023.2.3,Win32,59.88023952,5d66f23706e589000157e7ec,6598e6a5d84f07970b831e70,6598e7a1028cf37c59bf7974,0.0866,0.0866,0,109,109,88,1,fivesix,,,,,,,,,,,,,,,,,,,,,,,,,,,,,,,,,,,,,,,,,,,,,,,,,,,,,,,,,,,,,,,,,,,,,,,,,,,,,,,,,,,,,,,,,,,,,,,,,,,,,,,,,,,,,,,,,,,,,,,,,,,,,,,,,,,,,,,
,,5d66f23706e589000157e7ec,2024-01-06_05h49.12.761,kallum_motion_pilot,2023.2.3,Win32,59.88023952,5d66f23706e589000157e7ec,6598e6a5d84f07970b831e70,6598e7a1028cf37c59bf7974,0.0869,0.087,0,110,110,22,1,fourtwo,,,,,,,,,,,,,,,,,,,,,,,,,,,,,,,,,,,,,,,,,,,,,,,,,,,,,,,,,,,,,,,,,,,,,,,,,,,,,,,,,,,,,,,,,,,,,,,,,,,,,,,,,,,,,,,,,,,,,,,,,,,,,,,,,,,,,,,
,,5d66f23706e589000157e7ec,2024-01-06_05h49.12.761,kallum_motion_pilot,2023.2.3,Win32,59.88023952,5d66f23706e589000157e7ec,6598e6a5d84f07970b831e70,6598e7a1028cf37c59bf7974,0.0873,0.0873,0,111,111,152,1,fivesix,,,,,,,,,,,,,,,,,,,,,,,,,,,,,,,,,,,,,,,,,,,,,,,,,,,,,,,,,,,,,,,,,,,,,,,,,,,,,,,,,,,,,,,,,,,,,,,,,,,,,,,,,,,,,,,,,,,,,,,,,,,,,,,,,,,,,,,
,,5d66f23706e589000157e7ec,2024-01-06_05h49.12.761,kallum_motion_pilot,2023.2.3,Win32,59.88023952,5d66f23706e589000157e7ec,6598e6a5d84f07970b831e70,6598e7a1028cf37c59bf7974,0.0876,0.0877,0,112,112,56,1,onetwo,,,,,,,,,,,,,,,,,,,,,,,,,,,,,,,,,,,,,,,,,,,,,,,,,,,,,,,,,,,,,,,,,,,,,,,,,,,,,,,,,,,,,,,,,,,,,,,,,,,,,,,,,,,,,,,,,,,,,,,,,,,,,,,,,,,,,,,
,,5d66f23706e589000157e7ec,2024-01-06_05h49.12.761,kallum_motion_pilot,2023.2.3,Win32,59.88023952,5d66f23706e589000157e7ec,6598e6a5d84f07970b831e70,6598e7a1028cf37c59bf7974,0.0879,0.0881,0,113,113,110,1,eightsix,,,,,,,,,,,,,,,,,,,,,,,,,,,,,,,,,,,,,,,,,,,,,,,,,,,,,,,,,,,,,,,,,,,,,,,,,,,,,,,,,,,,,,,,,,,,,,,,,,,,,,,,,,,,,,,,,,,,,,,,,,,,,,,,,,,,,,,
,,5d66f23706e589000157e7ec,2024-01-06_05h49.12.761,kallum_motion_pilot,2023.2.3,Win32,59.88023952,5d66f23706e589000157e7ec,6598e6a5d84f07970b831e70,6598e7a1028cf37c59bf7974,0.0883,0.0884,0,114,114,126,1,eightsix,,,,,,,,,,,,,,,,,,,,,,,,,,,,,,,,,,,,,,,,,,,,,,,,,,,,,,,,,,,,,,,,,,,,,,,,,,,,,,,,,,,,,,,,,,,,,,,,,,,,,,,,,,,,,,,,,,,,,,,,,,,,,,,,,,,,,,,
,,5d66f23706e589000157e7ec,2024-01-06_05h49.12.761,kallum_motion_pilot,2023.2.3,Win32,59.88023952,5d66f23706e589000157e7ec,6598e6a5d84f07970b831e70,6598e7a1028cf37c59bf7974,0.0886,0.0888,0,115,115,77,1,threefour,,,,,,,,,,,,,,,,,,,,,,,,,,,,,,,,,,,,,,,,,,,,,,,,,,,,,,,,,,,,,,,,,,,,,,,,,,,,,,,,,,,,,,,,,,,,,,,,,,,,,,,,,,,,,,,,,,,,,,,,,,,,,,,,,,,,,,,
,,5d66f23706e589000157e7ec,2024-01-06_05h49.12.761,kallum_motion_pilot,2023.2.3,Win32,59.88023952,5d66f23706e589000157e7ec,6598e6a5d84f07970b831e70,6598e7a1028cf37c59bf7974,0.0889,0.0891,0,116,116,118,1,eightsix,,,,,,,,,,,,,,,,,,,,,,,,,,,,,,,,,,,,,,,,,,,,,,,,,,,,,,,,,,,,,,,,,,,,,,,,,,,,,,,,,,,,,,,,,,,,,,,,,,,,,,,,,,,,,,,,,,,,,,,,,,,,,,,,,,,,,,,
,,5d66f23706e589000157e7ec,2024-01-06_05h49.12.761,kallum_motion_pilot,2023.2.3,Win32,59.88023952,5d66f23706e589000157e7ec,6598e6a5d84f07970b831e70,6598e7a1028cf37c59bf7974,0.0893,0.0895,0,117,117,109,1,seveneight,,,,,,,,,,,,,,,,,,,,,,,,,,,,,,,,,,,,,,,,,,,,,,,,,,,,,,,,,,,,,,,,,,,,,,,,,,,,,,,,,,,,,,,,,,,,,,,,,,,,,,,,,,,,,,,,,,,,,,,,,,,,,,,,,,,,,,,
,,5d66f23706e589000157e7ec,2024-01-06_05h49.12.761,kallum_motion_pilot,2023.2.3,Win32,59.88023952,5d66f23706e589000157e7ec,6598e6a5d84f07970b831e70,6598e7a1028cf37c59bf7974,0.0897,0.0898,0,118,118,60,1,threeone,,,,,,,,,,,,,,,,,,,,,,,,,,,,,,,,,,,,,,,,,,,,,,,,,,,,,,,,,,,,,,,,,,,,,,,,,,,,,,,,,,,,,,,,,,,,,,,,,,,,,,,,,,,,,,,,,,,,,,,,,,,,,,,,,,,,,,,
,,5d66f23706e589000157e7ec,2024-01-06_05h49.12.761,kallum_motion_pilot,2023.2.3,Win32,59.88023952,5d66f23706e589000157e7ec,6598e6a5d84f07970b831e70,6598e7a1028cf37c59bf7974,0.09,0.0902,0,119,119,83,1,sixeight,,,,,,,,,,,,,,,,,,,,,,,,,,,,,,,,,,,,,,,,,,,,,,,,,,,,,,,,,,,,,,,,,,,,,,,,,,,,,,,,,,,,,,,,,,,,,,,,,,,,,,,,,,,,,,,,,,,,,,,,,,,,,,,,,,,,,,,
,,5d66f23706e589000157e7ec,2024-01-06_05h49.12.761,kallum_motion_pilot,2023.2.3,Win32,59.88023952,5d66f23706e589000157e7ec,6598e6a5d84f07970b831e70,6598e7a1028cf37c59bf7974,0.0903,0.0905,0,120,120,133,1,seveneight,,,,,,,,,,,,,,,,,,,,,,,,,,,,,,,,,,,,,,,,,,,,,,,,,,,,,,,,,,,,,,,,,,,,,,,,,,,,,,,,,,,,,,,,,,,,,,,,,,,,,,,,,,,,,,,,,,,,,,,,,,,,,,,,,,,,,,,
,,5d66f23706e589000157e7ec,2024-01-06_05h49.12.761,kallum_motion_pilot,2023.2.3,Win32,59.88023952,5d66f23706e589000157e7ec,6598e6a5d84f07970b831e70,6598e7a1028cf37c59bf7974,0.0907,0.0908,0,121,121,31,1,fourthree,,,,,,,,,,,,,,,,,,,,,,,,,,,,,,,,,,,,,,,,,,,,,,,,,,,,,,,,,,,,,,,,,,,,,,,,,,,,,,,,,,,,,,,,,,,,,,,,,,,,,,,,,,,,,,,,,,,,,,,,,,,,,,,,,,,,,,,
,,5d66f23706e589000157e7ec,2024-01-06_05h49.12.761,kallum_motion_pilot,2023.2.3,Win32,59.88023952,5d66f23706e589000157e7ec,6598e6a5d84f07970b831e70,6598e7a1028cf37c59bf7974,0.0911,0.0912,0,122,122,146,1,sixfive,,,,,,,,,,,,,,,,,,,,,,,,,,,,,,,,,,,,,,,,,,,,,,,,,,,,,,,,,,,,,,,,,,,,,,,,,,,,,,,,,,,,,,,,,,,,,,,,,,,,,,,,,,,,,,,,,,,,,,,,,,,,,,,,,,,,,,,
,,5d66f23706e589000157e7ec,2024-01-06_05h49.12.761,kallum_motion_pilot,2023.2.3,Win32,59.88023952,5d66f23706e589000157e7ec,6598e6a5d84f07970b831e70,6598e7a1028cf37c59bf7974,0.0914,0.0915,0,123,123,95,1,eightseven,,,,,,,,,,,,,,,,,,,,,,,,,,,,,,,,,,,,,,,,,,,,,,,,,,,,,,,,,,,,,,,,,,,,,,,,,,,,,,,,,,,,,,,,,,,,,,,,,,,,,,,,,,,,,,,,,,,,,,,,,,,,,,,,,,,,,,,
,,5d66f23706e589000157e7ec,2024-01-06_05h49.12.761,kallum_motion_pilot,2023.2.3,Win32,59.88023952,5d66f23706e589000157e7ec,6598e6a5d84f07970b831e70,6598e7a1028cf37c59bf7974,0.0918,0.092,0,124,124,130,1,sixfive,,,,,,,,,,,,,,,,,,,,,,,,,,,,,,,,,,,,,,,,,,,,,,,,,,,,,,,,,,,,,,,,,,,,,,,,,,,,,,,,,,,,,,,,,,,,,,,,,,,,,,,,,,,,,,,,,,,,,,,,,,,,,,,,,,,,,,,
,,5d66f23706e589000157e7ec,2024-01-06_05h49.12.761,kallum_motion_pilot,2023.2.3,Win32,59.88023952,5d66f23706e589000157e7ec,6598e6a5d84f07970b831e70,6598e7a1028cf37c59bf7974,0.0921,0.0923,0,125,125,76,1,threeone,,,,,,,,,,,,,,,,,,,,,,,,,,,,,,,,,,,,,,,,,,,,,,,,,,,,,,,,,,,,,,,,,,,,,,,,,,,,,,,,,,,,,,,,,,,,,,,,,,,,,,,,,,,,,,,,,,,,,,,,,,,,,,,,,,,,,,,
,,5d66f23706e589000157e7ec,2024-01-06_05h49.12.761,kallum_motion_pilot,2023.2.3,Win32,59.88023952,5d66f23706e589000157e7ec,6598e6a5d84f07970b831e70,6598e7a1028cf37c59bf7974,0.0925,0.0927,0,126,126,101,1,seveneight,,,,,,,,,,,,,,,,,,,,,,,,,,,,,,,,,,,,,,,,,,,,,,,,,,,,,,,,,,,,,,,,,,,,,,,,,,,,,,,,,,,,,,,,,,,,,,,,,,,,,,,,,,,,,,,,,,,,,,,,,,,,,,,,,,,,,,,
,,5d66f23706e589000157e7ec,2024-01-06_05h49.12.761,kallum_motion_pilot,2023.2.3,Win32,59.88023952,5d66f23706e589000157e7ec,6598e6a5d84f07970b831e70,6598e7a1028cf37c59bf7974,0.093,0.0931,0,127,127,107,1,sixeight,,,,,,,,,,,,,,,,,,,,,,,,,,,,,,,,,,,,,,,,,,,,,,,,,,,,,,,,,,,,,,,,,,,,,,,,,,,,,,,,,,,,,,,,,,,,,,,,,,,,,,,,,,,,,,,,,,,,,,,,,,,,,,,,,,,,,,,
,,5d66f23706e589000157e7ec,2024-01-06_05h49.12.761,kallum_motion_pilot,2023.2.3,Win32,59.88023952,5d66f23706e589000157e7ec,6598e6a5d84f07970b831e70,6598e7a1028cf37c59bf7974,0.0933,0.0934,0,128,128,29,1,threefour,,,,,,,,,,,,,,,,,,,,,,,,,,,,,,,,,,,,,,,,,,,,,,,,,,,,,,,,,,,,,,,,,,,,,,,,,,,,,,,,,,,,,,,,,,,,,,,,,,,,,,,,,,,,,,,,,,,,,,,,,,,,,,,,,,,,,,,
,,5d66f23706e589000157e7ec,2024-01-06_05h49.12.761,kallum_motion_pilot,2023.2.3,Win32,59.88023952,5d66f23706e589000157e7ec,6598e6a5d84f07970b831e70,6598e7a1028cf37c59bf7974,0.0936,0.0938,0,129,129,33,1,onethree,,,,,,,,,,,,,,,,,,,,,,,,,,,,,,,,,,,,,,,,,,,,,,,,,,,,,,,,,,,,,,,,,,,,,,,,,,,,,,,,,,,,,,,,,,,,,,,,,,,,,,,,,,,,,,,,,,,,,,,,,,,,,,,,,,,,,,,
,,5d66f23706e589000157e7ec,2024-01-06_05h49.12.761,kallum_motion_pilot,2023.2.3,Win32,59.88023952,5d66f23706e589000157e7ec,6598e6a5d84f07970b831e70,6598e7a1028cf37c59bf7974,0.094,0.0941,0,130,130,70,1,fourtwo,,,,,,,,,,,,,,,,,,,,,,,,,,,,,,,,,,,,,,,,,,,,,,,,,,,,,,,,,,,,,,,,,,,,,,,,,,,,,,,,,,,,,,,,,,,,,,,,,,,,,,,,,,,,,,,,,,,,,,,,,,,,,,,,,,,,,,,
,,5d66f23706e589000157e7ec,2024-01-06_05h49.12.761,kallum_motion_pilot,2023.2.3,Win32,59.88023952,5d66f23706e589000157e7ec,6598e6a5d84f07970b831e70,6598e7a1028cf37c59bf7974,0.0943,0.0944,0,131,131,0,1,onetwo,,,,,,,,,,,,,,,,,,,,,,,,,,,,,,,,,,,,,,,,,,,,,,,,,,,,,,,,,,,,,,,,,,,,,,,,,,,,,,,,,,,,,,,,,,,,,,,,,,,,,,,,,,,,,,,,,,,,,,,,,,,,,,,,,,,,,,,
,,5d66f23706e589000157e7ec,2024-01-06_05h49.12.761,kallum_motion_pilot,2023.2.3,Win32,59.88023952,5d66f23706e589000157e7ec,6598e6a5d84f07970b831e70,6598e7a1028cf37c59bf7974,0.0945,0.0948,0,132,132,116,1,sevenfive,,,,,,,,,,,,,,,,,,,,,,,,,,,,,,,,,,,,,,,,,,,,,,,,,,,,,,,,,,,,,,,,,,,,,,,,,,,,,,,,,,,,,,,,,,,,,,,,,,,,,,,,,,,,,,,,,,,,,,,,,,,,,,,,,,,,,,,
,,5d66f23706e589000157e7ec,2024-01-06_05h49.12.761,kallum_motion_pilot,2023.2.3,Win32,59.88023952,5d66f23706e589000157e7ec,6598e6a5d84f07970b831e70,6598e7a1028cf37c59bf7974,0.095,0.0951,0,133,133,105,1,fiveseven,,,,,,,,,,,,,,,,,,,,,,,,,,,,,,,,,,,,,,,,,,,,,,,,,,,,,,,,,,,,,,,,,,,,,,,,,,,,,,,,,,,,,,,,,,,,,,,,,,,,,,,,,,,,,,,,,,,,,,,,,,,,,,,,,,,,,,,
,,5d66f23706e589000157e7ec,2024-01-06_05h49.12.761,kallum_motion_pilot,2023.2.3,Win32,59.88023952,5d66f23706e589000157e7ec,6598e6a5d84f07970b831e70,6598e7a1028cf37c59bf7974,0.0953,0.0954,0,134,134,73,1,onethree,,,,,,,,,,,,,,,,,,,,,,,,,,,,,,,,,,,,,,,,,,,,,,,,,,,,,,,,,,,,,,,,,,,,,,,,,,,,,,,,,,,,,,,,,,,,,,,,,,,,,,,,,,,,,,,,,,,,,,,,,,,,,,,,,,,,,,,
,,5d66f23706e589000157e7ec,2024-01-06_05h49.12.761,kallum_motion_pilot,2023.2.3,Win32,59.88023952,5d66f23706e589000157e7ec,6598e6a5d84f07970b831e70,6598e7a1028cf37c59bf7974,0.0957,0.0959,0,135,135,58,1,twoone,,,,,,,,,,,,,,,,,,,,,,,,,,,,,,,,,,,,,,,,,,,,,,,,,,,,,,,,,,,,,,,,,,,,,,,,,,,,,,,,,,,,,,,,,,,,,,,,,,,,,,,,,,,,,,,,,,,,,,,,,,,,,,,,,,,,,,,
,,5d66f23706e589000157e7ec,2024-01-06_05h49.12.761,kallum_motion_pilot,2023.2.3,Win32,59.88023952,5d66f23706e589000157e7ec,6598e6a5d84f07970b831e70,6598e7a1028cf37c59bf7974,0.0976,0.0979,0,136,136,85,1,seveneight,,,,,,,,,,,,,,,,,,,,,,,,,,,,,,,,,,,,,,,,,,,,,,,,,,,,,,,,,,,,,,,,,,,,,,,,,,,,,,,,,,,,,,,,,,,,,,,,,,,,,,,,,,,,,,,,,,,,,,,,,,,,,,,,,,,,,,,
,,5d66f23706e589000157e7ec,2024-01-06_05h49.12.761,kallum_motion_pilot,2023.2.3,Win32,59.88023952,5d66f23706e589000157e7ec,6598e6a5d84f07970b831e70,6598e7a1028cf37c59bf7974,0.0981,0.0983,0,137,137,41,1,onethree,,,,,,,,,,,,,,,,,,,,,,,,,,,,,,,,,,,,,,,,,,,,,,,,,,,,,,,,,,,,,,,,,,,,,,,,,,,,,,,,,,,,,,,,,,,,,,,,,,,,,,,,,,,,,,,,,,,,,,,,,,,,,,,,,,,,,,,
,,5d66f23706e589000157e7ec,2024-01-06_05h49.12.761,kallum_motion_pilot,2023.2.3,Win32,59.88023952,5d66f23706e589000157e7ec,6598e6a5d84f07970b831e70,6598e7a1028cf37c59bf7974,0.0985,0.0987,0,138,138,128,1,fivesix,,,,,,,,,,,,,,,,,,,,,,,,,,,,,,,,,,,,,,,,,,,,,,,,,,,,,,,,,,,,,,,,,,,,,,,,,,,,,,,,,,,,,,,,,,,,,,,,,,,,,,,,,,,,,,,,,,,,,,,,,,,,,,,,,,,,,,,
,,5d66f23706e589000157e7ec,2024-01-06_05h49.12.761,kallum_motion_pilot,2023.2.3,Win32,59.88023952,5d66f23706e589000157e7ec,6598e6a5d84f07970b831e70,6598e7a1028cf37c59bf7974,0.099,0.0992,0,139,139,92,1,sevenfive,,,,,,,,,,,,,,,,,,,,,,,,,,,,,,,,,,,,,,,,,,,,,,,,,,,,,,,,,,,,,,,,,,,,,,,,,,,,,,,,,,,,,,,,,,,,,,,,,,,,,,,,,,,,,,,,,,,,,,,,,,,,,,,,,,,,,,,
,,5d66f23706e589000157e7ec,2024-01-06_05h49.12.761,kallum_motion_pilot,2023.2.3,Win32,59.88023952,5d66f23706e589000157e7ec,6598e6a5d84f07970b831e70,6598e7a1028cf37c59bf7974,0.0998,0.1,0,140,140,11,1,twofour,,,,,,,,,,,,,,,,,,,,,,,,,,,,,,,,,,,,,,,,,,,,,,,,,,,,,,,,,,,,,,,,,,,,,,,,,,,,,,,,,,,,,,,,,,,,,,,,,,,,,,,,,,,,,,,,,,,,,,,,,,,,,,,,,,,,,,,
,,5d66f23706e589000157e7ec,2024-01-06_05h49.12.761,kallum_motion_pilot,2023.2.3,Win32,59.88023952,5d66f23706e589000157e7ec,6598e6a5d84f07970b831e70,6598e7a1028cf37c59bf7974,0.1004,0.1006,0,141,141,96,1,fivesix,,,,,,,,,,,,,,,,,,,,,,,,,,,,,,,,,,,,,,,,,,,,,,,,,,,,,,,,,,,,,,,,,,,,,,,,,,,,,,,,,,,,,,,,,,,,,,,,,,,,,,,,,,,,,,,,,,,,,,,,,,,,,,,,,,,,,,,
,,5d66f23706e589000157e7ec,2024-01-06_05h49.12.761,kallum_motion_pilot,2023.2.3,Win32,59.88023952,5d66f23706e589000157e7ec,6598e6a5d84f07970b831e70,6598e7a1028cf37c59bf7974,0.1013,0.1014,0,142,142,16,1,onetwo,,,,,,,,,,,,,,,,,,,,,,,,,,,,,,,,,,,,,,,,,,,,,,,,,,,,,,,,,,,,,,,,,,,,,,,,,,,,,,,,,,,,,,,,,,,,,,,,,,,,,,,,,,,,,,,,,,,,,,,,,,,,,,,,,,,,,,,
,,5d66f23706e589000157e7ec,2024-01-06_05h49.12.761,kallum_motion_pilot,2023.2.3,Win32,59.88023952,5d66f23706e589000157e7ec,6598e6a5d84f07970b831e70,6598e7a1028cf37c59bf7974,0.1016,0.1019,0,143,143,42,1,twoone,,,,,,,,,,,,,,,,,,,,,,,,,,,,,,,,,,,,,,,,,,,,,,,,,,,,,,,,,,,,,,,,,,,,,,,,,,,,,,,,,,,,,,,,,,,,,,,,,,,,,,,,,,,,,,,,,,,,,,,,,,,,,,,,,,,,,,,
,,5d66f23706e589000157e7ec,2024-01-06_05h49.12.761,kallum_motion_pilot,2023.2.3,Win32,59.88023952,5d66f23706e589000157e7ec,6598e6a5d84f07970b831e70,6598e7a1028cf37c59bf7974,0.102,0.1022,0,144,144,54,1,fourtwo,,,,,,,,,,,,,,,,,,,,,,,,,,,,,,,,,,,,,,,,,,,,,,,,,,,,,,,,,,,,,,,,,,,,,,,,,,,,,,,,,,,,,,,,,,,,,,,,,,,,,,,,,,,,,,,,,,,,,,,,,,,,,,,,,,,,,,,
,,5d66f23706e589000157e7ec,2024-01-06_05h49.12.761,kallum_motion_pilot,2023.2.3,Win32,59.88023952,5d66f23706e589000157e7ec,6598e6a5d84f07970b831e70,6598e7a1028cf37c59bf7974,0.1024,0.1027,0,145,145,139,1,sixeight,,,,,,,,,,,,,,,,,,,,,,,,,,,,,,,,,,,,,,,,,,,,,,,,,,,,,,,,,,,,,,,,,,,,,,,,,,,,,,,,,,,,,,,,,,,,,,,,,,,,,,,,,,,,,,,,,,,,,,,,,,,,,,,,,,,,,,,
,,5d66f23706e589000157e7ec,2024-01-06_05h49.12.761,kallum_motion_pilot,2023.2.3,Win32,59.88023952,5d66f23706e589000157e7ec,6598e6a5d84f07970b831e70,6598e7a1028cf37c59bf7974,0.1029,0.1031,0,146,146,63,1,fourthree,,,,,,,,,,,,,,,,,,,,,,,,,,,,,,,,,,,,,,,,,,,,,,,,,,,,,,,,,,,,,,,,,,,,,,,,,,,,,,,,,,,,,,,,,,,,,,,,,,,,,,,,,,,,,,,,,,,,,,,,,,,,,,,,,,,,,,,
,,5d66f23706e589000157e7ec,2024-01-06_05h49.12.761,kallum_motion_pilot,2023.2.3,Win32,59.88023952,5d66f23706e589000157e7ec,6598e6a5d84f07970b831e70,6598e7a1028cf37c59bf7974,0.1032,0.1034,0,147,147,23,1,fourthree,,,,,,,,,,,,,,,,,,,,,,,,,,,,,,,,,,,,,,,,,,,,,,,,,,,,,,,,,,,,,,,,,,,,,,,,,,,,,,,,,,,,,,,,,,,,,,,,,,,,,,,,,,,,,,,,,,,,,,,,,,,,,,,,,,,,,,,
,,5d66f23706e589000157e7ec,2024-01-06_05h49.12.761,kallum_motion_pilot,2023.2.3,Win32,59.88023952,5d66f23706e589000157e7ec,6598e6a5d84f07970b831e70,6598e7a1028cf37c59bf7974,0.1036,0.1037,0,148,148,159,1,eightseven,,,,,,,,,,,,,,,,,,,,,,,,,,,,,,,,,,,,,,,,,,,,,,,,,,,,,,,,,,,,,,,,,,,,,,,,,,,,,,,,,,,,,,,,,,,,,,,,,,,,,,,,,,,,,,,,,,,,,,,,,,,,,,,,,,,,,,,
,,5d66f23706e589000157e7ec,2024-01-06_05h49.12.761,kallum_motion_pilot,2023.2.3,Win32,59.88023952,5d66f23706e589000157e7ec,6598e6a5d84f07970b831e70,6598e7a1028cf37c59bf7974,0.104,0.104,0,149,149,103,1,eightseven,,,,,,,,,,,,,,,,,,,,,,,,,,,,,,,,,,,,,,,,,,,,,,,,,,,,,,,,,,,,,,,,,,,,,,,,,,,,,,,,,,,,,,,,,,,,,,,,,,,,,,,,,,,,,,,,,,,,,,,,,,,,,,,,,,,,,,,
,,5d66f23706e589000157e7ec,2024-01-06_05h49.12.761,kallum_motion_pilot,2023.2.3,Win32,59.88023952,5d66f23706e589000157e7ec,6598e6a5d84f07970b831e70,6598e7a1028cf37c59bf7974,0.1042,0.1044,0,150,150,52,1,threeone,,,,,,,,,,,,,,,,,,,,,,,,,,,,,,,,,,,,,,,,,,,,,,,,,,,,,,,,,,,,,,,,,,,,,,,,,,,,,,,,,,,,,,,,,,,,,,,,,,,,,,,,,,,,,,,,,,,,,,,,,,,,,,,,,,,,,,,
,,5d66f23706e589000157e7ec,2024-01-06_05h49.12.761,kallum_motion_pilot,2023.2.3,Win32,59.88023952,5d66f23706e589000157e7ec,6598e6a5d84f07970b831e70,6598e7a1028cf37c59bf7974,0.1046,0.1048,0,151,151,100,1,sevenfive,,,,,,,,,,,,,,,,,,,,,,,,,,,,,,,,,,,,,,,,,,,,,,,,,,,,,,,,,,,,,,,,,,,,,,,,,,,,,,,,,,,,,,,,,,,,,,,,,,,,,,,,,,,,,,,,,,,,,,,,,,,,,,,,,,,,,,,
,,5d66f23706e589000157e7ec,2024-01-06_05h49.12.761,kallum_motion_pilot,2023.2.3,Win32,59.88023952,5d66f23706e589000157e7ec,6598e6a5d84f07970b831e70,6598e7a1028cf37c59bf7974,0.105,0.1052,0,152,152,74,1,twoone,,,,,,,,,,,,,,,,,,,,,,,,,,,,,,,,,,,,,,,,,,,,,,,,,,,,,,,,,,,,,,,,,,,,,,,,,,,,,,,,,,,,,,,,,,,,,,,,,,,,,,,,,,,,,,,,,,,,,,,,,,,,,,,,,,,,,,,
,,5d66f23706e589000157e7ec,2024-01-06_05h49.12.761,kallum_motion_pilot,2023.2.3,Win32,59.88023952,5d66f23706e589000157e7ec,6598e6a5d84f07970b831e70,6598e7a1028cf37c59bf7974,0.1054,0.1055,0,153,153,7,1,fourthree,,,,,,,,,,,,,,,,,,,,,,,,,,,,,,,,,,,,,,,,,,,,,,,,,,,,,,,,,,,,,,,,,,,,,,,,,,,,,,,,,,,,,,,,,,,,,,,,,,,,,,,,,,,,,,,,,,,,,,,,,,,,,,,,,,,,,,,
,,5d66f23706e589000157e7ec,2024-01-06_05h49.12.761,kallum_motion_pilot,2023.2.3,Win32,59.88023952,5d66f23706e589000157e7ec,6598e6a5d84f07970b831e70,6598e7a1028cf37c59bf7974,0.1057,0.1059,0,154,154,3,1,twofour,,,,,,,,,,,,,,,,,,,,,,,,,,,,,,,,,,,,,,,,,,,,,,,,,,,,,,,,,,,,,,,,,,,,,,,,,,,,,,,,,,,,,,,,,,,,,,,,,,,,,,,,,,,,,,,,,,,,,,,,,,,,,,,,,,,,,,,
,,5d66f23706e589000157e7ec,2024-01-06_05h49.12.761,kallum_motion_pilot,2023.2.3,Win32,59.88023952,5d66f23706e589000157e7ec,6598e6a5d84f07970b831e70,6598e7a1028cf37c59bf7974,0.1061,0.1063,0,155,155,151,1,eightseven,,,,,,,,,,,,,,,,,,,,,,,,,,,,,,,,,,,,,,,,,,,,,,,,,,,,,,,,,,,,,,,,,,,,,,,,,,,,,,,,,,,,,,,,,,,,,,,,,,,,,,,,,,,,,,,,,,,,,,,,,,,,,,,,,,,,,,,
,,5d66f23706e589000157e7ec,2024-01-06_05h49.12.761,kallum_motion_pilot,2023.2.3,Win32,59.88023952,5d66f23706e589000157e7ec,6598e6a5d84f07970b831e70,6598e7a1028cf37c59bf7974,0.1064,0.1066,0,156,156,57,1,onethree,,,,,,,,,,,,,,,,,,,,,,,,,,,,,,,,,,,,,,,,,,,,,,,,,,,,,,,,,,,,,,,,,,,,,,,,,,,,,,,,,,,,,,,,,,,,,,,,,,,,,,,,,,,,,,,,,,,,,,,,,,,,,,,,,,,,,,,
,,5d66f23706e589000157e7ec,2024-01-06_05h49.12.761,kallum_motion_pilot,2023.2.3,Win32,59.88023952,5d66f23706e589000157e7ec,6598e6a5d84f07970b831e70,6598e7a1028cf37c59bf7974,0.1068,0.107,0,157,157,39,1,fourthree,,,,,,,,,,,,,,,,,,,,,,,,,,,,,,,,,,,,,,,,,,,,,,,,,,,,,,,,,,,,,,,,,,,,,,,,,,,,,,,,,,,,,,,,,,,,,,,,,,,,,,,,,,,,,,,,,,,,,,,,,,,,,,,,,,,,,,,
,,5d66f23706e589000157e7ec,2024-01-06_05h49.12.761,kallum_motion_pilot,2023.2.3,Win32,59.88023952,5d66f23706e589000157e7ec,6598e6a5d84f07970b831e70,6598e7a1028cf37c59bf7974,0.1072,0.1073,0,158,158,97,1,fiveseven,,,,,,,,,,,,,,,,,,,,,,,,,,,,,,,,,,,,,,,,,,,,,,,,,,,,,,,,,,,,,,,,,,,,,,,,,,,,,,,,,,,,,,,,,,,,,,,,,,,,,,,,,,,,,,,,,,,,,,,,,,,,,,,,,,,,,,,
,,5d66f23706e589000157e7ec,2024-01-06_05h49.12.761,kallum_motion_pilot,2023.2.3,Win32,59.88023952,5d66f23706e589000157e7ec,6598e6a5d84f07970b831e70,6598e7a1028cf37c59bf7974,0.1076,0.1077,0,159,159,104,1,fivesix,,,,,,,,,,,,,,,,,,,,,,,,,,,,,,,,,,,,,,,,,,,,,,,,,,,,,,,,,,,,,,,,,,,,,,,,,,,,,,,,,,,,,,,,,,,,,,,,,,,,,,,,,,,,,,,,,,,,,,,,,,,,,,,,,,,,,,,
,,5d66f23706e589000157e7ec,2024-01-06_05h49.12.761,kallum_motion_pilot,2023.2.3,Win32,59.88023952,5d66f23706e589000157e7ec,6598e6a5d84f07970b831e70,6598e7a1028cf37c59bf7974,0.1079,0.108,0,160,160,18,1,twoone,,,,,,,,,,,,,,,,,,,,,,,,,,,,,,,,,,,,,,,,,,,,,,,,,,,,,,,,,,,,,,,,,,,,,,,,,,,,,,,,,,,,,,,,,,,,,,,,,,,,,,,,,,,,,,,,,,,,,,,,,,,,,,,,,,,,,,,
,,5d66f23706e589000157e7ec,2024-01-06_05h49.12.761,kallum_motion_pilot,2023.2.3,Win32,59.88023952,5d66f23706e589000157e7ec,6598e6a5d84f07970b831e70,6598e7a1028cf37c59bf7974,0.1082,0.1084,0,161,161,153,1,fiveseven,,,,,,,,,,,,,,,,,,,,,,,,,,,,,,,,,,,,,,,,,,,,,,,,,,,,,,,,,,,,,,,,,,,,,,,,,,,,,,,,,,,,,,,,,,,,,,,,,,,,,,,,,,,,,,,,,,,,,,,,,,,,,,,,,,,,,,,
,,5d66f23706e589000157e7ec,2024-01-06_05h49.12.761,kallum_motion_pilot,2023.2.3,Win32,59.88023952,5d66f23706e589000157e7ec,6598e6a5d84f07970b831e70,6598e7a1028cf37c59bf7974,0.1086,0.1088,1,0,162,81,1,fiveseven,,,,,,,,,,,,,,,,,,,,,,,,,,,,,,,,,,,,,,,,,,,,,,,,,,,,,,,,,,,,,,,,,,,,,,,,,,,,,,,,,,,,,,,,,,,,,,,,,,,,,,,,,,,,,,,,,,,,,,,,,,,,,,,,,,,,,,,
,,5d66f23706e589000157e7ec,2024-01-06_05h49.12.761,kallum_motion_pilot,2023.2.3,Win32,59.88023952,5d66f23706e589000157e7ec,6598e6a5d84f07970b831e70,6598e7a1028cf37c59bf7974,0.109,0.1092,1,1,163,121,1,fiveseven,,,,,,,,,,,,,,,,,,,,,,,,,,,,,,,,,,,,,,,,,,,,,,,,,,,,,,,,,,,,,,,,,,,,,,,,,,,,,,,,,,,,,,,,,,,,,,,,,,,,,,,,,,,,,,,,,,,,,,,,,,,,,,,,,,,,,,,
,,5d66f23706e589000157e7ec,2024-01-06_05h49.12.761,kallum_motion_pilot,2023.2.3,Win32,59.88023952,5d66f23706e589000157e7ec,6598e6a5d84f07970b831e70,6598e7a1028cf37c59bf7974,0.1094,0.1096,1,2,164,64,1,onetwo,,,,,,,,,,,,,,,,,,,,,,,,,,,,,,,,,,,,,,,,,,,,,,,,,,,,,,,,,,,,,,,,,,,,,,,,,,,,,,,,,,,,,,,,,,,,,,,,,,,,,,,,,,,,,,,,,,,,,,,,,,,,,,,,,,,,,,,
,,5d66f23706e589000157e7ec,2024-01-06_05h49.12.761,kallum_motion_pilot,2023.2.3,Win32,59.88023952,5d66f23706e589000157e7ec,6598e6a5d84f07970b831e70,6598e7a1028cf37c59bf7974,0.1099,0.11,1,3,165,117,1,seveneight,,,,,,,,,,,,,,,,,,,,,,,,,,,,,,,,,,,,,,,,,,,,,,,,,,,,,,,,,,,,,,,,,,,,,,,,,,,,,,,,,,,,,,,,,,,,,,,,,,,,,,,,,,,,,,,,,,,,,,,,,,,,,,,,,,,,,,,
,,5d66f23706e589000157e7ec,2024-01-06_05h49.12.761,kallum_motion_pilot,2023.2.3,Win32,59.88023952,5d66f23706e589000157e7ec,6598e6a5d84f07970b831e70,6598e7a1028cf37c59bf7974,0.1102,0.1104,1,4,166,19,1,twofour,,,,,,,,,,,,,,,,,,,,,,,,,,,,,,,,,,,,,,,,,,,,,,,,,,,,,,,,,,,,,,,,,,,,,,,,,,,,,,,,,,,,,,,,,,,,,,,,,,,,,,,,,,,,,,,,,,,,,,,,,,,,,,,,,,,,,,,
,,5d66f23706e589000157e7ec,2024-01-06_05h49.12.761,kallum_motion_pilot,2023.2.3,Win32,59.88023952,5d66f23706e589000157e7ec,6598e6a5d84f07970b831e70,6598e7a1028cf37c59bf7974,0.1106,0.1108,1,5,167,130,1,sixfive,,,,,,,,,,,,,,,,,,,,,,,,,,,,,,,,,,,,,,,,,,,,,,,,,,,,,,,,,,,,,,,,,,,,,,,,,,,,,,,,,,,,,,,,,,,,,,,,,,,,,,,,,,,,,,,,,,,,,,,,,,,,,,,,,,,,,,,
,,5d66f23706e589000157e7ec,2024-01-06_05h49.12.761,kallum_motion_pilot,2023.2.3,Win32,59.88023952,5d66f23706e589000157e7ec,6598e6a5d84f07970b831e70,6598e7a1028cf37c59bf7974,0.111,0.1113,1,6,168,93,1,seveneight,,,,,,,,,,,,,,,,,,,,,,,,,,,,,,,,,,,,,,,,,,,,,,,,,,,,,,,,,,,,,,,,,,,,,,,,,,,,,,,,,,,,,,,,,,,,,,,,,,,,,,,,,,,,,,,,,,,,,,,,,,,,,,,,,,,,,,,
,,5d66f23706e589000157e7ec,2024-01-06_05h49.12.761,kallum_motion_pilot,2023.2.3,Win32,59.88023952,5d66f23706e589000157e7ec,6598e6a5d84f07970b831e70,6598e7a1028cf37c59bf7974,0.1114,0.1116,1,7,169,27,1,twofour,,,,,,,,,,,,,,,,,,,,,,,,,,,,,,,,,,,,,,,,,,,,,,,,,,,,,,,,,,,,,,,,,,,,,,,,,,,,,,,,,,,,,,,,,,,,,,,,,,,,,,,,,,,,,,,,,,,,,,,,,,,,,,,,,,,,,,,
,,5d66f23706e589000157e7ec,2024-01-06_05h49.12.761,kallum_motion_pilot,2023.2.3,Win32,59.88023952,5d66f23706e589000157e7ec,6598e6a5d84f07970b831e70,6598e7a1028cf37c59bf7974,0.1118,0.112,1,8,170,48,1,onetwo,,,,,,,,,,,,,,,,,,,,,,,,,,,,,,,,,,,,,,,,,,,,,,,,,,,,,,,,,,,,,,,,,,,,,,,,,,,,,,,,,,,,,,,,,,,,,,,,,,,,,,,,,,,,,,,,,,,,,,,,,,,,,,,,,,,,,,,
,,5d66f23706e589000157e7ec,2024-01-06_05h49.12.761,kallum_motion_pilot,2023.2.3,Win32,59.88023952,5d66f23706e589000157e7ec,6598e6a5d84f07970b831e70,6598e7a1028cf37c59bf7974,0.1122,0.1125,1,9,171,2,1,twoone,,,,,,,,,,,,,,,,,,,,,,,,,,,,,,,,,,,,,,,,,,,,,,,,,,,,,,,,,,,,,,,,,,,,,,,,,,,,,,,,,,,,,,,,,,,,,,,,,,,,,,,,,,,,,,,,,,,,,,,,,,,,,,,,,,,,,,,
,,5d66f23706e589000157e7ec,2024-01-06_05h49.12.761,kallum_motion_pilot,2023.2.3,Win32,59.88023952,5d66f23706e589000157e7ec,6598e6a5d84f07970b831e70,6598e7a1028cf37c59bf7974,0.1126,0.1129,1,10,172,30,1,fourtwo,,,,,,,,,,,,,,,,,,,,,,,,,,,,,,,,,,,,,,,,,,,,,,,,,,,,,,,,,,,,,,,,,,,,,,,,,,,,,,,,,,,,,,,,,,,,,,,,,,,,,,,,,,,,,,,,,,,,,,,,,,,,,,,,,,,,,,,
,,5d66f23706e589000157e7ec,2024-01-06_05h49.12.761,kallum_motion_pilot,2023.2.3,Win32,59.88023952,5d66f23706e589000157e7ec,6598e6a5d84f07970b831e70,6598e7a1028cf37c59bf7974,0.1131,0.1132,1,11,173,18,1,twoone,,,,,,,,,,,,,,,,,,,,,,,,,,,,,,,,,,,,,,,,,,,,,,,,,,,,,,,,,,,,,,,,,,,,,,,,,,,,,,,,,,,,,,,,,,,,,,,,,,,,,,,,,,,,,,,,,,,,,,,,,,,,,,,,,,,,,,,
,,5d66f23706e589000157e7ec,2024-01-06_05h49.12.761,kallum_motion_pilot,2023.2.3,Win32,59.88023952,5d66f23706e589000157e7ec,6598e6a5d84f07970b831e70,6598e7a1028cf37c59bf7974,0.1135,0.1137,1,12,174,83,1,sixeight,,,,,,,,,,,,,,,,,,,,,,,,,,,,,,,,,,,,,,,,,,,,,,,,,,,,,,,,,,,,,,,,,,,,,,,,,,,,,,,,,,,,,,,,,,,,,,,,,,,,,,,,,,,,,,,,,,,,,,,,,,,,,,,,,,,,,,,
,,5d66f23706e589000157e7ec,2024-01-06_05h49.12.761,kallum_motion_pilot,2023.2.3,Win32,59.88023952,5d66f23706e589000157e7ec,6598e6a5d84f07970b831e70,6598e7a1028cf37c59bf7974,0.1139,0.1141,1,13,175,92,1,sevenfive,,,,,,,,,,,,,,,,,,,,,,,,,,,,,,,,,,,,,,,,,,,,,,,,,,,,,,,,,,,,,,,,,,,,,,,,,,,,,,,,,,,,,,,,,,,,,,,,,,,,,,,,,,,,,,,,,,,,,,,,,,,,,,,,,,,,,,,
,,5d66f23706e589000157e7ec,2024-01-06_05h49.12.761,kallum_motion_pilot,2023.2.3,Win32,59.88023952,5d66f23706e589000157e7ec,6598e6a5d84f07970b831e70,6598e7a1028cf37c59bf7974,0.1142,0.1145,1,14,176,115,1,sixeight,,,,,,,,,,,,,,,,,,,,,,,,,,,,,,,,,,,,,,,,,,,,,,,,,,,,,,,,,,,,,,,,,,,,,,,,,,,,,,,,,,,,,,,,,,,,,,,,,,,,,,,,,,,,,,,,,,,,,,,,,,,,,,,,,,,,,,,
,,5d66f23706e589000157e7ec,2024-01-06_05h49.12.761,kallum_motion_pilot,2023.2.3,Win32,59.88023952,5d66f23706e589000157e7ec,6598e6a5d84f07970b831e70,6598e7a1028cf37c59bf7974,0.1147,0.115,1,15,177,126,1,eightsix,,,,,,,,,,,,,,,,,,,,,,,,,,,,,,,,,,,,,,,,,,,,,,,,,,,,,,,,,,,,,,,,,,,,,,,,,,,,,,,,,,,,,,,,,,,,,,,,,,,,,,,,,,,,,,,,,,,,,,,,,,,,,,,,,,,,,,,
,,5d66f23706e589000157e7ec,2024-01-06_05h49.12.761,kallum_motion_pilot,2023.2.3,Win32,59.88023952,5d66f23706e589000157e7ec,6598e6a5d84f07970b831e70,6598e7a1028cf37c59bf7974,0.1153,0.1154,1,16,178,146,1,sixfive,,,,,,,,,,,,,,,,,,,,,,,,,,,,,,,,,,,,,,,,,,,,,,,,,,,,,,,,,,,,,,,,,,,,,,,,,,,,,,,,,,,,,,,,,,,,,,,,,,,,,,,,,,,,,,,,,,,,,,,,,,,,,,,,,,,,,,,
,,5d66f23706e589000157e7ec,2024-01-06_05h49.12.761,kallum_motion_pilot,2023.2.3,Win32,59.88023952,5d66f23706e589000157e7ec,6598e6a5d84f07970b831e70,6598e7a1028cf37c59bf7974,0.1157,0.1159,1,17,179,47,1,fourthree,,,,,,,,,,,,,,,,,,,,,,,,,,,,,,,,,,,,,,,,,,,,,,,,,,,,,,,,,,,,,,,,,,,,,,,,,,,,,,,,,,,,,,,,,,,,,,,,,,,,,,,,,,,,,,,,,,,,,,,,,,,,,,,,,,,,,,,
,,5d66f23706e589000157e7ec,2024-01-06_05h49.12.761,kallum_motion_pilot,2023.2.3,Win32,59.88023952,5d66f23706e589000157e7ec,6598e6a5d84f07970b831e70,6598e7a1028cf37c59bf7974,0.1164,0.1167,1,18,180,58,1,twoone,,,,,,,,,,,,,,,,,,,,,,,,,,,,,,,,,,,,,,,,,,,,,,,,,,,,,,,,,,,,,,,,,,,,,,,,,,,,,,,,,,,,,,,,,,,,,,,,,,,,,,,,,,,,,,,,,,,,,,,,,,,,,,,,,,,,,,,
,,5d66f23706e589000157e7ec,2024-01-06_05h49.12.761,kallum_motion_pilot,2023.2.3,Win32,59.88023952,5d66f23706e589000157e7ec,6598e6a5d84f07970b831e70,6598e7a1028cf37c59bf7974,0.117,0.1172,1,19,181,97,1,fiveseven,,,,,,,,,,,,,,,,,,,,,,,,,,,,,,,,,,,,,,,,,,,,,,,,,,,,,,,,,,,,,,,,,,,,,,,,,,,,,,,,,,,,,,,,,,,,,,,,,,,,,,,,,,,,,,,,,,,,,,,,,,,,,,,,,,,,,,,
,,5d66f23706e589000157e7ec,2024-01-06_05h49.12.761,kallum_motion_pilot,2023.2.3,Win32,59.88023952,5d66f23706e589000157e7ec,6598e6a5d84f07970b831e70,6598e7a1028cf37c59bf7974,0.1175,0.1177,1,20,182,56,1,onetwo,,,,,,,,,,,,,,,,,,,,,,,,,,,,,,,,,,,,,,,,,,,,,,,,,,,,,,,,,,,,,,,,,,,,,,,,,,,,,,,,,,,,,,,,,,,,,,,,,,,,,,,,,,,,,,,,,,,,,,,,,,,,,,,,,,,,,,,
,,5d66f23706e589000157e7ec,2024-01-06_05h49.12.761,kallum_motion_pilot,2023.2.3,Win32,59.88023952,5d66f23706e589000157e7ec,6598e6a5d84f07970b831e70,6598e7a1028cf37c59bf7974,0.118,0.1181,1,21,183,114,1,sixfive,,,,,,,,,,,,,,,,,,,,,,,,,,,,,,,,,,,,,,,,,,,,,,,,,,,,,,,,,,,,,,,,,,,,,,,,,,,,,,,,,,,,,,,,,,,,,,,,,,,,,,,,,,,,,,,,,,,,,,,,,,,,,,,,,,,,,,,
,,5d66f23706e589000157e7ec,2024-01-06_05h49.12.761,kallum_motion_pilot,2023.2.3,Win32,59.88023952,5d66f23706e589000157e7ec,6598e6a5d84f07970b831e70,6598e7a1028cf37c59bf7974,0.1184,0.1186,1,22,184,73,1,onethree,,,,,,,,,,,,,,,,,,,,,,,,,,,,,,,,,,,,,,,,,,,,,,,,,,,,,,,,,,,,,,,,,,,,,,,,,,,,,,,,,,,,,,,,,,,,,,,,,,,,,,,,,,,,,,,,,,,,,,,,,,,,,,,,,,,,,,,
,,5d66f23706e589000157e7ec,2024-01-06_05h49.12.761,kallum_motion_pilot,2023.2.3,Win32,59.88023952,5d66f23706e589000157e7ec,6598e6a5d84f07970b831e70,6598e7a1028cf37c59bf7974,0.1188,0.119,1,23,185,44,1,threeone,,,,,,,,,,,,,,,,,,,,,,,,,,,,,,,,,,,,,,,,,,,,,,,,,,,,,,,,,,,,,,,,,,,,,,,,,,,,,,,,,,,,,,,,,,,,,,,,,,,,,,,,,,,,,,,,,,,,,,,,,,,,,,,,,,,,,,,
,,5d66f23706e589000157e7ec,2024-01-06_05h49.12.761,kallum_motion_pilot,2023.2.3,Win32,59.88023952,5d66f23706e589000157e7ec,6598e6a5d84f07970b831e70,6598e7a1028cf37c59bf7974,0.1193,0.1194,1,24,186,67,1,twofour,,,,,,,,,,,,,,,,,,,,,,,,,,,,,,,,,,,,,,,,,,,,,,,,,,,,,,,,,,,,,,,,,,,,,,,,,,,,,,,,,,,,,,,,,,,,,,,,,,,,,,,,,,,,,,,,,,,,,,,,,,,,,,,,,,,,,,,
,,5d66f23706e589000157e7ec,2024-01-06_05h49.12.761,kallum_motion_pilot,2023.2.3,Win32,59.88023952,5d66f23706e589000157e7ec,6598e6a5d84f07970b831e70,6598e7a1028cf37c59bf7974,0.1196,0.1199,1,25,187,78,1,fourtwo,,,,,,,,,,,,,,,,,,,,,,,,,,,,,,,,,,,,,,,,,,,,,,,,,,,,,,,,,,,,,,,,,,,,,,,,,,,,,,,,,,,,,,,,,,,,,,,,,,,,,,,,,,,,,,,,,,,,,,,,,,,,,,,,,,,,,,,
,,5d66f23706e589000157e7ec,2024-01-06_05h49.12.761,kallum_motion_pilot,2023.2.3,Win32,59.88023952,5d66f23706e589000157e7ec,6598e6a5d84f07970b831e70,6598e7a1028cf37c59bf7974,0.1201,0.1202,1,26,188,7,1,fourthree,,,,,,,,,,,,,,,,,,,,,,,,,,,,,,,,,,,,,,,,,,,,,,,,,,,,,,,,,,,,,,,,,,,,,,,,,,,,,,,,,,,,,,,,,,,,,,,,,,,,,,,,,,,,,,,,,,,,,,,,,,,,,,,,,,,,,,,
,,5d66f23706e589000157e7ec,2024-01-06_05h49.12.761,kallum_motion_pilot,2023.2.3,Win32,59.88023952,5d66f23706e589000157e7ec,6598e6a5d84f07970b831e70,6598e7a1028cf37c59bf7974,0.1205,0.1207,1,27,189,95,1,eightseven,,,,,,,,,,,,,,,,,,,,,,,,,,,,,,,,,,,,,,,,,,,,,,,,,,,,,,,,,,,,,,,,,,,,,,,,,,,,,,,,,,,,,,,,,,,,,,,,,,,,,,,,,,,,,,,,,,,,,,,,,,,,,,,,,,,,,,,
,,5d66f23706e589000157e7ec,2024-01-06_05h49.12.761,kallum_motion_pilot,2023.2.3,Win32,59.88023952,5d66f23706e589000157e7ec,6598e6a5d84f07970b831e70,6598e7a1028cf37c59bf7974,0.1209,0.1212,1,28,190,141,1,seveneight,,,,,,,,,,,,,,,,,,,,,,,,,,,,,,,,,,,,,,,,,,,,,,,,,,,,,,,,,,,,,,,,,,,,,,,,,,,,,,,,,,,,,,,,,,,,,,,,,,,,,,,,,,,,,,,,,,,,,,,,,,,,,,,,,,,,,,,
,,5d66f23706e589000157e7ec,2024-01-06_05h49.12.761,kallum_motion_pilot,2023.2.3,Win32,59.88023952,5d66f23706e589000157e7ec,6598e6a5d84f07970b831e70,6598e7a1028cf37c59bf7974,0.1214,0.1216,1,29,191,90,1,sixfive,,,,,,,,,,,,,,,,,,,,,,,,,,,,,,,,,,,,,,,,,,,,,,,,,,,,,,,,,,,,,,,,,,,,,,,,,,,,,,,,,,,,,,,,,,,,,,,,,,,,,,,,,,,,,,,,,,,,,,,,,,,,,,,,,,,,,,,
,,5d66f23706e589000157e7ec,2024-01-06_05h49.12.761,kallum_motion_pilot,2023.2.3,Win32,59.88023952,5d66f23706e589000157e7ec,6598e6a5d84f07970b831e70,6598e7a1028cf37c59bf7974,0.1219,0.1221,1,30,192,43,1,twofour,,,,,,,,,,,,,,,,,,,,,,,,,,,,,,,,,,,,,,,,,,,,,,,,,,,,,,,,,,,,,,,,,,,,,,,,,,,,,,,,,,,,,,,,,,,,,,,,,,,,,,,,,,,,,,,,,,,,,,,,,,,,,,,,,,,,,,,
,,5d66f23706e589000157e7ec,2024-01-06_05h49.12.761,kallum_motion_pilot,2023.2.3,Win32,59.88023952,5d66f23706e589000157e7ec,6598e6a5d84f07970b831e70,6598e7a1028cf37c59bf7974,0.1223,0.1225,1,31,193,103,1,eightseven,,,,,,,,,,,,,,,,,,,,,,,,,,,,,,,,,,,,,,,,,,,,,,,,,,,,,,,,,,,,,,,,,,,,,,,,,,,,,,,,,,,,,,,,,,,,,,,,,,,,,,,,,,,,,,,,,,,,,,,,,,,,,,,,,,,,,,,
,,5d66f23706e589000157e7ec,2024-01-06_05h49.12.761,kallum_motion_pilot,2023.2.3,Win32,59.88023952,5d66f23706e589000157e7ec,6598e6a5d84f07970b831e70,6598e7a1028cf37c59bf7974,0.1227,0.1229,1,32,194,3,1,twofour,,,,,,,,,,,,,,,,,,,,,,,,,,,,,,,,,,,,,,,,,,,,,,,,,,,,,,,,,,,,,,,,,,,,,,,,,,,,,,,,,,,,,,,,,,,,,,,,,,,,,,,,,,,,,,,,,,,,,,,,,,,,,,,,,,,,,,,
,,5d66f23706e589000157e7ec,2024-01-06_05h49.12.761,kallum_motion_pilot,2023.2.3,Win32,59.88023952,5d66f23706e589000157e7ec,6598e6a5d84f07970b831e70,6598e7a1028cf37c59bf7974,0.1231,0.1233,1,33,195,133,1,seveneight,,,,,,,,,,,,,,,,,,,,,,,,,,,,,,,,,,,,,,,,,,,,,,,,,,,,,,,,,,,,,,,,,,,,,,,,,,,,,,,,,,,,,,,,,,,,,,,,,,,,,,,,,,,,,,,,,,,,,,,,,,,,,,,,,,,,,,,
,,5d66f23706e589000157e7ec,2024-01-06_05h49.12.761,kallum_motion_pilot,2023.2.3,Win32,59.88023952,5d66f23706e589000157e7ec,6598e6a5d84f07970b831e70,6598e7a1028cf37c59bf7974,0.1236,0.1238,1,34,196,132,1,sevenfive,,,,,,,,,,,,,,,,,,,,,,,,,,,,,,,,,,,,,,,,,,,,,,,,,,,,,,,,,,,,,,,,,,,,,,,,,,,,,,,,,,,,,,,,,,,,,,,,,,,,,,,,,,,,,,,,,,,,,,,,,,,,,,,,,,,,,,,
,,5d66f23706e589000157e7ec,2024-01-06_05h49.12.761,kallum_motion_pilot,2023.2.3,Win32,59.88023952,5d66f23706e589000157e7ec,6598e6a5d84f07970b831e70,6598e7a1028cf37c59bf7974,0.124,0.1242,1,35,197,72,1,onetwo,,,,,,,,,,,,,,,,,,,,,,,,,,,,,,,,,,,,,,,,,,,,,,,,,,,,,,,,,,,,,,,,,,,,,,,,,,,,,,,,,,,,,,,,,,,,,,,,,,,,,,,,,,,,,,,,,,,,,,,,,,,,,,,,,,,,,,,
,,5d66f23706e589000157e7ec,2024-01-06_05h49.12.761,kallum_motion_pilot,2023.2.3,Win32,59.88023952,5d66f23706e589000157e7ec,6598e6a5d84f07970b831e70,6598e7a1028cf37c59bf7974,0.1244,0.1248,1,36,198,60,1,threeone,,,,,,,,,,,,,,,,,,,,,,,,,,,,,,,,,,,,,,,,,,,,,,,,,,,,,,,,,,,,,,,,,,,,,,,,,,,,,,,,,,,,,,,,,,,,,,,,,,,,,,,,,,,,,,,,,,,,,,,,,,,,,,,,,,,,,,,
,,5d66f23706e589000157e7ec,2024-01-06_05h49.12.761,kallum_motion_pilot,2023.2.3,Win32,59.88023952,5d66f23706e589000157e7ec,6598e6a5d84f07970b831e70,6598e7a1028cf37c59bf7974,0.125,0.1253,1,37,199,77,1,threefour,,,,,,,,,,,,,,,,,,,,,,,,,,,,,,,,,,,,,,,,,,,,,,,,,,,,,,,,,,,,,,,,,,,,,,,,,,,,,,,,,,,,,,,,,,,,,,,,,,,,,,,,,,,,,,,,,,,,,,,,,,,,,,,,,,,,,,,
,,5d66f23706e589000157e7ec,2024-01-06_05h49.12.761,kallum_motion_pilot,2023.2.3,Win32,59.88023952,5d66f23706e589000157e7ec,6598e6a5d84f07970b831e70,6598e7a1028cf37c59bf7974,0.1255,0.1257,1,38,200,87,1,eightseven,,,,,,,,,,,,,,,,,,,,,,,,,,,,,,,,,,,,,,,,,,,,,,,,,,,,,,,,,,,,,,,,,,,,,,,,,,,,,,,,,,,,,,,,,,,,,,,,,,,,,,,,,,,,,,,,,,,,,,,,,,,,,,,,,,,,,,,
,,5d66f23706e589000157e7ec,2024-01-06_05h49.12.761,kallum_motion_pilot,2023.2.3,Win32,59.88023952,5d66f23706e589000157e7ec,6598e6a5d84f07970b831e70,6598e7a1028cf37c59bf7974,0.1259,0.1262,1,39,201,149,1,seveneight,,,,,,,,,,,,,,,,,,,,,,,,,,,,,,,,,,,,,,,,,,,,,,,,,,,,,,,,,,,,,,,,,,,,,,,,,,,,,,,,,,,,,,,,,,,,,,,,,,,,,,,,,,,,,,,,,,,,,,,,,,,,,,,,,,,,,,,
,,5d66f23706e589000157e7ec,2024-01-06_05h49.12.761,kallum_motion_pilot,2023.2.3,Win32,59.88023952,5d66f23706e589000157e7ec,6598e6a5d84f07970b831e70,6598e7a1028cf37c59bf7974,0.1263,0.1266,1,40,202,6,1,fourtwo,,,,,,,,,,,,,,,,,,,,,,,,,,,,,,,,,,,,,,,,,,,,,,,,,,,,,,,,,,,,,,,,,,,,,,,,,,,,,,,,,,,,,,,,,,,,,,,,,,,,,,,,,,,,,,,,,,,,,,,,,,,,,,,,,,,,,,,
,,5d66f23706e589000157e7ec,2024-01-06_05h49.12.761,kallum_motion_pilot,2023.2.3,Win32,59.88023952,5d66f23706e589000157e7ec,6598e6a5d84f07970b831e70,6598e7a1028cf37c59bf7974,0.1267,0.127,1,41,203,14,1,fourtwo,,,,,,,,,,,,,,,,,,,,,,,,,,,,,,,,,,,,,,,,,,,,,,,,,,,,,,,,,,,,,,,,,,,,,,,,,,,,,,,,,,,,,,,,,,,,,,,,,,,,,,,,,,,,,,,,,,,,,,,,,,,,,,,,,,,,,,,
,,5d66f23706e589000157e7ec,2024-01-06_05h49.12.761,kallum_motion_pilot,2023.2.3,Win32,59.88023952,5d66f23706e589000157e7ec,6598e6a5d84f07970b831e70,6598e7a1028cf37c59bf7974,0.1272,0.1274,1,42,204,71,1,fourthree,,,,,,,,,,,,,,,,,,,,,,,,,,,,,,,,,,,,,,,,,,,,,,,,,,,,,,,,,,,,,,,,,,,,,,,,,,,,,,,,,,,,,,,,,,,,,,,,,,,,,,,,,,,,,,,,,,,,,,,,,,,,,,,,,,,,,,,
,,5d66f23706e589000157e7ec,2024-01-06_05h49.12.761,kallum_motion_pilot,2023.2.3,Win32,59.88023952,5d66f23706e589000157e7ec,6598e6a5d84f07970b831e70,6598e7a1028cf37c59bf7974,0.1276,0.1279,1,43,205,128,1,fivesix,,,,,,,,,,,,,,,,,,,,,,,,,,,,,,,,,,,,,,,,,,,,,,,,,,,,,,,,,,,,,,,,,,,,,,,,,,,,,,,,,,,,,,,,,,,,,,,,,,,,,,,,,,,,,,,,,,,,,,,,,,,,,,,,,,,,,,,
,,5d66f23706e589000157e7ec,2024-01-06_05h49.12.761,kallum_motion_pilot,2023.2.3,Win32,59.88023952,5d66f23706e589000157e7ec,6598e6a5d84f07970b831e70,6598e7a1028cf37c59bf7974,0.1281,0.1282,1,44,206,136,1,fivesix,,,,,,,,,,,,,,,,,,,,,,,,,,,,,,,,,,,,,,,,,,,,,,,,,,,,,,,,,,,,,,,,,,,,,,,,,,,,,,,,,,,,,,,,,,,,,,,,,,,,,,,,,,,,,,,,,,,,,,,,,,,,,,,,,,,,,,,
,,5d66f23706e589000157e7ec,2024-01-06_05h49.12.761,kallum_motion_pilot,2023.2.3,Win32,59.88023952,5d66f23706e589000157e7ec,6598e6a5d84f07970b831e70,6598e7a1028cf37c59bf7974,0.1284,0.1286,1,45,207,28,1,threeone,,,,,,,,,,,,,,,,,,,,,,,,,,,,,,,,,,,,,,,,,,,,,,,,,,,,,,,,,,,,,,,,,,,,,,,,,,,,,,,,,,,,,,,,,,,,,,,,,,,,,,,,,,,,,,,,,,,,,,,,,,,,,,,,,,,,,,,
,,5d66f23706e589000157e7ec,2024-01-06_05h49.12.761,kallum_motion_pilot,2023.2.3,Win32,59.88023952,5d66f23706e589000157e7ec,6598e6a5d84f07970b831e70,6598e7a1028cf37c59bf7974,0.1289,0.1291,1,46,208,21,1,threefour,,,,,,,,,,,,,,,,,,,,,,,,,,,,,,,,,,,,,,,,,,,,,,,,,,,,,,,,,,,,,,,,,,,,,,,,,,,,,,,,,,,,,,,,,,,,,,,,,,,,,,,,,,,,,,,,,,,,,,,,,,,,,,,,,,,,,,,
,,5d66f23706e589000157e7ec,2024-01-06_05h49.12.761,kallum_motion_pilot,2023.2.3,Win32,59.88023952,5d66f23706e589000157e7ec,6598e6a5d84f07970b831e70,6598e7a1028cf37c59bf7974,0.1293,0.1296,1,47,209,123,1,sixeight,,,,,,,,,,,,,,,,,,,,,,,,,,,,,,,,,,,,,,,,,,,,,,,,,,,,,,,,,,,,,,,,,,,,,,,,,,,,,,,,,,,,,,,,,,,,,,,,,,,,,,,,,,,,,,,,,,,,,,,,,,,,,,,,,,,,,,,
,,5d66f23706e589000157e7ec,2024-01-06_05h49.12.761,kallum_motion_pilot,2023.2.3,Win32,59.88023952,5d66f23706e589000157e7ec,6598e6a5d84f07970b831e70,6598e7a1028cf37c59bf7974,0.1299,0.1301,1,48,210,135,1,eightseven,,,,,,,,,,,,,,,,,,,,,,,,,,,,,,,,,,,,,,,,,,,,,,,,,,,,,,,,,,,,,,,,,,,,,,,,,,,,,,,,,,,,,,,,,,,,,,,,,,,,,,,,,,,,,,,,,,,,,,,,,,,,,,,,,,,,,,,
,,5d66f23706e589000157e7ec,2024-01-06_05h49.12.761,kallum_motion_pilot,2023.2.3,Win32,59.88023952,5d66f23706e589000157e7ec,6598e6a5d84f07970b831e70,6598e7a1028cf37c59bf7974,0.1303,0.1305,1,49,211,80,1,fivesix,,,,,,,,,,,,,,,,,,,,,,,,,,,,,,,,,,,,,,,,,,,,,,,,,,,,,,,,,,,,,,,,,,,,,,,,,,,,,,,,,,,,,,,,,,,,,,,,,,,,,,,,,,,,,,,,,,,,,,,,,,,,,,,,,,,,,,,
,,5d66f23706e589000157e7ec,2024-01-06_05h49.12.761,kallum_motion_pilot,2023.2.3,Win32,59.88023952,5d66f23706e589000157e7ec,6598e6a5d84f07970b831e70,6598e7a1028cf37c59bf7974,0.1307,0.1308,1,50,212,148,1,sevenfive,,,,,,,,,,,,,,,,,,,,,,,,,,,,,,,,,,,,,,,,,,,,,,,,,,,,,,,,,,,,,,,,,,,,,,,,,,,,,,,,,,,,,,,,,,,,,,,,,,,,,,,,,,,,,,,,,,,,,,,,,,,,,,,,,,,,,,,
,,5d66f23706e589000157e7ec,2024-01-06_05h49.12.761,kallum_motion_pilot,2023.2.3,Win32,59.88023952,5d66f23706e589000157e7ec,6598e6a5d84f07970b831e70,6598e7a1028cf37c59bf7974,0.131,0.1313,1,51,213,131,1,sixeight,,,,,,,,,,,,,,,,,,,,,,,,,,,,,,,,,,,,,,,,,,,,,,,,,,,,,,,,,,,,,,,,,,,,,,,,,,,,,,,,,,,,,,,,,,,,,,,,,,,,,,,,,,,,,,,,,,,,,,,,,,,,,,,,,,,,,,,
,,5d66f23706e589000157e7ec,2024-01-06_05h49.12.761,kallum_motion_pilot,2023.2.3,Win32,59.88023952,5d66f23706e589000157e7ec,6598e6a5d84f07970b831e70,6598e7a1028cf37c59bf7974,0.1317,0.1319,1,52,214,74,1,twoone,,,,,,,,,,,,,,,,,,,,,,,,,,,,,,,,,,,,,,,,,,,,,,,,,,,,,,,,,,,,,,,,,,,,,,,,,,,,,,,,,,,,,,,,,,,,,,,,,,,,,,,,,,,,,,,,,,,,,,,,,,,,,,,,,,,,,,,
,,5d66f23706e589000157e7ec,2024-01-06_05h49.12.761,kallum_motion_pilot,2023.2.3,Win32,59.88023952,5d66f23706e589000157e7ec,6598e6a5d84f07970b831e70,6598e7a1028cf37c59bf7974,0.1322,0.1323,1,53,215,96,1,fivesix,,,,,,,,,,,,,,,,,,,,,,,,,,,,,,,,,,,,,,,,,,,,,,,,,,,,,,,,,,,,,,,,,,,,,,,,,,,,,,,,,,,,,,,,,,,,,,,,,,,,,,,,,,,,,,,,,,,,,,,,,,,,,,,,,,,,,,,
,,5d66f23706e589000157e7ec,2024-01-06_05h49.12.761,kallum_motion_pilot,2023.2.3,Win32,59.88023952,5d66f23706e589000157e7ec,6598e6a5d84f07970b831e70,6598e7a1028cf37c59bf7974,0.1326,0.1328,1,54,216,15,1,fourthree,,,,,,,,,,,,,,,,,,,,,,,,,,,,,,,,,,,,,,,,,,,,,,,,,,,,,,,,,,,,,,,,,,,,,,,,,,,,,,,,,,,,,,,,,,,,,,,,,,,,,,,,,,,,,,,,,,,,,,,,,,,,,,,,,,,,,,,
,,5d66f23706e589000157e7ec,2024-01-06_05h49.12.761,kallum_motion_pilot,2023.2.3,Win32,59.88023952,5d66f23706e589000157e7ec,6598e6a5d84f07970b831e70,6598e7a1028cf37c59bf7974,0.1329,0.1332,1,55,217,145,1,fiveseven,,,,,,,,,,,,,,,,,,,,,,,,,,,,,,,,,,,,,,,,,,,,,,,,,,,,,,,,,,,,,,,,,,,,,,,,,,,,,,,,,,,,,,,,,,,,,,,,,,,,,,,,,,,,,,,,,,,,,,,,,,,,,,,,,,,,,,,
,,5d66f23706e589000157e7ec,2024-01-06_05h49.12.761,kallum_motion_pilot,2023.2.3,Win32,59.88023952,5d66f23706e589000157e7ec,6598e6a5d84f07970b831e70,6598e7a1028cf37c59bf7974,0.1334,0.1337,1,56,218,54,1,fourtwo,,,,,,,,,,,,,,,,,,,,,,,,,,,,,,,,,,,,,,,,,,,,,,,,,,,,,,,,,,,,,,,,,,,,,,,,,,,,,,,,,,,,,,,,,,,,,,,,,,,,,,,,,,,,,,,,,,,,,,,,,,,,,,,,,,,,,,,
,,5d66f23706e589000157e7ec,2024-01-06_05h49.12.761,kallum_motion_pilot,2023.2.3,Win32,59.88023952,5d66f23706e589000157e7ec,6598e6a5d84f07970b831e70,6598e7a1028cf37c59bf7974,0.134,0.1342,1,57,219,144,1,fivesix,,,,,,,,,,,,,,,,,,,,,,,,,,,,,,,,,,,,,,,,,,,,,,,,,,,,,,,,,,,,,,,,,,,,,,,,,,,,,,,,,,,,,,,,,,,,,,,,,,,,,,,,,,,,,,,,,,,,,,,,,,,,,,,,,,,,,,,
,,5d66f23706e589000157e7ec,2024-01-06_05h49.12.761,kallum_motion_pilot,2023.2.3,Win32,59.88023952,5d66f23706e589000157e7ec,6598e6a5d84f07970b831e70,6598e7a1028cf37c59bf7974,0.1345,0.1346,1,58,220,51,1,twofour,,,,,,,,,,,,,,,,,,,,,,,,,,,,,,,,,,,,,,,,,,,,,,,,,,,,,,,,,,,,,,,,,,,,,,,,,,,,,,,,,,,,,,,,,,,,,,,,,,,,,,,,,,,,,,,,,,,,,,,,,,,,,,,,,,,,,,,
,,5d66f23706e589000157e7ec,2024-01-06_05h49.12.761,kallum_motion_pilot,2023.2.3,Win32,59.88023952,5d66f23706e589000157e7ec,6598e6a5d84f07970b831e70,6598e7a1028cf37c59bf7974,0.1349,0.1351,1,59,221,127,1,eightseven,,,,,,,,,,,,,,,,,,,,,,,,,,,,,,,,,,,,,,,,,,,,,,,,,,,,,,,,,,,,,,,,,,,,,,,,,,,,,,,,,,,,,,,,,,,,,,,,,,,,,,,,,,,,,,,,,,,,,,,,,,,,,,,,,,,,,,,
,,5d66f23706e589000157e7ec,2024-01-06_05h49.12.761,kallum_motion_pilot,2023.2.3,Win32,59.88023952,5d66f23706e589000157e7ec,6598e6a5d84f07970b831e70,6598e7a1028cf37c59bf7974,0.1354,0.1356,1,60,222,69,1,threefour,,,,,,,,,,,,,,,,,,,,,,,,,,,,,,,,,,,,,,,,,,,,,,,,,,,,,,,,,,,,,,,,,,,,,,,,,,,,,,,,,,,,,,,,,,,,,,,,,,,,,,,,,,,,,,,,,,,,,,,,,,,,,,,,,,,,,,,
,,5d66f23706e589000157e7ec,2024-01-06_05h49.12.761,kallum_motion_pilot,2023.2.3,Win32,59.88023952,5d66f23706e589000157e7ec,6598e6a5d84f07970b831e70,6598e7a1028cf37c59bf7974,0.1357,0.136,1,61,223,16,1,onetwo,,,,,,,,,,,,,,,,,,,,,,,,,,,,,,,,,,,,,,,,,,,,,,,,,,,,,,,,,,,,,,,,,,,,,,,,,,,,,,,,,,,,,,,,,,,,,,,,,,,,,,,,,,,,,,,,,,,,,,,,,,,,,,,,,,,,,,,
,,5d66f23706e589000157e7ec,2024-01-06_05h49.12.761,kallum_motion_pilot,2023.2.3,Win32,59.88023952,5d66f23706e589000157e7ec,6598e6a5d84f07970b831e70,6598e7a1028cf37c59bf7974,0.1363,0.1365,1,62,224,5,1,threefour,,,,,,,,,,,,,,,,,,,,,,,,,,,,,,,,,,,,,,,,,,,,,,,,,,,,,,,,,,,,,,,,,,,,,,,,,,,,,,,,,,,,,,,,,,,,,,,,,,,,,,,,,,,,,,,,,,,,,,,,,,,,,,,,,,,,,,,
,,5d66f23706e589000157e7ec,2024-01-06_05h49.12.761,kallum_motion_pilot,2023.2.3,Win32,59.88023952,5d66f23706e589000157e7ec,6598e6a5d84f07970b831e70,6598e7a1028cf37c59bf7974,0.1368,0.137,1,63,225,143,1,eightseven,,,,,,,,,,,,,,,,,,,,,,,,,,,,,,,,,,,,,,,,,,,,,,,,,,,,,,,,,,,,,,,,,,,,,,,,,,,,,,,,,,,,,,,,,,,,,,,,,,,,,,,,,,,,,,,,,,,,,,,,,,,,,,,,,,,,,,,
,,5d66f23706e589000157e7ec,2024-01-06_05h49.12.761,kallum_motion_pilot,2023.2.3,Win32,59.88023952,5d66f23706e589000157e7ec,6598e6a5d84f07970b831e70,6598e7a1028cf37c59bf7974,0.1372,0.1374,1,64,226,120,1,fivesix,,,,,,,,,,,,,,,,,,,,,,,,,,,,,,,,,,,,,,,,,,,,,,,,,,,,,,,,,,,,,,,,,,,,,,,,,,,,,,,,,,,,,,,,,,,,,,,,,,,,,,,,,,,,,,,,,,,,,,,,,,,,,,,,,,,,,,,
,,5d66f23706e589000157e7ec,2024-01-06_05h49.12.761,kallum_motion_pilot,2023.2.3,Win32,59.88023952,5d66f23706e589000157e7ec,6598e6a5d84f07970b831e70,6598e7a1028cf37c59bf7974,0.1377,0.138,1,65,227,52,1,threeone,,,,,,,,,,,,,,,,,,,,,,,,,,,,,,,,,,,,,,,,,,,,,,,,,,,,,,,,,,,,,,,,,,,,,,,,,,,,,,,,,,,,,,,,,,,,,,,,,,,,,,,,,,,,,,,,,,,,,,,,,,,,,,,,,,,,,,,
,,5d66f23706e589000157e7ec,2024-01-06_05h49.12.761,kallum_motion_pilot,2023.2.3,Win32,59.88023952,5d66f23706e589000157e7ec,6598e6a5d84f07970b831e70,6598e7a1028cf37c59bf7974,0.1381,0.1384,1,66,228,156,1,sevenfive,,,,,,,,,,,,,,,,,,,,,,,,,,,,,,,,,,,,,,,,,,,,,,,,,,,,,,,,,,,,,,,,,,,,,,,,,,,,,,,,,,,,,,,,,,,,,,,,,,,,,,,,,,,,,,,,,,,,,,,,,,,,,,,,,,,,,,,
,,5d66f23706e589000157e7ec,2024-01-06_05h49.12.761,kallum_motion_pilot,2023.2.3,Win32,59.88023952,5d66f23706e589000157e7ec,6598e6a5d84f07970b831e70,6598e7a1028cf37c59bf7974,0.1386,0.1388,1,67,229,112,1,fivesix,,,,,,,,,,,,,,,,,,,,,,,,,,,,,,,,,,,,,,,,,,,,,,,,,,,,,,,,,,,,,,,,,,,,,,,,,,,,,,,,,,,,,,,,,,,,,,,,,,,,,,,,,,,,,,,,,,,,,,,,,,,,,,,,,,,,,,,
,,5d66f23706e589000157e7ec,2024-01-06_05h49.12.761,kallum_motion_pilot,2023.2.3,Win32,59.88023952,5d66f23706e589000157e7ec,6598e6a5d84f07970b831e70,6598e7a1028cf37c59bf7974,0.139,0.1393,1,68,230,147,1,sixeight,,,,,,,,,,,,,,,,,,,,,,,,,,,,,,,,,,,,,,,,,,,,,,,,,,,,,,,,,,,,,,,,,,,,,,,,,,,,,,,,,,,,,,,,,,,,,,,,,,,,,,,,,,,,,,,,,,,,,,,,,,,,,,,,,,,,,,,
,,5d66f23706e589000157e7ec,2024-01-06_05h49.12.761,kallum_motion_pilot,2023.2.3,Win32,59.88023952,5d66f23706e589000157e7ec,6598e6a5d84f07970b831e70,6598e7a1028cf37c59bf7974,0.1395,0.1397,1,69,231,25,1,onethree,,,,,,,,,,,,,,,,,,,,,,,,,,,,,,,,,,,,,,,,,,,,,,,,,,,,,,,,,,,,,,,,,,,,,,,,,,,,,,,,,,,,,,,,,,,,,,,,,,,,,,,,,,,,,,,,,,,,,,,,,,,,,,,,,,,,,,,
,,5d66f23706e589000157e7ec,2024-01-06_05h49.12.761,kallum_motion_pilot,2023.2.3,Win32,59.88023952,5d66f23706e589000157e7ec,6598e6a5d84f07970b831e70,6598e7a1028cf37c59bf7974,0.14,0.1401,1,70,232,45,1,threefour,,,,,,,,,,,,,,,,,,,,,,,,,,,,,,,,,,,,,,,,,,,,,,,,,,,,,,,,,,,,,,,,,,,,,,,,,,,,,,,,,,,,,,,,,,,,,,,,,,,,,,,,,,,,,,,,,,,,,,,,,,,,,,,,,,,,,,,
,,5d66f23706e589000157e7ec,2024-01-06_05h49.12.761,kallum_motion_pilot,2023.2.3,Win32,59.88023952,5d66f23706e589000157e7ec,6598e6a5d84f07970b831e70,6598e7a1028cf37c59bf7974,0.1403,0.1407,1,71,233,82,1,sixfive,,,,,,,,,,,,,,,,,,,,,,,,,,,,,,,,,,,,,,,,,,,,,,,,,,,,,,,,,,,,,,,,,,,,,,,,,,,,,,,,,,,,,,,,,,,,,,,,,,,,,,,,,,,,,,,,,,,,,,,,,,,,,,,,,,,,,,,
,,5d66f23706e589000157e7ec,2024-01-06_05h49.12.761,kallum_motion_pilot,2023.2.3,Win32,59.88023952,5d66f23706e589000157e7ec,6598e6a5d84f07970b831e70,6598e7a1028cf37c59bf7974,0.1409,0.1412,1,72,234,99,1,sixeight,,,,,,,,,,,,,,,,,,,,,,,,,,,,,,,,,,,,,,,,,,,,,,,,,,,,,,,,,,,,,,,,,,,,,,,,,,,,,,,,,,,,,,,,,,,,,,,,,,,,,,,,,,,,,,,,,,,,,,,,,,,,,,,,,,,,,,,
,,5d66f23706e589000157e7ec,2024-01-06_05h49.12.761,kallum_motion_pilot,2023.2.3,Win32,59.88023952,5d66f23706e589000157e7ec,6598e6a5d84f07970b831e70,6598e7a1028cf37c59bf7974,0.1414,0.1416,1,73,235,29,1,threefour,,,,,,,,,,,,,,,,,,,,,,,,,,,,,,,,,,,,,,,,,,,,,,,,,,,,,,,,,,,,,,,,,,,,,,,,,,,,,,,,,,,,,,,,,,,,,,,,,,,,,,,,,,,,,,,,,,,,,,,,,,,,,,,,,,,,,,,
,,5d66f23706e589000157e7ec,2024-01-06_05h49.12.761,kallum_motion_pilot,2023.2.3,Win32,59.88023952,5d66f23706e589000157e7ec,6598e6a5d84f07970b831e70,6598e7a1028cf37c59bf7974,0.1418,0.142,1,74,236,17,1,onethree,,,,,,,,,,,,,,,,,,,,,,,,,,,,,,,,,,,,,,,,,,,,,,,,,,,,,,,,,,,,,,,,,,,,,,,,,,,,,,,,,,,,,,,,,,,,,,,,,,,,,,,,,,,,,,,,,,,,,,,,,,,,,,,,,,,,,,,
,,5d66f23706e589000157e7ec,2024-01-06_05h49.12.761,kallum_motion_pilot,2023.2.3,Win32,59.88023952,5d66f23706e589000157e7ec,6598e6a5d84f07970b831e70,6598e7a1028cf37c59bf7974,0.1422,0.1425,1,75,237,65,1,onethree,,,,,,,,,,,,,,,,,,,,,,,,,,,,,,,,,,,,,,,,,,,,,,,,,,,,,,,,,,,,,,,,,,,,,,,,,,,,,,,,,,,,,,,,,,,,,,,,,,,,,,,,,,,,,,,,,,,,,,,,,,,,,,,,,,,,,,,
,,5d66f23706e589000157e7ec,2024-01-06_05h49.12.761,kallum_motion_pilot,2023.2.3,Win32,59.88023952,5d66f23706e589000157e7ec,6598e6a5d84f07970b831e70,6598e7a1028cf37c59bf7974,0.1427,0.1429,1,76,238,125,1,seveneight,,,,,,,,,,,,,,,,,,,,,,,,,,,,,,,,,,,,,,,,,,,,,,,,,,,,,,,,,,,,,,,,,,,,,,,,,,,,,,,,,,,,,,,,,,,,,,,,,,,,,,,,,,,,,,,,,,,,,,,,,,,,,,,,,,,,,,,
,,5d66f23706e589000157e7ec,2024-01-06_05h49.12.761,kallum_motion_pilot,2023.2.3,Win32,59.88023952,5d66f23706e589000157e7ec,6598e6a5d84f07970b831e70,6598e7a1028cf37c59bf7974,0.1439,0.1441,1,77,239,38,1,fourtwo,,,,,,,,,,,,,,,,,,,,,,,,,,,,,,,,,,,,,,,,,,,,,,,,,,,,,,,,,,,,,,,,,,,,,,,,,,,,,,,,,,,,,,,,,,,,,,,,,,,,,,,,,,,,,,,,,,,,,,,,,,,,,,,,,,,,,,,
,,5d66f23706e589000157e7ec,2024-01-06_05h49.12.761,kallum_motion_pilot,2023.2.3,Win32,59.88023952,5d66f23706e589000157e7ec,6598e6a5d84f07970b831e70,6598e7a1028cf37c59bf7974,0.1443,0.1445,1,78,240,10,1,twoone,,,,,,,,,,,,,,,,,,,,,,,,,,,,,,,,,,,,,,,,,,,,,,,,,,,,,,,,,,,,,,,,,,,,,,,,,,,,,,,,,,,,,,,,,,,,,,,,,,,,,,,,,,,,,,,,,,,,,,,,,,,,,,,,,,,,,,,
,,5d66f23706e589000157e7ec,2024-01-06_05h49.12.761,kallum_motion_pilot,2023.2.3,Win32,59.88023952,5d66f23706e589000157e7ec,6598e6a5d84f07970b831e70,6598e7a1028cf37c59bf7974,0.1448,0.145,1,79,241,79,1,eightseven,,,,,,,,,,,,,,,,,,,,,,,,,,,,,,,,,,,,,,,,,,,,,,,,,,,,,,,,,,,,,,,,,,,,,,,,,,,,,,,,,,,,,,,,,,,,,,,,,,,,,,,,,,,,,,,,,,,,,,,,,,,,,,,,,,,,,,,
,,5d66f23706e589000157e7ec,2024-01-06_05h49.12.761,kallum_motion_pilot,2023.2.3,Win32,59.88023952,5d66f23706e589000157e7ec,6598e6a5d84f07970b831e70,6598e7a1028cf37c59bf7974,0.1452,0.1454,1,80,242,104,1,fivesix,,,,,,,,,,,,,,,,,,,,,,,,,,,,,,,,,,,,,,,,,,,,,,,,,,,,,,,,,,,,,,,,,,,,,,,,,,,,,,,,,,,,,,,,,,,,,,,,,,,,,,,,,,,,,,,,,,,,,,,,,,,,,,,,,,,,,,,
,,5d66f23706e589000157e7ec,2024-01-06_05h49.12.761,kallum_motion_pilot,2023.2.3,Win32,59.88023952,5d66f23706e589000157e7ec,6598e6a5d84f07970b831e70,6598e7a1028cf37c59bf7974,0.1456,0.1459,1,81,243,0,1,onetwo,,,,,,,,,,,,,,,,,,,,,,,,,,,,,,,,,,,,,,,,,,,,,,,,,,,,,,,,,,,,,,,,,,,,,,,,,,,,,,,,,,,,,,,,,,,,,,,,,,,,,,,,,,,,,,,,,,,,,,,,,,,,,,,,,,,,,,,
,,5d66f23706e589000157e7ec,2024-01-06_05h49.12.761,kallum_motion_pilot,2023.2.3,Win32,59.88023952,5d66f23706e589000157e7ec,6598e6a5d84f07970b831e70,6598e7a1028cf37c59bf7974,0.1461,0.1463,1,82,244,101,1,seveneight,,,,,,,,,,,,,,,,,,,,,,,,,,,,,,,,,,,,,,,,,,,,,,,,,,,,,,,,,,,,,,,,,,,,,,,,,,,,,,,,,,,,,,,,,,,,,,,,,,,,,,,,,,,,,,,,,,,,,,,,,,,,,,,,,,,,,,,
,,5d66f23706e589000157e7ec,2024-01-06_05h49.12.761,kallum_motion_pilot,2023.2.3,Win32,59.88023952,5d66f23706e589000157e7ec,6598e6a5d84f07970b831e70,6598e7a1028cf37c59bf7974,0.1465,0.1468,1,83,245,88,1,fivesix,,,,,,,,,,,,,,,,,,,,,,,,,,,,,,,,,,,,,,,,,,,,,,,,,,,,,,,,,,,,,,,,,,,,,,,,,,,,,,,,,,,,,,,,,,,,,,,,,,,,,,,,,,,,,,,,,,,,,,,,,,,,,,,,,,,,,,,
,,5d66f23706e589000157e7ec,2024-01-06_05h49.12.761,kallum_motion_pilot,2023.2.3,Win32,59.88023952,5d66f23706e589000157e7ec,6598e6a5d84f07970b831e70,6598e7a1028cf37c59bf7974,0.147,0.1473,1,84,246,159,1,eightseven,,,,,,,,,,,,,,,,,,,,,,,,,,,,,,,,,,,,,,,,,,,,,,,,,,,,,,,,,,,,,,,,,,,,,,,,,,,,,,,,,,,,,,,,,,,,,,,,,,,,,,,,,,,,,,,,,,,,,,,,,,,,,,,,,,,,,,,
,,5d66f23706e589000157e7ec,2024-01-06_05h49.12.761,kallum_motion_pilot,2023.2.3,Win32,59.88023952,5d66f23706e589000157e7ec,6598e6a5d84f07970b831e70,6598e7a1028cf37c59bf7974,0.1474,0.1477,1,85,247,89,1,fiveseven,,,,,,,,,,,,,,,,,,,,,,,,,,,,,,,,,,,,,,,,,,,,,,,,,,,,,,,,,,,,,,,,,,,,,,,,,,,,,,,,,,,,,,,,,,,,,,,,,,,,,,,,,,,,,,,,,,,,,,,,,,,,,,,,,,,,,,,
,,5d66f23706e589000157e7ec,2024-01-06_05h49.12.761,kallum_motion_pilot,2023.2.3,Win32,59.88023952,5d66f23706e589000157e7ec,6598e6a5d84f07970b831e70,6598e7a1028cf37c59bf7974,0.1479,0.1481,1,86,248,142,1,eightsix,,,,,,,,,,,,,,,,,,,,,,,,,,,,,,,,,,,,,,,,,,,,,,,,,,,,,,,,,,,,,,,,,,,,,,,,,,,,,,,,,,,,,,,,,,,,,,,,,,,,,,,,,,,,,,,,,,,,,,,,,,,,,,,,,,,,,,,
,,5d66f23706e589000157e7ec,2024-01-06_05h49.12.761,kallum_motion_pilot,2023.2.3,Win32,59.88023952,5d66f23706e589000157e7ec,6598e6a5d84f07970b831e70,6598e7a1028cf37c59bf7974,0.1485,0.1487,1,87,249,55,1,fourthree,,,,,,,,,,,,,,,,,,,,,,,,,,,,,,,,,,,,,,,,,,,,,,,,,,,,,,,,,,,,,,,,,,,,,,,,,,,,,,,,,,,,,,,,,,,,,,,,,,,,,,,,,,,,,,,,,,,,,,,,,,,,,,,,,,,,,,,
,,5d66f23706e589000157e7ec,2024-01-06_05h49.12.761,kallum_motion_pilot,2023.2.3,Win32,59.88023952,5d66f23706e589000157e7ec,6598e6a5d84f07970b831e70,6598e7a1028cf37c59bf7974,0.1488,0.1492,1,88,250,113,1,fiveseven,,,,,,,,,,,,,,,,,,,,,,,,,,,,,,,,,,,,,,,,,,,,,,,,,,,,,,,,,,,,,,,,,,,,,,,,,,,,,,,,,,,,,,,,,,,,,,,,,,,,,,,,,,,,,,,,,,,,,,,,,,,,,,,,,,,,,,,
,,5d66f23706e589000157e7ec,2024-01-06_05h49.12.761,kallum_motion_pilot,2023.2.3,Win32,59.88023952,5d66f23706e589000157e7ec,6598e6a5d84f07970b831e70,6598e7a1028cf37c59bf7974,0.1493,0.1496,1,89,251,36,1,threeone,,,,,,,,,,,,,,,,,,,,,,,,,,,,,,,,,,,,,,,,,,,,,,,,,,,,,,,,,,,,,,,,,,,,,,,,,,,,,,,,,,,,,,,,,,,,,,,,,,,,,,,,,,,,,,,,,,,,,,,,,,,,,,,,,,,,,,,
,,5d66f23706e589000157e7ec,2024-01-06_05h49.12.761,kallum_motion_pilot,2023.2.3,Win32,59.88023952,5d66f23706e589000157e7ec,6598e6a5d84f07970b831e70,6598e7a1028cf37c59bf7974,0.1499,0.1501,1,90,252,138,1,sixfive,,,,,,,,,,,,,,,,,,,,,,,,,,,,,,,,,,,,,,,,,,,,,,,,,,,,,,,,,,,,,,,,,,,,,,,,,,,,,,,,,,,,,,,,,,,,,,,,,,,,,,,,,,,,,,,,,,,,,,,,,,,,,,,,,,,,,,,
,,5d66f23706e589000157e7ec,2024-01-06_05h49.12.761,kallum_motion_pilot,2023.2.3,Win32,59.88023952,5d66f23706e589000157e7ec,6598e6a5d84f07970b831e70,6598e7a1028cf37c59bf7974,0.1503,0.1506,1,91,253,61,1,threefour,,,,,,,,,,,,,,,,,,,,,,,,,,,,,,,,,,,,,,,,,,,,,,,,,,,,,,,,,,,,,,,,,,,,,,,,,,,,,,,,,,,,,,,,,,,,,,,,,,,,,,,,,,,,,,,,,,,,,,,,,,,,,,,,,,,,,,,
,,5d66f23706e589000157e7ec,2024-01-06_05h49.12.761,kallum_motion_pilot,2023.2.3,Win32,59.88023952,5d66f23706e589000157e7ec,6598e6a5d84f07970b831e70,6598e7a1028cf37c59bf7974,0.1508,0.151,1,92,254,20,1,threeone,,,,,,,,,,,,,,,,,,,,,,,,,,,,,,,,,,,,,,,,,,,,,,,,,,,,,,,,,,,,,,,,,,,,,,,,,,,,,,,,,,,,,,,,,,,,,,,,,,,,,,,,,,,,,,,,,,,,,,,,,,,,,,,,,,,,,,,
,,5d66f23706e589000157e7ec,2024-01-06_05h49.12.761,kallum_motion_pilot,2023.2.3,Win32,59.88023952,5d66f23706e589000157e7ec,6598e6a5d84f07970b831e70,6598e7a1028cf37c59bf7974,0.1512,0.1515,1,93,255,66,1,twoone,,,,,,,,,,,,,,,,,,,,,,,,,,,,,,,,,,,,,,,,,,,,,,,,,,,,,,,,,,,,,,,,,,,,,,,,,,,,,,,,,,,,,,,,,,,,,,,,,,,,,,,,,,,,,,,,,,,,,,,,,,,,,,,,,,,,,,,
,,5d66f23706e589000157e7ec,2024-01-06_05h49.12.761,kallum_motion_pilot,2023.2.3,Win32,59.88023952,5d66f23706e589000157e7ec,6598e6a5d84f07970b831e70,6598e7a1028cf37c59bf7974,0.1517,0.1518,1,94,256,161,1,fiveseven,,,,,,,,,,,,,,,,,,,,,,,,,,,,,,,,,,,,,,,,,,,,,,,,,,,,,,,,,,,,,,,,,,,,,,,,,,,,,,,,,,,,,,,,,,,,,,,,,,,,,,,,,,,,,,,,,,,,,,,,,,,,,,,,,,,,,,,
,,5d66f23706e589000157e7ec,2024-01-06_05h49.12.761,kallum_motion_pilot,2023.2.3,Win32,59.88023952,5d66f23706e589000157e7ec,6598e6a5d84f07970b831e70,6598e7a1028cf37c59bf7974,0.152,0.1523,1,95,257,85,1,seveneight,,,,,,,,,,,,,,,,,,,,,,,,,,,,,,,,,,,,,,,,,,,,,,,,,,,,,,,,,,,,,,,,,,,,,,,,,,,,,,,,,,,,,,,,,,,,,,,,,,,,,,,,,,,,,,,,,,,,,,,,,,,,,,,,,,,,,,,
,,5d66f23706e589000157e7ec,2024-01-06_05h49.12.761,kallum_motion_pilot,2023.2.3,Win32,59.88023952,5d66f23706e589000157e7ec,6598e6a5d84f07970b831e70,6598e7a1028cf37c59bf7974,0.1525,0.1527,1,96,258,62,1,fourtwo,,,,,,,,,,,,,,,,,,,,,,,,,,,,,,,,,,,,,,,,,,,,,,,,,,,,,,,,,,,,,,,,,,,,,,,,,,,,,,,,,,,,,,,,,,,,,,,,,,,,,,,,,,,,,,,,,,,,,,,,,,,,,,,,,,,,,,,
,,5d66f23706e589000157e7ec,2024-01-06_05h49.12.761,kallum_motion_pilot,2023.2.3,Win32,59.88023952,5d66f23706e589000157e7ec,6598e6a5d84f07970b831e70,6598e7a1028cf37c59bf7974,0.1529,0.1531,1,97,259,86,1,eightsix,,,,,,,,,,,,,,,,,,,,,,,,,,,,,,,,,,,,,,,,,,,,,,,,,,,,,,,,,,,,,,,,,,,,,,,,,,,,,,,,,,,,,,,,,,,,,,,,,,,,,,,,,,,,,,,,,,,,,,,,,,,,,,,,,,,,,,,
,,5d66f23706e589000157e7ec,2024-01-06_05h49.12.761,kallum_motion_pilot,2023.2.3,Win32,59.88023952,5d66f23706e589000157e7ec,6598e6a5d84f07970b831e70,6598e7a1028cf37c59bf7974,0.1532,0.1534,1,98,260,37,1,threefour,,,,,,,,,,,,,,,,,,,,,,,,,,,,,,,,,,,,,,,,,,,,,,,,,,,,,,,,,,,,,,,,,,,,,,,,,,,,,,,,,,,,,,,,,,,,,,,,,,,,,,,,,,,,,,,,,,,,,,,,,,,,,,,,,,,,,,,
,,5d66f23706e589000157e7ec,2024-01-06_05h49.12.761,kallum_motion_pilot,2023.2.3,Win32,59.88023952,5d66f23706e589000157e7ec,6598e6a5d84f07970b831e70,6598e7a1028cf37c59bf7974,0.1536,0.1539,1,99,261,160,1,fivesix,,,,,,,,,,,,,,,,,,,,,,,,,,,,,,,,,,,,,,,,,,,,,,,,,,,,,,,,,,,,,,,,,,,,,,,,,,,,,,,,,,,,,,,,,,,,,,,,,,,,,,,,,,,,,,,,,,,,,,,,,,,,,,,,,,,,,,,
,,5d66f23706e589000157e7ec,2024-01-06_05h49.12.761,kallum_motion_pilot,2023.2.3,Win32,59.88023952,5d66f23706e589000157e7ec,6598e6a5d84f07970b831e70,6598e7a1028cf37c59bf7974,0.1541,0.1543,1,100,262,122,1,sixfive,,,,,,,,,,,,,,,,,,,,,,,,,,,,,,,,,,,,,,,,,,,,,,,,,,,,,,,,,,,,,,,,,,,,,,,,,,,,,,,,,,,,,,,,,,,,,,,,,,,,,,,,,,,,,,,,,,,,,,,,,,,,,,,,,,,,,,,
,,5d66f23706e589000157e7ec,2024-01-06_05h49.12.761,kallum_motion_pilot,2023.2.3,Win32,59.88023952,5d66f23706e589000157e7ec,6598e6a5d84f07970b831e70,6598e7a1028cf37c59bf7974,0.1545,0.1547,1,101,263,154,1,sixfive,,,,,,,,,,,,,,,,,,,,,,,,,,,,,,,,,,,,,,,,,,,,,,,,,,,,,,,,,,,,,,,,,,,,,,,,,,,,,,,,,,,,,,,,,,,,,,,,,,,,,,,,,,,,,,,,,,,,,,,,,,,,,,,,,,,,,,,
,,5d66f23706e589000157e7ec,2024-01-06_05h49.12.761,kallum_motion_pilot,2023.2.3,Win32,59.88023952,5d66f23706e589000157e7ec,6598e6a5d84f07970b831e70,6598e7a1028cf37c59bf7974,0.1549,0.155,1,102,264,33,1,onethree,,,,,,,,,,,,,,,,,,,,,,,,,,,,,,,,,,,,,,,,,,,,,,,,,,,,,,,,,,,,,,,,,,,,,,,,,,,,,,,,,,,,,,,,,,,,,,,,,,,,,,,,,,,,,,,,,,,,,,,,,,,,,,,,,,,,,,,
,,5d66f23706e589000157e7ec,2024-01-06_05h49.12.761,kallum_motion_pilot,2023.2.3,Win32,59.88023952,5d66f23706e589000157e7ec,6598e6a5d84f07970b831e70,6598e7a1028cf37c59bf7974,0.1552,0.1554,1,103,265,110,1,eightsix,,,,,,,,,,,,,,,,,,,,,,,,,,,,,,,,,,,,,,,,,,,,,,,,,,,,,,,,,,,,,,,,,,,,,,,,,,,,,,,,,,,,,,,,,,,,,,,,,,,,,,,,,,,,,,,,,,,,,,,,,,,,,,,,,,,,,,,
,,5d66f23706e589000157e7ec,2024-01-06_05h49.12.761,kallum_motion_pilot,2023.2.3,Win32,59.88023952,5d66f23706e589000157e7ec,6598e6a5d84f07970b831e70,6598e7a1028cf37c59bf7974,0.1556,0.1557,1,104,266,102,1,eightsix,,,,,,,,,,,,,,,,,,,,,,,,,,,,,,,,,,,,,,,,,,,,,,,,,,,,,,,,,,,,,,,,,,,,,,,,,,,,,,,,,,,,,,,,,,,,,,,,,,,,,,,,,,,,,,,,,,,,,,,,,,,,,,,,,,,,,,,
,,5d66f23706e589000157e7ec,2024-01-06_05h49.12.761,kallum_motion_pilot,2023.2.3,Win32,59.88023952,5d66f23706e589000157e7ec,6598e6a5d84f07970b831e70,6598e7a1028cf37c59bf7974,0.1559,0.1562,1,105,267,137,1,fiveseven,,,,,,,,,,,,,,,,,,,,,,,,,,,,,,,,,,,,,,,,,,,,,,,,,,,,,,,,,,,,,,,,,,,,,,,,,,,,,,,,,,,,,,,,,,,,,,,,,,,,,,,,,,,,,,,,,,,,,,,,,,,,,,,,,,,,,,,
,,5d66f23706e589000157e7ec,2024-01-06_05h49.12.761,kallum_motion_pilot,2023.2.3,Win32,59.88023952,5d66f23706e589000157e7ec,6598e6a5d84f07970b831e70,6598e7a1028cf37c59bf7974,0.1564,0.1565,1,106,268,124,1,sevenfive,,,,,,,,,,,,,,,,,,,,,,,,,,,,,,,,,,,,,,,,,,,,,,,,,,,,,,,,,,,,,,,,,,,,,,,,,,,,,,,,,,,,,,,,,,,,,,,,,,,,,,,,,,,,,,,,,,,,,,,,,,,,,,,,,,,,,,,
,,5d66f23706e589000157e7ec,2024-01-06_05h49.12.761,kallum_motion_pilot,2023.2.3,Win32,59.88023952,5d66f23706e589000157e7ec,6598e6a5d84f07970b831e70,6598e7a1028cf37c59bf7974,0.1567,0.1569,1,107,269,119,1,eightseven,,,,,,,,,,,,,,,,,,,,,,,,,,,,,,,,,,,,,,,,,,,,,,,,,,,,,,,,,,,,,,,,,,,,,,,,,,,,,,,,,,,,,,,,,,,,,,,,,,,,,,,,,,,,,,,,,,,,,,,,,,,,,,,,,,,,,,,
,,5d66f23706e589000157e7ec,2024-01-06_05h49.12.761,kallum_motion_pilot,2023.2.3,Win32,59.88023952,5d66f23706e589000157e7ec,6598e6a5d84f07970b831e70,6598e7a1028cf37c59bf7974,0.1571,0.1574,1,108,270,109,1,seveneight,,,,,,,,,,,,,,,,,,,,,,,,,,,,,,,,,,,,,,,,,,,,,,,,,,,,,,,,,,,,,,,,,,,,,,,,,,,,,,,,,,,,,,,,,,,,,,,,,,,,,,,,,,,,,,,,,,,,,,,,,,,,,,,,,,,,,,,
,,5d66f23706e589000157e7ec,2024-01-06_05h49.12.761,kallum_motion_pilot,2023.2.3,Win32,59.88023952,5d66f23706e589000157e7ec,6598e6a5d84f07970b831e70,6598e7a1028cf37c59bf7974,0.1577,0.1579,1,109,271,4,1,threeone,,,,,,,,,,,,,,,,,,,,,,,,,,,,,,,,,,,,,,,,,,,,,,,,,,,,,,,,,,,,,,,,,,,,,,,,,,,,,,,,,,,,,,,,,,,,,,,,,,,,,,,,,,,,,,,,,,,,,,,,,,,,,,,,,,,,,,,
,,5d66f23706e589000157e7ec,2024-01-06_05h49.12.761,kallum_motion_pilot,2023.2.3,Win32,59.88023952,5d66f23706e589000157e7ec,6598e6a5d84f07970b831e70,6598e7a1028cf37c59bf7974,0.1582,0.1585,1,110,272,8,1,onetwo,,,,,,,,,,,,,,,,,,,,,,,,,,,,,,,,,,,,,,,,,,,,,,,,,,,,,,,,,,,,,,,,,,,,,,,,,,,,,,,,,,,,,,,,,,,,,,,,,,,,,,,,,,,,,,,,,,,,,,,,,,,,,,,,,,,,,,,
,,5d66f23706e589000157e7ec,2024-01-06_05h49.12.761,kallum_motion_pilot,2023.2.3,Win32,59.88023952,5d66f23706e589000157e7ec,6598e6a5d84f07970b831e70,6598e7a1028cf37c59bf7974,0.1587,0.1589,1,111,273,98,1,sixfive,,,,,,,,,,,,,,,,,,,,,,,,,,,,,,,,,,,,,,,,,,,,,,,,,,,,,,,,,,,,,,,,,,,,,,,,,,,,,,,,,,,,,,,,,,,,,,,,,,,,,,,,,,,,,,,,,,,,,,,,,,,,,,,,,,,,,,,
,,5d66f23706e589000157e7ec,2024-01-06_05h49.12.761,kallum_motion_pilot,2023.2.3,Win32,59.88023952,5d66f23706e589000157e7ec,6598e6a5d84f07970b831e70,6598e7a1028cf37c59bf7974,0.1591,0.1593,1,112,274,39,1,fourthree,,,,,,,,,,,,,,,,,,,,,,,,,,,,,,,,,,,,,,,,,,,,,,,,,,,,,,,,,,,,,,,,,,,,,,,,,,,,,,,,,,,,,,,,,,,,,,,,,,,,,,,,,,,,,,,,,,,,,,,,,,,,,,,,,,,,,,,
,,5d66f23706e589000157e7ec,2024-01-06_05h49.12.761,kallum_motion_pilot,2023.2.3,Win32,59.88023952,5d66f23706e589000157e7ec,6598e6a5d84f07970b831e70,6598e7a1028cf37c59bf7974,0.1595,0.1597,1,113,275,158,1,eightsix,,,,,,,,,,,,,,,,,,,,,,,,,,,,,,,,,,,,,,,,,,,,,,,,,,,,,,,,,,,,,,,,,,,,,,,,,,,,,,,,,,,,,,,,,,,,,,,,,,,,,,,,,,,,,,,,,,,,,,,,,,,,,,,,,,,,,,,
,,5d66f23706e589000157e7ec,2024-01-06_05h49.12.761,kallum_motion_pilot,2023.2.3,Win32,59.88023952,5d66f23706e589000157e7ec,6598e6a5d84f07970b831e70,6598e7a1028cf37c59bf7974,0.1599,0.1601,1,114,276,26,1,twoone,,,,,,,,,,,,,,,,,,,,,,,,,,,,,,,,,,,,,,,,,,,,,,,,,,,,,,,,,,,,,,,,,,,,,,,,,,,,,,,,,,,,,,,,,,,,,,,,,,,,,,,,,,,,,,,,,,,,,,,,,,,,,,,,,,,,,,,
,,5d66f23706e589000157e7ec,2024-01-06_05h49.12.761,kallum_motion_pilot,2023.2.3,Win32,59.88023952,5d66f23706e589000157e7ec,6598e6a5d84f07970b831e70,6598e7a1028cf37c59bf7974,0.1603,0.1604,1,115,277,139,1,sixeight,,,,,,,,,,,,,,,,,,,,,,,,,,,,,,,,,,,,,,,,,,,,,,,,,,,,,,,,,,,,,,,,,,,,,,,,,,,,,,,,,,,,,,,,,,,,,,,,,,,,,,,,,,,,,,,,,,,,,,,,,,,,,,,,,,,,,,,
,,5d66f23706e589000157e7ec,2024-01-06_05h49.12.761,kallum_motion_pilot,2023.2.3,Win32,59.88023952,5d66f23706e589000157e7ec,6598e6a5d84f07970b831e70,6598e7a1028cf37c59bf7974,0.1606,0.1608,1,116,278,49,1,onethree,,,,,,,,,,,,,,,,,,,,,,,,,,,,,,,,,,,,,,,,,,,,,,,,,,,,,,,,,,,,,,,,,,,,,,,,,,,,,,,,,,,,,,,,,,,,,,,,,,,,,,,,,,,,,,,,,,,,,,,,,,,,,,,,,,,,,,,
,,5d66f23706e589000157e7ec,2024-01-06_05h49.12.761,kallum_motion_pilot,2023.2.3,Win32,59.88023952,5d66f23706e589000157e7ec,6598e6a5d84f07970b831e70,6598e7a1028cf37c59bf7974,0.1609,0.1611,1,117,279,105,1,fiveseven,,,,,,,,,,,,,,,,,,,,,,,,,,,,,,,,,,,,,,,,,,,,,,,,,,,,,,,,,,,,,,,,,,,,,,,,,,,,,,,,,,,,,,,,,,,,,,,,,,,,,,,,,,,,,,,,,,,,,,,,,,,,,,,,,,,,,,,
