startup.started,startup.stopped,Prolific ID*,date,expName,psychopyVersion,OS,frameRate,PROLIFIC_PID,STUDY_ID,SESSION_ID,stimpositions.started,stimpositions.stopped,hardcoded_stimulus_positions.thisRepN,hardcoded_stimulus_positions.thisTrialN,hardcoded_stimulus_positions.thisN,hardcoded_stimulus_positions.thisIndex,hardcoded_stimulus_positions.ran,StimulusPos,stimorientation.started,stimorientation.stopped,prac_stimorientation_import_loop.thisRepN,prac_stimorientation_import_loop.thisTrialN,prac_stimorientation_import_loop.thisN,prac_stimorientation_import_loop.thisIndex,prac_stimorientation_import_loop.ran,Stimorientation,welcome_instr.started,welcome_instr.stopped,key_resp.keys,key_resp.rt,key_resp.duration,response_steppedout_1.started,response_steppedout_1.stopped,key_resp_20.keys,key_resp_20.rt,key_resp_20.duration,response_steppedout_2.started,response_steppedout_2.stopped,key_resp_19.keys,key_resp_19.rt,key_resp_19.duration,stim_response_instr.started,stim_response_instr.stopped,key_resp_15.keys,key_resp_15.rt,key_resp_15.duration,direction_instr_2.started,direction_instr_2.stopped,key_resp_9.keys,key_resp_9.rt,key_resp_9.duration,instr_prac.started,instr_prac.stopped,key_resp_10.keys,key_resp_10.rt,key_resp_10.duration,Stim1_display_prac.started,Stim1_display_prac.stopped,Ecc,Circle1_ori,Circle2_ori,response_prac.started,similarity,response_time,response_prac.stopped,mouse_5.x,mouse_5.y,mouse_5.leftButton,mouse_5.midButton,mouse_5.rightButton,mouse_5.clicked_name,responseprac_feedback.started,responseprac_feedback.stopped,summary2_prac.started,summary2_prac.stopped,mouse_6.x,mouse_6.y,mouse_6.leftButton,mouse_6.midButton,mouse_6.rightButton,mouse_6.clicked_name,duringprac.thisRepN,duringprac.thisTrialN,duringprac.thisN,duringprac.thisIndex,duringprac.ran,begin.started,begin.stopped,key_resp_22.keys,key_resp_22.rt,key_resp_22.duration,Stim1_display.started,Stim1_display.stopped,circle1_ori,circle2_ori,blank.started,blank.stopped,response.started,response.stopped,mouse.x,mouse.y,mouse.leftButton,mouse.midButton,mouse.rightButton,mouse.clicked_name,response_2.started,response_2.stopped,mouse_2.x,mouse_2.y,mouse_2.leftButton,mouse_2.midButton,mouse_2.rightButton,mouse_2.clicked_name,special_trial.started,special_trial.stopped,catch_1.started,catch_1.stopped,mouse_3.x,mouse_3.y,mouse_3.leftButton,mouse_3.midButton,mouse_3.rightButton,catchresponse,catchnumber,response_time_catch,Catch,response_sum.started,response_sum.stopped,mouse_11.x,mouse_11.y,mouse_11.leftButton,mouse_11.midButton,mouse_11.rightButton,main_trial.thisRepN,main_trial.thisTrialN,main_trial.thisN,main_trial.thisIndex,main_trial.ran,Orientationtrialno,xcircle1_ori,xcircle2_ori,flip_presentation_sequence_for_double_pass.started,flip_presentation_sequence_for_double_pass.stopped,double_pass.thisRepN,double_pass.thisTrialN,double_pass.thisN,double_pass.thisIndex,double_pass.ran,goodbye.started,goodbye.stopped,key_resp_3.keys,key_resp_3.rt,key_resp_3.duration
0.0005,0.0006,6032a88a2b8e882a37cc2766,2024-01-05_23h40.07.180,kallum_motion_pilot,2023.2.3,Win32,7.501875469,6032a88a2b8e882a37cc2766,6598e6a5d84f07970b831e70,6598e792b620423529831e84,,,,,,,,,,,,,,,,,,,,,,,,,,,,,,,,,,,,,,,,,,,,,,,,,,,,,,,,,,,,,,,,,,,,,,,,,,,,,,,,,,,,,,,,,,,,,,,,,,,,,,,,,,,,,,,,,,,,,,,,,,,,,,,,,,,,,,,,,,,,,,,
,,6032a88a2b8e882a37cc2766,2024-01-05_23h40.07.180,kallum_motion_pilot,2023.2.3,Win32,7.501875469,6032a88a2b8e882a37cc2766,6598e6a5d84f07970b831e70,6598e792b620423529831e84,0.0288,0.0289,0,0,0,94,1,eightsix,,,,,,,,,,,,,,,,,,,,,,,,,,,,,,,,,,,,,,,,,,,,,,,,,,,,,,,,,,,,,,,,,,,,,,,,,,,,,,,,,,,,,,,,,,,,,,,,,,,,,,,,,,,,,,,,,,,,,,,,,,,,,,,,,,,,,,,
,,6032a88a2b8e882a37cc2766,2024-01-05_23h40.07.180,kallum_motion_pilot,2023.2.3,Win32,7.501875469,6032a88a2b8e882a37cc2766,6598e6a5d84f07970b831e70,6598e792b620423529831e84,0.0292,0.0292,0,1,1,149,1,seveneight,,,,,,,,,,,,,,,,,,,,,,,,,,,,,,,,,,,,,,,,,,,,,,,,,,,,,,,,,,,,,,,,,,,,,,,,,,,,,,,,,,,,,,,,,,,,,,,,,,,,,,,,,,,,,,,,,,,,,,,,,,,,,,,,,,,,,,,
,,6032a88a2b8e882a37cc2766,2024-01-05_23h40.07.180,kallum_motion_pilot,2023.2.3,Win32,7.501875469,6032a88a2b8e882a37cc2766,6598e6a5d84f07970b831e70,6598e792b620423529831e84,0.0294,0.0294,0,2,2,40,1,onetwo,,,,,,,,,,,,,,,,,,,,,,,,,,,,,,,,,,,,,,,,,,,,,,,,,,,,,,,,,,,,,,,,,,,,,,,,,,,,,,,,,,,,,,,,,,,,,,,,,,,,,,,,,,,,,,,,,,,,,,,,,,,,,,,,,,,,,,,
,,6032a88a2b8e882a37cc2766,2024-01-05_23h40.07.180,kallum_motion_pilot,2023.2.3,Win32,7.501875469,6032a88a2b8e882a37cc2766,6598e6a5d84f07970b831e70,6598e792b620423529831e84,0.0296,0.0296,0,3,3,68,1,threeone,,,,,,,,,,,,,,,,,,,,,,,,,,,,,,,,,,,,,,,,,,,,,,,,,,,,,,,,,,,,,,,,,,,,,,,,,,,,,,,,,,,,,,,,,,,,,,,,,,,,,,,,,,,,,,,,,,,,,,,,,,,,,,,,,,,,,,,
,,6032a88a2b8e882a37cc2766,2024-01-05_23h40.07.180,kallum_motion_pilot,2023.2.3,Win32,7.501875469,6032a88a2b8e882a37cc2766,6598e6a5d84f07970b831e70,6598e792b620423529831e84,0.0297,0.0298,0,4,4,32,1,onetwo,,,,,,,,,,,,,,,,,,,,,,,,,,,,,,,,,,,,,,,,,,,,,,,,,,,,,,,,,,,,,,,,,,,,,,,,,,,,,,,,,,,,,,,,,,,,,,,,,,,,,,,,,,,,,,,,,,,,,,,,,,,,,,,,,,,,,,,
,,6032a88a2b8e882a37cc2766,2024-01-05_23h40.07.180,kallum_motion_pilot,2023.2.3,Win32,7.501875469,6032a88a2b8e882a37cc2766,6598e6a5d84f07970b831e70,6598e792b620423529831e84,0.0299,0.0299,0,5,5,82,1,sixfive,,,,,,,,,,,,,,,,,,,,,,,,,,,,,,,,,,,,,,,,,,,,,,,,,,,,,,,,,,,,,,,,,,,,,,,,,,,,,,,,,,,,,,,,,,,,,,,,,,,,,,,,,,,,,,,,,,,,,,,,,,,,,,,,,,,,,,,
,,6032a88a2b8e882a37cc2766,2024-01-05_23h40.07.180,kallum_motion_pilot,2023.2.3,Win32,7.501875469,6032a88a2b8e882a37cc2766,6598e6a5d84f07970b831e70,6598e792b620423529831e84,0.03,0.0301,0,6,6,77,1,threefour,,,,,,,,,,,,,,,,,,,,,,,,,,,,,,,,,,,,,,,,,,,,,,,,,,,,,,,,,,,,,,,,,,,,,,,,,,,,,,,,,,,,,,,,,,,,,,,,,,,,,,,,,,,,,,,,,,,,,,,,,,,,,,,,,,,,,,,
,,6032a88a2b8e882a37cc2766,2024-01-05_23h40.07.180,kallum_motion_pilot,2023.2.3,Win32,7.501875469,6032a88a2b8e882a37cc2766,6598e6a5d84f07970b831e70,6598e792b620423529831e84,0.0301,0.0301,0,7,7,10,1,twoone,,,,,,,,,,,,,,,,,,,,,,,,,,,,,,,,,,,,,,,,,,,,,,,,,,,,,,,,,,,,,,,,,,,,,,,,,,,,,,,,,,,,,,,,,,,,,,,,,,,,,,,,,,,,,,,,,,,,,,,,,,,,,,,,,,,,,,,
,,6032a88a2b8e882a37cc2766,2024-01-05_23h40.07.180,kallum_motion_pilot,2023.2.3,Win32,7.501875469,6032a88a2b8e882a37cc2766,6598e6a5d84f07970b831e70,6598e792b620423529831e84,0.0303,0.0303,0,8,8,115,1,sixeight,,,,,,,,,,,,,,,,,,,,,,,,,,,,,,,,,,,,,,,,,,,,,,,,,,,,,,,,,,,,,,,,,,,,,,,,,,,,,,,,,,,,,,,,,,,,,,,,,,,,,,,,,,,,,,,,,,,,,,,,,,,,,,,,,,,,,,,
,,6032a88a2b8e882a37cc2766,2024-01-05_23h40.07.180,kallum_motion_pilot,2023.2.3,Win32,7.501875469,6032a88a2b8e882a37cc2766,6598e6a5d84f07970b831e70,6598e792b620423529831e84,0.0305,0.0306,0,9,9,140,1,sevenfive,,,,,,,,,,,,,,,,,,,,,,,,,,,,,,,,,,,,,,,,,,,,,,,,,,,,,,,,,,,,,,,,,,,,,,,,,,,,,,,,,,,,,,,,,,,,,,,,,,,,,,,,,,,,,,,,,,,,,,,,,,,,,,,,,,,,,,,
,,6032a88a2b8e882a37cc2766,2024-01-05_23h40.07.180,kallum_motion_pilot,2023.2.3,Win32,7.501875469,6032a88a2b8e882a37cc2766,6598e6a5d84f07970b831e70,6598e792b620423529831e84,0.0307,0.0307,0,10,10,75,1,twofour,,,,,,,,,,,,,,,,,,,,,,,,,,,,,,,,,,,,,,,,,,,,,,,,,,,,,,,,,,,,,,,,,,,,,,,,,,,,,,,,,,,,,,,,,,,,,,,,,,,,,,,,,,,,,,,,,,,,,,,,,,,,,,,,,,,,,,,
,,6032a88a2b8e882a37cc2766,2024-01-05_23h40.07.180,kallum_motion_pilot,2023.2.3,Win32,7.501875469,6032a88a2b8e882a37cc2766,6598e6a5d84f07970b831e70,6598e792b620423529831e84,0.0309,0.0309,0,11,11,144,1,fivesix,,,,,,,,,,,,,,,,,,,,,,,,,,,,,,,,,,,,,,,,,,,,,,,,,,,,,,,,,,,,,,,,,,,,,,,,,,,,,,,,,,,,,,,,,,,,,,,,,,,,,,,,,,,,,,,,,,,,,,,,,,,,,,,,,,,,,,,
,,6032a88a2b8e882a37cc2766,2024-01-05_23h40.07.180,kallum_motion_pilot,2023.2.3,Win32,7.501875469,6032a88a2b8e882a37cc2766,6598e6a5d84f07970b831e70,6598e792b620423529831e84,0.031,0.031,0,12,12,44,1,threeone,,,,,,,,,,,,,,,,,,,,,,,,,,,,,,,,,,,,,,,,,,,,,,,,,,,,,,,,,,,,,,,,,,,,,,,,,,,,,,,,,,,,,,,,,,,,,,,,,,,,,,,,,,,,,,,,,,,,,,,,,,,,,,,,,,,,,,,
,,6032a88a2b8e882a37cc2766,2024-01-05_23h40.07.180,kallum_motion_pilot,2023.2.3,Win32,7.501875469,6032a88a2b8e882a37cc2766,6598e6a5d84f07970b831e70,6598e792b620423529831e84,0.0311,0.0311,0,13,13,8,1,onetwo,,,,,,,,,,,,,,,,,,,,,,,,,,,,,,,,,,,,,,,,,,,,,,,,,,,,,,,,,,,,,,,,,,,,,,,,,,,,,,,,,,,,,,,,,,,,,,,,,,,,,,,,,,,,,,,,,,,,,,,,,,,,,,,,,,,,,,,
,,6032a88a2b8e882a37cc2766,2024-01-05_23h40.07.180,kallum_motion_pilot,2023.2.3,Win32,7.501875469,6032a88a2b8e882a37cc2766,6598e6a5d84f07970b831e70,6598e792b620423529831e84,0.0312,0.0312,0,14,14,152,1,fivesix,,,,,,,,,,,,,,,,,,,,,,,,,,,,,,,,,,,,,,,,,,,,,,,,,,,,,,,,,,,,,,,,,,,,,,,,,,,,,,,,,,,,,,,,,,,,,,,,,,,,,,,,,,,,,,,,,,,,,,,,,,,,,,,,,,,,,,,
,,6032a88a2b8e882a37cc2766,2024-01-05_23h40.07.180,kallum_motion_pilot,2023.2.3,Win32,7.501875469,6032a88a2b8e882a37cc2766,6598e6a5d84f07970b831e70,6598e792b620423529831e84,0.0314,0.0314,0,15,15,107,1,sixeight,,,,,,,,,,,,,,,,,,,,,,,,,,,,,,,,,,,,,,,,,,,,,,,,,,,,,,,,,,,,,,,,,,,,,,,,,,,,,,,,,,,,,,,,,,,,,,,,,,,,,,,,,,,,,,,,,,,,,,,,,,,,,,,,,,,,,,,
,,6032a88a2b8e882a37cc2766,2024-01-05_23h40.07.180,kallum_motion_pilot,2023.2.3,Win32,7.501875469,6032a88a2b8e882a37cc2766,6598e6a5d84f07970b831e70,6598e792b620423529831e84,0.0314,0.0314,0,16,16,18,1,twoone,,,,,,,,,,,,,,,,,,,,,,,,,,,,,,,,,,,,,,,,,,,,,,,,,,,,,,,,,,,,,,,,,,,,,,,,,,,,,,,,,,,,,,,,,,,,,,,,,,,,,,,,,,,,,,,,,,,,,,,,,,,,,,,,,,,,,,,
,,6032a88a2b8e882a37cc2766,2024-01-05_23h40.07.180,kallum_motion_pilot,2023.2.3,Win32,7.501875469,6032a88a2b8e882a37cc2766,6598e6a5d84f07970b831e70,6598e792b620423529831e84,0.0316,0.0316,0,17,17,73,1,onethree,,,,,,,,,,,,,,,,,,,,,,,,,,,,,,,,,,,,,,,,,,,,,,,,,,,,,,,,,,,,,,,,,,,,,,,,,,,,,,,,,,,,,,,,,,,,,,,,,,,,,,,,,,,,,,,,,,,,,,,,,,,,,,,,,,,,,,,
,,6032a88a2b8e882a37cc2766,2024-01-05_23h40.07.180,kallum_motion_pilot,2023.2.3,Win32,7.501875469,6032a88a2b8e882a37cc2766,6598e6a5d84f07970b831e70,6598e792b620423529831e84,0.0317,0.0317,0,18,18,83,1,sixeight,,,,,,,,,,,,,,,,,,,,,,,,,,,,,,,,,,,,,,,,,,,,,,,,,,,,,,,,,,,,,,,,,,,,,,,,,,,,,,,,,,,,,,,,,,,,,,,,,,,,,,,,,,,,,,,,,,,,,,,,,,,,,,,,,,,,,,,
,,6032a88a2b8e882a37cc2766,2024-01-05_23h40.07.180,kallum_motion_pilot,2023.2.3,Win32,7.501875469,6032a88a2b8e882a37cc2766,6598e6a5d84f07970b831e70,6598e792b620423529831e84,0.0318,0.0318,0,19,19,128,1,fivesix,,,,,,,,,,,,,,,,,,,,,,,,,,,,,,,,,,,,,,,,,,,,,,,,,,,,,,,,,,,,,,,,,,,,,,,,,,,,,,,,,,,,,,,,,,,,,,,,,,,,,,,,,,,,,,,,,,,,,,,,,,,,,,,,,,,,,,,
,,6032a88a2b8e882a37cc2766,2024-01-05_23h40.07.180,kallum_motion_pilot,2023.2.3,Win32,7.501875469,6032a88a2b8e882a37cc2766,6598e6a5d84f07970b831e70,6598e792b620423529831e84,0.0319,0.0319,0,20,20,16,1,onetwo,,,,,,,,,,,,,,,,,,,,,,,,,,,,,,,,,,,,,,,,,,,,,,,,,,,,,,,,,,,,,,,,,,,,,,,,,,,,,,,,,,,,,,,,,,,,,,,,,,,,,,,,,,,,,,,,,,,,,,,,,,,,,,,,,,,,,,,
,,6032a88a2b8e882a37cc2766,2024-01-05_23h40.07.180,kallum_motion_pilot,2023.2.3,Win32,7.501875469,6032a88a2b8e882a37cc2766,6598e6a5d84f07970b831e70,6598e792b620423529831e84,0.032,0.0321,0,21,21,97,1,fiveseven,,,,,,,,,,,,,,,,,,,,,,,,,,,,,,,,,,,,,,,,,,,,,,,,,,,,,,,,,,,,,,,,,,,,,,,,,,,,,,,,,,,,,,,,,,,,,,,,,,,,,,,,,,,,,,,,,,,,,,,,,,,,,,,,,,,,,,,
,,6032a88a2b8e882a37cc2766,2024-01-05_23h40.07.180,kallum_motion_pilot,2023.2.3,Win32,7.501875469,6032a88a2b8e882a37cc2766,6598e6a5d84f07970b831e70,6598e792b620423529831e84,0.0322,0.0322,0,22,22,70,1,fourtwo,,,,,,,,,,,,,,,,,,,,,,,,,,,,,,,,,,,,,,,,,,,,,,,,,,,,,,,,,,,,,,,,,,,,,,,,,,,,,,,,,,,,,,,,,,,,,,,,,,,,,,,,,,,,,,,,,,,,,,,,,,,,,,,,,,,,,,,
,,6032a88a2b8e882a37cc2766,2024-01-05_23h40.07.180,kallum_motion_pilot,2023.2.3,Win32,7.501875469,6032a88a2b8e882a37cc2766,6598e6a5d84f07970b831e70,6598e792b620423529831e84,0.0323,0.0324,0,23,23,30,1,fourtwo,,,,,,,,,,,,,,,,,,,,,,,,,,,,,,,,,,,,,,,,,,,,,,,,,,,,,,,,,,,,,,,,,,,,,,,,,,,,,,,,,,,,,,,,,,,,,,,,,,,,,,,,,,,,,,,,,,,,,,,,,,,,,,,,,,,,,,,
,,6032a88a2b8e882a37cc2766,2024-01-05_23h40.07.180,kallum_motion_pilot,2023.2.3,Win32,7.501875469,6032a88a2b8e882a37cc2766,6598e6a5d84f07970b831e70,6598e792b620423529831e84,0.0324,0.0324,0,24,24,38,1,fourtwo,,,,,,,,,,,,,,,,,,,,,,,,,,,,,,,,,,,,,,,,,,,,,,,,,,,,,,,,,,,,,,,,,,,,,,,,,,,,,,,,,,,,,,,,,,,,,,,,,,,,,,,,,,,,,,,,,,,,,,,,,,,,,,,,,,,,,,,
,,6032a88a2b8e882a37cc2766,2024-01-05_23h40.07.180,kallum_motion_pilot,2023.2.3,Win32,7.501875469,6032a88a2b8e882a37cc2766,6598e6a5d84f07970b831e70,6598e792b620423529831e84,0.0325,0.0325,0,25,25,133,1,seveneight,,,,,,,,,,,,,,,,,,,,,,,,,,,,,,,,,,,,,,,,,,,,,,,,,,,,,,,,,,,,,,,,,,,,,,,,,,,,,,,,,,,,,,,,,,,,,,,,,,,,,,,,,,,,,,,,,,,,,,,,,,,,,,,,,,,,,,,
,,6032a88a2b8e882a37cc2766,2024-01-05_23h40.07.180,kallum_motion_pilot,2023.2.3,Win32,7.501875469,6032a88a2b8e882a37cc2766,6598e6a5d84f07970b831e70,6598e792b620423529831e84,0.0326,0.0327,0,26,26,85,1,seveneight,,,,,,,,,,,,,,,,,,,,,,,,,,,,,,,,,,,,,,,,,,,,,,,,,,,,,,,,,,,,,,,,,,,,,,,,,,,,,,,,,,,,,,,,,,,,,,,,,,,,,,,,,,,,,,,,,,,,,,,,,,,,,,,,,,,,,,,
,,6032a88a2b8e882a37cc2766,2024-01-05_23h40.07.180,kallum_motion_pilot,2023.2.3,Win32,7.501875469,6032a88a2b8e882a37cc2766,6598e6a5d84f07970b831e70,6598e792b620423529831e84,0.0328,0.0328,0,27,27,11,1,twofour,,,,,,,,,,,,,,,,,,,,,,,,,,,,,,,,,,,,,,,,,,,,,,,,,,,,,,,,,,,,,,,,,,,,,,,,,,,,,,,,,,,,,,,,,,,,,,,,,,,,,,,,,,,,,,,,,,,,,,,,,,,,,,,,,,,,,,,
,,6032a88a2b8e882a37cc2766,2024-01-05_23h40.07.180,kallum_motion_pilot,2023.2.3,Win32,7.501875469,6032a88a2b8e882a37cc2766,6598e6a5d84f07970b831e70,6598e792b620423529831e84,0.0329,0.033,0,28,28,110,1,eightsix,,,,,,,,,,,,,,,,,,,,,,,,,,,,,,,,,,,,,,,,,,,,,,,,,,,,,,,,,,,,,,,,,,,,,,,,,,,,,,,,,,,,,,,,,,,,,,,,,,,,,,,,,,,,,,,,,,,,,,,,,,,,,,,,,,,,,,,
,,6032a88a2b8e882a37cc2766,2024-01-05_23h40.07.180,kallum_motion_pilot,2023.2.3,Win32,7.501875469,6032a88a2b8e882a37cc2766,6598e6a5d84f07970b831e70,6598e792b620423529831e84,0.0331,0.0331,0,29,29,158,1,eightsix,,,,,,,,,,,,,,,,,,,,,,,,,,,,,,,,,,,,,,,,,,,,,,,,,,,,,,,,,,,,,,,,,,,,,,,,,,,,,,,,,,,,,,,,,,,,,,,,,,,,,,,,,,,,,,,,,,,,,,,,,,,,,,,,,,,,,,,
,,6032a88a2b8e882a37cc2766,2024-01-05_23h40.07.180,kallum_motion_pilot,2023.2.3,Win32,7.501875469,6032a88a2b8e882a37cc2766,6598e6a5d84f07970b831e70,6598e792b620423529831e84,0.0333,0.0333,0,30,30,76,1,threeone,,,,,,,,,,,,,,,,,,,,,,,,,,,,,,,,,,,,,,,,,,,,,,,,,,,,,,,,,,,,,,,,,,,,,,,,,,,,,,,,,,,,,,,,,,,,,,,,,,,,,,,,,,,,,,,,,,,,,,,,,,,,,,,,,,,,,,,
,,6032a88a2b8e882a37cc2766,2024-01-05_23h40.07.180,kallum_motion_pilot,2023.2.3,Win32,7.501875469,6032a88a2b8e882a37cc2766,6598e6a5d84f07970b831e70,6598e792b620423529831e84,0.0334,0.0335,0,31,31,35,1,twofour,,,,,,,,,,,,,,,,,,,,,,,,,,,,,,,,,,,,,,,,,,,,,,,,,,,,,,,,,,,,,,,,,,,,,,,,,,,,,,,,,,,,,,,,,,,,,,,,,,,,,,,,,,,,,,,,,,,,,,,,,,,,,,,,,,,,,,,
,,6032a88a2b8e882a37cc2766,2024-01-05_23h40.07.180,kallum_motion_pilot,2023.2.3,Win32,7.501875469,6032a88a2b8e882a37cc2766,6598e6a5d84f07970b831e70,6598e792b620423529831e84,0.0336,0.0337,0,32,32,58,1,twoone,,,,,,,,,,,,,,,,,,,,,,,,,,,,,,,,,,,,,,,,,,,,,,,,,,,,,,,,,,,,,,,,,,,,,,,,,,,,,,,,,,,,,,,,,,,,,,,,,,,,,,,,,,,,,,,,,,,,,,,,,,,,,,,,,,,,,,,
,,6032a88a2b8e882a37cc2766,2024-01-05_23h40.07.180,kallum_motion_pilot,2023.2.3,Win32,7.501875469,6032a88a2b8e882a37cc2766,6598e6a5d84f07970b831e70,6598e792b620423529831e84,0.0341,0.0342,0,33,33,3,1,twofour,,,,,,,,,,,,,,,,,,,,,,,,,,,,,,,,,,,,,,,,,,,,,,,,,,,,,,,,,,,,,,,,,,,,,,,,,,,,,,,,,,,,,,,,,,,,,,,,,,,,,,,,,,,,,,,,,,,,,,,,,,,,,,,,,,,,,,,
,,6032a88a2b8e882a37cc2766,2024-01-05_23h40.07.180,kallum_motion_pilot,2023.2.3,Win32,7.501875469,6032a88a2b8e882a37cc2766,6598e6a5d84f07970b831e70,6598e792b620423529831e84,0.0343,0.0344,0,34,34,122,1,sixfive,,,,,,,,,,,,,,,,,,,,,,,,,,,,,,,,,,,,,,,,,,,,,,,,,,,,,,,,,,,,,,,,,,,,,,,,,,,,,,,,,,,,,,,,,,,,,,,,,,,,,,,,,,,,,,,,,,,,,,,,,,,,,,,,,,,,,,,
,,6032a88a2b8e882a37cc2766,2024-01-05_23h40.07.180,kallum_motion_pilot,2023.2.3,Win32,7.501875469,6032a88a2b8e882a37cc2766,6598e6a5d84f07970b831e70,6598e792b620423529831e84,0.0347,0.0347,0,35,35,145,1,fiveseven,,,,,,,,,,,,,,,,,,,,,,,,,,,,,,,,,,,,,,,,,,,,,,,,,,,,,,,,,,,,,,,,,,,,,,,,,,,,,,,,,,,,,,,,,,,,,,,,,,,,,,,,,,,,,,,,,,,,,,,,,,,,,,,,,,,,,,,
,,6032a88a2b8e882a37cc2766,2024-01-05_23h40.07.180,kallum_motion_pilot,2023.2.3,Win32,7.501875469,6032a88a2b8e882a37cc2766,6598e6a5d84f07970b831e70,6598e792b620423529831e84,0.0349,0.0349,0,36,36,147,1,sixeight,,,,,,,,,,,,,,,,,,,,,,,,,,,,,,,,,,,,,,,,,,,,,,,,,,,,,,,,,,,,,,,,,,,,,,,,,,,,,,,,,,,,,,,,,,,,,,,,,,,,,,,,,,,,,,,,,,,,,,,,,,,,,,,,,,,,,,,
,,6032a88a2b8e882a37cc2766,2024-01-05_23h40.07.180,kallum_motion_pilot,2023.2.3,Win32,7.501875469,6032a88a2b8e882a37cc2766,6598e6a5d84f07970b831e70,6598e792b620423529831e84,0.035,0.0351,0,37,37,101,1,seveneight,,,,,,,,,,,,,,,,,,,,,,,,,,,,,,,,,,,,,,,,,,,,,,,,,,,,,,,,,,,,,,,,,,,,,,,,,,,,,,,,,,,,,,,,,,,,,,,,,,,,,,,,,,,,,,,,,,,,,,,,,,,,,,,,,,,,,,,
,,6032a88a2b8e882a37cc2766,2024-01-05_23h40.07.180,kallum_motion_pilot,2023.2.3,Win32,7.501875469,6032a88a2b8e882a37cc2766,6598e6a5d84f07970b831e70,6598e792b620423529831e84,0.0351,0.0352,0,38,38,31,1,fourthree,,,,,,,,,,,,,,,,,,,,,,,,,,,,,,,,,,,,,,,,,,,,,,,,,,,,,,,,,,,,,,,,,,,,,,,,,,,,,,,,,,,,,,,,,,,,,,,,,,,,,,,,,,,,,,,,,,,,,,,,,,,,,,,,,,,,,,,
,,6032a88a2b8e882a37cc2766,2024-01-05_23h40.07.180,kallum_motion_pilot,2023.2.3,Win32,7.501875469,6032a88a2b8e882a37cc2766,6598e6a5d84f07970b831e70,6598e792b620423529831e84,0.0354,0.0354,0,39,39,48,1,onetwo,,,,,,,,,,,,,,,,,,,,,,,,,,,,,,,,,,,,,,,,,,,,,,,,,,,,,,,,,,,,,,,,,,,,,,,,,,,,,,,,,,,,,,,,,,,,,,,,,,,,,,,,,,,,,,,,,,,,,,,,,,,,,,,,,,,,,,,
,,6032a88a2b8e882a37cc2766,2024-01-05_23h40.07.180,kallum_motion_pilot,2023.2.3,Win32,7.501875469,6032a88a2b8e882a37cc2766,6598e6a5d84f07970b831e70,6598e792b620423529831e84,0.0356,0.0356,0,40,40,153,1,fiveseven,,,,,,,,,,,,,,,,,,,,,,,,,,,,,,,,,,,,,,,,,,,,,,,,,,,,,,,,,,,,,,,,,,,,,,,,,,,,,,,,,,,,,,,,,,,,,,,,,,,,,,,,,,,,,,,,,,,,,,,,,,,,,,,,,,,,,,,
,,6032a88a2b8e882a37cc2766,2024-01-05_23h40.07.180,kallum_motion_pilot,2023.2.3,Win32,7.501875469,6032a88a2b8e882a37cc2766,6598e6a5d84f07970b831e70,6598e792b620423529831e84,0.0357,0.0357,0,41,41,69,1,threefour,,,,,,,,,,,,,,,,,,,,,,,,,,,,,,,,,,,,,,,,,,,,,,,,,,,,,,,,,,,,,,,,,,,,,,,,,,,,,,,,,,,,,,,,,,,,,,,,,,,,,,,,,,,,,,,,,,,,,,,,,,,,,,,,,,,,,,,
,,6032a88a2b8e882a37cc2766,2024-01-05_23h40.07.180,kallum_motion_pilot,2023.2.3,Win32,7.501875469,6032a88a2b8e882a37cc2766,6598e6a5d84f07970b831e70,6598e792b620423529831e84,0.0359,0.0359,0,42,42,27,1,twofour,,,,,,,,,,,,,,,,,,,,,,,,,,,,,,,,,,,,,,,,,,,,,,,,,,,,,,,,,,,,,,,,,,,,,,,,,,,,,,,,,,,,,,,,,,,,,,,,,,,,,,,,,,,,,,,,,,,,,,,,,,,,,,,,,,,,,,,
,,6032a88a2b8e882a37cc2766,2024-01-05_23h40.07.180,kallum_motion_pilot,2023.2.3,Win32,7.501875469,6032a88a2b8e882a37cc2766,6598e6a5d84f07970b831e70,6598e792b620423529831e84,0.036,0.036,0,43,43,88,1,fivesix,,,,,,,,,,,,,,,,,,,,,,,,,,,,,,,,,,,,,,,,,,,,,,,,,,,,,,,,,,,,,,,,,,,,,,,,,,,,,,,,,,,,,,,,,,,,,,,,,,,,,,,,,,,,,,,,,,,,,,,,,,,,,,,,,,,,,,,
,,6032a88a2b8e882a37cc2766,2024-01-05_23h40.07.180,kallum_motion_pilot,2023.2.3,Win32,7.501875469,6032a88a2b8e882a37cc2766,6598e6a5d84f07970b831e70,6598e792b620423529831e84,0.0361,0.0362,0,44,44,46,1,fourtwo,,,,,,,,,,,,,,,,,,,,,,,,,,,,,,,,,,,,,,,,,,,,,,,,,,,,,,,,,,,,,,,,,,,,,,,,,,,,,,,,,,,,,,,,,,,,,,,,,,,,,,,,,,,,,,,,,,,,,,,,,,,,,,,,,,,,,,,
,,6032a88a2b8e882a37cc2766,2024-01-05_23h40.07.180,kallum_motion_pilot,2023.2.3,Win32,7.501875469,6032a88a2b8e882a37cc2766,6598e6a5d84f07970b831e70,6598e792b620423529831e84,0.0363,0.0363,0,45,45,117,1,seveneight,,,,,,,,,,,,,,,,,,,,,,,,,,,,,,,,,,,,,,,,,,,,,,,,,,,,,,,,,,,,,,,,,,,,,,,,,,,,,,,,,,,,,,,,,,,,,,,,,,,,,,,,,,,,,,,,,,,,,,,,,,,,,,,,,,,,,,,
,,6032a88a2b8e882a37cc2766,2024-01-05_23h40.07.180,kallum_motion_pilot,2023.2.3,Win32,7.501875469,6032a88a2b8e882a37cc2766,6598e6a5d84f07970b831e70,6598e792b620423529831e84,0.0364,0.0364,0,46,46,118,1,eightsix,,,,,,,,,,,,,,,,,,,,,,,,,,,,,,,,,,,,,,,,,,,,,,,,,,,,,,,,,,,,,,,,,,,,,,,,,,,,,,,,,,,,,,,,,,,,,,,,,,,,,,,,,,,,,,,,,,,,,,,,,,,,,,,,,,,,,,,
,,6032a88a2b8e882a37cc2766,2024-01-05_23h40.07.180,kallum_motion_pilot,2023.2.3,Win32,7.501875469,6032a88a2b8e882a37cc2766,6598e6a5d84f07970b831e70,6598e792b620423529831e84,0.0365,0.0365,0,47,47,130,1,sixfive,,,,,,,,,,,,,,,,,,,,,,,,,,,,,,,,,,,,,,,,,,,,,,,,,,,,,,,,,,,,,,,,,,,,,,,,,,,,,,,,,,,,,,,,,,,,,,,,,,,,,,,,,,,,,,,,,,,,,,,,,,,,,,,,,,,,,,,
,,6032a88a2b8e882a37cc2766,2024-01-05_23h40.07.180,kallum_motion_pilot,2023.2.3,Win32,7.501875469,6032a88a2b8e882a37cc2766,6598e6a5d84f07970b831e70,6598e792b620423529831e84,0.0366,0.0366,0,48,48,60,1,threeone,,,,,,,,,,,,,,,,,,,,,,,,,,,,,,,,,,,,,,,,,,,,,,,,,,,,,,,,,,,,,,,,,,,,,,,,,,,,,,,,,,,,,,,,,,,,,,,,,,,,,,,,,,,,,,,,,,,,,,,,,,,,,,,,,,,,,,,
,,6032a88a2b8e882a37cc2766,2024-01-05_23h40.07.180,kallum_motion_pilot,2023.2.3,Win32,7.501875469,6032a88a2b8e882a37cc2766,6598e6a5d84f07970b831e70,6598e792b620423529831e84,0.0367,0.0367,0,49,49,55,1,fourthree,,,,,,,,,,,,,,,,,,,,,,,,,,,,,,,,,,,,,,,,,,,,,,,,,,,,,,,,,,,,,,,,,,,,,,,,,,,,,,,,,,,,,,,,,,,,,,,,,,,,,,,,,,,,,,,,,,,,,,,,,,,,,,,,,,,,,,,
,,6032a88a2b8e882a37cc2766,2024-01-05_23h40.07.180,kallum_motion_pilot,2023.2.3,Win32,7.501875469,6032a88a2b8e882a37cc2766,6598e6a5d84f07970b831e70,6598e792b620423529831e84,0.037,0.037,0,50,50,98,1,sixfive,,,,,,,,,,,,,,,,,,,,,,,,,,,,,,,,,,,,,,,,,,,,,,,,,,,,,,,,,,,,,,,,,,,,,,,,,,,,,,,,,,,,,,,,,,,,,,,,,,,,,,,,,,,,,,,,,,,,,,,,,,,,,,,,,,,,,,,
,,6032a88a2b8e882a37cc2766,2024-01-05_23h40.07.180,kallum_motion_pilot,2023.2.3,Win32,7.501875469,6032a88a2b8e882a37cc2766,6598e6a5d84f07970b831e70,6598e792b620423529831e84,0.0372,0.0372,0,51,51,7,1,fourthree,,,,,,,,,,,,,,,,,,,,,,,,,,,,,,,,,,,,,,,,,,,,,,,,,,,,,,,,,,,,,,,,,,,,,,,,,,,,,,,,,,,,,,,,,,,,,,,,,,,,,,,,,,,,,,,,,,,,,,,,,,,,,,,,,,,,,,,
,,6032a88a2b8e882a37cc2766,2024-01-05_23h40.07.180,kallum_motion_pilot,2023.2.3,Win32,7.501875469,6032a88a2b8e882a37cc2766,6598e6a5d84f07970b831e70,6598e792b620423529831e84,0.038,0.038,0,52,52,124,1,sevenfive,,,,,,,,,,,,,,,,,,,,,,,,,,,,,,,,,,,,,,,,,,,,,,,,,,,,,,,,,,,,,,,,,,,,,,,,,,,,,,,,,,,,,,,,,,,,,,,,,,,,,,,,,,,,,,,,,,,,,,,,,,,,,,,,,,,,,,,
,,6032a88a2b8e882a37cc2766,2024-01-05_23h40.07.180,kallum_motion_pilot,2023.2.3,Win32,7.501875469,6032a88a2b8e882a37cc2766,6598e6a5d84f07970b831e70,6598e792b620423529831e84,0.0382,0.0382,0,53,53,64,1,onetwo,,,,,,,,,,,,,,,,,,,,,,,,,,,,,,,,,,,,,,,,,,,,,,,,,,,,,,,,,,,,,,,,,,,,,,,,,,,,,,,,,,,,,,,,,,,,,,,,,,,,,,,,,,,,,,,,,,,,,,,,,,,,,,,,,,,,,,,
,,6032a88a2b8e882a37cc2766,2024-01-05_23h40.07.180,kallum_motion_pilot,2023.2.3,Win32,7.501875469,6032a88a2b8e882a37cc2766,6598e6a5d84f07970b831e70,6598e792b620423529831e84,0.0384,0.0385,0,54,54,148,1,sevenfive,,,,,,,,,,,,,,,,,,,,,,,,,,,,,,,,,,,,,,,,,,,,,,,,,,,,,,,,,,,,,,,,,,,,,,,,,,,,,,,,,,,,,,,,,,,,,,,,,,,,,,,,,,,,,,,,,,,,,,,,,,,,,,,,,,,,,,,
,,6032a88a2b8e882a37cc2766,2024-01-05_23h40.07.180,kallum_motion_pilot,2023.2.3,Win32,7.501875469,6032a88a2b8e882a37cc2766,6598e6a5d84f07970b831e70,6598e792b620423529831e84,0.0386,0.0387,0,55,55,59,1,twofour,,,,,,,,,,,,,,,,,,,,,,,,,,,,,,,,,,,,,,,,,,,,,,,,,,,,,,,,,,,,,,,,,,,,,,,,,,,,,,,,,,,,,,,,,,,,,,,,,,,,,,,,,,,,,,,,,,,,,,,,,,,,,,,,,,,,,,,
,,6032a88a2b8e882a37cc2766,2024-01-05_23h40.07.180,kallum_motion_pilot,2023.2.3,Win32,7.501875469,6032a88a2b8e882a37cc2766,6598e6a5d84f07970b831e70,6598e792b620423529831e84,0.0388,0.0388,0,56,56,151,1,eightseven,,,,,,,,,,,,,,,,,,,,,,,,,,,,,,,,,,,,,,,,,,,,,,,,,,,,,,,,,,,,,,,,,,,,,,,,,,,,,,,,,,,,,,,,,,,,,,,,,,,,,,,,,,,,,,,,,,,,,,,,,,,,,,,,,,,,,,,
,,6032a88a2b8e882a37cc2766,2024-01-05_23h40.07.180,kallum_motion_pilot,2023.2.3,Win32,7.501875469,6032a88a2b8e882a37cc2766,6598e6a5d84f07970b831e70,6598e792b620423529831e84,0.0389,0.0389,0,57,57,109,1,seveneight,,,,,,,,,,,,,,,,,,,,,,,,,,,,,,,,,,,,,,,,,,,,,,,,,,,,,,,,,,,,,,,,,,,,,,,,,,,,,,,,,,,,,,,,,,,,,,,,,,,,,,,,,,,,,,,,,,,,,,,,,,,,,,,,,,,,,,,
,,6032a88a2b8e882a37cc2766,2024-01-05_23h40.07.180,kallum_motion_pilot,2023.2.3,Win32,7.501875469,6032a88a2b8e882a37cc2766,6598e6a5d84f07970b831e70,6598e792b620423529831e84,0.0392,0.0392,0,58,58,155,1,sixeight,,,,,,,,,,,,,,,,,,,,,,,,,,,,,,,,,,,,,,,,,,,,,,,,,,,,,,,,,,,,,,,,,,,,,,,,,,,,,,,,,,,,,,,,,,,,,,,,,,,,,,,,,,,,,,,,,,,,,,,,,,,,,,,,,,,,,,,
,,6032a88a2b8e882a37cc2766,2024-01-05_23h40.07.180,kallum_motion_pilot,2023.2.3,Win32,7.501875469,6032a88a2b8e882a37cc2766,6598e6a5d84f07970b831e70,6598e792b620423529831e84,0.0393,0.0393,0,59,59,135,1,eightseven,,,,,,,,,,,,,,,,,,,,,,,,,,,,,,,,,,,,,,,,,,,,,,,,,,,,,,,,,,,,,,,,,,,,,,,,,,,,,,,,,,,,,,,,,,,,,,,,,,,,,,,,,,,,,,,,,,,,,,,,,,,,,,,,,,,,,,,
,,6032a88a2b8e882a37cc2766,2024-01-05_23h40.07.180,kallum_motion_pilot,2023.2.3,Win32,7.501875469,6032a88a2b8e882a37cc2766,6598e6a5d84f07970b831e70,6598e792b620423529831e84,0.0395,0.0396,0,60,60,84,1,sevenfive,,,,,,,,,,,,,,,,,,,,,,,,,,,,,,,,,,,,,,,,,,,,,,,,,,,,,,,,,,,,,,,,,,,,,,,,,,,,,,,,,,,,,,,,,,,,,,,,,,,,,,,,,,,,,,,,,,,,,,,,,,,,,,,,,,,,,,,
,,6032a88a2b8e882a37cc2766,2024-01-05_23h40.07.180,kallum_motion_pilot,2023.2.3,Win32,7.501875469,6032a88a2b8e882a37cc2766,6598e6a5d84f07970b831e70,6598e792b620423529831e84,0.0397,0.0397,0,61,61,29,1,threefour,,,,,,,,,,,,,,,,,,,,,,,,,,,,,,,,,,,,,,,,,,,,,,,,,,,,,,,,,,,,,,,,,,,,,,,,,,,,,,,,,,,,,,,,,,,,,,,,,,,,,,,,,,,,,,,,,,,,,,,,,,,,,,,,,,,,,,,
,,6032a88a2b8e882a37cc2766,2024-01-05_23h40.07.180,kallum_motion_pilot,2023.2.3,Win32,7.501875469,6032a88a2b8e882a37cc2766,6598e6a5d84f07970b831e70,6598e792b620423529831e84,0.0398,0.0399,0,62,62,50,1,twoone,,,,,,,,,,,,,,,,,,,,,,,,,,,,,,,,,,,,,,,,,,,,,,,,,,,,,,,,,,,,,,,,,,,,,,,,,,,,,,,,,,,,,,,,,,,,,,,,,,,,,,,,,,,,,,,,,,,,,,,,,,,,,,,,,,,,,,,
,,6032a88a2b8e882a37cc2766,2024-01-05_23h40.07.180,kallum_motion_pilot,2023.2.3,Win32,7.501875469,6032a88a2b8e882a37cc2766,6598e6a5d84f07970b831e70,6598e792b620423529831e84,0.0401,0.0401,0,63,63,100,1,sevenfive,,,,,,,,,,,,,,,,,,,,,,,,,,,,,,,,,,,,,,,,,,,,,,,,,,,,,,,,,,,,,,,,,,,,,,,,,,,,,,,,,,,,,,,,,,,,,,,,,,,,,,,,,,,,,,,,,,,,,,,,,,,,,,,,,,,,,,,
,,6032a88a2b8e882a37cc2766,2024-01-05_23h40.07.180,kallum_motion_pilot,2023.2.3,Win32,7.501875469,6032a88a2b8e882a37cc2766,6598e6a5d84f07970b831e70,6598e792b620423529831e84,0.0403,0.0403,0,64,64,43,1,twofour,,,,,,,,,,,,,,,,,,,,,,,,,,,,,,,,,,,,,,,,,,,,,,,,,,,,,,,,,,,,,,,,,,,,,,,,,,,,,,,,,,,,,,,,,,,,,,,,,,,,,,,,,,,,,,,,,,,,,,,,,,,,,,,,,,,,,,,
,,6032a88a2b8e882a37cc2766,2024-01-05_23h40.07.180,kallum_motion_pilot,2023.2.3,Win32,7.501875469,6032a88a2b8e882a37cc2766,6598e6a5d84f07970b831e70,6598e792b620423529831e84,0.0404,0.0405,0,65,65,34,1,twoone,,,,,,,,,,,,,,,,,,,,,,,,,,,,,,,,,,,,,,,,,,,,,,,,,,,,,,,,,,,,,,,,,,,,,,,,,,,,,,,,,,,,,,,,,,,,,,,,,,,,,,,,,,,,,,,,,,,,,,,,,,,,,,,,,,,,,,,
,,6032a88a2b8e882a37cc2766,2024-01-05_23h40.07.180,kallum_motion_pilot,2023.2.3,Win32,7.501875469,6032a88a2b8e882a37cc2766,6598e6a5d84f07970b831e70,6598e792b620423529831e84,0.0406,0.0407,0,66,66,160,1,fivesix,,,,,,,,,,,,,,,,,,,,,,,,,,,,,,,,,,,,,,,,,,,,,,,,,,,,,,,,,,,,,,,,,,,,,,,,,,,,,,,,,,,,,,,,,,,,,,,,,,,,,,,,,,,,,,,,,,,,,,,,,,,,,,,,,,,,,,,
,,6032a88a2b8e882a37cc2766,2024-01-05_23h40.07.180,kallum_motion_pilot,2023.2.3,Win32,7.501875469,6032a88a2b8e882a37cc2766,6598e6a5d84f07970b831e70,6598e792b620423529831e84,0.0408,0.0409,0,67,67,143,1,eightseven,,,,,,,,,,,,,,,,,,,,,,,,,,,,,,,,,,,,,,,,,,,,,,,,,,,,,,,,,,,,,,,,,,,,,,,,,,,,,,,,,,,,,,,,,,,,,,,,,,,,,,,,,,,,,,,,,,,,,,,,,,,,,,,,,,,,,,,
,,6032a88a2b8e882a37cc2766,2024-01-05_23h40.07.180,kallum_motion_pilot,2023.2.3,Win32,7.501875469,6032a88a2b8e882a37cc2766,6598e6a5d84f07970b831e70,6598e792b620423529831e84,0.041,0.041,0,68,68,25,1,onethree,,,,,,,,,,,,,,,,,,,,,,,,,,,,,,,,,,,,,,,,,,,,,,,,,,,,,,,,,,,,,,,,,,,,,,,,,,,,,,,,,,,,,,,,,,,,,,,,,,,,,,,,,,,,,,,,,,,,,,,,,,,,,,,,,,,,,,,
,,6032a88a2b8e882a37cc2766,2024-01-05_23h40.07.180,kallum_motion_pilot,2023.2.3,Win32,7.501875469,6032a88a2b8e882a37cc2766,6598e6a5d84f07970b831e70,6598e792b620423529831e84,0.0411,0.0412,0,69,69,45,1,threefour,,,,,,,,,,,,,,,,,,,,,,,,,,,,,,,,,,,,,,,,,,,,,,,,,,,,,,,,,,,,,,,,,,,,,,,,,,,,,,,,,,,,,,,,,,,,,,,,,,,,,,,,,,,,,,,,,,,,,,,,,,,,,,,,,,,,,,,
,,6032a88a2b8e882a37cc2766,2024-01-05_23h40.07.180,kallum_motion_pilot,2023.2.3,Win32,7.501875469,6032a88a2b8e882a37cc2766,6598e6a5d84f07970b831e70,6598e792b620423529831e84,0.0413,0.0413,0,70,70,90,1,sixfive,,,,,,,,,,,,,,,,,,,,,,,,,,,,,,,,,,,,,,,,,,,,,,,,,,,,,,,,,,,,,,,,,,,,,,,,,,,,,,,,,,,,,,,,,,,,,,,,,,,,,,,,,,,,,,,,,,,,,,,,,,,,,,,,,,,,,,,
,,6032a88a2b8e882a37cc2766,2024-01-05_23h40.07.180,kallum_motion_pilot,2023.2.3,Win32,7.501875469,6032a88a2b8e882a37cc2766,6598e6a5d84f07970b831e70,6598e792b620423529831e84,0.0415,0.0415,0,71,71,63,1,fourthree,,,,,,,,,,,,,,,,,,,,,,,,,,,,,,,,,,,,,,,,,,,,,,,,,,,,,,,,,,,,,,,,,,,,,,,,,,,,,,,,,,,,,,,,,,,,,,,,,,,,,,,,,,,,,,,,,,,,,,,,,,,,,,,,,,,,,,,
,,6032a88a2b8e882a37cc2766,2024-01-05_23h40.07.180,kallum_motion_pilot,2023.2.3,Win32,7.501875469,6032a88a2b8e882a37cc2766,6598e6a5d84f07970b831e70,6598e792b620423529831e84,0.0417,0.0418,0,72,72,125,1,seveneight,,,,,,,,,,,,,,,,,,,,,,,,,,,,,,,,,,,,,,,,,,,,,,,,,,,,,,,,,,,,,,,,,,,,,,,,,,,,,,,,,,,,,,,,,,,,,,,,,,,,,,,,,,,,,,,,,,,,,,,,,,,,,,,,,,,,,,,
,,6032a88a2b8e882a37cc2766,2024-01-05_23h40.07.180,kallum_motion_pilot,2023.2.3,Win32,7.501875469,6032a88a2b8e882a37cc2766,6598e6a5d84f07970b831e70,6598e792b620423529831e84,0.0419,0.0419,0,73,73,127,1,eightseven,,,,,,,,,,,,,,,,,,,,,,,,,,,,,,,,,,,,,,,,,,,,,,,,,,,,,,,,,,,,,,,,,,,,,,,,,,,,,,,,,,,,,,,,,,,,,,,,,,,,,,,,,,,,,,,,,,,,,,,,,,,,,,,,,,,,,,,
,,6032a88a2b8e882a37cc2766,2024-01-05_23h40.07.180,kallum_motion_pilot,2023.2.3,Win32,7.501875469,6032a88a2b8e882a37cc2766,6598e6a5d84f07970b831e70,6598e792b620423529831e84,0.0421,0.0422,0,74,74,142,1,eightsix,,,,,,,,,,,,,,,,,,,,,,,,,,,,,,,,,,,,,,,,,,,,,,,,,,,,,,,,,,,,,,,,,,,,,,,,,,,,,,,,,,,,,,,,,,,,,,,,,,,,,,,,,,,,,,,,,,,,,,,,,,,,,,,,,,,,,,,
,,6032a88a2b8e882a37cc2766,2024-01-05_23h40.07.180,kallum_motion_pilot,2023.2.3,Win32,7.501875469,6032a88a2b8e882a37cc2766,6598e6a5d84f07970b831e70,6598e792b620423529831e84,0.0423,0.0424,0,75,75,20,1,threeone,,,,,,,,,,,,,,,,,,,,,,,,,,,,,,,,,,,,,,,,,,,,,,,,,,,,,,,,,,,,,,,,,,,,,,,,,,,,,,,,,,,,,,,,,,,,,,,,,,,,,,,,,,,,,,,,,,,,,,,,,,,,,,,,,,,,,,,
,,6032a88a2b8e882a37cc2766,2024-01-05_23h40.07.180,kallum_motion_pilot,2023.2.3,Win32,7.501875469,6032a88a2b8e882a37cc2766,6598e6a5d84f07970b831e70,6598e792b620423529831e84,0.0425,0.0425,0,76,76,12,1,threeone,,,,,,,,,,,,,,,,,,,,,,,,,,,,,,,,,,,,,,,,,,,,,,,,,,,,,,,,,,,,,,,,,,,,,,,,,,,,,,,,,,,,,,,,,,,,,,,,,,,,,,,,,,,,,,,,,,,,,,,,,,,,,,,,,,,,,,,
,,6032a88a2b8e882a37cc2766,2024-01-05_23h40.07.180,kallum_motion_pilot,2023.2.3,Win32,7.501875469,6032a88a2b8e882a37cc2766,6598e6a5d84f07970b831e70,6598e792b620423529831e84,0.0427,0.0427,0,77,77,62,1,fourtwo,,,,,,,,,,,,,,,,,,,,,,,,,,,,,,,,,,,,,,,,,,,,,,,,,,,,,,,,,,,,,,,,,,,,,,,,,,,,,,,,,,,,,,,,,,,,,,,,,,,,,,,,,,,,,,,,,,,,,,,,,,,,,,,,,,,,,,,
,,6032a88a2b8e882a37cc2766,2024-01-05_23h40.07.180,kallum_motion_pilot,2023.2.3,Win32,7.501875469,6032a88a2b8e882a37cc2766,6598e6a5d84f07970b831e70,6598e792b620423529831e84,0.0428,0.0429,0,78,78,9,1,onethree,,,,,,,,,,,,,,,,,,,,,,,,,,,,,,,,,,,,,,,,,,,,,,,,,,,,,,,,,,,,,,,,,,,,,,,,,,,,,,,,,,,,,,,,,,,,,,,,,,,,,,,,,,,,,,,,,,,,,,,,,,,,,,,,,,,,,,,
,,6032a88a2b8e882a37cc2766,2024-01-05_23h40.07.180,kallum_motion_pilot,2023.2.3,Win32,7.501875469,6032a88a2b8e882a37cc2766,6598e6a5d84f07970b831e70,6598e792b620423529831e84,0.043,0.0431,0,79,79,141,1,seveneight,,,,,,,,,,,,,,,,,,,,,,,,,,,,,,,,,,,,,,,,,,,,,,,,,,,,,,,,,,,,,,,,,,,,,,,,,,,,,,,,,,,,,,,,,,,,,,,,,,,,,,,,,,,,,,,,,,,,,,,,,,,,,,,,,,,,,,,
,,6032a88a2b8e882a37cc2766,2024-01-05_23h40.07.180,kallum_motion_pilot,2023.2.3,Win32,7.501875469,6032a88a2b8e882a37cc2766,6598e6a5d84f07970b831e70,6598e792b620423529831e84,0.0432,0.0433,0,80,80,113,1,fiveseven,,,,,,,,,,,,,,,,,,,,,,,,,,,,,,,,,,,,,,,,,,,,,,,,,,,,,,,,,,,,,,,,,,,,,,,,,,,,,,,,,,,,,,,,,,,,,,,,,,,,,,,,,,,,,,,,,,,,,,,,,,,,,,,,,,,,,,,
,,6032a88a2b8e882a37cc2766,2024-01-05_23h40.07.180,kallum_motion_pilot,2023.2.3,Win32,7.501875469,6032a88a2b8e882a37cc2766,6598e6a5d84f07970b831e70,6598e792b620423529831e84,0.0434,0.0434,0,81,81,156,1,sevenfive,,,,,,,,,,,,,,,,,,,,,,,,,,,,,,,,,,,,,,,,,,,,,,,,,,,,,,,,,,,,,,,,,,,,,,,,,,,,,,,,,,,,,,,,,,,,,,,,,,,,,,,,,,,,,,,,,,,,,,,,,,,,,,,,,,,,,,,
,,6032a88a2b8e882a37cc2766,2024-01-05_23h40.07.180,kallum_motion_pilot,2023.2.3,Win32,7.501875469,6032a88a2b8e882a37cc2766,6598e6a5d84f07970b831e70,6598e792b620423529831e84,0.0436,0.0436,0,82,82,121,1,fiveseven,,,,,,,,,,,,,,,,,,,,,,,,,,,,,,,,,,,,,,,,,,,,,,,,,,,,,,,,,,,,,,,,,,,,,,,,,,,,,,,,,,,,,,,,,,,,,,,,,,,,,,,,,,,,,,,,,,,,,,,,,,,,,,,,,,,,,,,
,,6032a88a2b8e882a37cc2766,2024-01-05_23h40.07.180,kallum_motion_pilot,2023.2.3,Win32,7.501875469,6032a88a2b8e882a37cc2766,6598e6a5d84f07970b831e70,6598e792b620423529831e84,0.0437,0.0437,0,83,83,53,1,threefour,,,,,,,,,,,,,,,,,,,,,,,,,,,,,,,,,,,,,,,,,,,,,,,,,,,,,,,,,,,,,,,,,,,,,,,,,,,,,,,,,,,,,,,,,,,,,,,,,,,,,,,,,,,,,,,,,,,,,,,,,,,,,,,,,,,,,,,
,,6032a88a2b8e882a37cc2766,2024-01-05_23h40.07.180,kallum_motion_pilot,2023.2.3,Win32,7.501875469,6032a88a2b8e882a37cc2766,6598e6a5d84f07970b831e70,6598e792b620423529831e84,0.0439,0.0439,0,84,84,138,1,sixfive,,,,,,,,,,,,,,,,,,,,,,,,,,,,,,,,,,,,,,,,,,,,,,,,,,,,,,,,,,,,,,,,,,,,,,,,,,,,,,,,,,,,,,,,,,,,,,,,,,,,,,,,,,,,,,,,,,,,,,,,,,,,,,,,,,,,,,,
,,6032a88a2b8e882a37cc2766,2024-01-05_23h40.07.180,kallum_motion_pilot,2023.2.3,Win32,7.501875469,6032a88a2b8e882a37cc2766,6598e6a5d84f07970b831e70,6598e792b620423529831e84,0.0441,0.0441,0,85,85,112,1,fivesix,,,,,,,,,,,,,,,,,,,,,,,,,,,,,,,,,,,,,,,,,,,,,,,,,,,,,,,,,,,,,,,,,,,,,,,,,,,,,,,,,,,,,,,,,,,,,,,,,,,,,,,,,,,,,,,,,,,,,,,,,,,,,,,,,,,,,,,
,,6032a88a2b8e882a37cc2766,2024-01-05_23h40.07.180,kallum_motion_pilot,2023.2.3,Win32,7.501875469,6032a88a2b8e882a37cc2766,6598e6a5d84f07970b831e70,6598e792b620423529831e84,0.0443,0.0443,0,86,86,81,1,fiveseven,,,,,,,,,,,,,,,,,,,,,,,,,,,,,,,,,,,,,,,,,,,,,,,,,,,,,,,,,,,,,,,,,,,,,,,,,,,,,,,,,,,,,,,,,,,,,,,,,,,,,,,,,,,,,,,,,,,,,,,,,,,,,,,,,,,,,,,
,,6032a88a2b8e882a37cc2766,2024-01-05_23h40.07.180,kallum_motion_pilot,2023.2.3,Win32,7.501875469,6032a88a2b8e882a37cc2766,6598e6a5d84f07970b831e70,6598e792b620423529831e84,0.0444,0.0445,0,87,87,37,1,threefour,,,,,,,,,,,,,,,,,,,,,,,,,,,,,,,,,,,,,,,,,,,,,,,,,,,,,,,,,,,,,,,,,,,,,,,,,,,,,,,,,,,,,,,,,,,,,,,,,,,,,,,,,,,,,,,,,,,,,,,,,,,,,,,,,,,,,,,
,,6032a88a2b8e882a37cc2766,2024-01-05_23h40.07.180,kallum_motion_pilot,2023.2.3,Win32,7.501875469,6032a88a2b8e882a37cc2766,6598e6a5d84f07970b831e70,6598e792b620423529831e84,0.0447,0.0447,0,88,88,134,1,eightsix,,,,,,,,,,,,,,,,,,,,,,,,,,,,,,,,,,,,,,,,,,,,,,,,,,,,,,,,,,,,,,,,,,,,,,,,,,,,,,,,,,,,,,,,,,,,,,,,,,,,,,,,,,,,,,,,,,,,,,,,,,,,,,,,,,,,,,,
,,6032a88a2b8e882a37cc2766,2024-01-05_23h40.07.180,kallum_motion_pilot,2023.2.3,Win32,7.501875469,6032a88a2b8e882a37cc2766,6598e6a5d84f07970b831e70,6598e792b620423529831e84,0.0449,0.0449,0,89,89,96,1,fivesix,,,,,,,,,,,,,,,,,,,,,,,,,,,,,,,,,,,,,,,,,,,,,,,,,,,,,,,,,,,,,,,,,,,,,,,,,,,,,,,,,,,,,,,,,,,,,,,,,,,,,,,,,,,,,,,,,,,,,,,,,,,,,,,,,,,,,,,
,,6032a88a2b8e882a37cc2766,2024-01-05_23h40.07.180,kallum_motion_pilot,2023.2.3,Win32,7.501875469,6032a88a2b8e882a37cc2766,6598e6a5d84f07970b831e70,6598e792b620423529831e84,0.0451,0.0451,0,90,90,15,1,fourthree,,,,,,,,,,,,,,,,,,,,,,,,,,,,,,,,,,,,,,,,,,,,,,,,,,,,,,,,,,,,,,,,,,,,,,,,,,,,,,,,,,,,,,,,,,,,,,,,,,,,,,,,,,,,,,,,,,,,,,,,,,,,,,,,,,,,,,,
,,6032a88a2b8e882a37cc2766,2024-01-05_23h40.07.180,kallum_motion_pilot,2023.2.3,Win32,7.501875469,6032a88a2b8e882a37cc2766,6598e6a5d84f07970b831e70,6598e792b620423529831e84,0.0451,0.0452,0,91,91,71,1,fourthree,,,,,,,,,,,,,,,,,,,,,,,,,,,,,,,,,,,,,,,,,,,,,,,,,,,,,,,,,,,,,,,,,,,,,,,,,,,,,,,,,,,,,,,,,,,,,,,,,,,,,,,,,,,,,,,,,,,,,,,,,,,,,,,,,,,,,,,
,,6032a88a2b8e882a37cc2766,2024-01-05_23h40.07.180,kallum_motion_pilot,2023.2.3,Win32,7.501875469,6032a88a2b8e882a37cc2766,6598e6a5d84f07970b831e70,6598e792b620423529831e84,0.0453,0.0454,0,92,92,87,1,eightseven,,,,,,,,,,,,,,,,,,,,,,,,,,,,,,,,,,,,,,,,,,,,,,,,,,,,,,,,,,,,,,,,,,,,,,,,,,,,,,,,,,,,,,,,,,,,,,,,,,,,,,,,,,,,,,,,,,,,,,,,,,,,,,,,,,,,,,,
,,6032a88a2b8e882a37cc2766,2024-01-05_23h40.07.180,kallum_motion_pilot,2023.2.3,Win32,7.501875469,6032a88a2b8e882a37cc2766,6598e6a5d84f07970b831e70,6598e792b620423529831e84,0.0455,0.0456,0,93,93,1,1,onethree,,,,,,,,,,,,,,,,,,,,,,,,,,,,,,,,,,,,,,,,,,,,,,,,,,,,,,,,,,,,,,,,,,,,,,,,,,,,,,,,,,,,,,,,,,,,,,,,,,,,,,,,,,,,,,,,,,,,,,,,,,,,,,,,,,,,,,,
,,6032a88a2b8e882a37cc2766,2024-01-05_23h40.07.180,kallum_motion_pilot,2023.2.3,Win32,7.501875469,6032a88a2b8e882a37cc2766,6598e6a5d84f07970b831e70,6598e792b620423529831e84,0.0458,0.0458,0,94,94,136,1,fivesix,,,,,,,,,,,,,,,,,,,,,,,,,,,,,,,,,,,,,,,,,,,,,,,,,,,,,,,,,,,,,,,,,,,,,,,,,,,,,,,,,,,,,,,,,,,,,,,,,,,,,,,,,,,,,,,,,,,,,,,,,,,,,,,,,,,,,,,
,,6032a88a2b8e882a37cc2766,2024-01-05_23h40.07.180,kallum_motion_pilot,2023.2.3,Win32,7.501875469,6032a88a2b8e882a37cc2766,6598e6a5d84f07970b831e70,6598e792b620423529831e84,0.046,0.046,0,95,95,74,1,twoone,,,,,,,,,,,,,,,,,,,,,,,,,,,,,,,,,,,,,,,,,,,,,,,,,,,,,,,,,,,,,,,,,,,,,,,,,,,,,,,,,,,,,,,,,,,,,,,,,,,,,,,,,,,,,,,,,,,,,,,,,,,,,,,,,,,,,,,
,,6032a88a2b8e882a37cc2766,2024-01-05_23h40.07.180,kallum_motion_pilot,2023.2.3,Win32,7.501875469,6032a88a2b8e882a37cc2766,6598e6a5d84f07970b831e70,6598e792b620423529831e84,0.0461,0.0463,0,96,96,14,1,fourtwo,,,,,,,,,,,,,,,,,,,,,,,,,,,,,,,,,,,,,,,,,,,,,,,,,,,,,,,,,,,,,,,,,,,,,,,,,,,,,,,,,,,,,,,,,,,,,,,,,,,,,,,,,,,,,,,,,,,,,,,,,,,,,,,,,,,,,,,
,,6032a88a2b8e882a37cc2766,2024-01-05_23h40.07.180,kallum_motion_pilot,2023.2.3,Win32,7.501875469,6032a88a2b8e882a37cc2766,6598e6a5d84f07970b831e70,6598e792b620423529831e84,0.0463,0.0464,0,97,97,4,1,threeone,,,,,,,,,,,,,,,,,,,,,,,,,,,,,,,,,,,,,,,,,,,,,,,,,,,,,,,,,,,,,,,,,,,,,,,,,,,,,,,,,,,,,,,,,,,,,,,,,,,,,,,,,,,,,,,,,,,,,,,,,,,,,,,,,,,,,,,
,,6032a88a2b8e882a37cc2766,2024-01-05_23h40.07.180,kallum_motion_pilot,2023.2.3,Win32,7.501875469,6032a88a2b8e882a37cc2766,6598e6a5d84f07970b831e70,6598e792b620423529831e84,0.0466,0.0466,0,98,98,36,1,threeone,,,,,,,,,,,,,,,,,,,,,,,,,,,,,,,,,,,,,,,,,,,,,,,,,,,,,,,,,,,,,,,,,,,,,,,,,,,,,,,,,,,,,,,,,,,,,,,,,,,,,,,,,,,,,,,,,,,,,,,,,,,,,,,,,,,,,,,
,,6032a88a2b8e882a37cc2766,2024-01-05_23h40.07.180,kallum_motion_pilot,2023.2.3,Win32,7.501875469,6032a88a2b8e882a37cc2766,6598e6a5d84f07970b831e70,6598e792b620423529831e84,0.0467,0.0468,0,99,99,47,1,fourthree,,,,,,,,,,,,,,,,,,,,,,,,,,,,,,,,,,,,,,,,,,,,,,,,,,,,,,,,,,,,,,,,,,,,,,,,,,,,,,,,,,,,,,,,,,,,,,,,,,,,,,,,,,,,,,,,,,,,,,,,,,,,,,,,,,,,,,,
,,6032a88a2b8e882a37cc2766,2024-01-05_23h40.07.180,kallum_motion_pilot,2023.2.3,Win32,7.501875469,6032a88a2b8e882a37cc2766,6598e6a5d84f07970b831e70,6598e792b620423529831e84,0.0469,0.047,0,100,100,33,1,onethree,,,,,,,,,,,,,,,,,,,,,,,,,,,,,,,,,,,,,,,,,,,,,,,,,,,,,,,,,,,,,,,,,,,,,,,,,,,,,,,,,,,,,,,,,,,,,,,,,,,,,,,,,,,,,,,,,,,,,,,,,,,,,,,,,,,,,,,
,,6032a88a2b8e882a37cc2766,2024-01-05_23h40.07.180,kallum_motion_pilot,2023.2.3,Win32,7.501875469,6032a88a2b8e882a37cc2766,6598e6a5d84f07970b831e70,6598e792b620423529831e84,0.0472,0.0472,0,101,101,157,1,seveneight,,,,,,,,,,,,,,,,,,,,,,,,,,,,,,,,,,,,,,,,,,,,,,,,,,,,,,,,,,,,,,,,,,,,,,,,,,,,,,,,,,,,,,,,,,,,,,,,,,,,,,,,,,,,,,,,,,,,,,,,,,,,,,,,,,,,,,,
,,6032a88a2b8e882a37cc2766,2024-01-05_23h40.07.180,kallum_motion_pilot,2023.2.3,Win32,7.501875469,6032a88a2b8e882a37cc2766,6598e6a5d84f07970b831e70,6598e792b620423529831e84,0.0473,0.0474,0,102,102,42,1,twoone,,,,,,,,,,,,,,,,,,,,,,,,,,,,,,,,,,,,,,,,,,,,,,,,,,,,,,,,,,,,,,,,,,,,,,,,,,,,,,,,,,,,,,,,,,,,,,,,,,,,,,,,,,,,,,,,,,,,,,,,,,,,,,,,,,,,,,,
,,6032a88a2b8e882a37cc2766,2024-01-05_23h40.07.180,kallum_motion_pilot,2023.2.3,Win32,7.501875469,6032a88a2b8e882a37cc2766,6598e6a5d84f07970b831e70,6598e792b620423529831e84,0.0475,0.0476,0,103,103,78,1,fourtwo,,,,,,,,,,,,,,,,,,,,,,,,,,,,,,,,,,,,,,,,,,,,,,,,,,,,,,,,,,,,,,,,,,,,,,,,,,,,,,,,,,,,,,,,,,,,,,,,,,,,,,,,,,,,,,,,,,,,,,,,,,,,,,,,,,,,,,,
,,6032a88a2b8e882a37cc2766,2024-01-05_23h40.07.180,kallum_motion_pilot,2023.2.3,Win32,7.501875469,6032a88a2b8e882a37cc2766,6598e6a5d84f07970b831e70,6598e792b620423529831e84,0.0477,0.0478,0,104,104,99,1,sixeight,,,,,,,,,,,,,,,,,,,,,,,,,,,,,,,,,,,,,,,,,,,,,,,,,,,,,,,,,,,,,,,,,,,,,,,,,,,,,,,,,,,,,,,,,,,,,,,,,,,,,,,,,,,,,,,,,,,,,,,,,,,,,,,,,,,,,,,
,,6032a88a2b8e882a37cc2766,2024-01-05_23h40.07.180,kallum_motion_pilot,2023.2.3,Win32,7.501875469,6032a88a2b8e882a37cc2766,6598e6a5d84f07970b831e70,6598e792b620423529831e84,0.0479,0.048,0,105,105,137,1,fiveseven,,,,,,,,,,,,,,,,,,,,,,,,,,,,,,,,,,,,,,,,,,,,,,,,,,,,,,,,,,,,,,,,,,,,,,,,,,,,,,,,,,,,,,,,,,,,,,,,,,,,,,,,,,,,,,,,,,,,,,,,,,,,,,,,,,,,,,,
,,6032a88a2b8e882a37cc2766,2024-01-05_23h40.07.180,kallum_motion_pilot,2023.2.3,Win32,7.501875469,6032a88a2b8e882a37cc2766,6598e6a5d84f07970b831e70,6598e792b620423529831e84,0.0482,0.0482,0,106,106,139,1,sixeight,,,,,,,,,,,,,,,,,,,,,,,,,,,,,,,,,,,,,,,,,,,,,,,,,,,,,,,,,,,,,,,,,,,,,,,,,,,,,,,,,,,,,,,,,,,,,,,,,,,,,,,,,,,,,,,,,,,,,,,,,,,,,,,,,,,,,,,
,,6032a88a2b8e882a37cc2766,2024-01-05_23h40.07.180,kallum_motion_pilot,2023.2.3,Win32,7.501875469,6032a88a2b8e882a37cc2766,6598e6a5d84f07970b831e70,6598e792b620423529831e84,0.0483,0.0484,0,107,107,61,1,threefour,,,,,,,,,,,,,,,,,,,,,,,,,,,,,,,,,,,,,,,,,,,,,,,,,,,,,,,,,,,,,,,,,,,,,,,,,,,,,,,,,,,,,,,,,,,,,,,,,,,,,,,,,,,,,,,,,,,,,,,,,,,,,,,,,,,,,,,
,,6032a88a2b8e882a37cc2766,2024-01-05_23h40.07.180,kallum_motion_pilot,2023.2.3,Win32,7.501875469,6032a88a2b8e882a37cc2766,6598e6a5d84f07970b831e70,6598e792b620423529831e84,0.0484,0.0485,0,108,108,0,1,onetwo,,,,,,,,,,,,,,,,,,,,,,,,,,,,,,,,,,,,,,,,,,,,,,,,,,,,,,,,,,,,,,,,,,,,,,,,,,,,,,,,,,,,,,,,,,,,,,,,,,,,,,,,,,,,,,,,,,,,,,,,,,,,,,,,,,,,,,,
,,6032a88a2b8e882a37cc2766,2024-01-05_23h40.07.180,kallum_motion_pilot,2023.2.3,Win32,7.501875469,6032a88a2b8e882a37cc2766,6598e6a5d84f07970b831e70,6598e792b620423529831e84,0.0486,0.0486,0,109,109,39,1,fourthree,,,,,,,,,,,,,,,,,,,,,,,,,,,,,,,,,,,,,,,,,,,,,,,,,,,,,,,,,,,,,,,,,,,,,,,,,,,,,,,,,,,,,,,,,,,,,,,,,,,,,,,,,,,,,,,,,,,,,,,,,,,,,,,,,,,,,,,
,,6032a88a2b8e882a37cc2766,2024-01-05_23h40.07.180,kallum_motion_pilot,2023.2.3,Win32,7.501875469,6032a88a2b8e882a37cc2766,6598e6a5d84f07970b831e70,6598e792b620423529831e84,0.0488,0.0488,0,110,110,49,1,onethree,,,,,,,,,,,,,,,,,,,,,,,,,,,,,,,,,,,,,,,,,,,,,,,,,,,,,,,,,,,,,,,,,,,,,,,,,,,,,,,,,,,,,,,,,,,,,,,,,,,,,,,,,,,,,,,,,,,,,,,,,,,,,,,,,,,,,,,
,,6032a88a2b8e882a37cc2766,2024-01-05_23h40.07.180,kallum_motion_pilot,2023.2.3,Win32,7.501875469,6032a88a2b8e882a37cc2766,6598e6a5d84f07970b831e70,6598e792b620423529831e84,0.0489,0.0489,0,111,111,56,1,onetwo,,,,,,,,,,,,,,,,,,,,,,,,,,,,,,,,,,,,,,,,,,,,,,,,,,,,,,,,,,,,,,,,,,,,,,,,,,,,,,,,,,,,,,,,,,,,,,,,,,,,,,,,,,,,,,,,,,,,,,,,,,,,,,,,,,,,,,,
,,6032a88a2b8e882a37cc2766,2024-01-05_23h40.07.180,kallum_motion_pilot,2023.2.3,Win32,7.501875469,6032a88a2b8e882a37cc2766,6598e6a5d84f07970b831e70,6598e792b620423529831e84,0.0491,0.0491,0,112,112,79,1,eightseven,,,,,,,,,,,,,,,,,,,,,,,,,,,,,,,,,,,,,,,,,,,,,,,,,,,,,,,,,,,,,,,,,,,,,,,,,,,,,,,,,,,,,,,,,,,,,,,,,,,,,,,,,,,,,,,,,,,,,,,,,,,,,,,,,,,,,,,
,,6032a88a2b8e882a37cc2766,2024-01-05_23h40.07.180,kallum_motion_pilot,2023.2.3,Win32,7.501875469,6032a88a2b8e882a37cc2766,6598e6a5d84f07970b831e70,6598e792b620423529831e84,0.0492,0.0493,0,113,113,108,1,sevenfive,,,,,,,,,,,,,,,,,,,,,,,,,,,,,,,,,,,,,,,,,,,,,,,,,,,,,,,,,,,,,,,,,,,,,,,,,,,,,,,,,,,,,,,,,,,,,,,,,,,,,,,,,,,,,,,,,,,,,,,,,,,,,,,,,,,,,,,
,,6032a88a2b8e882a37cc2766,2024-01-05_23h40.07.180,kallum_motion_pilot,2023.2.3,Win32,7.501875469,6032a88a2b8e882a37cc2766,6598e6a5d84f07970b831e70,6598e792b620423529831e84,0.0493,0.0494,0,114,114,95,1,eightseven,,,,,,,,,,,,,,,,,,,,,,,,,,,,,,,,,,,,,,,,,,,,,,,,,,,,,,,,,,,,,,,,,,,,,,,,,,,,,,,,,,,,,,,,,,,,,,,,,,,,,,,,,,,,,,,,,,,,,,,,,,,,,,,,,,,,,,,
,,6032a88a2b8e882a37cc2766,2024-01-05_23h40.07.180,kallum_motion_pilot,2023.2.3,Win32,7.501875469,6032a88a2b8e882a37cc2766,6598e6a5d84f07970b831e70,6598e792b620423529831e84,0.0495,0.0496,0,115,115,91,1,sixeight,,,,,,,,,,,,,,,,,,,,,,,,,,,,,,,,,,,,,,,,,,,,,,,,,,,,,,,,,,,,,,,,,,,,,,,,,,,,,,,,,,,,,,,,,,,,,,,,,,,,,,,,,,,,,,,,,,,,,,,,,,,,,,,,,,,,,,,
,,6032a88a2b8e882a37cc2766,2024-01-05_23h40.07.180,kallum_motion_pilot,2023.2.3,Win32,7.501875469,6032a88a2b8e882a37cc2766,6598e6a5d84f07970b831e70,6598e792b620423529831e84,0.0497,0.0498,0,116,116,26,1,twoone,,,,,,,,,,,,,,,,,,,,,,,,,,,,,,,,,,,,,,,,,,,,,,,,,,,,,,,,,,,,,,,,,,,,,,,,,,,,,,,,,,,,,,,,,,,,,,,,,,,,,,,,,,,,,,,,,,,,,,,,,,,,,,,,,,,,,,,
,,6032a88a2b8e882a37cc2766,2024-01-05_23h40.07.180,kallum_motion_pilot,2023.2.3,Win32,7.501875469,6032a88a2b8e882a37cc2766,6598e6a5d84f07970b831e70,6598e792b620423529831e84,0.0499,0.05,0,117,117,17,1,onethree,,,,,,,,,,,,,,,,,,,,,,,,,,,,,,,,,,,,,,,,,,,,,,,,,,,,,,,,,,,,,,,,,,,,,,,,,,,,,,,,,,,,,,,,,,,,,,,,,,,,,,,,,,,,,,,,,,,,,,,,,,,,,,,,,,,,,,,
,,6032a88a2b8e882a37cc2766,2024-01-05_23h40.07.180,kallum_motion_pilot,2023.2.3,Win32,7.501875469,6032a88a2b8e882a37cc2766,6598e6a5d84f07970b831e70,6598e792b620423529831e84,0.0501,0.0502,0,118,118,154,1,sixfive,,,,,,,,,,,,,,,,,,,,,,,,,,,,,,,,,,,,,,,,,,,,,,,,,,,,,,,,,,,,,,,,,,,,,,,,,,,,,,,,,,,,,,,,,,,,,,,,,,,,,,,,,,,,,,,,,,,,,,,,,,,,,,,,,,,,,,,
,,6032a88a2b8e882a37cc2766,2024-01-05_23h40.07.180,kallum_motion_pilot,2023.2.3,Win32,7.501875469,6032a88a2b8e882a37cc2766,6598e6a5d84f07970b831e70,6598e792b620423529831e84,0.0503,0.0504,0,119,119,24,1,onetwo,,,,,,,,,,,,,,,,,,,,,,,,,,,,,,,,,,,,,,,,,,,,,,,,,,,,,,,,,,,,,,,,,,,,,,,,,,,,,,,,,,,,,,,,,,,,,,,,,,,,,,,,,,,,,,,,,,,,,,,,,,,,,,,,,,,,,,,
,,6032a88a2b8e882a37cc2766,2024-01-05_23h40.07.180,kallum_motion_pilot,2023.2.3,Win32,7.501875469,6032a88a2b8e882a37cc2766,6598e6a5d84f07970b831e70,6598e792b620423529831e84,0.0506,0.0506,0,120,120,41,1,onethree,,,,,,,,,,,,,,,,,,,,,,,,,,,,,,,,,,,,,,,,,,,,,,,,,,,,,,,,,,,,,,,,,,,,,,,,,,,,,,,,,,,,,,,,,,,,,,,,,,,,,,,,,,,,,,,,,,,,,,,,,,,,,,,,,,,,,,,
,,6032a88a2b8e882a37cc2766,2024-01-05_23h40.07.180,kallum_motion_pilot,2023.2.3,Win32,7.501875469,6032a88a2b8e882a37cc2766,6598e6a5d84f07970b831e70,6598e792b620423529831e84,0.0508,0.0509,0,121,121,92,1,sevenfive,,,,,,,,,,,,,,,,,,,,,,,,,,,,,,,,,,,,,,,,,,,,,,,,,,,,,,,,,,,,,,,,,,,,,,,,,,,,,,,,,,,,,,,,,,,,,,,,,,,,,,,,,,,,,,,,,,,,,,,,,,,,,,,,,,,,,,,
,,6032a88a2b8e882a37cc2766,2024-01-05_23h40.07.180,kallum_motion_pilot,2023.2.3,Win32,7.501875469,6032a88a2b8e882a37cc2766,6598e6a5d84f07970b831e70,6598e792b620423529831e84,0.0509,0.051,0,122,122,102,1,eightsix,,,,,,,,,,,,,,,,,,,,,,,,,,,,,,,,,,,,,,,,,,,,,,,,,,,,,,,,,,,,,,,,,,,,,,,,,,,,,,,,,,,,,,,,,,,,,,,,,,,,,,,,,,,,,,,,,,,,,,,,,,,,,,,,,,,,,,,
,,6032a88a2b8e882a37cc2766,2024-01-05_23h40.07.180,kallum_motion_pilot,2023.2.3,Win32,7.501875469,6032a88a2b8e882a37cc2766,6598e6a5d84f07970b831e70,6598e792b620423529831e84,0.0512,0.0512,0,123,123,19,1,twofour,,,,,,,,,,,,,,,,,,,,,,,,,,,,,,,,,,,,,,,,,,,,,,,,,,,,,,,,,,,,,,,,,,,,,,,,,,,,,,,,,,,,,,,,,,,,,,,,,,,,,,,,,,,,,,,,,,,,,,,,,,,,,,,,,,,,,,,
,,6032a88a2b8e882a37cc2766,2024-01-05_23h40.07.180,kallum_motion_pilot,2023.2.3,Win32,7.501875469,6032a88a2b8e882a37cc2766,6598e6a5d84f07970b831e70,6598e792b620423529831e84,0.0513,0.0514,0,124,124,104,1,fivesix,,,,,,,,,,,,,,,,,,,,,,,,,,,,,,,,,,,,,,,,,,,,,,,,,,,,,,,,,,,,,,,,,,,,,,,,,,,,,,,,,,,,,,,,,,,,,,,,,,,,,,,,,,,,,,,,,,,,,,,,,,,,,,,,,,,,,,,
,,6032a88a2b8e882a37cc2766,2024-01-05_23h40.07.180,kallum_motion_pilot,2023.2.3,Win32,7.501875469,6032a88a2b8e882a37cc2766,6598e6a5d84f07970b831e70,6598e792b620423529831e84,0.0515,0.0516,0,125,125,6,1,fourtwo,,,,,,,,,,,,,,,,,,,,,,,,,,,,,,,,,,,,,,,,,,,,,,,,,,,,,,,,,,,,,,,,,,,,,,,,,,,,,,,,,,,,,,,,,,,,,,,,,,,,,,,,,,,,,,,,,,,,,,,,,,,,,,,,,,,,,,,
,,6032a88a2b8e882a37cc2766,2024-01-05_23h40.07.180,kallum_motion_pilot,2023.2.3,Win32,7.501875469,6032a88a2b8e882a37cc2766,6598e6a5d84f07970b831e70,6598e792b620423529831e84,0.0516,0.0518,0,126,126,119,1,eightseven,,,,,,,,,,,,,,,,,,,,,,,,,,,,,,,,,,,,,,,,,,,,,,,,,,,,,,,,,,,,,,,,,,,,,,,,,,,,,,,,,,,,,,,,,,,,,,,,,,,,,,,,,,,,,,,,,,,,,,,,,,,,,,,,,,,,,,,
,,6032a88a2b8e882a37cc2766,2024-01-05_23h40.07.180,kallum_motion_pilot,2023.2.3,Win32,7.501875469,6032a88a2b8e882a37cc2766,6598e6a5d84f07970b831e70,6598e792b620423529831e84,0.0519,0.052,0,127,127,86,1,eightsix,,,,,,,,,,,,,,,,,,,,,,,,,,,,,,,,,,,,,,,,,,,,,,,,,,,,,,,,,,,,,,,,,,,,,,,,,,,,,,,,,,,,,,,,,,,,,,,,,,,,,,,,,,,,,,,,,,,,,,,,,,,,,,,,,,,,,,,
,,6032a88a2b8e882a37cc2766,2024-01-05_23h40.07.180,kallum_motion_pilot,2023.2.3,Win32,7.501875469,6032a88a2b8e882a37cc2766,6598e6a5d84f07970b831e70,6598e792b620423529831e84,0.0521,0.0522,0,128,128,54,1,fourtwo,,,,,,,,,,,,,,,,,,,,,,,,,,,,,,,,,,,,,,,,,,,,,,,,,,,,,,,,,,,,,,,,,,,,,,,,,,,,,,,,,,,,,,,,,,,,,,,,,,,,,,,,,,,,,,,,,,,,,,,,,,,,,,,,,,,,,,,
,,6032a88a2b8e882a37cc2766,2024-01-05_23h40.07.180,kallum_motion_pilot,2023.2.3,Win32,7.501875469,6032a88a2b8e882a37cc2766,6598e6a5d84f07970b831e70,6598e792b620423529831e84,0.0523,0.0524,0,129,129,51,1,twofour,,,,,,,,,,,,,,,,,,,,,,,,,,,,,,,,,,,,,,,,,,,,,,,,,,,,,,,,,,,,,,,,,,,,,,,,,,,,,,,,,,,,,,,,,,,,,,,,,,,,,,,,,,,,,,,,,,,,,,,,,,,,,,,,,,,,,,,
,,6032a88a2b8e882a37cc2766,2024-01-05_23h40.07.180,kallum_motion_pilot,2023.2.3,Win32,7.501875469,6032a88a2b8e882a37cc2766,6598e6a5d84f07970b831e70,6598e792b620423529831e84,0.0525,0.0525,0,130,130,120,1,fivesix,,,,,,,,,,,,,,,,,,,,,,,,,,,,,,,,,,,,,,,,,,,,,,,,,,,,,,,,,,,,,,,,,,,,,,,,,,,,,,,,,,,,,,,,,,,,,,,,,,,,,,,,,,,,,,,,,,,,,,,,,,,,,,,,,,,,,,,
,,6032a88a2b8e882a37cc2766,2024-01-05_23h40.07.180,kallum_motion_pilot,2023.2.3,Win32,7.501875469,6032a88a2b8e882a37cc2766,6598e6a5d84f07970b831e70,6598e792b620423529831e84,0.0528,0.0529,0,131,131,161,1,fiveseven,,,,,,,,,,,,,,,,,,,,,,,,,,,,,,,,,,,,,,,,,,,,,,,,,,,,,,,,,,,,,,,,,,,,,,,,,,,,,,,,,,,,,,,,,,,,,,,,,,,,,,,,,,,,,,,,,,,,,,,,,,,,,,,,,,,,,,,
,,6032a88a2b8e882a37cc2766,2024-01-05_23h40.07.180,kallum_motion_pilot,2023.2.3,Win32,7.501875469,6032a88a2b8e882a37cc2766,6598e6a5d84f07970b831e70,6598e792b620423529831e84,0.0529,0.0531,0,132,132,131,1,sixeight,,,,,,,,,,,,,,,,,,,,,,,,,,,,,,,,,,,,,,,,,,,,,,,,,,,,,,,,,,,,,,,,,,,,,,,,,,,,,,,,,,,,,,,,,,,,,,,,,,,,,,,,,,,,,,,,,,,,,,,,,,,,,,,,,,,,,,,
,,6032a88a2b8e882a37cc2766,2024-01-05_23h40.07.180,kallum_motion_pilot,2023.2.3,Win32,7.501875469,6032a88a2b8e882a37cc2766,6598e6a5d84f07970b831e70,6598e792b620423529831e84,0.0532,0.0532,0,133,133,65,1,onethree,,,,,,,,,,,,,,,,,,,,,,,,,,,,,,,,,,,,,,,,,,,,,,,,,,,,,,,,,,,,,,,,,,,,,,,,,,,,,,,,,,,,,,,,,,,,,,,,,,,,,,,,,,,,,,,,,,,,,,,,,,,,,,,,,,,,,,,
,,6032a88a2b8e882a37cc2766,2024-01-05_23h40.07.180,kallum_motion_pilot,2023.2.3,Win32,7.501875469,6032a88a2b8e882a37cc2766,6598e6a5d84f07970b831e70,6598e792b620423529831e84,0.0533,0.0534,0,134,134,57,1,onethree,,,,,,,,,,,,,,,,,,,,,,,,,,,,,,,,,,,,,,,,,,,,,,,,,,,,,,,,,,,,,,,,,,,,,,,,,,,,,,,,,,,,,,,,,,,,,,,,,,,,,,,,,,,,,,,,,,,,,,,,,,,,,,,,,,,,,,,
,,6032a88a2b8e882a37cc2766,2024-01-05_23h40.07.180,kallum_motion_pilot,2023.2.3,Win32,7.501875469,6032a88a2b8e882a37cc2766,6598e6a5d84f07970b831e70,6598e792b620423529831e84,0.0536,0.0537,0,135,135,129,1,fiveseven,,,,,,,,,,,,,,,,,,,,,,,,,,,,,,,,,,,,,,,,,,,,,,,,,,,,,,,,,,,,,,,,,,,,,,,,,,,,,,,,,,,,,,,,,,,,,,,,,,,,,,,,,,,,,,,,,,,,,,,,,,,,,,,,,,,,,,,
,,6032a88a2b8e882a37cc2766,2024-01-05_23h40.07.180,kallum_motion_pilot,2023.2.3,Win32,7.501875469,6032a88a2b8e882a37cc2766,6598e6a5d84f07970b831e70,6598e792b620423529831e84,0.0538,0.0539,0,136,136,146,1,sixfive,,,,,,,,,,,,,,,,,,,,,,,,,,,,,,,,,,,,,,,,,,,,,,,,,,,,,,,,,,,,,,,,,,,,,,,,,,,,,,,,,,,,,,,,,,,,,,,,,,,,,,,,,,,,,,,,,,,,,,,,,,,,,,,,,,,,,,,
,,6032a88a2b8e882a37cc2766,2024-01-05_23h40.07.180,kallum_motion_pilot,2023.2.3,Win32,7.501875469,6032a88a2b8e882a37cc2766,6598e6a5d84f07970b831e70,6598e792b620423529831e84,0.054,0.0542,0,137,137,103,1,eightseven,,,,,,,,,,,,,,,,,,,,,,,,,,,,,,,,,,,,,,,,,,,,,,,,,,,,,,,,,,,,,,,,,,,,,,,,,,,,,,,,,,,,,,,,,,,,,,,,,,,,,,,,,,,,,,,,,,,,,,,,,,,,,,,,,,,,,,,
,,6032a88a2b8e882a37cc2766,2024-01-05_23h40.07.180,kallum_motion_pilot,2023.2.3,Win32,7.501875469,6032a88a2b8e882a37cc2766,6598e6a5d84f07970b831e70,6598e792b620423529831e84,0.0544,0.0544,0,138,138,80,1,fivesix,,,,,,,,,,,,,,,,,,,,,,,,,,,,,,,,,,,,,,,,,,,,,,,,,,,,,,,,,,,,,,,,,,,,,,,,,,,,,,,,,,,,,,,,,,,,,,,,,,,,,,,,,,,,,,,,,,,,,,,,,,,,,,,,,,,,,,,
,,6032a88a2b8e882a37cc2766,2024-01-05_23h40.07.180,kallum_motion_pilot,2023.2.3,Win32,7.501875469,6032a88a2b8e882a37cc2766,6598e6a5d84f07970b831e70,6598e792b620423529831e84,0.0547,0.0547,0,139,139,67,1,twofour,,,,,,,,,,,,,,,,,,,,,,,,,,,,,,,,,,,,,,,,,,,,,,,,,,,,,,,,,,,,,,,,,,,,,,,,,,,,,,,,,,,,,,,,,,,,,,,,,,,,,,,,,,,,,,,,,,,,,,,,,,,,,,,,,,,,,,,
,,6032a88a2b8e882a37cc2766,2024-01-05_23h40.07.180,kallum_motion_pilot,2023.2.3,Win32,7.501875469,6032a88a2b8e882a37cc2766,6598e6a5d84f07970b831e70,6598e792b620423529831e84,0.0548,0.055,0,140,140,21,1,threefour,,,,,,,,,,,,,,,,,,,,,,,,,,,,,,,,,,,,,,,,,,,,,,,,,,,,,,,,,,,,,,,,,,,,,,,,,,,,,,,,,,,,,,,,,,,,,,,,,,,,,,,,,,,,,,,,,,,,,,,,,,,,,,,,,,,,,,,
,,6032a88a2b8e882a37cc2766,2024-01-05_23h40.07.180,kallum_motion_pilot,2023.2.3,Win32,7.501875469,6032a88a2b8e882a37cc2766,6598e6a5d84f07970b831e70,6598e792b620423529831e84,0.0551,0.0551,0,141,141,126,1,eightsix,,,,,,,,,,,,,,,,,,,,,,,,,,,,,,,,,,,,,,,,,,,,,,,,,,,,,,,,,,,,,,,,,,,,,,,,,,,,,,,,,,,,,,,,,,,,,,,,,,,,,,,,,,,,,,,,,,,,,,,,,,,,,,,,,,,,,,,
,,6032a88a2b8e882a37cc2766,2024-01-05_23h40.07.180,kallum_motion_pilot,2023.2.3,Win32,7.501875469,6032a88a2b8e882a37cc2766,6598e6a5d84f07970b831e70,6598e792b620423529831e84,0.0553,0.0554,0,142,142,150,1,eightsix,,,,,,,,,,,,,,,,,,,,,,,,,,,,,,,,,,,,,,,,,,,,,,,,,,,,,,,,,,,,,,,,,,,,,,,,,,,,,,,,,,,,,,,,,,,,,,,,,,,,,,,,,,,,,,,,,,,,,,,,,,,,,,,,,,,,,,,
,,6032a88a2b8e882a37cc2766,2024-01-05_23h40.07.180,kallum_motion_pilot,2023.2.3,Win32,7.501875469,6032a88a2b8e882a37cc2766,6598e6a5d84f07970b831e70,6598e792b620423529831e84,0.0556,0.0556,0,143,143,22,1,fourtwo,,,,,,,,,,,,,,,,,,,,,,,,,,,,,,,,,,,,,,,,,,,,,,,,,,,,,,,,,,,,,,,,,,,,,,,,,,,,,,,,,,,,,,,,,,,,,,,,,,,,,,,,,,,,,,,,,,,,,,,,,,,,,,,,,,,,,,,
,,6032a88a2b8e882a37cc2766,2024-01-05_23h40.07.180,kallum_motion_pilot,2023.2.3,Win32,7.501875469,6032a88a2b8e882a37cc2766,6598e6a5d84f07970b831e70,6598e792b620423529831e84,0.0558,0.0559,0,144,144,2,1,twoone,,,,,,,,,,,,,,,,,,,,,,,,,,,,,,,,,,,,,,,,,,,,,,,,,,,,,,,,,,,,,,,,,,,,,,,,,,,,,,,,,,,,,,,,,,,,,,,,,,,,,,,,,,,,,,,,,,,,,,,,,,,,,,,,,,,,,,,
,,6032a88a2b8e882a37cc2766,2024-01-05_23h40.07.180,kallum_motion_pilot,2023.2.3,Win32,7.501875469,6032a88a2b8e882a37cc2766,6598e6a5d84f07970b831e70,6598e792b620423529831e84,0.0561,0.0561,0,145,145,72,1,onetwo,,,,,,,,,,,,,,,,,,,,,,,,,,,,,,,,,,,,,,,,,,,,,,,,,,,,,,,,,,,,,,,,,,,,,,,,,,,,,,,,,,,,,,,,,,,,,,,,,,,,,,,,,,,,,,,,,,,,,,,,,,,,,,,,,,,,,,,
,,6032a88a2b8e882a37cc2766,2024-01-05_23h40.07.180,kallum_motion_pilot,2023.2.3,Win32,7.501875469,6032a88a2b8e882a37cc2766,6598e6a5d84f07970b831e70,6598e792b620423529831e84,0.0563,0.0564,0,146,146,116,1,sevenfive,,,,,,,,,,,,,,,,,,,,,,,,,,,,,,,,,,,,,,,,,,,,,,,,,,,,,,,,,,,,,,,,,,,,,,,,,,,,,,,,,,,,,,,,,,,,,,,,,,,,,,,,,,,,,,,,,,,,,,,,,,,,,,,,,,,,,,,
,,6032a88a2b8e882a37cc2766,2024-01-05_23h40.07.180,kallum_motion_pilot,2023.2.3,Win32,7.501875469,6032a88a2b8e882a37cc2766,6598e6a5d84f07970b831e70,6598e792b620423529831e84,0.0567,0.0568,0,147,147,52,1,threeone,,,,,,,,,,,,,,,,,,,,,,,,,,,,,,,,,,,,,,,,,,,,,,,,,,,,,,,,,,,,,,,,,,,,,,,,,,,,,,,,,,,,,,,,,,,,,,,,,,,,,,,,,,,,,,,,,,,,,,,,,,,,,,,,,,,,,,,
,,6032a88a2b8e882a37cc2766,2024-01-05_23h40.07.180,kallum_motion_pilot,2023.2.3,Win32,7.501875469,6032a88a2b8e882a37cc2766,6598e6a5d84f07970b831e70,6598e792b620423529831e84,0.0569,0.057,0,148,148,66,1,twoone,,,,,,,,,,,,,,,,,,,,,,,,,,,,,,,,,,,,,,,,,,,,,,,,,,,,,,,,,,,,,,,,,,,,,,,,,,,,,,,,,,,,,,,,,,,,,,,,,,,,,,,,,,,,,,,,,,,,,,,,,,,,,,,,,,,,,,,
,,6032a88a2b8e882a37cc2766,2024-01-05_23h40.07.180,kallum_motion_pilot,2023.2.3,Win32,7.501875469,6032a88a2b8e882a37cc2766,6598e6a5d84f07970b831e70,6598e792b620423529831e84,0.0571,0.0572,0,149,149,111,1,eightseven,,,,,,,,,,,,,,,,,,,,,,,,,,,,,,,,,,,,,,,,,,,,,,,,,,,,,,,,,,,,,,,,,,,,,,,,,,,,,,,,,,,,,,,,,,,,,,,,,,,,,,,,,,,,,,,,,,,,,,,,,,,,,,,,,,,,,,,
,,6032a88a2b8e882a37cc2766,2024-01-05_23h40.07.180,kallum_motion_pilot,2023.2.3,Win32,7.501875469,6032a88a2b8e882a37cc2766,6598e6a5d84f07970b831e70,6598e792b620423529831e84,0.0573,0.0574,0,150,150,5,1,threefour,,,,,,,,,,,,,,,,,,,,,,,,,,,,,,,,,,,,,,,,,,,,,,,,,,,,,,,,,,,,,,,,,,,,,,,,,,,,,,,,,,,,,,,,,,,,,,,,,,,,,,,,,,,,,,,,,,,,,,,,,,,,,,,,,,,,,,,
,,6032a88a2b8e882a37cc2766,2024-01-05_23h40.07.180,kallum_motion_pilot,2023.2.3,Win32,7.501875469,6032a88a2b8e882a37cc2766,6598e6a5d84f07970b831e70,6598e792b620423529831e84,0.0574,0.0575,0,151,151,28,1,threeone,,,,,,,,,,,,,,,,,,,,,,,,,,,,,,,,,,,,,,,,,,,,,,,,,,,,,,,,,,,,,,,,,,,,,,,,,,,,,,,,,,,,,,,,,,,,,,,,,,,,,,,,,,,,,,,,,,,,,,,,,,,,,,,,,,,,,,,
,,6032a88a2b8e882a37cc2766,2024-01-05_23h40.07.180,kallum_motion_pilot,2023.2.3,Win32,7.501875469,6032a88a2b8e882a37cc2766,6598e6a5d84f07970b831e70,6598e792b620423529831e84,0.0576,0.0578,0,152,152,105,1,fiveseven,,,,,,,,,,,,,,,,,,,,,,,,,,,,,,,,,,,,,,,,,,,,,,,,,,,,,,,,,,,,,,,,,,,,,,,,,,,,,,,,,,,,,,,,,,,,,,,,,,,,,,,,,,,,,,,,,,,,,,,,,,,,,,,,,,,,,,,
,,6032a88a2b8e882a37cc2766,2024-01-05_23h40.07.180,kallum_motion_pilot,2023.2.3,Win32,7.501875469,6032a88a2b8e882a37cc2766,6598e6a5d84f07970b831e70,6598e792b620423529831e84,0.058,0.058,0,153,153,93,1,seveneight,,,,,,,,,,,,,,,,,,,,,,,,,,,,,,,,,,,,,,,,,,,,,,,,,,,,,,,,,,,,,,,,,,,,,,,,,,,,,,,,,,,,,,,,,,,,,,,,,,,,,,,,,,,,,,,,,,,,,,,,,,,,,,,,,,,,,,,
,,6032a88a2b8e882a37cc2766,2024-01-05_23h40.07.180,kallum_motion_pilot,2023.2.3,Win32,7.501875469,6032a88a2b8e882a37cc2766,6598e6a5d84f07970b831e70,6598e792b620423529831e84,0.0583,0.0584,0,154,154,23,1,fourthree,,,,,,,,,,,,,,,,,,,,,,,,,,,,,,,,,,,,,,,,,,,,,,,,,,,,,,,,,,,,,,,,,,,,,,,,,,,,,,,,,,,,,,,,,,,,,,,,,,,,,,,,,,,,,,,,,,,,,,,,,,,,,,,,,,,,,,,
,,6032a88a2b8e882a37cc2766,2024-01-05_23h40.07.180,kallum_motion_pilot,2023.2.3,Win32,7.501875469,6032a88a2b8e882a37cc2766,6598e6a5d84f07970b831e70,6598e792b620423529831e84,0.0587,0.0587,0,155,155,159,1,eightseven,,,,,,,,,,,,,,,,,,,,,,,,,,,,,,,,,,,,,,,,,,,,,,,,,,,,,,,,,,,,,,,,,,,,,,,,,,,,,,,,,,,,,,,,,,,,,,,,,,,,,,,,,,,,,,,,,,,,,,,,,,,,,,,,,,,,,,,
,,6032a88a2b8e882a37cc2766,2024-01-05_23h40.07.180,kallum_motion_pilot,2023.2.3,Win32,7.501875469,6032a88a2b8e882a37cc2766,6598e6a5d84f07970b831e70,6598e792b620423529831e84,0.059,0.0591,0,156,156,89,1,fiveseven,,,,,,,,,,,,,,,,,,,,,,,,,,,,,,,,,,,,,,,,,,,,,,,,,,,,,,,,,,,,,,,,,,,,,,,,,,,,,,,,,,,,,,,,,,,,,,,,,,,,,,,,,,,,,,,,,,,,,,,,,,,,,,,,,,,,,,,
,,6032a88a2b8e882a37cc2766,2024-01-05_23h40.07.180,kallum_motion_pilot,2023.2.3,Win32,7.501875469,6032a88a2b8e882a37cc2766,6598e6a5d84f07970b831e70,6598e792b620423529831e84,0.0592,0.0593,0,157,157,13,1,threefour,,,,,,,,,,,,,,,,,,,,,,,,,,,,,,,,,,,,,,,,,,,,,,,,,,,,,,,,,,,,,,,,,,,,,,,,,,,,,,,,,,,,,,,,,,,,,,,,,,,,,,,,,,,,,,,,,,,,,,,,,,,,,,,,,,,,,,,
,,6032a88a2b8e882a37cc2766,2024-01-05_23h40.07.180,kallum_motion_pilot,2023.2.3,Win32,7.501875469,6032a88a2b8e882a37cc2766,6598e6a5d84f07970b831e70,6598e792b620423529831e84,0.0595,0.0596,0,158,158,132,1,sevenfive,,,,,,,,,,,,,,,,,,,,,,,,,,,,,,,,,,,,,,,,,,,,,,,,,,,,,,,,,,,,,,,,,,,,,,,,,,,,,,,,,,,,,,,,,,,,,,,,,,,,,,,,,,,,,,,,,,,,,,,,,,,,,,,,,,,,,,,
,,6032a88a2b8e882a37cc2766,2024-01-05_23h40.07.180,kallum_motion_pilot,2023.2.3,Win32,7.501875469,6032a88a2b8e882a37cc2766,6598e6a5d84f07970b831e70,6598e792b620423529831e84,0.0597,0.0598,0,159,159,106,1,sixfive,,,,,,,,,,,,,,,,,,,,,,,,,,,,,,,,,,,,,,,,,,,,,,,,,,,,,,,,,,,,,,,,,,,,,,,,,,,,,,,,,,,,,,,,,,,,,,,,,,,,,,,,,,,,,,,,,,,,,,,,,,,,,,,,,,,,,,,
,,6032a88a2b8e882a37cc2766,2024-01-05_23h40.07.180,kallum_motion_pilot,2023.2.3,Win32,7.501875469,6032a88a2b8e882a37cc2766,6598e6a5d84f07970b831e70,6598e792b620423529831e84,0.0599,0.06,0,160,160,123,1,sixeight,,,,,,,,,,,,,,,,,,,,,,,,,,,,,,,,,,,,,,,,,,,,,,,,,,,,,,,,,,,,,,,,,,,,,,,,,,,,,,,,,,,,,,,,,,,,,,,,,,,,,,,,,,,,,,,,,,,,,,,,,,,,,,,,,,,,,,,
,,6032a88a2b8e882a37cc2766,2024-01-05_23h40.07.180,kallum_motion_pilot,2023.2.3,Win32,7.501875469,6032a88a2b8e882a37cc2766,6598e6a5d84f07970b831e70,6598e792b620423529831e84,0.0601,0.0601,0,161,161,114,1,sixfive,,,,,,,,,,,,,,,,,,,,,,,,,,,,,,,,,,,,,,,,,,,,,,,,,,,,,,,,,,,,,,,,,,,,,,,,,,,,,,,,,,,,,,,,,,,,,,,,,,,,,,,,,,,,,,,,,,,,,,,,,,,,,,,,,,,,,,,
,,6032a88a2b8e882a37cc2766,2024-01-05_23h40.07.180,kallum_motion_pilot,2023.2.3,Win32,7.501875469,6032a88a2b8e882a37cc2766,6598e6a5d84f07970b831e70,6598e792b620423529831e84,0.0603,0.0604,1,0,162,156,1,sevenfive,,,,,,,,,,,,,,,,,,,,,,,,,,,,,,,,,,,,,,,,,,,,,,,,,,,,,,,,,,,,,,,,,,,,,,,,,,,,,,,,,,,,,,,,,,,,,,,,,,,,,,,,,,,,,,,,,,,,,,,,,,,,,,,,,,,,,,,
,,6032a88a2b8e882a37cc2766,2024-01-05_23h40.07.180,kallum_motion_pilot,2023.2.3,Win32,7.501875469,6032a88a2b8e882a37cc2766,6598e6a5d84f07970b831e70,6598e792b620423529831e84,0.0605,0.0606,1,1,163,153,1,fiveseven,,,,,,,,,,,,,,,,,,,,,,,,,,,,,,,,,,,,,,,,,,,,,,,,,,,,,,,,,,,,,,,,,,,,,,,,,,,,,,,,,,,,,,,,,,,,,,,,,,,,,,,,,,,,,,,,,,,,,,,,,,,,,,,,,,,,,,,
,,6032a88a2b8e882a37cc2766,2024-01-05_23h40.07.180,kallum_motion_pilot,2023.2.3,Win32,7.501875469,6032a88a2b8e882a37cc2766,6598e6a5d84f07970b831e70,6598e792b620423529831e84,0.0607,0.0609,1,2,164,115,1,sixeight,,,,,,,,,,,,,,,,,,,,,,,,,,,,,,,,,,,,,,,,,,,,,,,,,,,,,,,,,,,,,,,,,,,,,,,,,,,,,,,,,,,,,,,,,,,,,,,,,,,,,,,,,,,,,,,,,,,,,,,,,,,,,,,,,,,,,,,
,,6032a88a2b8e882a37cc2766,2024-01-05_23h40.07.180,kallum_motion_pilot,2023.2.3,Win32,7.501875469,6032a88a2b8e882a37cc2766,6598e6a5d84f07970b831e70,6598e792b620423529831e84,0.061,0.0611,1,3,165,109,1,seveneight,,,,,,,,,,,,,,,,,,,,,,,,,,,,,,,,,,,,,,,,,,,,,,,,,,,,,,,,,,,,,,,,,,,,,,,,,,,,,,,,,,,,,,,,,,,,,,,,,,,,,,,,,,,,,,,,,,,,,,,,,,,,,,,,,,,,,,,
,,6032a88a2b8e882a37cc2766,2024-01-05_23h40.07.180,kallum_motion_pilot,2023.2.3,Win32,7.501875469,6032a88a2b8e882a37cc2766,6598e6a5d84f07970b831e70,6598e792b620423529831e84,0.0613,0.0614,1,4,166,99,1,sixeight,,,,,,,,,,,,,,,,,,,,,,,,,,,,,,,,,,,,,,,,,,,,,,,,,,,,,,,,,,,,,,,,,,,,,,,,,,,,,,,,,,,,,,,,,,,,,,,,,,,,,,,,,,,,,,,,,,,,,,,,,,,,,,,,,,,,,,,
,,6032a88a2b8e882a37cc2766,2024-01-05_23h40.07.180,kallum_motion_pilot,2023.2.3,Win32,7.501875469,6032a88a2b8e882a37cc2766,6598e6a5d84f07970b831e70,6598e792b620423529831e84,0.0615,0.0615,1,5,167,150,1,eightsix,,,,,,,,,,,,,,,,,,,,,,,,,,,,,,,,,,,,,,,,,,,,,,,,,,,,,,,,,,,,,,,,,,,,,,,,,,,,,,,,,,,,,,,,,,,,,,,,,,,,,,,,,,,,,,,,,,,,,,,,,,,,,,,,,,,,,,,
,,6032a88a2b8e882a37cc2766,2024-01-05_23h40.07.180,kallum_motion_pilot,2023.2.3,Win32,7.501875469,6032a88a2b8e882a37cc2766,6598e6a5d84f07970b831e70,6598e792b620423529831e84,0.0618,0.0619,1,6,168,130,1,sixfive,,,,,,,,,,,,,,,,,,,,,,,,,,,,,,,,,,,,,,,,,,,,,,,,,,,,,,,,,,,,,,,,,,,,,,,,,,,,,,,,,,,,,,,,,,,,,,,,,,,,,,,,,,,,,,,,,,,,,,,,,,,,,,,,,,,,,,,
,,6032a88a2b8e882a37cc2766,2024-01-05_23h40.07.180,kallum_motion_pilot,2023.2.3,Win32,7.501875469,6032a88a2b8e882a37cc2766,6598e6a5d84f07970b831e70,6598e792b620423529831e84,0.062,0.062,1,7,169,54,1,fourtwo,,,,,,,,,,,,,,,,,,,,,,,,,,,,,,,,,,,,,,,,,,,,,,,,,,,,,,,,,,,,,,,,,,,,,,,,,,,,,,,,,,,,,,,,,,,,,,,,,,,,,,,,,,,,,,,,,,,,,,,,,,,,,,,,,,,,,,,
,,6032a88a2b8e882a37cc2766,2024-01-05_23h40.07.180,kallum_motion_pilot,2023.2.3,Win32,7.501875469,6032a88a2b8e882a37cc2766,6598e6a5d84f07970b831e70,6598e792b620423529831e84,0.0622,0.0622,1,8,170,3,1,twofour,,,,,,,,,,,,,,,,,,,,,,,,,,,,,,,,,,,,,,,,,,,,,,,,,,,,,,,,,,,,,,,,,,,,,,,,,,,,,,,,,,,,,,,,,,,,,,,,,,,,,,,,,,,,,,,,,,,,,,,,,,,,,,,,,,,,,,,
,,6032a88a2b8e882a37cc2766,2024-01-05_23h40.07.180,kallum_motion_pilot,2023.2.3,Win32,7.501875469,6032a88a2b8e882a37cc2766,6598e6a5d84f07970b831e70,6598e792b620423529831e84,0.0624,0.0624,1,9,171,128,1,fivesix,,,,,,,,,,,,,,,,,,,,,,,,,,,,,,,,,,,,,,,,,,,,,,,,,,,,,,,,,,,,,,,,,,,,,,,,,,,,,,,,,,,,,,,,,,,,,,,,,,,,,,,,,,,,,,,,,,,,,,,,,,,,,,,,,,,,,,,
,,6032a88a2b8e882a37cc2766,2024-01-05_23h40.07.180,kallum_motion_pilot,2023.2.3,Win32,7.501875469,6032a88a2b8e882a37cc2766,6598e6a5d84f07970b831e70,6598e792b620423529831e84,0.0626,0.0626,1,10,172,23,1,fourthree,,,,,,,,,,,,,,,,,,,,,,,,,,,,,,,,,,,,,,,,,,,,,,,,,,,,,,,,,,,,,,,,,,,,,,,,,,,,,,,,,,,,,,,,,,,,,,,,,,,,,,,,,,,,,,,,,,,,,,,,,,,,,,,,,,,,,,,
,,6032a88a2b8e882a37cc2766,2024-01-05_23h40.07.180,kallum_motion_pilot,2023.2.3,Win32,7.501875469,6032a88a2b8e882a37cc2766,6598e6a5d84f07970b831e70,6598e792b620423529831e84,0.0628,0.0629,1,11,173,154,1,sixfive,,,,,,,,,,,,,,,,,,,,,,,,,,,,,,,,,,,,,,,,,,,,,,,,,,,,,,,,,,,,,,,,,,,,,,,,,,,,,,,,,,,,,,,,,,,,,,,,,,,,,,,,,,,,,,,,,,,,,,,,,,,,,,,,,,,,,,,
,,6032a88a2b8e882a37cc2766,2024-01-05_23h40.07.180,kallum_motion_pilot,2023.2.3,Win32,7.501875469,6032a88a2b8e882a37cc2766,6598e6a5d84f07970b831e70,6598e792b620423529831e84,0.063,0.0631,1,12,174,161,1,fiveseven,,,,,,,,,,,,,,,,,,,,,,,,,,,,,,,,,,,,,,,,,,,,,,,,,,,,,,,,,,,,,,,,,,,,,,,,,,,,,,,,,,,,,,,,,,,,,,,,,,,,,,,,,,,,,,,,,,,,,,,,,,,,,,,,,,,,,,,
,,6032a88a2b8e882a37cc2766,2024-01-05_23h40.07.180,kallum_motion_pilot,2023.2.3,Win32,7.501875469,6032a88a2b8e882a37cc2766,6598e6a5d84f07970b831e70,6598e792b620423529831e84,0.0633,0.0633,1,13,175,15,1,fourthree,,,,,,,,,,,,,,,,,,,,,,,,,,,,,,,,,,,,,,,,,,,,,,,,,,,,,,,,,,,,,,,,,,,,,,,,,,,,,,,,,,,,,,,,,,,,,,,,,,,,,,,,,,,,,,,,,,,,,,,,,,,,,,,,,,,,,,,
,,6032a88a2b8e882a37cc2766,2024-01-05_23h40.07.180,kallum_motion_pilot,2023.2.3,Win32,7.501875469,6032a88a2b8e882a37cc2766,6598e6a5d84f07970b831e70,6598e792b620423529831e84,0.0635,0.0636,1,14,176,25,1,onethree,,,,,,,,,,,,,,,,,,,,,,,,,,,,,,,,,,,,,,,,,,,,,,,,,,,,,,,,,,,,,,,,,,,,,,,,,,,,,,,,,,,,,,,,,,,,,,,,,,,,,,,,,,,,,,,,,,,,,,,,,,,,,,,,,,,,,,,
,,6032a88a2b8e882a37cc2766,2024-01-05_23h40.07.180,kallum_motion_pilot,2023.2.3,Win32,7.501875469,6032a88a2b8e882a37cc2766,6598e6a5d84f07970b831e70,6598e792b620423529831e84,0.0637,0.0638,1,15,177,87,1,eightseven,,,,,,,,,,,,,,,,,,,,,,,,,,,,,,,,,,,,,,,,,,,,,,,,,,,,,,,,,,,,,,,,,,,,,,,,,,,,,,,,,,,,,,,,,,,,,,,,,,,,,,,,,,,,,,,,,,,,,,,,,,,,,,,,,,,,,,,
,,6032a88a2b8e882a37cc2766,2024-01-05_23h40.07.180,kallum_motion_pilot,2023.2.3,Win32,7.501875469,6032a88a2b8e882a37cc2766,6598e6a5d84f07970b831e70,6598e792b620423529831e84,0.0639,0.064,1,16,178,22,1,fourtwo,,,,,,,,,,,,,,,,,,,,,,,,,,,,,,,,,,,,,,,,,,,,,,,,,,,,,,,,,,,,,,,,,,,,,,,,,,,,,,,,,,,,,,,,,,,,,,,,,,,,,,,,,,,,,,,,,,,,,,,,,,,,,,,,,,,,,,,
,,6032a88a2b8e882a37cc2766,2024-01-05_23h40.07.180,kallum_motion_pilot,2023.2.3,Win32,7.501875469,6032a88a2b8e882a37cc2766,6598e6a5d84f07970b831e70,6598e792b620423529831e84,0.0641,0.0641,1,17,179,59,1,twofour,,,,,,,,,,,,,,,,,,,,,,,,,,,,,,,,,,,,,,,,,,,,,,,,,,,,,,,,,,,,,,,,,,,,,,,,,,,,,,,,,,,,,,,,,,,,,,,,,,,,,,,,,,,,,,,,,,,,,,,,,,,,,,,,,,,,,,,
,,6032a88a2b8e882a37cc2766,2024-01-05_23h40.07.180,kallum_motion_pilot,2023.2.3,Win32,7.501875469,6032a88a2b8e882a37cc2766,6598e6a5d84f07970b831e70,6598e792b620423529831e84,0.0643,0.0644,1,18,180,141,1,seveneight,,,,,,,,,,,,,,,,,,,,,,,,,,,,,,,,,,,,,,,,,,,,,,,,,,,,,,,,,,,,,,,,,,,,,,,,,,,,,,,,,,,,,,,,,,,,,,,,,,,,,,,,,,,,,,,,,,,,,,,,,,,,,,,,,,,,,,,
,,6032a88a2b8e882a37cc2766,2024-01-05_23h40.07.180,kallum_motion_pilot,2023.2.3,Win32,7.501875469,6032a88a2b8e882a37cc2766,6598e6a5d84f07970b831e70,6598e792b620423529831e84,0.0645,0.0646,1,19,181,64,1,onetwo,,,,,,,,,,,,,,,,,,,,,,,,,,,,,,,,,,,,,,,,,,,,,,,,,,,,,,,,,,,,,,,,,,,,,,,,,,,,,,,,,,,,,,,,,,,,,,,,,,,,,,,,,,,,,,,,,,,,,,,,,,,,,,,,,,,,,,,
,,6032a88a2b8e882a37cc2766,2024-01-05_23h40.07.180,kallum_motion_pilot,2023.2.3,Win32,7.501875469,6032a88a2b8e882a37cc2766,6598e6a5d84f07970b831e70,6598e792b620423529831e84,0.0646,0.0647,1,20,182,79,1,eightseven,,,,,,,,,,,,,,,,,,,,,,,,,,,,,,,,,,,,,,,,,,,,,,,,,,,,,,,,,,,,,,,,,,,,,,,,,,,,,,,,,,,,,,,,,,,,,,,,,,,,,,,,,,,,,,,,,,,,,,,,,,,,,,,,,,,,,,,
,,6032a88a2b8e882a37cc2766,2024-01-05_23h40.07.180,kallum_motion_pilot,2023.2.3,Win32,7.501875469,6032a88a2b8e882a37cc2766,6598e6a5d84f07970b831e70,6598e792b620423529831e84,0.0648,0.0649,1,21,183,52,1,threeone,,,,,,,,,,,,,,,,,,,,,,,,,,,,,,,,,,,,,,,,,,,,,,,,,,,,,,,,,,,,,,,,,,,,,,,,,,,,,,,,,,,,,,,,,,,,,,,,,,,,,,,,,,,,,,,,,,,,,,,,,,,,,,,,,,,,,,,
,,6032a88a2b8e882a37cc2766,2024-01-05_23h40.07.180,kallum_motion_pilot,2023.2.3,Win32,7.501875469,6032a88a2b8e882a37cc2766,6598e6a5d84f07970b831e70,6598e792b620423529831e84,0.0651,0.0652,1,22,184,82,1,sixfive,,,,,,,,,,,,,,,,,,,,,,,,,,,,,,,,,,,,,,,,,,,,,,,,,,,,,,,,,,,,,,,,,,,,,,,,,,,,,,,,,,,,,,,,,,,,,,,,,,,,,,,,,,,,,,,,,,,,,,,,,,,,,,,,,,,,,,,
,,6032a88a2b8e882a37cc2766,2024-01-05_23h40.07.180,kallum_motion_pilot,2023.2.3,Win32,7.501875469,6032a88a2b8e882a37cc2766,6598e6a5d84f07970b831e70,6598e792b620423529831e84,0.0653,0.0654,1,23,185,85,1,seveneight,,,,,,,,,,,,,,,,,,,,,,,,,,,,,,,,,,,,,,,,,,,,,,,,,,,,,,,,,,,,,,,,,,,,,,,,,,,,,,,,,,,,,,,,,,,,,,,,,,,,,,,,,,,,,,,,,,,,,,,,,,,,,,,,,,,,,,,
,,6032a88a2b8e882a37cc2766,2024-01-05_23h40.07.180,kallum_motion_pilot,2023.2.3,Win32,7.501875469,6032a88a2b8e882a37cc2766,6598e6a5d84f07970b831e70,6598e792b620423529831e84,0.0656,0.0657,1,24,186,86,1,eightsix,,,,,,,,,,,,,,,,,,,,,,,,,,,,,,,,,,,,,,,,,,,,,,,,,,,,,,,,,,,,,,,,,,,,,,,,,,,,,,,,,,,,,,,,,,,,,,,,,,,,,,,,,,,,,,,,,,,,,,,,,,,,,,,,,,,,,,,
,,6032a88a2b8e882a37cc2766,2024-01-05_23h40.07.180,kallum_motion_pilot,2023.2.3,Win32,7.501875469,6032a88a2b8e882a37cc2766,6598e6a5d84f07970b831e70,6598e792b620423529831e84,0.0658,0.0659,1,25,187,142,1,eightsix,,,,,,,,,,,,,,,,,,,,,,,,,,,,,,,,,,,,,,,,,,,,,,,,,,,,,,,,,,,,,,,,,,,,,,,,,,,,,,,,,,,,,,,,,,,,,,,,,,,,,,,,,,,,,,,,,,,,,,,,,,,,,,,,,,,,,,,
,,6032a88a2b8e882a37cc2766,2024-01-05_23h40.07.180,kallum_motion_pilot,2023.2.3,Win32,7.501875469,6032a88a2b8e882a37cc2766,6598e6a5d84f07970b831e70,6598e792b620423529831e84,0.0661,0.0662,1,26,188,75,1,twofour,,,,,,,,,,,,,,,,,,,,,,,,,,,,,,,,,,,,,,,,,,,,,,,,,,,,,,,,,,,,,,,,,,,,,,,,,,,,,,,,,,,,,,,,,,,,,,,,,,,,,,,,,,,,,,,,,,,,,,,,,,,,,,,,,,,,,,,
,,6032a88a2b8e882a37cc2766,2024-01-05_23h40.07.180,kallum_motion_pilot,2023.2.3,Win32,7.501875469,6032a88a2b8e882a37cc2766,6598e6a5d84f07970b831e70,6598e792b620423529831e84,0.0663,0.0664,1,27,189,96,1,fivesix,,,,,,,,,,,,,,,,,,,,,,,,,,,,,,,,,,,,,,,,,,,,,,,,,,,,,,,,,,,,,,,,,,,,,,,,,,,,,,,,,,,,,,,,,,,,,,,,,,,,,,,,,,,,,,,,,,,,,,,,,,,,,,,,,,,,,,,
,,6032a88a2b8e882a37cc2766,2024-01-05_23h40.07.180,kallum_motion_pilot,2023.2.3,Win32,7.501875469,6032a88a2b8e882a37cc2766,6598e6a5d84f07970b831e70,6598e792b620423529831e84,0.0665,0.0666,1,28,190,61,1,threefour,,,,,,,,,,,,,,,,,,,,,,,,,,,,,,,,,,,,,,,,,,,,,,,,,,,,,,,,,,,,,,,,,,,,,,,,,,,,,,,,,,,,,,,,,,,,,,,,,,,,,,,,,,,,,,,,,,,,,,,,,,,,,,,,,,,,,,,
,,6032a88a2b8e882a37cc2766,2024-01-05_23h40.07.180,kallum_motion_pilot,2023.2.3,Win32,7.501875469,6032a88a2b8e882a37cc2766,6598e6a5d84f07970b831e70,6598e792b620423529831e84,0.0666,0.0667,1,29,191,114,1,sixfive,,,,,,,,,,,,,,,,,,,,,,,,,,,,,,,,,,,,,,,,,,,,,,,,,,,,,,,,,,,,,,,,,,,,,,,,,,,,,,,,,,,,,,,,,,,,,,,,,,,,,,,,,,,,,,,,,,,,,,,,,,,,,,,,,,,,,,,
,,6032a88a2b8e882a37cc2766,2024-01-05_23h40.07.180,kallum_motion_pilot,2023.2.3,Win32,7.501875469,6032a88a2b8e882a37cc2766,6598e6a5d84f07970b831e70,6598e792b620423529831e84,0.0669,0.067,1,30,192,133,1,seveneight,,,,,,,,,,,,,,,,,,,,,,,,,,,,,,,,,,,,,,,,,,,,,,,,,,,,,,,,,,,,,,,,,,,,,,,,,,,,,,,,,,,,,,,,,,,,,,,,,,,,,,,,,,,,,,,,,,,,,,,,,,,,,,,,,,,,,,,
,,6032a88a2b8e882a37cc2766,2024-01-05_23h40.07.180,kallum_motion_pilot,2023.2.3,Win32,7.501875469,6032a88a2b8e882a37cc2766,6598e6a5d84f07970b831e70,6598e792b620423529831e84,0.0671,0.0672,1,31,193,28,1,threeone,,,,,,,,,,,,,,,,,,,,,,,,,,,,,,,,,,,,,,,,,,,,,,,,,,,,,,,,,,,,,,,,,,,,,,,,,,,,,,,,,,,,,,,,,,,,,,,,,,,,,,,,,,,,,,,,,,,,,,,,,,,,,,,,,,,,,,,
,,6032a88a2b8e882a37cc2766,2024-01-05_23h40.07.180,kallum_motion_pilot,2023.2.3,Win32,7.501875469,6032a88a2b8e882a37cc2766,6598e6a5d84f07970b831e70,6598e792b620423529831e84,0.0674,0.0676,1,32,194,151,1,eightseven,,,,,,,,,,,,,,,,,,,,,,,,,,,,,,,,,,,,,,,,,,,,,,,,,,,,,,,,,,,,,,,,,,,,,,,,,,,,,,,,,,,,,,,,,,,,,,,,,,,,,,,,,,,,,,,,,,,,,,,,,,,,,,,,,,,,,,,
,,6032a88a2b8e882a37cc2766,2024-01-05_23h40.07.180,kallum_motion_pilot,2023.2.3,Win32,7.501875469,6032a88a2b8e882a37cc2766,6598e6a5d84f07970b831e70,6598e792b620423529831e84,0.0677,0.0678,1,33,195,31,1,fourthree,,,,,,,,,,,,,,,,,,,,,,,,,,,,,,,,,,,,,,,,,,,,,,,,,,,,,,,,,,,,,,,,,,,,,,,,,,,,,,,,,,,,,,,,,,,,,,,,,,,,,,,,,,,,,,,,,,,,,,,,,,,,,,,,,,,,,,,
,,6032a88a2b8e882a37cc2766,2024-01-05_23h40.07.180,kallum_motion_pilot,2023.2.3,Win32,7.501875469,6032a88a2b8e882a37cc2766,6598e6a5d84f07970b831e70,6598e792b620423529831e84,0.0679,0.0679,1,34,196,27,1,twofour,,,,,,,,,,,,,,,,,,,,,,,,,,,,,,,,,,,,,,,,,,,,,,,,,,,,,,,,,,,,,,,,,,,,,,,,,,,,,,,,,,,,,,,,,,,,,,,,,,,,,,,,,,,,,,,,,,,,,,,,,,,,,,,,,,,,,,,
,,6032a88a2b8e882a37cc2766,2024-01-05_23h40.07.180,kallum_motion_pilot,2023.2.3,Win32,7.501875469,6032a88a2b8e882a37cc2766,6598e6a5d84f07970b831e70,6598e792b620423529831e84,0.0681,0.0681,1,35,197,40,1,onetwo,,,,,,,,,,,,,,,,,,,,,,,,,,,,,,,,,,,,,,,,,,,,,,,,,,,,,,,,,,,,,,,,,,,,,,,,,,,,,,,,,,,,,,,,,,,,,,,,,,,,,,,,,,,,,,,,,,,,,,,,,,,,,,,,,,,,,,,
,,6032a88a2b8e882a37cc2766,2024-01-05_23h40.07.180,kallum_motion_pilot,2023.2.3,Win32,7.501875469,6032a88a2b8e882a37cc2766,6598e6a5d84f07970b831e70,6598e792b620423529831e84,0.0682,0.0683,1,36,198,74,1,twoone,,,,,,,,,,,,,,,,,,,,,,,,,,,,,,,,,,,,,,,,,,,,,,,,,,,,,,,,,,,,,,,,,,,,,,,,,,,,,,,,,,,,,,,,,,,,,,,,,,,,,,,,,,,,,,,,,,,,,,,,,,,,,,,,,,,,,,,
,,6032a88a2b8e882a37cc2766,2024-01-05_23h40.07.180,kallum_motion_pilot,2023.2.3,Win32,7.501875469,6032a88a2b8e882a37cc2766,6598e6a5d84f07970b831e70,6598e792b620423529831e84,0.0684,0.0684,1,37,199,98,1,sixfive,,,,,,,,,,,,,,,,,,,,,,,,,,,,,,,,,,,,,,,,,,,,,,,,,,,,,,,,,,,,,,,,,,,,,,,,,,,,,,,,,,,,,,,,,,,,,,,,,,,,,,,,,,,,,,,,,,,,,,,,,,,,,,,,,,,,,,,
,,6032a88a2b8e882a37cc2766,2024-01-05_23h40.07.180,kallum_motion_pilot,2023.2.3,Win32,7.501875469,6032a88a2b8e882a37cc2766,6598e6a5d84f07970b831e70,6598e792b620423529831e84,0.0686,0.0686,1,38,200,148,1,sevenfive,,,,,,,,,,,,,,,,,,,,,,,,,,,,,,,,,,,,,,,,,,,,,,,,,,,,,,,,,,,,,,,,,,,,,,,,,,,,,,,,,,,,,,,,,,,,,,,,,,,,,,,,,,,,,,,,,,,,,,,,,,,,,,,,,,,,,,,
,,6032a88a2b8e882a37cc2766,2024-01-05_23h40.07.180,kallum_motion_pilot,2023.2.3,Win32,7.501875469,6032a88a2b8e882a37cc2766,6598e6a5d84f07970b831e70,6598e792b620423529831e84,0.0687,0.0688,1,39,201,127,1,eightseven,,,,,,,,,,,,,,,,,,,,,,,,,,,,,,,,,,,,,,,,,,,,,,,,,,,,,,,,,,,,,,,,,,,,,,,,,,,,,,,,,,,,,,,,,,,,,,,,,,,,,,,,,,,,,,,,,,,,,,,,,,,,,,,,,,,,,,,
,,6032a88a2b8e882a37cc2766,2024-01-05_23h40.07.180,kallum_motion_pilot,2023.2.3,Win32,7.501875469,6032a88a2b8e882a37cc2766,6598e6a5d84f07970b831e70,6598e792b620423529831e84,0.0689,0.069,1,40,202,24,1,onetwo,,,,,,,,,,,,,,,,,,,,,,,,,,,,,,,,,,,,,,,,,,,,,,,,,,,,,,,,,,,,,,,,,,,,,,,,,,,,,,,,,,,,,,,,,,,,,,,,,,,,,,,,,,,,,,,,,,,,,,,,,,,,,,,,,,,,,,,
,,6032a88a2b8e882a37cc2766,2024-01-05_23h40.07.180,kallum_motion_pilot,2023.2.3,Win32,7.501875469,6032a88a2b8e882a37cc2766,6598e6a5d84f07970b831e70,6598e792b620423529831e84,0.0691,0.0692,1,41,203,76,1,threeone,,,,,,,,,,,,,,,,,,,,,,,,,,,,,,,,,,,,,,,,,,,,,,,,,,,,,,,,,,,,,,,,,,,,,,,,,,,,,,,,,,,,,,,,,,,,,,,,,,,,,,,,,,,,,,,,,,,,,,,,,,,,,,,,,,,,,,,
,,6032a88a2b8e882a37cc2766,2024-01-05_23h40.07.180,kallum_motion_pilot,2023.2.3,Win32,7.501875469,6032a88a2b8e882a37cc2766,6598e6a5d84f07970b831e70,6598e792b620423529831e84,0.0692,0.0693,1,42,204,48,1,onetwo,,,,,,,,,,,,,,,,,,,,,,,,,,,,,,,,,,,,,,,,,,,,,,,,,,,,,,,,,,,,,,,,,,,,,,,,,,,,,,,,,,,,,,,,,,,,,,,,,,,,,,,,,,,,,,,,,,,,,,,,,,,,,,,,,,,,,,,
,,6032a88a2b8e882a37cc2766,2024-01-05_23h40.07.180,kallum_motion_pilot,2023.2.3,Win32,7.501875469,6032a88a2b8e882a37cc2766,6598e6a5d84f07970b831e70,6598e792b620423529831e84,0.0694,0.0696,1,43,205,124,1,sevenfive,,,,,,,,,,,,,,,,,,,,,,,,,,,,,,,,,,,,,,,,,,,,,,,,,,,,,,,,,,,,,,,,,,,,,,,,,,,,,,,,,,,,,,,,,,,,,,,,,,,,,,,,,,,,,,,,,,,,,,,,,,,,,,,,,,,,,,,
,,6032a88a2b8e882a37cc2766,2024-01-05_23h40.07.180,kallum_motion_pilot,2023.2.3,Win32,7.501875469,6032a88a2b8e882a37cc2766,6598e6a5d84f07970b831e70,6598e792b620423529831e84,0.0698,0.0698,1,44,206,92,1,sevenfive,,,,,,,,,,,,,,,,,,,,,,,,,,,,,,,,,,,,,,,,,,,,,,,,,,,,,,,,,,,,,,,,,,,,,,,,,,,,,,,,,,,,,,,,,,,,,,,,,,,,,,,,,,,,,,,,,,,,,,,,,,,,,,,,,,,,,,,
,,6032a88a2b8e882a37cc2766,2024-01-05_23h40.07.180,kallum_motion_pilot,2023.2.3,Win32,7.501875469,6032a88a2b8e882a37cc2766,6598e6a5d84f07970b831e70,6598e792b620423529831e84,0.0699,0.0701,1,45,207,117,1,seveneight,,,,,,,,,,,,,,,,,,,,,,,,,,,,,,,,,,,,,,,,,,,,,,,,,,,,,,,,,,,,,,,,,,,,,,,,,,,,,,,,,,,,,,,,,,,,,,,,,,,,,,,,,,,,,,,,,,,,,,,,,,,,,,,,,,,,,,,
,,6032a88a2b8e882a37cc2766,2024-01-05_23h40.07.180,kallum_motion_pilot,2023.2.3,Win32,7.501875469,6032a88a2b8e882a37cc2766,6598e6a5d84f07970b831e70,6598e792b620423529831e84,0.0701,0.0702,1,46,208,43,1,twofour,,,,,,,,,,,,,,,,,,,,,,,,,,,,,,,,,,,,,,,,,,,,,,,,,,,,,,,,,,,,,,,,,,,,,,,,,,,,,,,,,,,,,,,,,,,,,,,,,,,,,,,,,,,,,,,,,,,,,,,,,,,,,,,,,,,,,,,
,,6032a88a2b8e882a37cc2766,2024-01-05_23h40.07.180,kallum_motion_pilot,2023.2.3,Win32,7.501875469,6032a88a2b8e882a37cc2766,6598e6a5d84f07970b831e70,6598e792b620423529831e84,0.0704,0.0705,1,47,209,93,1,seveneight,,,,,,,,,,,,,,,,,,,,,,,,,,,,,,,,,,,,,,,,,,,,,,,,,,,,,,,,,,,,,,,,,,,,,,,,,,,,,,,,,,,,,,,,,,,,,,,,,,,,,,,,,,,,,,,,,,,,,,,,,,,,,,,,,,,,,,,
,,6032a88a2b8e882a37cc2766,2024-01-05_23h40.07.180,kallum_motion_pilot,2023.2.3,Win32,7.501875469,6032a88a2b8e882a37cc2766,6598e6a5d84f07970b831e70,6598e792b620423529831e84,0.0707,0.0708,1,48,210,41,1,onethree,,,,,,,,,,,,,,,,,,,,,,,,,,,,,,,,,,,,,,,,,,,,,,,,,,,,,,,,,,,,,,,,,,,,,,,,,,,,,,,,,,,,,,,,,,,,,,,,,,,,,,,,,,,,,,,,,,,,,,,,,,,,,,,,,,,,,,,
,,6032a88a2b8e882a37cc2766,2024-01-05_23h40.07.180,kallum_motion_pilot,2023.2.3,Win32,7.501875469,6032a88a2b8e882a37cc2766,6598e6a5d84f07970b831e70,6598e792b620423529831e84,0.0709,0.0711,1,49,211,78,1,fourtwo,,,,,,,,,,,,,,,,,,,,,,,,,,,,,,,,,,,,,,,,,,,,,,,,,,,,,,,,,,,,,,,,,,,,,,,,,,,,,,,,,,,,,,,,,,,,,,,,,,,,,,,,,,,,,,,,,,,,,,,,,,,,,,,,,,,,,,,
,,6032a88a2b8e882a37cc2766,2024-01-05_23h40.07.180,kallum_motion_pilot,2023.2.3,Win32,7.501875469,6032a88a2b8e882a37cc2766,6598e6a5d84f07970b831e70,6598e792b620423529831e84,0.0712,0.0713,1,50,212,126,1,eightsix,,,,,,,,,,,,,,,,,,,,,,,,,,,,,,,,,,,,,,,,,,,,,,,,,,,,,,,,,,,,,,,,,,,,,,,,,,,,,,,,,,,,,,,,,,,,,,,,,,,,,,,,,,,,,,,,,,,,,,,,,,,,,,,,,,,,,,,
,,6032a88a2b8e882a37cc2766,2024-01-05_23h40.07.180,kallum_motion_pilot,2023.2.3,Win32,7.501875469,6032a88a2b8e882a37cc2766,6598e6a5d84f07970b831e70,6598e792b620423529831e84,0.0715,0.0716,1,51,213,112,1,fivesix,,,,,,,,,,,,,,,,,,,,,,,,,,,,,,,,,,,,,,,,,,,,,,,,,,,,,,,,,,,,,,,,,,,,,,,,,,,,,,,,,,,,,,,,,,,,,,,,,,,,,,,,,,,,,,,,,,,,,,,,,,,,,,,,,,,,,,,
,,6032a88a2b8e882a37cc2766,2024-01-05_23h40.07.180,kallum_motion_pilot,2023.2.3,Win32,7.501875469,6032a88a2b8e882a37cc2766,6598e6a5d84f07970b831e70,6598e792b620423529831e84,0.0717,0.0719,1,52,214,66,1,twoone,,,,,,,,,,,,,,,,,,,,,,,,,,,,,,,,,,,,,,,,,,,,,,,,,,,,,,,,,,,,,,,,,,,,,,,,,,,,,,,,,,,,,,,,,,,,,,,,,,,,,,,,,,,,,,,,,,,,,,,,,,,,,,,,,,,,,,,
,,6032a88a2b8e882a37cc2766,2024-01-05_23h40.07.180,kallum_motion_pilot,2023.2.3,Win32,7.501875469,6032a88a2b8e882a37cc2766,6598e6a5d84f07970b831e70,6598e792b620423529831e84,0.072,0.0721,1,53,215,13,1,threefour,,,,,,,,,,,,,,,,,,,,,,,,,,,,,,,,,,,,,,,,,,,,,,,,,,,,,,,,,,,,,,,,,,,,,,,,,,,,,,,,,,,,,,,,,,,,,,,,,,,,,,,,,,,,,,,,,,,,,,,,,,,,,,,,,,,,,,,
,,6032a88a2b8e882a37cc2766,2024-01-05_23h40.07.180,kallum_motion_pilot,2023.2.3,Win32,7.501875469,6032a88a2b8e882a37cc2766,6598e6a5d84f07970b831e70,6598e792b620423529831e84,0.0723,0.0724,1,54,216,49,1,onethree,,,,,,,,,,,,,,,,,,,,,,,,,,,,,,,,,,,,,,,,,,,,,,,,,,,,,,,,,,,,,,,,,,,,,,,,,,,,,,,,,,,,,,,,,,,,,,,,,,,,,,,,,,,,,,,,,,,,,,,,,,,,,,,,,,,,,,,
,,6032a88a2b8e882a37cc2766,2024-01-05_23h40.07.180,kallum_motion_pilot,2023.2.3,Win32,7.501875469,6032a88a2b8e882a37cc2766,6598e6a5d84f07970b831e70,6598e792b620423529831e84,0.0726,0.0727,1,55,217,139,1,sixeight,,,,,,,,,,,,,,,,,,,,,,,,,,,,,,,,,,,,,,,,,,,,,,,,,,,,,,,,,,,,,,,,,,,,,,,,,,,,,,,,,,,,,,,,,,,,,,,,,,,,,,,,,,,,,,,,,,,,,,,,,,,,,,,,,,,,,,,
,,6032a88a2b8e882a37cc2766,2024-01-05_23h40.07.180,kallum_motion_pilot,2023.2.3,Win32,7.501875469,6032a88a2b8e882a37cc2766,6598e6a5d84f07970b831e70,6598e792b620423529831e84,0.0729,0.073,1,56,218,44,1,threeone,,,,,,,,,,,,,,,,,,,,,,,,,,,,,,,,,,,,,,,,,,,,,,,,,,,,,,,,,,,,,,,,,,,,,,,,,,,,,,,,,,,,,,,,,,,,,,,,,,,,,,,,,,,,,,,,,,,,,,,,,,,,,,,,,,,,,,,
,,6032a88a2b8e882a37cc2766,2024-01-05_23h40.07.180,kallum_motion_pilot,2023.2.3,Win32,7.501875469,6032a88a2b8e882a37cc2766,6598e6a5d84f07970b831e70,6598e792b620423529831e84,0.0732,0.0732,1,57,219,72,1,onetwo,,,,,,,,,,,,,,,,,,,,,,,,,,,,,,,,,,,,,,,,,,,,,,,,,,,,,,,,,,,,,,,,,,,,,,,,,,,,,,,,,,,,,,,,,,,,,,,,,,,,,,,,,,,,,,,,,,,,,,,,,,,,,,,,,,,,,,,
,,6032a88a2b8e882a37cc2766,2024-01-05_23h40.07.180,kallum_motion_pilot,2023.2.3,Win32,7.501875469,6032a88a2b8e882a37cc2766,6598e6a5d84f07970b831e70,6598e792b620423529831e84,0.0734,0.0736,1,58,220,88,1,fivesix,,,,,,,,,,,,,,,,,,,,,,,,,,,,,,,,,,,,,,,,,,,,,,,,,,,,,,,,,,,,,,,,,,,,,,,,,,,,,,,,,,,,,,,,,,,,,,,,,,,,,,,,,,,,,,,,,,,,,,,,,,,,,,,,,,,,,,,
,,6032a88a2b8e882a37cc2766,2024-01-05_23h40.07.180,kallum_motion_pilot,2023.2.3,Win32,7.501875469,6032a88a2b8e882a37cc2766,6598e6a5d84f07970b831e70,6598e792b620423529831e84,0.0741,0.0743,1,59,221,106,1,sixfive,,,,,,,,,,,,,,,,,,,,,,,,,,,,,,,,,,,,,,,,,,,,,,,,,,,,,,,,,,,,,,,,,,,,,,,,,,,,,,,,,,,,,,,,,,,,,,,,,,,,,,,,,,,,,,,,,,,,,,,,,,,,,,,,,,,,,,,
,,6032a88a2b8e882a37cc2766,2024-01-05_23h40.07.180,kallum_motion_pilot,2023.2.3,Win32,7.501875469,6032a88a2b8e882a37cc2766,6598e6a5d84f07970b831e70,6598e792b620423529831e84,0.0744,0.0746,1,60,222,160,1,fivesix,,,,,,,,,,,,,,,,,,,,,,,,,,,,,,,,,,,,,,,,,,,,,,,,,,,,,,,,,,,,,,,,,,,,,,,,,,,,,,,,,,,,,,,,,,,,,,,,,,,,,,,,,,,,,,,,,,,,,,,,,,,,,,,,,,,,,,,
,,6032a88a2b8e882a37cc2766,2024-01-05_23h40.07.180,kallum_motion_pilot,2023.2.3,Win32,7.501875469,6032a88a2b8e882a37cc2766,6598e6a5d84f07970b831e70,6598e792b620423529831e84,0.0748,0.0749,1,61,223,132,1,sevenfive,,,,,,,,,,,,,,,,,,,,,,,,,,,,,,,,,,,,,,,,,,,,,,,,,,,,,,,,,,,,,,,,,,,,,,,,,,,,,,,,,,,,,,,,,,,,,,,,,,,,,,,,,,,,,,,,,,,,,,,,,,,,,,,,,,,,,,,
,,6032a88a2b8e882a37cc2766,2024-01-05_23h40.07.180,kallum_motion_pilot,2023.2.3,Win32,7.501875469,6032a88a2b8e882a37cc2766,6598e6a5d84f07970b831e70,6598e792b620423529831e84,0.0751,0.0753,1,62,224,36,1,threeone,,,,,,,,,,,,,,,,,,,,,,,,,,,,,,,,,,,,,,,,,,,,,,,,,,,,,,,,,,,,,,,,,,,,,,,,,,,,,,,,,,,,,,,,,,,,,,,,,,,,,,,,,,,,,,,,,,,,,,,,,,,,,,,,,,,,,,,
,,6032a88a2b8e882a37cc2766,2024-01-05_23h40.07.180,kallum_motion_pilot,2023.2.3,Win32,7.501875469,6032a88a2b8e882a37cc2766,6598e6a5d84f07970b831e70,6598e792b620423529831e84,0.0755,0.0756,1,63,225,131,1,sixeight,,,,,,,,,,,,,,,,,,,,,,,,,,,,,,,,,,,,,,,,,,,,,,,,,,,,,,,,,,,,,,,,,,,,,,,,,,,,,,,,,,,,,,,,,,,,,,,,,,,,,,,,,,,,,,,,,,,,,,,,,,,,,,,,,,,,,,,
,,6032a88a2b8e882a37cc2766,2024-01-05_23h40.07.180,kallum_motion_pilot,2023.2.3,Win32,7.501875469,6032a88a2b8e882a37cc2766,6598e6a5d84f07970b831e70,6598e792b620423529831e84,0.0757,0.0758,1,64,226,18,1,twoone,,,,,,,,,,,,,,,,,,,,,,,,,,,,,,,,,,,,,,,,,,,,,,,,,,,,,,,,,,,,,,,,,,,,,,,,,,,,,,,,,,,,,,,,,,,,,,,,,,,,,,,,,,,,,,,,,,,,,,,,,,,,,,,,,,,,,,,
,,6032a88a2b8e882a37cc2766,2024-01-05_23h40.07.180,kallum_motion_pilot,2023.2.3,Win32,7.501875469,6032a88a2b8e882a37cc2766,6598e6a5d84f07970b831e70,6598e792b620423529831e84,0.076,0.0761,1,65,227,5,1,threefour,,,,,,,,,,,,,,,,,,,,,,,,,,,,,,,,,,,,,,,,,,,,,,,,,,,,,,,,,,,,,,,,,,,,,,,,,,,,,,,,,,,,,,,,,,,,,,,,,,,,,,,,,,,,,,,,,,,,,,,,,,,,,,,,,,,,,,,
,,6032a88a2b8e882a37cc2766,2024-01-05_23h40.07.180,kallum_motion_pilot,2023.2.3,Win32,7.501875469,6032a88a2b8e882a37cc2766,6598e6a5d84f07970b831e70,6598e792b620423529831e84,0.0764,0.0764,1,66,228,0,1,onetwo,,,,,,,,,,,,,,,,,,,,,,,,,,,,,,,,,,,,,,,,,,,,,,,,,,,,,,,,,,,,,,,,,,,,,,,,,,,,,,,,,,,,,,,,,,,,,,,,,,,,,,,,,,,,,,,,,,,,,,,,,,,,,,,,,,,,,,,
,,6032a88a2b8e882a37cc2766,2024-01-05_23h40.07.180,kallum_motion_pilot,2023.2.3,Win32,7.501875469,6032a88a2b8e882a37cc2766,6598e6a5d84f07970b831e70,6598e792b620423529831e84,0.0775,0.0776,1,67,229,158,1,eightsix,,,,,,,,,,,,,,,,,,,,,,,,,,,,,,,,,,,,,,,,,,,,,,,,,,,,,,,,,,,,,,,,,,,,,,,,,,,,,,,,,,,,,,,,,,,,,,,,,,,,,,,,,,,,,,,,,,,,,,,,,,,,,,,,,,,,,,,
,,6032a88a2b8e882a37cc2766,2024-01-05_23h40.07.180,kallum_motion_pilot,2023.2.3,Win32,7.501875469,6032a88a2b8e882a37cc2766,6598e6a5d84f07970b831e70,6598e792b620423529831e84,0.0777,0.0778,1,68,230,125,1,seveneight,,,,,,,,,,,,,,,,,,,,,,,,,,,,,,,,,,,,,,,,,,,,,,,,,,,,,,,,,,,,,,,,,,,,,,,,,,,,,,,,,,,,,,,,,,,,,,,,,,,,,,,,,,,,,,,,,,,,,,,,,,,,,,,,,,,,,,,
,,6032a88a2b8e882a37cc2766,2024-01-05_23h40.07.180,kallum_motion_pilot,2023.2.3,Win32,7.501875469,6032a88a2b8e882a37cc2766,6598e6a5d84f07970b831e70,6598e792b620423529831e84,0.078,0.078,1,69,231,67,1,twofour,,,,,,,,,,,,,,,,,,,,,,,,,,,,,,,,,,,,,,,,,,,,,,,,,,,,,,,,,,,,,,,,,,,,,,,,,,,,,,,,,,,,,,,,,,,,,,,,,,,,,,,,,,,,,,,,,,,,,,,,,,,,,,,,,,,,,,,
,,6032a88a2b8e882a37cc2766,2024-01-05_23h40.07.180,kallum_motion_pilot,2023.2.3,Win32,7.501875469,6032a88a2b8e882a37cc2766,6598e6a5d84f07970b831e70,6598e792b620423529831e84,0.0782,0.0782,1,70,232,90,1,sixfive,,,,,,,,,,,,,,,,,,,,,,,,,,,,,,,,,,,,,,,,,,,,,,,,,,,,,,,,,,,,,,,,,,,,,,,,,,,,,,,,,,,,,,,,,,,,,,,,,,,,,,,,,,,,,,,,,,,,,,,,,,,,,,,,,,,,,,,
,,6032a88a2b8e882a37cc2766,2024-01-05_23h40.07.180,kallum_motion_pilot,2023.2.3,Win32,7.501875469,6032a88a2b8e882a37cc2766,6598e6a5d84f07970b831e70,6598e792b620423529831e84,0.0783,0.0784,1,71,233,4,1,threeone,,,,,,,,,,,,,,,,,,,,,,,,,,,,,,,,,,,,,,,,,,,,,,,,,,,,,,,,,,,,,,,,,,,,,,,,,,,,,,,,,,,,,,,,,,,,,,,,,,,,,,,,,,,,,,,,,,,,,,,,,,,,,,,,,,,,,,,
,,6032a88a2b8e882a37cc2766,2024-01-05_23h40.07.180,kallum_motion_pilot,2023.2.3,Win32,7.501875469,6032a88a2b8e882a37cc2766,6598e6a5d84f07970b831e70,6598e792b620423529831e84,0.0785,0.0786,1,72,234,111,1,eightseven,,,,,,,,,,,,,,,,,,,,,,,,,,,,,,,,,,,,,,,,,,,,,,,,,,,,,,,,,,,,,,,,,,,,,,,,,,,,,,,,,,,,,,,,,,,,,,,,,,,,,,,,,,,,,,,,,,,,,,,,,,,,,,,,,,,,,,,
,,6032a88a2b8e882a37cc2766,2024-01-05_23h40.07.180,kallum_motion_pilot,2023.2.3,Win32,7.501875469,6032a88a2b8e882a37cc2766,6598e6a5d84f07970b831e70,6598e792b620423529831e84,0.0786,0.0788,1,73,235,50,1,twoone,,,,,,,,,,,,,,,,,,,,,,,,,,,,,,,,,,,,,,,,,,,,,,,,,,,,,,,,,,,,,,,,,,,,,,,,,,,,,,,,,,,,,,,,,,,,,,,,,,,,,,,,,,,,,,,,,,,,,,,,,,,,,,,,,,,,,,,
,,6032a88a2b8e882a37cc2766,2024-01-05_23h40.07.180,kallum_motion_pilot,2023.2.3,Win32,7.501875469,6032a88a2b8e882a37cc2766,6598e6a5d84f07970b831e70,6598e792b620423529831e84,0.0789,0.079,1,74,236,80,1,fivesix,,,,,,,,,,,,,,,,,,,,,,,,,,,,,,,,,,,,,,,,,,,,,,,,,,,,,,,,,,,,,,,,,,,,,,,,,,,,,,,,,,,,,,,,,,,,,,,,,,,,,,,,,,,,,,,,,,,,,,,,,,,,,,,,,,,,,,,
,,6032a88a2b8e882a37cc2766,2024-01-05_23h40.07.180,kallum_motion_pilot,2023.2.3,Win32,7.501875469,6032a88a2b8e882a37cc2766,6598e6a5d84f07970b831e70,6598e792b620423529831e84,0.0791,0.0792,1,75,237,62,1,fourtwo,,,,,,,,,,,,,,,,,,,,,,,,,,,,,,,,,,,,,,,,,,,,,,,,,,,,,,,,,,,,,,,,,,,,,,,,,,,,,,,,,,,,,,,,,,,,,,,,,,,,,,,,,,,,,,,,,,,,,,,,,,,,,,,,,,,,,,,
,,6032a88a2b8e882a37cc2766,2024-01-05_23h40.07.180,kallum_motion_pilot,2023.2.3,Win32,7.501875469,6032a88a2b8e882a37cc2766,6598e6a5d84f07970b831e70,6598e792b620423529831e84,0.0793,0.0794,1,76,238,42,1,twoone,,,,,,,,,,,,,,,,,,,,,,,,,,,,,,,,,,,,,,,,,,,,,,,,,,,,,,,,,,,,,,,,,,,,,,,,,,,,,,,,,,,,,,,,,,,,,,,,,,,,,,,,,,,,,,,,,,,,,,,,,,,,,,,,,,,,,,,
,,6032a88a2b8e882a37cc2766,2024-01-05_23h40.07.180,kallum_motion_pilot,2023.2.3,Win32,7.501875469,6032a88a2b8e882a37cc2766,6598e6a5d84f07970b831e70,6598e792b620423529831e84,0.0794,0.0795,1,77,239,91,1,sixeight,,,,,,,,,,,,,,,,,,,,,,,,,,,,,,,,,,,,,,,,,,,,,,,,,,,,,,,,,,,,,,,,,,,,,,,,,,,,,,,,,,,,,,,,,,,,,,,,,,,,,,,,,,,,,,,,,,,,,,,,,,,,,,,,,,,,,,,
,,6032a88a2b8e882a37cc2766,2024-01-05_23h40.07.180,kallum_motion_pilot,2023.2.3,Win32,7.501875469,6032a88a2b8e882a37cc2766,6598e6a5d84f07970b831e70,6598e792b620423529831e84,0.0796,0.0798,1,78,240,7,1,fourthree,,,,,,,,,,,,,,,,,,,,,,,,,,,,,,,,,,,,,,,,,,,,,,,,,,,,,,,,,,,,,,,,,,,,,,,,,,,,,,,,,,,,,,,,,,,,,,,,,,,,,,,,,,,,,,,,,,,,,,,,,,,,,,,,,,,,,,,
,,6032a88a2b8e882a37cc2766,2024-01-05_23h40.07.180,kallum_motion_pilot,2023.2.3,Win32,7.501875469,6032a88a2b8e882a37cc2766,6598e6a5d84f07970b831e70,6598e792b620423529831e84,0.0799,0.0799,1,79,241,58,1,twoone,,,,,,,,,,,,,,,,,,,,,,,,,,,,,,,,,,,,,,,,,,,,,,,,,,,,,,,,,,,,,,,,,,,,,,,,,,,,,,,,,,,,,,,,,,,,,,,,,,,,,,,,,,,,,,,,,,,,,,,,,,,,,,,,,,,,,,,
,,6032a88a2b8e882a37cc2766,2024-01-05_23h40.07.180,kallum_motion_pilot,2023.2.3,Win32,7.501875469,6032a88a2b8e882a37cc2766,6598e6a5d84f07970b831e70,6598e792b620423529831e84,0.08,0.08,1,80,242,53,1,threefour,,,,,,,,,,,,,,,,,,,,,,,,,,,,,,,,,,,,,,,,,,,,,,,,,,,,,,,,,,,,,,,,,,,,,,,,,,,,,,,,,,,,,,,,,,,,,,,,,,,,,,,,,,,,,,,,,,,,,,,,,,,,,,,,,,,,,,,
,,6032a88a2b8e882a37cc2766,2024-01-05_23h40.07.180,kallum_motion_pilot,2023.2.3,Win32,7.501875469,6032a88a2b8e882a37cc2766,6598e6a5d84f07970b831e70,6598e792b620423529831e84,0.0802,0.0802,1,81,243,34,1,twoone,,,,,,,,,,,,,,,,,,,,,,,,,,,,,,,,,,,,,,,,,,,,,,,,,,,,,,,,,,,,,,,,,,,,,,,,,,,,,,,,,,,,,,,,,,,,,,,,,,,,,,,,,,,,,,,,,,,,,,,,,,,,,,,,,,,,,,,
,,6032a88a2b8e882a37cc2766,2024-01-05_23h40.07.180,kallum_motion_pilot,2023.2.3,Win32,7.501875469,6032a88a2b8e882a37cc2766,6598e6a5d84f07970b831e70,6598e792b620423529831e84,0.0804,0.0805,1,82,244,159,1,eightseven,,,,,,,,,,,,,,,,,,,,,,,,,,,,,,,,,,,,,,,,,,,,,,,,,,,,,,,,,,,,,,,,,,,,,,,,,,,,,,,,,,,,,,,,,,,,,,,,,,,,,,,,,,,,,,,,,,,,,,,,,,,,,,,,,,,,,,,
,,6032a88a2b8e882a37cc2766,2024-01-05_23h40.07.180,kallum_motion_pilot,2023.2.3,Win32,7.501875469,6032a88a2b8e882a37cc2766,6598e6a5d84f07970b831e70,6598e792b620423529831e84,0.0806,0.0806,1,83,245,104,1,fivesix,,,,,,,,,,,,,,,,,,,,,,,,,,,,,,,,,,,,,,,,,,,,,,,,,,,,,,,,,,,,,,,,,,,,,,,,,,,,,,,,,,,,,,,,,,,,,,,,,,,,,,,,,,,,,,,,,,,,,,,,,,,,,,,,,,,,,,,
,,6032a88a2b8e882a37cc2766,2024-01-05_23h40.07.180,kallum_motion_pilot,2023.2.3,Win32,7.501875469,6032a88a2b8e882a37cc2766,6598e6a5d84f07970b831e70,6598e792b620423529831e84,0.0807,0.0808,1,84,246,84,1,sevenfive,,,,,,,,,,,,,,,,,,,,,,,,,,,,,,,,,,,,,,,,,,,,,,,,,,,,,,,,,,,,,,,,,,,,,,,,,,,,,,,,,,,,,,,,,,,,,,,,,,,,,,,,,,,,,,,,,,,,,,,,,,,,,,,,,,,,,,,
,,6032a88a2b8e882a37cc2766,2024-01-05_23h40.07.180,kallum_motion_pilot,2023.2.3,Win32,7.501875469,6032a88a2b8e882a37cc2766,6598e6a5d84f07970b831e70,6598e792b620423529831e84,0.0809,0.081,1,85,247,46,1,fourtwo,,,,,,,,,,,,,,,,,,,,,,,,,,,,,,,,,,,,,,,,,,,,,,,,,,,,,,,,,,,,,,,,,,,,,,,,,,,,,,,,,,,,,,,,,,,,,,,,,,,,,,,,,,,,,,,,,,,,,,,,,,,,,,,,,,,,,,,
,,6032a88a2b8e882a37cc2766,2024-01-05_23h40.07.180,kallum_motion_pilot,2023.2.3,Win32,7.501875469,6032a88a2b8e882a37cc2766,6598e6a5d84f07970b831e70,6598e792b620423529831e84,0.081,0.0812,1,86,248,140,1,sevenfive,,,,,,,,,,,,,,,,,,,,,,,,,,,,,,,,,,,,,,,,,,,,,,,,,,,,,,,,,,,,,,,,,,,,,,,,,,,,,,,,,,,,,,,,,,,,,,,,,,,,,,,,,,,,,,,,,,,,,,,,,,,,,,,,,,,,,,,
,,6032a88a2b8e882a37cc2766,2024-01-05_23h40.07.180,kallum_motion_pilot,2023.2.3,Win32,7.501875469,6032a88a2b8e882a37cc2766,6598e6a5d84f07970b831e70,6598e792b620423529831e84,0.0812,0.0813,1,87,249,29,1,threefour,,,,,,,,,,,,,,,,,,,,,,,,,,,,,,,,,,,,,,,,,,,,,,,,,,,,,,,,,,,,,,,,,,,,,,,,,,,,,,,,,,,,,,,,,,,,,,,,,,,,,,,,,,,,,,,,,,,,,,,,,,,,,,,,,,,,,,,
,,6032a88a2b8e882a37cc2766,2024-01-05_23h40.07.180,kallum_motion_pilot,2023.2.3,Win32,7.501875469,6032a88a2b8e882a37cc2766,6598e6a5d84f07970b831e70,6598e792b620423529831e84,0.0815,0.0815,1,88,250,146,1,sixfive,,,,,,,,,,,,,,,,,,,,,,,,,,,,,,,,,,,,,,,,,,,,,,,,,,,,,,,,,,,,,,,,,,,,,,,,,,,,,,,,,,,,,,,,,,,,,,,,,,,,,,,,,,,,,,,,,,,,,,,,,,,,,,,,,,,,,,,
,,6032a88a2b8e882a37cc2766,2024-01-05_23h40.07.180,kallum_motion_pilot,2023.2.3,Win32,7.501875469,6032a88a2b8e882a37cc2766,6598e6a5d84f07970b831e70,6598e792b620423529831e84,0.0816,0.0817,1,89,251,100,1,sevenfive,,,,,,,,,,,,,,,,,,,,,,,,,,,,,,,,,,,,,,,,,,,,,,,,,,,,,,,,,,,,,,,,,,,,,,,,,,,,,,,,,,,,,,,,,,,,,,,,,,,,,,,,,,,,,,,,,,,,,,,,,,,,,,,,,,,,,,,
,,6032a88a2b8e882a37cc2766,2024-01-05_23h40.07.180,kallum_motion_pilot,2023.2.3,Win32,7.501875469,6032a88a2b8e882a37cc2766,6598e6a5d84f07970b831e70,6598e792b620423529831e84,0.0818,0.0821,1,90,252,57,1,onethree,,,,,,,,,,,,,,,,,,,,,,,,,,,,,,,,,,,,,,,,,,,,,,,,,,,,,,,,,,,,,,,,,,,,,,,,,,,,,,,,,,,,,,,,,,,,,,,,,,,,,,,,,,,,,,,,,,,,,,,,,,,,,,,,,,,,,,,
,,6032a88a2b8e882a37cc2766,2024-01-05_23h40.07.180,kallum_motion_pilot,2023.2.3,Win32,7.501875469,6032a88a2b8e882a37cc2766,6598e6a5d84f07970b831e70,6598e792b620423529831e84,0.0823,0.0825,1,91,253,20,1,threeone,,,,,,,,,,,,,,,,,,,,,,,,,,,,,,,,,,,,,,,,,,,,,,,,,,,,,,,,,,,,,,,,,,,,,,,,,,,,,,,,,,,,,,,,,,,,,,,,,,,,,,,,,,,,,,,,,,,,,,,,,,,,,,,,,,,,,,,
,,6032a88a2b8e882a37cc2766,2024-01-05_23h40.07.180,kallum_motion_pilot,2023.2.3,Win32,7.501875469,6032a88a2b8e882a37cc2766,6598e6a5d84f07970b831e70,6598e792b620423529831e84,0.0826,0.0827,1,92,254,120,1,fivesix,,,,,,,,,,,,,,,,,,,,,,,,,,,,,,,,,,,,,,,,,,,,,,,,,,,,,,,,,,,,,,,,,,,,,,,,,,,,,,,,,,,,,,,,,,,,,,,,,,,,,,,,,,,,,,,,,,,,,,,,,,,,,,,,,,,,,,,
,,6032a88a2b8e882a37cc2766,2024-01-05_23h40.07.180,kallum_motion_pilot,2023.2.3,Win32,7.501875469,6032a88a2b8e882a37cc2766,6598e6a5d84f07970b831e70,6598e792b620423529831e84,0.0829,0.083,1,93,255,137,1,fiveseven,,,,,,,,,,,,,,,,,,,,,,,,,,,,,,,,,,,,,,,,,,,,,,,,,,,,,,,,,,,,,,,,,,,,,,,,,,,,,,,,,,,,,,,,,,,,,,,,,,,,,,,,,,,,,,,,,,,,,,,,,,,,,,,,,,,,,,,
,,6032a88a2b8e882a37cc2766,2024-01-05_23h40.07.180,kallum_motion_pilot,2023.2.3,Win32,7.501875469,6032a88a2b8e882a37cc2766,6598e6a5d84f07970b831e70,6598e792b620423529831e84,0.0831,0.0832,1,94,256,116,1,sevenfive,,,,,,,,,,,,,,,,,,,,,,,,,,,,,,,,,,,,,,,,,,,,,,,,,,,,,,,,,,,,,,,,,,,,,,,,,,,,,,,,,,,,,,,,,,,,,,,,,,,,,,,,,,,,,,,,,,,,,,,,,,,,,,,,,,,,,,,
,,6032a88a2b8e882a37cc2766,2024-01-05_23h40.07.180,kallum_motion_pilot,2023.2.3,Win32,7.501875469,6032a88a2b8e882a37cc2766,6598e6a5d84f07970b831e70,6598e792b620423529831e84,0.0834,0.0836,1,95,257,122,1,sixfive,,,,,,,,,,,,,,,,,,,,,,,,,,,,,,,,,,,,,,,,,,,,,,,,,,,,,,,,,,,,,,,,,,,,,,,,,,,,,,,,,,,,,,,,,,,,,,,,,,,,,,,,,,,,,,,,,,,,,,,,,,,,,,,,,,,,,,,
,,6032a88a2b8e882a37cc2766,2024-01-05_23h40.07.180,kallum_motion_pilot,2023.2.3,Win32,7.501875469,6032a88a2b8e882a37cc2766,6598e6a5d84f07970b831e70,6598e792b620423529831e84,0.0837,0.0838,1,96,258,107,1,sixeight,,,,,,,,,,,,,,,,,,,,,,,,,,,,,,,,,,,,,,,,,,,,,,,,,,,,,,,,,,,,,,,,,,,,,,,,,,,,,,,,,,,,,,,,,,,,,,,,,,,,,,,,,,,,,,,,,,,,,,,,,,,,,,,,,,,,,,,
,,6032a88a2b8e882a37cc2766,2024-01-05_23h40.07.180,kallum_motion_pilot,2023.2.3,Win32,7.501875469,6032a88a2b8e882a37cc2766,6598e6a5d84f07970b831e70,6598e792b620423529831e84,0.0839,0.0841,1,97,259,123,1,sixeight,,,,,,,,,,,,,,,,,,,,,,,,,,,,,,,,,,,,,,,,,,,,,,,,,,,,,,,,,,,,,,,,,,,,,,,,,,,,,,,,,,,,,,,,,,,,,,,,,,,,,,,,,,,,,,,,,,,,,,,,,,,,,,,,,,,,,,,
,,6032a88a2b8e882a37cc2766,2024-01-05_23h40.07.180,kallum_motion_pilot,2023.2.3,Win32,7.501875469,6032a88a2b8e882a37cc2766,6598e6a5d84f07970b831e70,6598e792b620423529831e84,0.0843,0.0844,1,98,260,97,1,fiveseven,,,,,,,,,,,,,,,,,,,,,,,,,,,,,,,,,,,,,,,,,,,,,,,,,,,,,,,,,,,,,,,,,,,,,,,,,,,,,,,,,,,,,,,,,,,,,,,,,,,,,,,,,,,,,,,,,,,,,,,,,,,,,,,,,,,,,,,
,,6032a88a2b8e882a37cc2766,2024-01-05_23h40.07.180,kallum_motion_pilot,2023.2.3,Win32,7.501875469,6032a88a2b8e882a37cc2766,6598e6a5d84f07970b831e70,6598e792b620423529831e84,0.0845,0.0847,1,99,261,2,1,twoone,,,,,,,,,,,,,,,,,,,,,,,,,,,,,,,,,,,,,,,,,,,,,,,,,,,,,,,,,,,,,,,,,,,,,,,,,,,,,,,,,,,,,,,,,,,,,,,,,,,,,,,,,,,,,,,,,,,,,,,,,,,,,,,,,,,,,,,
,,6032a88a2b8e882a37cc2766,2024-01-05_23h40.07.180,kallum_motion_pilot,2023.2.3,Win32,7.501875469,6032a88a2b8e882a37cc2766,6598e6a5d84f07970b831e70,6598e792b620423529831e84,0.0848,0.0849,1,100,262,26,1,twoone,,,,,,,,,,,,,,,,,,,,,,,,,,,,,,,,,,,,,,,,,,,,,,,,,,,,,,,,,,,,,,,,,,,,,,,,,,,,,,,,,,,,,,,,,,,,,,,,,,,,,,,,,,,,,,,,,,,,,,,,,,,,,,,,,,,,,,,
,,6032a88a2b8e882a37cc2766,2024-01-05_23h40.07.180,kallum_motion_pilot,2023.2.3,Win32,7.501875469,6032a88a2b8e882a37cc2766,6598e6a5d84f07970b831e70,6598e792b620423529831e84,0.085,0.0851,1,101,263,101,1,seveneight,,,,,,,,,,,,,,,,,,,,,,,,,,,,,,,,,,,,,,,,,,,,,,,,,,,,,,,,,,,,,,,,,,,,,,,,,,,,,,,,,,,,,,,,,,,,,,,,,,,,,,,,,,,,,,,,,,,,,,,,,,,,,,,,,,,,,,,
,,6032a88a2b8e882a37cc2766,2024-01-05_23h40.07.180,kallum_motion_pilot,2023.2.3,Win32,7.501875469,6032a88a2b8e882a37cc2766,6598e6a5d84f07970b831e70,6598e792b620423529831e84,0.0853,0.0854,1,102,264,73,1,onethree,,,,,,,,,,,,,,,,,,,,,,,,,,,,,,,,,,,,,,,,,,,,,,,,,,,,,,,,,,,,,,,,,,,,,,,,,,,,,,,,,,,,,,,,,,,,,,,,,,,,,,,,,,,,,,,,,,,,,,,,,,,,,,,,,,,,,,,
,,6032a88a2b8e882a37cc2766,2024-01-05_23h40.07.180,kallum_motion_pilot,2023.2.3,Win32,7.501875469,6032a88a2b8e882a37cc2766,6598e6a5d84f07970b831e70,6598e792b620423529831e84,0.0855,0.0856,1,103,265,16,1,onetwo,,,,,,,,,,,,,,,,,,,,,,,,,,,,,,,,,,,,,,,,,,,,,,,,,,,,,,,,,,,,,,,,,,,,,,,,,,,,,,,,,,,,,,,,,,,,,,,,,,,,,,,,,,,,,,,,,,,,,,,,,,,,,,,,,,,,,,,
,,6032a88a2b8e882a37cc2766,2024-01-05_23h40.07.180,kallum_motion_pilot,2023.2.3,Win32,7.501875469,6032a88a2b8e882a37cc2766,6598e6a5d84f07970b831e70,6598e792b620423529831e84,0.0857,0.0857,1,104,266,17,1,onethree,,,,,,,,,,,,,,,,,,,,,,,,,,,,,,,,,,,,,,,,,,,,,,,,,,,,,,,,,,,,,,,,,,,,,,,,,,,,,,,,,,,,,,,,,,,,,,,,,,,,,,,,,,,,,,,,,,,,,,,,,,,,,,,,,,,,,,,
,,6032a88a2b8e882a37cc2766,2024-01-05_23h40.07.180,kallum_motion_pilot,2023.2.3,Win32,7.501875469,6032a88a2b8e882a37cc2766,6598e6a5d84f07970b831e70,6598e792b620423529831e84,0.0858,0.0859,1,105,267,108,1,sevenfive,,,,,,,,,,,,,,,,,,,,,,,,,,,,,,,,,,,,,,,,,,,,,,,,,,,,,,,,,,,,,,,,,,,,,,,,,,,,,,,,,,,,,,,,,,,,,,,,,,,,,,,,,,,,,,,,,,,,,,,,,,,,,,,,,,,,,,,
,,6032a88a2b8e882a37cc2766,2024-01-05_23h40.07.180,kallum_motion_pilot,2023.2.3,Win32,7.501875469,6032a88a2b8e882a37cc2766,6598e6a5d84f07970b831e70,6598e792b620423529831e84,0.086,0.0862,1,106,268,33,1,onethree,,,,,,,,,,,,,,,,,,,,,,,,,,,,,,,,,,,,,,,,,,,,,,,,,,,,,,,,,,,,,,,,,,,,,,,,,,,,,,,,,,,,,,,,,,,,,,,,,,,,,,,,,,,,,,,,,,,,,,,,,,,,,,,,,,,,,,,
,,6032a88a2b8e882a37cc2766,2024-01-05_23h40.07.180,kallum_motion_pilot,2023.2.3,Win32,7.501875469,6032a88a2b8e882a37cc2766,6598e6a5d84f07970b831e70,6598e792b620423529831e84,0.0863,0.0863,1,107,269,102,1,eightsix,,,,,,,,,,,,,,,,,,,,,,,,,,,,,,,,,,,,,,,,,,,,,,,,,,,,,,,,,,,,,,,,,,,,,,,,,,,,,,,,,,,,,,,,,,,,,,,,,,,,,,,,,,,,,,,,,,,,,,,,,,,,,,,,,,,,,,,
,,6032a88a2b8e882a37cc2766,2024-01-05_23h40.07.180,kallum_motion_pilot,2023.2.3,Win32,7.501875469,6032a88a2b8e882a37cc2766,6598e6a5d84f07970b831e70,6598e792b620423529831e84,0.0865,0.0865,1,108,270,47,1,fourthree,,,,,,,,,,,,,,,,,,,,,,,,,,,,,,,,,,,,,,,,,,,,,,,,,,,,,,,,,,,,,,,,,,,,,,,,,,,,,,,,,,,,,,,,,,,,,,,,,,,,,,,,,,,,,,,,,,,,,,,,,,,,,,,,,,,,,,,
,,6032a88a2b8e882a37cc2766,2024-01-05_23h40.07.180,kallum_motion_pilot,2023.2.3,Win32,7.501875469,6032a88a2b8e882a37cc2766,6598e6a5d84f07970b831e70,6598e792b620423529831e84,0.0866,0.0868,1,109,271,70,1,fourtwo,,,,,,,,,,,,,,,,,,,,,,,,,,,,,,,,,,,,,,,,,,,,,,,,,,,,,,,,,,,,,,,,,,,,,,,,,,,,,,,,,,,,,,,,,,,,,,,,,,,,,,,,,,,,,,,,,,,,,,,,,,,,,,,,,,,,,,,
,,6032a88a2b8e882a37cc2766,2024-01-05_23h40.07.180,kallum_motion_pilot,2023.2.3,Win32,7.501875469,6032a88a2b8e882a37cc2766,6598e6a5d84f07970b831e70,6598e792b620423529831e84,0.0868,0.0869,1,110,272,135,1,eightseven,,,,,,,,,,,,,,,,,,,,,,,,,,,,,,,,,,,,,,,,,,,,,,,,,,,,,,,,,,,,,,,,,,,,,,,,,,,,,,,,,,,,,,,,,,,,,,,,,,,,,,,,,,,,,,,,,,,,,,,,,,,,,,,,,,,,,,,
,,6032a88a2b8e882a37cc2766,2024-01-05_23h40.07.180,kallum_motion_pilot,2023.2.3,Win32,7.501875469,6032a88a2b8e882a37cc2766,6598e6a5d84f07970b831e70,6598e792b620423529831e84,0.087,0.0871,1,111,273,144,1,fivesix,,,,,,,,,,,,,,,,,,,,,,,,,,,,,,,,,,,,,,,,,,,,,,,,,,,,,,,,,,,,,,,,,,,,,,,,,,,,,,,,,,,,,,,,,,,,,,,,,,,,,,,,,,,,,,,,,,,,,,,,,,,,,,,,,,,,,,,
,,6032a88a2b8e882a37cc2766,2024-01-05_23h40.07.180,kallum_motion_pilot,2023.2.3,Win32,7.501875469,6032a88a2b8e882a37cc2766,6598e6a5d84f07970b831e70,6598e792b620423529831e84,0.0872,0.0873,1,112,274,143,1,eightseven,,,,,,,,,,,,,,,,,,,,,,,,,,,,,,,,,,,,,,,,,,,,,,,,,,,,,,,,,,,,,,,,,,,,,,,,,,,,,,,,,,,,,,,,,,,,,,,,,,,,,,,,,,,,,,,,,,,,,,,,,,,,,,,,,,,,,,,
,,6032a88a2b8e882a37cc2766,2024-01-05_23h40.07.180,kallum_motion_pilot,2023.2.3,Win32,7.501875469,6032a88a2b8e882a37cc2766,6598e6a5d84f07970b831e70,6598e792b620423529831e84,0.0874,0.0875,1,113,275,6,1,fourtwo,,,,,,,,,,,,,,,,,,,,,,,,,,,,,,,,,,,,,,,,,,,,,,,,,,,,,,,,,,,,,,,,,,,,,,,,,,,,,,,,,,,,,,,,,,,,,,,,,,,,,,,,,,,,,,,,,,,,,,,,,,,,,,,,,,,,,,,
,,6032a88a2b8e882a37cc2766,2024-01-05_23h40.07.180,kallum_motion_pilot,2023.2.3,Win32,7.501875469,6032a88a2b8e882a37cc2766,6598e6a5d84f07970b831e70,6598e792b620423529831e84,0.0876,0.0877,1,114,276,63,1,fourthree,,,,,,,,,,,,,,,,,,,,,,,,,,,,,,,,,,,,,,,,,,,,,,,,,,,,,,,,,,,,,,,,,,,,,,,,,,,,,,,,,,,,,,,,,,,,,,,,,,,,,,,,,,,,,,,,,,,,,,,,,,,,,,,,,,,,,,,
,,6032a88a2b8e882a37cc2766,2024-01-05_23h40.07.180,kallum_motion_pilot,2023.2.3,Win32,7.501875469,6032a88a2b8e882a37cc2766,6598e6a5d84f07970b831e70,6598e792b620423529831e84,0.0877,0.0879,1,115,277,77,1,threefour,,,,,,,,,,,,,,,,,,,,,,,,,,,,,,,,,,,,,,,,,,,,,,,,,,,,,,,,,,,,,,,,,,,,,,,,,,,,,,,,,,,,,,,,,,,,,,,,,,,,,,,,,,,,,,,,,,,,,,,,,,,,,,,,,,,,,,,
,,6032a88a2b8e882a37cc2766,2024-01-05_23h40.07.180,kallum_motion_pilot,2023.2.3,Win32,7.501875469,6032a88a2b8e882a37cc2766,6598e6a5d84f07970b831e70,6598e792b620423529831e84,0.0879,0.088,1,116,278,134,1,eightsix,,,,,,,,,,,,,,,,,,,,,,,,,,,,,,,,,,,,,,,,,,,,,,,,,,,,,,,,,,,,,,,,,,,,,,,,,,,,,,,,,,,,,,,,,,,,,,,,,,,,,,,,,,,,,,,,,,,,,,,,,,,,,,,,,,,,,,,
,,6032a88a2b8e882a37cc2766,2024-01-05_23h40.07.180,kallum_motion_pilot,2023.2.3,Win32,7.501875469,6032a88a2b8e882a37cc2766,6598e6a5d84f07970b831e70,6598e792b620423529831e84,0.0882,0.0882,1,117,279,149,1,seveneight,,,,,,,,,,,,,,,,,,,,,,,,,,,,,,,,,,,,,,,,,,,,,,,,,,,,,,,,,,,,,,,,,,,,,,,,,,,,,,,,,,,,,,,,,,,,,,,,,,,,,,,,,,,,,,,,,,,,,,,,,,,,,,,,,,,,,,,
