startup.started,startup.stopped,Prolific ID*,date,expName,psychopyVersion,OS,frameRate,PROLIFIC_PID,STUDY_ID,SESSION_ID,stimpositions.started,stimpositions.stopped,hardcoded_stimulus_positions.thisRepN,hardcoded_stimulus_positions.thisTrialN,hardcoded_stimulus_positions.thisN,hardcoded_stimulus_positions.thisIndex,hardcoded_stimulus_positions.ran,StimulusPos,stimorientation.started,stimorientation.stopped,prac_stimorientation_import_loop.thisRepN,prac_stimorientation_import_loop.thisTrialN,prac_stimorientation_import_loop.thisN,prac_stimorientation_import_loop.thisIndex,prac_stimorientation_import_loop.ran,Stimorientation,welcome_instr.started,welcome_instr.stopped,key_resp.keys,key_resp.rt,key_resp.duration,response_steppedout_1.started,response_steppedout_1.stopped,key_resp_20.keys,key_resp_20.rt,key_resp_20.duration,response_steppedout_2.started,response_steppedout_2.stopped,key_resp_19.keys,key_resp_19.rt,key_resp_19.duration,stim_response_instr.started,stim_response_instr.stopped,key_resp_15.keys,key_resp_15.rt,key_resp_15.duration,direction_instr_2.started,direction_instr_2.stopped,key_resp_9.keys,key_resp_9.rt,key_resp_9.duration,instr_prac.started,instr_prac.stopped,key_resp_10.keys,key_resp_10.rt,key_resp_10.duration,Stim1_display_prac.started,Stim1_display_prac.stopped,Ecc,Circle1_ori,Circle2_ori,response_prac.started,similarity,response_time,response_prac.stopped,mouse_5.x,mouse_5.y,mouse_5.leftButton,mouse_5.midButton,mouse_5.rightButton,mouse_5.clicked_name,responseprac_feedback.started,responseprac_feedback.stopped,summary2_prac.started,summary2_prac.stopped,mouse_6.x,mouse_6.y,mouse_6.leftButton,mouse_6.midButton,mouse_6.rightButton,mouse_6.clicked_name,duringprac.thisRepN,duringprac.thisTrialN,duringprac.thisN,duringprac.thisIndex,duringprac.ran,begin.started,begin.stopped,key_resp_22.keys,key_resp_22.rt,key_resp_22.duration,Stim1_display.started,Stim1_display.stopped,circle1_ori,circle2_ori,blank.started,blank.stopped,response.started,response.stopped,mouse.x,mouse.y,mouse.leftButton,mouse.midButton,mouse.rightButton,mouse.clicked_name,response_2.started,response_2.stopped,mouse_2.x,mouse_2.y,mouse_2.leftButton,mouse_2.midButton,mouse_2.rightButton,mouse_2.clicked_name,special_trial.started,special_trial.stopped,catch_1.started,catch_1.stopped,mouse_3.x,mouse_3.y,mouse_3.leftButton,mouse_3.midButton,mouse_3.rightButton,catchresponse,catchnumber,response_time_catch,Catch,response_sum.started,response_sum.stopped,mouse_11.x,mouse_11.y,mouse_11.leftButton,mouse_11.midButton,mouse_11.rightButton,main_trial.thisRepN,main_trial.thisTrialN,main_trial.thisN,main_trial.thisIndex,main_trial.ran,Orientationtrialno,xcircle1_ori,xcircle2_ori,flip_presentation_sequence_for_double_pass.started,flip_presentation_sequence_for_double_pass.stopped,double_pass.thisRepN,double_pass.thisTrialN,double_pass.thisN,double_pass.thisIndex,double_pass.ran,goodbye.started,goodbye.stopped,key_resp_3.keys,key_resp_3.rt,key_resp_3.duration
0,0,5f12ab57b896bd212d80738f,2024-01-06_07h41.49.392,kallum_motion_pilot,2023.2.3,Win32,60.0240096,5f12ab57b896bd212d80738f,6598e6a5d84f07970b831e70,6598e74262a400b687bf733d,,,,,,,,,,,,,,,,,,,,,,,,,,,,,,,,,,,,,,,,,,,,,,,,,,,,,,,,,,,,,,,,,,,,,,,,,,,,,,,,,,,,,,,,,,,,,,,,,,,,,,,,,,,,,,,,,,,,,,,,,,,,,,,,,,,,,,,,,,,,,,,
,,5f12ab57b896bd212d80738f,2024-01-06_07h41.49.392,kallum_motion_pilot,2023.2.3,Win32,60.0240096,5f12ab57b896bd212d80738f,6598e6a5d84f07970b831e70,6598e74262a400b687bf733d,0.015,0.015,0,0,0,48,1,onetwo,,,,,,,,,,,,,,,,,,,,,,,,,,,,,,,,,,,,,,,,,,,,,,,,,,,,,,,,,,,,,,,,,,,,,,,,,,,,,,,,,,,,,,,,,,,,,,,,,,,,,,,,,,,,,,,,,,,,,,,,,,,,,,,,,,,,,,,
,,5f12ab57b896bd212d80738f,2024-01-06_07h41.49.392,kallum_motion_pilot,2023.2.3,Win32,60.0240096,5f12ab57b896bd212d80738f,6598e6a5d84f07970b831e70,6598e74262a400b687bf733d,0.015,0.015,0,1,1,85,1,seveneight,,,,,,,,,,,,,,,,,,,,,,,,,,,,,,,,,,,,,,,,,,,,,,,,,,,,,,,,,,,,,,,,,,,,,,,,,,,,,,,,,,,,,,,,,,,,,,,,,,,,,,,,,,,,,,,,,,,,,,,,,,,,,,,,,,,,,,,
,,5f12ab57b896bd212d80738f,2024-01-06_07h41.49.392,kallum_motion_pilot,2023.2.3,Win32,60.0240096,5f12ab57b896bd212d80738f,6598e6a5d84f07970b831e70,6598e74262a400b687bf733d,0.015,0.015,0,2,2,13,1,threefour,,,,,,,,,,,,,,,,,,,,,,,,,,,,,,,,,,,,,,,,,,,,,,,,,,,,,,,,,,,,,,,,,,,,,,,,,,,,,,,,,,,,,,,,,,,,,,,,,,,,,,,,,,,,,,,,,,,,,,,,,,,,,,,,,,,,,,,
,,5f12ab57b896bd212d80738f,2024-01-06_07h41.49.392,kallum_motion_pilot,2023.2.3,Win32,60.0240096,5f12ab57b896bd212d80738f,6598e6a5d84f07970b831e70,6598e74262a400b687bf733d,0.015,0.015,0,3,3,61,1,threefour,,,,,,,,,,,,,,,,,,,,,,,,,,,,,,,,,,,,,,,,,,,,,,,,,,,,,,,,,,,,,,,,,,,,,,,,,,,,,,,,,,,,,,,,,,,,,,,,,,,,,,,,,,,,,,,,,,,,,,,,,,,,,,,,,,,,,,,
,,5f12ab57b896bd212d80738f,2024-01-06_07h41.49.392,kallum_motion_pilot,2023.2.3,Win32,60.0240096,5f12ab57b896bd212d80738f,6598e6a5d84f07970b831e70,6598e74262a400b687bf733d,0.015,0.015,0,4,4,24,1,onetwo,,,,,,,,,,,,,,,,,,,,,,,,,,,,,,,,,,,,,,,,,,,,,,,,,,,,,,,,,,,,,,,,,,,,,,,,,,,,,,,,,,,,,,,,,,,,,,,,,,,,,,,,,,,,,,,,,,,,,,,,,,,,,,,,,,,,,,,
,,5f12ab57b896bd212d80738f,2024-01-06_07h41.49.392,kallum_motion_pilot,2023.2.3,Win32,60.0240096,5f12ab57b896bd212d80738f,6598e6a5d84f07970b831e70,6598e74262a400b687bf733d,0.015,0.015,0,5,5,100,1,sevenfive,,,,,,,,,,,,,,,,,,,,,,,,,,,,,,,,,,,,,,,,,,,,,,,,,,,,,,,,,,,,,,,,,,,,,,,,,,,,,,,,,,,,,,,,,,,,,,,,,,,,,,,,,,,,,,,,,,,,,,,,,,,,,,,,,,,,,,,
,,5f12ab57b896bd212d80738f,2024-01-06_07h41.49.392,kallum_motion_pilot,2023.2.3,Win32,60.0240096,5f12ab57b896bd212d80738f,6598e6a5d84f07970b831e70,6598e74262a400b687bf733d,0.015,0.016,0,6,6,143,1,eightseven,,,,,,,,,,,,,,,,,,,,,,,,,,,,,,,,,,,,,,,,,,,,,,,,,,,,,,,,,,,,,,,,,,,,,,,,,,,,,,,,,,,,,,,,,,,,,,,,,,,,,,,,,,,,,,,,,,,,,,,,,,,,,,,,,,,,,,,
,,5f12ab57b896bd212d80738f,2024-01-06_07h41.49.392,kallum_motion_pilot,2023.2.3,Win32,60.0240096,5f12ab57b896bd212d80738f,6598e6a5d84f07970b831e70,6598e74262a400b687bf733d,0.016,0.016,0,7,7,112,1,fivesix,,,,,,,,,,,,,,,,,,,,,,,,,,,,,,,,,,,,,,,,,,,,,,,,,,,,,,,,,,,,,,,,,,,,,,,,,,,,,,,,,,,,,,,,,,,,,,,,,,,,,,,,,,,,,,,,,,,,,,,,,,,,,,,,,,,,,,,
,,5f12ab57b896bd212d80738f,2024-01-06_07h41.49.392,kallum_motion_pilot,2023.2.3,Win32,60.0240096,5f12ab57b896bd212d80738f,6598e6a5d84f07970b831e70,6598e74262a400b687bf733d,0.016,0.016,0,8,8,86,1,eightsix,,,,,,,,,,,,,,,,,,,,,,,,,,,,,,,,,,,,,,,,,,,,,,,,,,,,,,,,,,,,,,,,,,,,,,,,,,,,,,,,,,,,,,,,,,,,,,,,,,,,,,,,,,,,,,,,,,,,,,,,,,,,,,,,,,,,,,,
,,5f12ab57b896bd212d80738f,2024-01-06_07h41.49.392,kallum_motion_pilot,2023.2.3,Win32,60.0240096,5f12ab57b896bd212d80738f,6598e6a5d84f07970b831e70,6598e74262a400b687bf733d,0.016,0.016,0,9,9,18,1,twoone,,,,,,,,,,,,,,,,,,,,,,,,,,,,,,,,,,,,,,,,,,,,,,,,,,,,,,,,,,,,,,,,,,,,,,,,,,,,,,,,,,,,,,,,,,,,,,,,,,,,,,,,,,,,,,,,,,,,,,,,,,,,,,,,,,,,,,,
,,5f12ab57b896bd212d80738f,2024-01-06_07h41.49.392,kallum_motion_pilot,2023.2.3,Win32,60.0240096,5f12ab57b896bd212d80738f,6598e6a5d84f07970b831e70,6598e74262a400b687bf733d,0.016,0.016,0,10,10,68,1,threeone,,,,,,,,,,,,,,,,,,,,,,,,,,,,,,,,,,,,,,,,,,,,,,,,,,,,,,,,,,,,,,,,,,,,,,,,,,,,,,,,,,,,,,,,,,,,,,,,,,,,,,,,,,,,,,,,,,,,,,,,,,,,,,,,,,,,,,,
,,5f12ab57b896bd212d80738f,2024-01-06_07h41.49.392,kallum_motion_pilot,2023.2.3,Win32,60.0240096,5f12ab57b896bd212d80738f,6598e6a5d84f07970b831e70,6598e74262a400b687bf733d,0.016,0.016,0,11,11,75,1,twofour,,,,,,,,,,,,,,,,,,,,,,,,,,,,,,,,,,,,,,,,,,,,,,,,,,,,,,,,,,,,,,,,,,,,,,,,,,,,,,,,,,,,,,,,,,,,,,,,,,,,,,,,,,,,,,,,,,,,,,,,,,,,,,,,,,,,,,,
,,5f12ab57b896bd212d80738f,2024-01-06_07h41.49.392,kallum_motion_pilot,2023.2.3,Win32,60.0240096,5f12ab57b896bd212d80738f,6598e6a5d84f07970b831e70,6598e74262a400b687bf733d,0.016,0.016,0,12,12,152,1,fivesix,,,,,,,,,,,,,,,,,,,,,,,,,,,,,,,,,,,,,,,,,,,,,,,,,,,,,,,,,,,,,,,,,,,,,,,,,,,,,,,,,,,,,,,,,,,,,,,,,,,,,,,,,,,,,,,,,,,,,,,,,,,,,,,,,,,,,,,
,,5f12ab57b896bd212d80738f,2024-01-06_07h41.49.392,kallum_motion_pilot,2023.2.3,Win32,60.0240096,5f12ab57b896bd212d80738f,6598e6a5d84f07970b831e70,6598e74262a400b687bf733d,0.016,0.016,0,13,13,118,1,eightsix,,,,,,,,,,,,,,,,,,,,,,,,,,,,,,,,,,,,,,,,,,,,,,,,,,,,,,,,,,,,,,,,,,,,,,,,,,,,,,,,,,,,,,,,,,,,,,,,,,,,,,,,,,,,,,,,,,,,,,,,,,,,,,,,,,,,,,,
,,5f12ab57b896bd212d80738f,2024-01-06_07h41.49.392,kallum_motion_pilot,2023.2.3,Win32,60.0240096,5f12ab57b896bd212d80738f,6598e6a5d84f07970b831e70,6598e74262a400b687bf733d,0.016,0.016,0,14,14,9,1,onethree,,,,,,,,,,,,,,,,,,,,,,,,,,,,,,,,,,,,,,,,,,,,,,,,,,,,,,,,,,,,,,,,,,,,,,,,,,,,,,,,,,,,,,,,,,,,,,,,,,,,,,,,,,,,,,,,,,,,,,,,,,,,,,,,,,,,,,,
,,5f12ab57b896bd212d80738f,2024-01-06_07h41.49.392,kallum_motion_pilot,2023.2.3,Win32,60.0240096,5f12ab57b896bd212d80738f,6598e6a5d84f07970b831e70,6598e74262a400b687bf733d,0.016,0.016,0,15,15,95,1,eightseven,,,,,,,,,,,,,,,,,,,,,,,,,,,,,,,,,,,,,,,,,,,,,,,,,,,,,,,,,,,,,,,,,,,,,,,,,,,,,,,,,,,,,,,,,,,,,,,,,,,,,,,,,,,,,,,,,,,,,,,,,,,,,,,,,,,,,,,
,,5f12ab57b896bd212d80738f,2024-01-06_07h41.49.392,kallum_motion_pilot,2023.2.3,Win32,60.0240096,5f12ab57b896bd212d80738f,6598e6a5d84f07970b831e70,6598e74262a400b687bf733d,0.016,0.016,0,16,16,80,1,fivesix,,,,,,,,,,,,,,,,,,,,,,,,,,,,,,,,,,,,,,,,,,,,,,,,,,,,,,,,,,,,,,,,,,,,,,,,,,,,,,,,,,,,,,,,,,,,,,,,,,,,,,,,,,,,,,,,,,,,,,,,,,,,,,,,,,,,,,,
,,5f12ab57b896bd212d80738f,2024-01-06_07h41.49.392,kallum_motion_pilot,2023.2.3,Win32,60.0240096,5f12ab57b896bd212d80738f,6598e6a5d84f07970b831e70,6598e74262a400b687bf733d,0.016,0.016,0,17,17,29,1,threefour,,,,,,,,,,,,,,,,,,,,,,,,,,,,,,,,,,,,,,,,,,,,,,,,,,,,,,,,,,,,,,,,,,,,,,,,,,,,,,,,,,,,,,,,,,,,,,,,,,,,,,,,,,,,,,,,,,,,,,,,,,,,,,,,,,,,,,,
,,5f12ab57b896bd212d80738f,2024-01-06_07h41.49.392,kallum_motion_pilot,2023.2.3,Win32,60.0240096,5f12ab57b896bd212d80738f,6598e6a5d84f07970b831e70,6598e74262a400b687bf733d,0.016,0.016,0,18,18,144,1,fivesix,,,,,,,,,,,,,,,,,,,,,,,,,,,,,,,,,,,,,,,,,,,,,,,,,,,,,,,,,,,,,,,,,,,,,,,,,,,,,,,,,,,,,,,,,,,,,,,,,,,,,,,,,,,,,,,,,,,,,,,,,,,,,,,,,,,,,,,
,,5f12ab57b896bd212d80738f,2024-01-06_07h41.49.392,kallum_motion_pilot,2023.2.3,Win32,60.0240096,5f12ab57b896bd212d80738f,6598e6a5d84f07970b831e70,6598e74262a400b687bf733d,0.017,0.017,0,19,19,1,1,onethree,,,,,,,,,,,,,,,,,,,,,,,,,,,,,,,,,,,,,,,,,,,,,,,,,,,,,,,,,,,,,,,,,,,,,,,,,,,,,,,,,,,,,,,,,,,,,,,,,,,,,,,,,,,,,,,,,,,,,,,,,,,,,,,,,,,,,,,
,,5f12ab57b896bd212d80738f,2024-01-06_07h41.49.392,kallum_motion_pilot,2023.2.3,Win32,60.0240096,5f12ab57b896bd212d80738f,6598e6a5d84f07970b831e70,6598e74262a400b687bf733d,0.017,0.017,0,20,20,161,1,fiveseven,,,,,,,,,,,,,,,,,,,,,,,,,,,,,,,,,,,,,,,,,,,,,,,,,,,,,,,,,,,,,,,,,,,,,,,,,,,,,,,,,,,,,,,,,,,,,,,,,,,,,,,,,,,,,,,,,,,,,,,,,,,,,,,,,,,,,,,
,,5f12ab57b896bd212d80738f,2024-01-06_07h41.49.392,kallum_motion_pilot,2023.2.3,Win32,60.0240096,5f12ab57b896bd212d80738f,6598e6a5d84f07970b831e70,6598e74262a400b687bf733d,0.017,0.017,0,21,21,33,1,onethree,,,,,,,,,,,,,,,,,,,,,,,,,,,,,,,,,,,,,,,,,,,,,,,,,,,,,,,,,,,,,,,,,,,,,,,,,,,,,,,,,,,,,,,,,,,,,,,,,,,,,,,,,,,,,,,,,,,,,,,,,,,,,,,,,,,,,,,
,,5f12ab57b896bd212d80738f,2024-01-06_07h41.49.392,kallum_motion_pilot,2023.2.3,Win32,60.0240096,5f12ab57b896bd212d80738f,6598e6a5d84f07970b831e70,6598e74262a400b687bf733d,0.017,0.017,0,22,22,135,1,eightseven,,,,,,,,,,,,,,,,,,,,,,,,,,,,,,,,,,,,,,,,,,,,,,,,,,,,,,,,,,,,,,,,,,,,,,,,,,,,,,,,,,,,,,,,,,,,,,,,,,,,,,,,,,,,,,,,,,,,,,,,,,,,,,,,,,,,,,,
,,5f12ab57b896bd212d80738f,2024-01-06_07h41.49.392,kallum_motion_pilot,2023.2.3,Win32,60.0240096,5f12ab57b896bd212d80738f,6598e6a5d84f07970b831e70,6598e74262a400b687bf733d,0.017,0.017,0,23,23,109,1,seveneight,,,,,,,,,,,,,,,,,,,,,,,,,,,,,,,,,,,,,,,,,,,,,,,,,,,,,,,,,,,,,,,,,,,,,,,,,,,,,,,,,,,,,,,,,,,,,,,,,,,,,,,,,,,,,,,,,,,,,,,,,,,,,,,,,,,,,,,
,,5f12ab57b896bd212d80738f,2024-01-06_07h41.49.392,kallum_motion_pilot,2023.2.3,Win32,60.0240096,5f12ab57b896bd212d80738f,6598e6a5d84f07970b831e70,6598e74262a400b687bf733d,0.017,0.017,0,24,24,57,1,onethree,,,,,,,,,,,,,,,,,,,,,,,,,,,,,,,,,,,,,,,,,,,,,,,,,,,,,,,,,,,,,,,,,,,,,,,,,,,,,,,,,,,,,,,,,,,,,,,,,,,,,,,,,,,,,,,,,,,,,,,,,,,,,,,,,,,,,,,
,,5f12ab57b896bd212d80738f,2024-01-06_07h41.49.392,kallum_motion_pilot,2023.2.3,Win32,60.0240096,5f12ab57b896bd212d80738f,6598e6a5d84f07970b831e70,6598e74262a400b687bf733d,0.017,0.017,0,25,25,97,1,fiveseven,,,,,,,,,,,,,,,,,,,,,,,,,,,,,,,,,,,,,,,,,,,,,,,,,,,,,,,,,,,,,,,,,,,,,,,,,,,,,,,,,,,,,,,,,,,,,,,,,,,,,,,,,,,,,,,,,,,,,,,,,,,,,,,,,,,,,,,
,,5f12ab57b896bd212d80738f,2024-01-06_07h41.49.392,kallum_motion_pilot,2023.2.3,Win32,60.0240096,5f12ab57b896bd212d80738f,6598e6a5d84f07970b831e70,6598e74262a400b687bf733d,0.017,0.017,0,26,26,74,1,twoone,,,,,,,,,,,,,,,,,,,,,,,,,,,,,,,,,,,,,,,,,,,,,,,,,,,,,,,,,,,,,,,,,,,,,,,,,,,,,,,,,,,,,,,,,,,,,,,,,,,,,,,,,,,,,,,,,,,,,,,,,,,,,,,,,,,,,,,
,,5f12ab57b896bd212d80738f,2024-01-06_07h41.49.392,kallum_motion_pilot,2023.2.3,Win32,60.0240096,5f12ab57b896bd212d80738f,6598e6a5d84f07970b831e70,6598e74262a400b687bf733d,0.017,0.017,0,27,27,157,1,seveneight,,,,,,,,,,,,,,,,,,,,,,,,,,,,,,,,,,,,,,,,,,,,,,,,,,,,,,,,,,,,,,,,,,,,,,,,,,,,,,,,,,,,,,,,,,,,,,,,,,,,,,,,,,,,,,,,,,,,,,,,,,,,,,,,,,,,,,,
,,5f12ab57b896bd212d80738f,2024-01-06_07h41.49.392,kallum_motion_pilot,2023.2.3,Win32,60.0240096,5f12ab57b896bd212d80738f,6598e6a5d84f07970b831e70,6598e74262a400b687bf733d,0.017,0.017,0,28,28,69,1,threefour,,,,,,,,,,,,,,,,,,,,,,,,,,,,,,,,,,,,,,,,,,,,,,,,,,,,,,,,,,,,,,,,,,,,,,,,,,,,,,,,,,,,,,,,,,,,,,,,,,,,,,,,,,,,,,,,,,,,,,,,,,,,,,,,,,,,,,,
,,5f12ab57b896bd212d80738f,2024-01-06_07h41.49.392,kallum_motion_pilot,2023.2.3,Win32,60.0240096,5f12ab57b896bd212d80738f,6598e6a5d84f07970b831e70,6598e74262a400b687bf733d,0.017,0.017,0,29,29,137,1,fiveseven,,,,,,,,,,,,,,,,,,,,,,,,,,,,,,,,,,,,,,,,,,,,,,,,,,,,,,,,,,,,,,,,,,,,,,,,,,,,,,,,,,,,,,,,,,,,,,,,,,,,,,,,,,,,,,,,,,,,,,,,,,,,,,,,,,,,,,,
,,5f12ab57b896bd212d80738f,2024-01-06_07h41.49.392,kallum_motion_pilot,2023.2.3,Win32,60.0240096,5f12ab57b896bd212d80738f,6598e6a5d84f07970b831e70,6598e74262a400b687bf733d,0.017,0.017,0,30,30,123,1,sixeight,,,,,,,,,,,,,,,,,,,,,,,,,,,,,,,,,,,,,,,,,,,,,,,,,,,,,,,,,,,,,,,,,,,,,,,,,,,,,,,,,,,,,,,,,,,,,,,,,,,,,,,,,,,,,,,,,,,,,,,,,,,,,,,,,,,,,,,
,,5f12ab57b896bd212d80738f,2024-01-06_07h41.49.392,kallum_motion_pilot,2023.2.3,Win32,60.0240096,5f12ab57b896bd212d80738f,6598e6a5d84f07970b831e70,6598e74262a400b687bf733d,0.017,0.017,0,31,31,155,1,sixeight,,,,,,,,,,,,,,,,,,,,,,,,,,,,,,,,,,,,,,,,,,,,,,,,,,,,,,,,,,,,,,,,,,,,,,,,,,,,,,,,,,,,,,,,,,,,,,,,,,,,,,,,,,,,,,,,,,,,,,,,,,,,,,,,,,,,,,,
,,5f12ab57b896bd212d80738f,2024-01-06_07h41.49.392,kallum_motion_pilot,2023.2.3,Win32,60.0240096,5f12ab57b896bd212d80738f,6598e6a5d84f07970b831e70,6598e74262a400b687bf733d,0.017,0.017,0,32,32,139,1,sixeight,,,,,,,,,,,,,,,,,,,,,,,,,,,,,,,,,,,,,,,,,,,,,,,,,,,,,,,,,,,,,,,,,,,,,,,,,,,,,,,,,,,,,,,,,,,,,,,,,,,,,,,,,,,,,,,,,,,,,,,,,,,,,,,,,,,,,,,
,,5f12ab57b896bd212d80738f,2024-01-06_07h41.49.392,kallum_motion_pilot,2023.2.3,Win32,60.0240096,5f12ab57b896bd212d80738f,6598e6a5d84f07970b831e70,6598e74262a400b687bf733d,0.018,0.018,0,33,33,111,1,eightseven,,,,,,,,,,,,,,,,,,,,,,,,,,,,,,,,,,,,,,,,,,,,,,,,,,,,,,,,,,,,,,,,,,,,,,,,,,,,,,,,,,,,,,,,,,,,,,,,,,,,,,,,,,,,,,,,,,,,,,,,,,,,,,,,,,,,,,,
,,5f12ab57b896bd212d80738f,2024-01-06_07h41.49.392,kallum_motion_pilot,2023.2.3,Win32,60.0240096,5f12ab57b896bd212d80738f,6598e6a5d84f07970b831e70,6598e74262a400b687bf733d,0.018,0.018,0,34,34,39,1,fourthree,,,,,,,,,,,,,,,,,,,,,,,,,,,,,,,,,,,,,,,,,,,,,,,,,,,,,,,,,,,,,,,,,,,,,,,,,,,,,,,,,,,,,,,,,,,,,,,,,,,,,,,,,,,,,,,,,,,,,,,,,,,,,,,,,,,,,,,
,,5f12ab57b896bd212d80738f,2024-01-06_07h41.49.392,kallum_motion_pilot,2023.2.3,Win32,60.0240096,5f12ab57b896bd212d80738f,6598e6a5d84f07970b831e70,6598e74262a400b687bf733d,0.018,0.018,0,35,35,45,1,threefour,,,,,,,,,,,,,,,,,,,,,,,,,,,,,,,,,,,,,,,,,,,,,,,,,,,,,,,,,,,,,,,,,,,,,,,,,,,,,,,,,,,,,,,,,,,,,,,,,,,,,,,,,,,,,,,,,,,,,,,,,,,,,,,,,,,,,,,
,,5f12ab57b896bd212d80738f,2024-01-06_07h41.49.392,kallum_motion_pilot,2023.2.3,Win32,60.0240096,5f12ab57b896bd212d80738f,6598e6a5d84f07970b831e70,6598e74262a400b687bf733d,0.018,0.018,0,36,36,150,1,eightsix,,,,,,,,,,,,,,,,,,,,,,,,,,,,,,,,,,,,,,,,,,,,,,,,,,,,,,,,,,,,,,,,,,,,,,,,,,,,,,,,,,,,,,,,,,,,,,,,,,,,,,,,,,,,,,,,,,,,,,,,,,,,,,,,,,,,,,,
,,5f12ab57b896bd212d80738f,2024-01-06_07h41.49.392,kallum_motion_pilot,2023.2.3,Win32,60.0240096,5f12ab57b896bd212d80738f,6598e6a5d84f07970b831e70,6598e74262a400b687bf733d,0.018,0.018,0,37,37,151,1,eightseven,,,,,,,,,,,,,,,,,,,,,,,,,,,,,,,,,,,,,,,,,,,,,,,,,,,,,,,,,,,,,,,,,,,,,,,,,,,,,,,,,,,,,,,,,,,,,,,,,,,,,,,,,,,,,,,,,,,,,,,,,,,,,,,,,,,,,,,
,,5f12ab57b896bd212d80738f,2024-01-06_07h41.49.392,kallum_motion_pilot,2023.2.3,Win32,60.0240096,5f12ab57b896bd212d80738f,6598e6a5d84f07970b831e70,6598e74262a400b687bf733d,0.018,0.018,0,38,38,51,1,twofour,,,,,,,,,,,,,,,,,,,,,,,,,,,,,,,,,,,,,,,,,,,,,,,,,,,,,,,,,,,,,,,,,,,,,,,,,,,,,,,,,,,,,,,,,,,,,,,,,,,,,,,,,,,,,,,,,,,,,,,,,,,,,,,,,,,,,,,
,,5f12ab57b896bd212d80738f,2024-01-06_07h41.49.392,kallum_motion_pilot,2023.2.3,Win32,60.0240096,5f12ab57b896bd212d80738f,6598e6a5d84f07970b831e70,6598e74262a400b687bf733d,0.018,0.018,0,39,39,159,1,eightseven,,,,,,,,,,,,,,,,,,,,,,,,,,,,,,,,,,,,,,,,,,,,,,,,,,,,,,,,,,,,,,,,,,,,,,,,,,,,,,,,,,,,,,,,,,,,,,,,,,,,,,,,,,,,,,,,,,,,,,,,,,,,,,,,,,,,,,,
,,5f12ab57b896bd212d80738f,2024-01-06_07h41.49.392,kallum_motion_pilot,2023.2.3,Win32,60.0240096,5f12ab57b896bd212d80738f,6598e6a5d84f07970b831e70,6598e74262a400b687bf733d,0.018,0.018,0,40,40,35,1,twofour,,,,,,,,,,,,,,,,,,,,,,,,,,,,,,,,,,,,,,,,,,,,,,,,,,,,,,,,,,,,,,,,,,,,,,,,,,,,,,,,,,,,,,,,,,,,,,,,,,,,,,,,,,,,,,,,,,,,,,,,,,,,,,,,,,,,,,,
,,5f12ab57b896bd212d80738f,2024-01-06_07h41.49.392,kallum_motion_pilot,2023.2.3,Win32,60.0240096,5f12ab57b896bd212d80738f,6598e6a5d84f07970b831e70,6598e74262a400b687bf733d,0.018,0.018,0,41,41,88,1,fivesix,,,,,,,,,,,,,,,,,,,,,,,,,,,,,,,,,,,,,,,,,,,,,,,,,,,,,,,,,,,,,,,,,,,,,,,,,,,,,,,,,,,,,,,,,,,,,,,,,,,,,,,,,,,,,,,,,,,,,,,,,,,,,,,,,,,,,,,
,,5f12ab57b896bd212d80738f,2024-01-06_07h41.49.392,kallum_motion_pilot,2023.2.3,Win32,60.0240096,5f12ab57b896bd212d80738f,6598e6a5d84f07970b831e70,6598e74262a400b687bf733d,0.019,0.019,0,42,42,70,1,fourtwo,,,,,,,,,,,,,,,,,,,,,,,,,,,,,,,,,,,,,,,,,,,,,,,,,,,,,,,,,,,,,,,,,,,,,,,,,,,,,,,,,,,,,,,,,,,,,,,,,,,,,,,,,,,,,,,,,,,,,,,,,,,,,,,,,,,,,,,
,,5f12ab57b896bd212d80738f,2024-01-06_07h41.49.392,kallum_motion_pilot,2023.2.3,Win32,60.0240096,5f12ab57b896bd212d80738f,6598e6a5d84f07970b831e70,6598e74262a400b687bf733d,0.019,0.019,0,43,43,16,1,onetwo,,,,,,,,,,,,,,,,,,,,,,,,,,,,,,,,,,,,,,,,,,,,,,,,,,,,,,,,,,,,,,,,,,,,,,,,,,,,,,,,,,,,,,,,,,,,,,,,,,,,,,,,,,,,,,,,,,,,,,,,,,,,,,,,,,,,,,,
,,5f12ab57b896bd212d80738f,2024-01-06_07h41.49.392,kallum_motion_pilot,2023.2.3,Win32,60.0240096,5f12ab57b896bd212d80738f,6598e6a5d84f07970b831e70,6598e74262a400b687bf733d,0.019,0.019,0,44,44,36,1,threeone,,,,,,,,,,,,,,,,,,,,,,,,,,,,,,,,,,,,,,,,,,,,,,,,,,,,,,,,,,,,,,,,,,,,,,,,,,,,,,,,,,,,,,,,,,,,,,,,,,,,,,,,,,,,,,,,,,,,,,,,,,,,,,,,,,,,,,,
,,5f12ab57b896bd212d80738f,2024-01-06_07h41.49.392,kallum_motion_pilot,2023.2.3,Win32,60.0240096,5f12ab57b896bd212d80738f,6598e6a5d84f07970b831e70,6598e74262a400b687bf733d,0.019,0.019,0,45,45,146,1,sixfive,,,,,,,,,,,,,,,,,,,,,,,,,,,,,,,,,,,,,,,,,,,,,,,,,,,,,,,,,,,,,,,,,,,,,,,,,,,,,,,,,,,,,,,,,,,,,,,,,,,,,,,,,,,,,,,,,,,,,,,,,,,,,,,,,,,,,,,
,,5f12ab57b896bd212d80738f,2024-01-06_07h41.49.392,kallum_motion_pilot,2023.2.3,Win32,60.0240096,5f12ab57b896bd212d80738f,6598e6a5d84f07970b831e70,6598e74262a400b687bf733d,0.019,0.019,0,46,46,99,1,sixeight,,,,,,,,,,,,,,,,,,,,,,,,,,,,,,,,,,,,,,,,,,,,,,,,,,,,,,,,,,,,,,,,,,,,,,,,,,,,,,,,,,,,,,,,,,,,,,,,,,,,,,,,,,,,,,,,,,,,,,,,,,,,,,,,,,,,,,,
,,5f12ab57b896bd212d80738f,2024-01-06_07h41.49.392,kallum_motion_pilot,2023.2.3,Win32,60.0240096,5f12ab57b896bd212d80738f,6598e6a5d84f07970b831e70,6598e74262a400b687bf733d,0.019,0.019,0,47,47,128,1,fivesix,,,,,,,,,,,,,,,,,,,,,,,,,,,,,,,,,,,,,,,,,,,,,,,,,,,,,,,,,,,,,,,,,,,,,,,,,,,,,,,,,,,,,,,,,,,,,,,,,,,,,,,,,,,,,,,,,,,,,,,,,,,,,,,,,,,,,,,
,,5f12ab57b896bd212d80738f,2024-01-06_07h41.49.392,kallum_motion_pilot,2023.2.3,Win32,60.0240096,5f12ab57b896bd212d80738f,6598e6a5d84f07970b831e70,6598e74262a400b687bf733d,0.019,0.019,0,48,48,106,1,sixfive,,,,,,,,,,,,,,,,,,,,,,,,,,,,,,,,,,,,,,,,,,,,,,,,,,,,,,,,,,,,,,,,,,,,,,,,,,,,,,,,,,,,,,,,,,,,,,,,,,,,,,,,,,,,,,,,,,,,,,,,,,,,,,,,,,,,,,,
,,5f12ab57b896bd212d80738f,2024-01-06_07h41.49.392,kallum_motion_pilot,2023.2.3,Win32,60.0240096,5f12ab57b896bd212d80738f,6598e6a5d84f07970b831e70,6598e74262a400b687bf733d,0.019,0.02,0,49,49,14,1,fourtwo,,,,,,,,,,,,,,,,,,,,,,,,,,,,,,,,,,,,,,,,,,,,,,,,,,,,,,,,,,,,,,,,,,,,,,,,,,,,,,,,,,,,,,,,,,,,,,,,,,,,,,,,,,,,,,,,,,,,,,,,,,,,,,,,,,,,,,,
,,5f12ab57b896bd212d80738f,2024-01-06_07h41.49.392,kallum_motion_pilot,2023.2.3,Win32,60.0240096,5f12ab57b896bd212d80738f,6598e6a5d84f07970b831e70,6598e74262a400b687bf733d,0.02,0.02,0,50,50,83,1,sixeight,,,,,,,,,,,,,,,,,,,,,,,,,,,,,,,,,,,,,,,,,,,,,,,,,,,,,,,,,,,,,,,,,,,,,,,,,,,,,,,,,,,,,,,,,,,,,,,,,,,,,,,,,,,,,,,,,,,,,,,,,,,,,,,,,,,,,,,
,,5f12ab57b896bd212d80738f,2024-01-06_07h41.49.392,kallum_motion_pilot,2023.2.3,Win32,60.0240096,5f12ab57b896bd212d80738f,6598e6a5d84f07970b831e70,6598e74262a400b687bf733d,0.02,0.02,0,51,51,127,1,eightseven,,,,,,,,,,,,,,,,,,,,,,,,,,,,,,,,,,,,,,,,,,,,,,,,,,,,,,,,,,,,,,,,,,,,,,,,,,,,,,,,,,,,,,,,,,,,,,,,,,,,,,,,,,,,,,,,,,,,,,,,,,,,,,,,,,,,,,,
,,5f12ab57b896bd212d80738f,2024-01-06_07h41.49.392,kallum_motion_pilot,2023.2.3,Win32,60.0240096,5f12ab57b896bd212d80738f,6598e6a5d84f07970b831e70,6598e74262a400b687bf733d,0.02,0.02,0,52,52,125,1,seveneight,,,,,,,,,,,,,,,,,,,,,,,,,,,,,,,,,,,,,,,,,,,,,,,,,,,,,,,,,,,,,,,,,,,,,,,,,,,,,,,,,,,,,,,,,,,,,,,,,,,,,,,,,,,,,,,,,,,,,,,,,,,,,,,,,,,,,,,
,,5f12ab57b896bd212d80738f,2024-01-06_07h41.49.392,kallum_motion_pilot,2023.2.3,Win32,60.0240096,5f12ab57b896bd212d80738f,6598e6a5d84f07970b831e70,6598e74262a400b687bf733d,0.02,0.02,0,53,53,102,1,eightsix,,,,,,,,,,,,,,,,,,,,,,,,,,,,,,,,,,,,,,,,,,,,,,,,,,,,,,,,,,,,,,,,,,,,,,,,,,,,,,,,,,,,,,,,,,,,,,,,,,,,,,,,,,,,,,,,,,,,,,,,,,,,,,,,,,,,,,,
,,5f12ab57b896bd212d80738f,2024-01-06_07h41.49.392,kallum_motion_pilot,2023.2.3,Win32,60.0240096,5f12ab57b896bd212d80738f,6598e6a5d84f07970b831e70,6598e74262a400b687bf733d,0.02,0.02,0,54,54,47,1,fourthree,,,,,,,,,,,,,,,,,,,,,,,,,,,,,,,,,,,,,,,,,,,,,,,,,,,,,,,,,,,,,,,,,,,,,,,,,,,,,,,,,,,,,,,,,,,,,,,,,,,,,,,,,,,,,,,,,,,,,,,,,,,,,,,,,,,,,,,
,,5f12ab57b896bd212d80738f,2024-01-06_07h41.49.392,kallum_motion_pilot,2023.2.3,Win32,60.0240096,5f12ab57b896bd212d80738f,6598e6a5d84f07970b831e70,6598e74262a400b687bf733d,0.02,0.02,0,55,55,140,1,sevenfive,,,,,,,,,,,,,,,,,,,,,,,,,,,,,,,,,,,,,,,,,,,,,,,,,,,,,,,,,,,,,,,,,,,,,,,,,,,,,,,,,,,,,,,,,,,,,,,,,,,,,,,,,,,,,,,,,,,,,,,,,,,,,,,,,,,,,,,
,,5f12ab57b896bd212d80738f,2024-01-06_07h41.49.392,kallum_motion_pilot,2023.2.3,Win32,60.0240096,5f12ab57b896bd212d80738f,6598e6a5d84f07970b831e70,6598e74262a400b687bf733d,0.02,0.02,0,56,56,154,1,sixfive,,,,,,,,,,,,,,,,,,,,,,,,,,,,,,,,,,,,,,,,,,,,,,,,,,,,,,,,,,,,,,,,,,,,,,,,,,,,,,,,,,,,,,,,,,,,,,,,,,,,,,,,,,,,,,,,,,,,,,,,,,,,,,,,,,,,,,,
,,5f12ab57b896bd212d80738f,2024-01-06_07h41.49.392,kallum_motion_pilot,2023.2.3,Win32,60.0240096,5f12ab57b896bd212d80738f,6598e6a5d84f07970b831e70,6598e74262a400b687bf733d,0.02,0.02,0,57,57,87,1,eightseven,,,,,,,,,,,,,,,,,,,,,,,,,,,,,,,,,,,,,,,,,,,,,,,,,,,,,,,,,,,,,,,,,,,,,,,,,,,,,,,,,,,,,,,,,,,,,,,,,,,,,,,,,,,,,,,,,,,,,,,,,,,,,,,,,,,,,,,
,,5f12ab57b896bd212d80738f,2024-01-06_07h41.49.392,kallum_motion_pilot,2023.2.3,Win32,60.0240096,5f12ab57b896bd212d80738f,6598e6a5d84f07970b831e70,6598e74262a400b687bf733d,0.02,0.02,0,58,58,43,1,twofour,,,,,,,,,,,,,,,,,,,,,,,,,,,,,,,,,,,,,,,,,,,,,,,,,,,,,,,,,,,,,,,,,,,,,,,,,,,,,,,,,,,,,,,,,,,,,,,,,,,,,,,,,,,,,,,,,,,,,,,,,,,,,,,,,,,,,,,
,,5f12ab57b896bd212d80738f,2024-01-06_07h41.49.392,kallum_motion_pilot,2023.2.3,Win32,60.0240096,5f12ab57b896bd212d80738f,6598e6a5d84f07970b831e70,6598e74262a400b687bf733d,0.02,0.02,0,59,59,72,1,onetwo,,,,,,,,,,,,,,,,,,,,,,,,,,,,,,,,,,,,,,,,,,,,,,,,,,,,,,,,,,,,,,,,,,,,,,,,,,,,,,,,,,,,,,,,,,,,,,,,,,,,,,,,,,,,,,,,,,,,,,,,,,,,,,,,,,,,,,,
,,5f12ab57b896bd212d80738f,2024-01-06_07h41.49.392,kallum_motion_pilot,2023.2.3,Win32,60.0240096,5f12ab57b896bd212d80738f,6598e6a5d84f07970b831e70,6598e74262a400b687bf733d,0.02,0.02,0,60,60,104,1,fivesix,,,,,,,,,,,,,,,,,,,,,,,,,,,,,,,,,,,,,,,,,,,,,,,,,,,,,,,,,,,,,,,,,,,,,,,,,,,,,,,,,,,,,,,,,,,,,,,,,,,,,,,,,,,,,,,,,,,,,,,,,,,,,,,,,,,,,,,
,,5f12ab57b896bd212d80738f,2024-01-06_07h41.49.392,kallum_motion_pilot,2023.2.3,Win32,60.0240096,5f12ab57b896bd212d80738f,6598e6a5d84f07970b831e70,6598e74262a400b687bf733d,0.02,0.02,0,61,61,4,1,threeone,,,,,,,,,,,,,,,,,,,,,,,,,,,,,,,,,,,,,,,,,,,,,,,,,,,,,,,,,,,,,,,,,,,,,,,,,,,,,,,,,,,,,,,,,,,,,,,,,,,,,,,,,,,,,,,,,,,,,,,,,,,,,,,,,,,,,,,
,,5f12ab57b896bd212d80738f,2024-01-06_07h41.49.392,kallum_motion_pilot,2023.2.3,Win32,60.0240096,5f12ab57b896bd212d80738f,6598e6a5d84f07970b831e70,6598e74262a400b687bf733d,0.021,0.021,0,62,62,113,1,fiveseven,,,,,,,,,,,,,,,,,,,,,,,,,,,,,,,,,,,,,,,,,,,,,,,,,,,,,,,,,,,,,,,,,,,,,,,,,,,,,,,,,,,,,,,,,,,,,,,,,,,,,,,,,,,,,,,,,,,,,,,,,,,,,,,,,,,,,,,
,,5f12ab57b896bd212d80738f,2024-01-06_07h41.49.392,kallum_motion_pilot,2023.2.3,Win32,60.0240096,5f12ab57b896bd212d80738f,6598e6a5d84f07970b831e70,6598e74262a400b687bf733d,0.021,0.021,0,63,63,132,1,sevenfive,,,,,,,,,,,,,,,,,,,,,,,,,,,,,,,,,,,,,,,,,,,,,,,,,,,,,,,,,,,,,,,,,,,,,,,,,,,,,,,,,,,,,,,,,,,,,,,,,,,,,,,,,,,,,,,,,,,,,,,,,,,,,,,,,,,,,,,
,,5f12ab57b896bd212d80738f,2024-01-06_07h41.49.392,kallum_motion_pilot,2023.2.3,Win32,60.0240096,5f12ab57b896bd212d80738f,6598e6a5d84f07970b831e70,6598e74262a400b687bf733d,0.021,0.021,0,64,64,0,1,onetwo,,,,,,,,,,,,,,,,,,,,,,,,,,,,,,,,,,,,,,,,,,,,,,,,,,,,,,,,,,,,,,,,,,,,,,,,,,,,,,,,,,,,,,,,,,,,,,,,,,,,,,,,,,,,,,,,,,,,,,,,,,,,,,,,,,,,,,,
,,5f12ab57b896bd212d80738f,2024-01-06_07h41.49.392,kallum_motion_pilot,2023.2.3,Win32,60.0240096,5f12ab57b896bd212d80738f,6598e6a5d84f07970b831e70,6598e74262a400b687bf733d,0.021,0.021,0,65,65,6,1,fourtwo,,,,,,,,,,,,,,,,,,,,,,,,,,,,,,,,,,,,,,,,,,,,,,,,,,,,,,,,,,,,,,,,,,,,,,,,,,,,,,,,,,,,,,,,,,,,,,,,,,,,,,,,,,,,,,,,,,,,,,,,,,,,,,,,,,,,,,,
,,5f12ab57b896bd212d80738f,2024-01-06_07h41.49.392,kallum_motion_pilot,2023.2.3,Win32,60.0240096,5f12ab57b896bd212d80738f,6598e6a5d84f07970b831e70,6598e74262a400b687bf733d,0.021,0.021,0,66,66,82,1,sixfive,,,,,,,,,,,,,,,,,,,,,,,,,,,,,,,,,,,,,,,,,,,,,,,,,,,,,,,,,,,,,,,,,,,,,,,,,,,,,,,,,,,,,,,,,,,,,,,,,,,,,,,,,,,,,,,,,,,,,,,,,,,,,,,,,,,,,,,
,,5f12ab57b896bd212d80738f,2024-01-06_07h41.49.392,kallum_motion_pilot,2023.2.3,Win32,60.0240096,5f12ab57b896bd212d80738f,6598e6a5d84f07970b831e70,6598e74262a400b687bf733d,0.021,0.021,0,67,67,94,1,eightsix,,,,,,,,,,,,,,,,,,,,,,,,,,,,,,,,,,,,,,,,,,,,,,,,,,,,,,,,,,,,,,,,,,,,,,,,,,,,,,,,,,,,,,,,,,,,,,,,,,,,,,,,,,,,,,,,,,,,,,,,,,,,,,,,,,,,,,,
,,5f12ab57b896bd212d80738f,2024-01-06_07h41.49.392,kallum_motion_pilot,2023.2.3,Win32,60.0240096,5f12ab57b896bd212d80738f,6598e6a5d84f07970b831e70,6598e74262a400b687bf733d,0.021,0.021,0,68,68,108,1,sevenfive,,,,,,,,,,,,,,,,,,,,,,,,,,,,,,,,,,,,,,,,,,,,,,,,,,,,,,,,,,,,,,,,,,,,,,,,,,,,,,,,,,,,,,,,,,,,,,,,,,,,,,,,,,,,,,,,,,,,,,,,,,,,,,,,,,,,,,,
,,5f12ab57b896bd212d80738f,2024-01-06_07h41.49.392,kallum_motion_pilot,2023.2.3,Win32,60.0240096,5f12ab57b896bd212d80738f,6598e6a5d84f07970b831e70,6598e74262a400b687bf733d,0.021,0.021,0,69,69,19,1,twofour,,,,,,,,,,,,,,,,,,,,,,,,,,,,,,,,,,,,,,,,,,,,,,,,,,,,,,,,,,,,,,,,,,,,,,,,,,,,,,,,,,,,,,,,,,,,,,,,,,,,,,,,,,,,,,,,,,,,,,,,,,,,,,,,,,,,,,,
,,5f12ab57b896bd212d80738f,2024-01-06_07h41.49.392,kallum_motion_pilot,2023.2.3,Win32,60.0240096,5f12ab57b896bd212d80738f,6598e6a5d84f07970b831e70,6598e74262a400b687bf733d,0.021,0.021,0,70,70,53,1,threefour,,,,,,,,,,,,,,,,,,,,,,,,,,,,,,,,,,,,,,,,,,,,,,,,,,,,,,,,,,,,,,,,,,,,,,,,,,,,,,,,,,,,,,,,,,,,,,,,,,,,,,,,,,,,,,,,,,,,,,,,,,,,,,,,,,,,,,,
,,5f12ab57b896bd212d80738f,2024-01-06_07h41.49.392,kallum_motion_pilot,2023.2.3,Win32,60.0240096,5f12ab57b896bd212d80738f,6598e6a5d84f07970b831e70,6598e74262a400b687bf733d,0.021,0.021,0,71,71,42,1,twoone,,,,,,,,,,,,,,,,,,,,,,,,,,,,,,,,,,,,,,,,,,,,,,,,,,,,,,,,,,,,,,,,,,,,,,,,,,,,,,,,,,,,,,,,,,,,,,,,,,,,,,,,,,,,,,,,,,,,,,,,,,,,,,,,,,,,,,,
,,5f12ab57b896bd212d80738f,2024-01-06_07h41.49.392,kallum_motion_pilot,2023.2.3,Win32,60.0240096,5f12ab57b896bd212d80738f,6598e6a5d84f07970b831e70,6598e74262a400b687bf733d,0.021,0.021,0,72,72,79,1,eightseven,,,,,,,,,,,,,,,,,,,,,,,,,,,,,,,,,,,,,,,,,,,,,,,,,,,,,,,,,,,,,,,,,,,,,,,,,,,,,,,,,,,,,,,,,,,,,,,,,,,,,,,,,,,,,,,,,,,,,,,,,,,,,,,,,,,,,,,
,,5f12ab57b896bd212d80738f,2024-01-06_07h41.49.392,kallum_motion_pilot,2023.2.3,Win32,60.0240096,5f12ab57b896bd212d80738f,6598e6a5d84f07970b831e70,6598e74262a400b687bf733d,0.021,0.021,0,73,73,2,1,twoone,,,,,,,,,,,,,,,,,,,,,,,,,,,,,,,,,,,,,,,,,,,,,,,,,,,,,,,,,,,,,,,,,,,,,,,,,,,,,,,,,,,,,,,,,,,,,,,,,,,,,,,,,,,,,,,,,,,,,,,,,,,,,,,,,,,,,,,
,,5f12ab57b896bd212d80738f,2024-01-06_07h41.49.392,kallum_motion_pilot,2023.2.3,Win32,60.0240096,5f12ab57b896bd212d80738f,6598e6a5d84f07970b831e70,6598e74262a400b687bf733d,0.021,0.021,0,74,74,71,1,fourthree,,,,,,,,,,,,,,,,,,,,,,,,,,,,,,,,,,,,,,,,,,,,,,,,,,,,,,,,,,,,,,,,,,,,,,,,,,,,,,,,,,,,,,,,,,,,,,,,,,,,,,,,,,,,,,,,,,,,,,,,,,,,,,,,,,,,,,,
,,5f12ab57b896bd212d80738f,2024-01-06_07h41.49.392,kallum_motion_pilot,2023.2.3,Win32,60.0240096,5f12ab57b896bd212d80738f,6598e6a5d84f07970b831e70,6598e74262a400b687bf733d,0.021,0.021,0,75,75,105,1,fiveseven,,,,,,,,,,,,,,,,,,,,,,,,,,,,,,,,,,,,,,,,,,,,,,,,,,,,,,,,,,,,,,,,,,,,,,,,,,,,,,,,,,,,,,,,,,,,,,,,,,,,,,,,,,,,,,,,,,,,,,,,,,,,,,,,,,,,,,,
,,5f12ab57b896bd212d80738f,2024-01-06_07h41.49.392,kallum_motion_pilot,2023.2.3,Win32,60.0240096,5f12ab57b896bd212d80738f,6598e6a5d84f07970b831e70,6598e74262a400b687bf733d,0.021,0.021,0,76,76,101,1,seveneight,,,,,,,,,,,,,,,,,,,,,,,,,,,,,,,,,,,,,,,,,,,,,,,,,,,,,,,,,,,,,,,,,,,,,,,,,,,,,,,,,,,,,,,,,,,,,,,,,,,,,,,,,,,,,,,,,,,,,,,,,,,,,,,,,,,,,,,
,,5f12ab57b896bd212d80738f,2024-01-06_07h41.49.392,kallum_motion_pilot,2023.2.3,Win32,60.0240096,5f12ab57b896bd212d80738f,6598e6a5d84f07970b831e70,6598e74262a400b687bf733d,0.022,0.022,0,77,77,8,1,onetwo,,,,,,,,,,,,,,,,,,,,,,,,,,,,,,,,,,,,,,,,,,,,,,,,,,,,,,,,,,,,,,,,,,,,,,,,,,,,,,,,,,,,,,,,,,,,,,,,,,,,,,,,,,,,,,,,,,,,,,,,,,,,,,,,,,,,,,,
,,5f12ab57b896bd212d80738f,2024-01-06_07h41.49.392,kallum_motion_pilot,2023.2.3,Win32,60.0240096,5f12ab57b896bd212d80738f,6598e6a5d84f07970b831e70,6598e74262a400b687bf733d,0.022,0.022,0,78,78,23,1,fourthree,,,,,,,,,,,,,,,,,,,,,,,,,,,,,,,,,,,,,,,,,,,,,,,,,,,,,,,,,,,,,,,,,,,,,,,,,,,,,,,,,,,,,,,,,,,,,,,,,,,,,,,,,,,,,,,,,,,,,,,,,,,,,,,,,,,,,,,
,,5f12ab57b896bd212d80738f,2024-01-06_07h41.49.392,kallum_motion_pilot,2023.2.3,Win32,60.0240096,5f12ab57b896bd212d80738f,6598e6a5d84f07970b831e70,6598e74262a400b687bf733d,0.022,0.022,0,79,79,136,1,fivesix,,,,,,,,,,,,,,,,,,,,,,,,,,,,,,,,,,,,,,,,,,,,,,,,,,,,,,,,,,,,,,,,,,,,,,,,,,,,,,,,,,,,,,,,,,,,,,,,,,,,,,,,,,,,,,,,,,,,,,,,,,,,,,,,,,,,,,,
,,5f12ab57b896bd212d80738f,2024-01-06_07h41.49.392,kallum_motion_pilot,2023.2.3,Win32,60.0240096,5f12ab57b896bd212d80738f,6598e6a5d84f07970b831e70,6598e74262a400b687bf733d,0.022,0.022,0,80,80,129,1,fiveseven,,,,,,,,,,,,,,,,,,,,,,,,,,,,,,,,,,,,,,,,,,,,,,,,,,,,,,,,,,,,,,,,,,,,,,,,,,,,,,,,,,,,,,,,,,,,,,,,,,,,,,,,,,,,,,,,,,,,,,,,,,,,,,,,,,,,,,,
,,5f12ab57b896bd212d80738f,2024-01-06_07h41.49.392,kallum_motion_pilot,2023.2.3,Win32,60.0240096,5f12ab57b896bd212d80738f,6598e6a5d84f07970b831e70,6598e74262a400b687bf733d,0.022,0.022,0,81,81,27,1,twofour,,,,,,,,,,,,,,,,,,,,,,,,,,,,,,,,,,,,,,,,,,,,,,,,,,,,,,,,,,,,,,,,,,,,,,,,,,,,,,,,,,,,,,,,,,,,,,,,,,,,,,,,,,,,,,,,,,,,,,,,,,,,,,,,,,,,,,,
,,5f12ab57b896bd212d80738f,2024-01-06_07h41.49.392,kallum_motion_pilot,2023.2.3,Win32,60.0240096,5f12ab57b896bd212d80738f,6598e6a5d84f07970b831e70,6598e74262a400b687bf733d,0.022,0.022,0,82,82,11,1,twofour,,,,,,,,,,,,,,,,,,,,,,,,,,,,,,,,,,,,,,,,,,,,,,,,,,,,,,,,,,,,,,,,,,,,,,,,,,,,,,,,,,,,,,,,,,,,,,,,,,,,,,,,,,,,,,,,,,,,,,,,,,,,,,,,,,,,,,,
,,5f12ab57b896bd212d80738f,2024-01-06_07h41.49.392,kallum_motion_pilot,2023.2.3,Win32,60.0240096,5f12ab57b896bd212d80738f,6598e6a5d84f07970b831e70,6598e74262a400b687bf733d,0.022,0.022,0,83,83,30,1,fourtwo,,,,,,,,,,,,,,,,,,,,,,,,,,,,,,,,,,,,,,,,,,,,,,,,,,,,,,,,,,,,,,,,,,,,,,,,,,,,,,,,,,,,,,,,,,,,,,,,,,,,,,,,,,,,,,,,,,,,,,,,,,,,,,,,,,,,,,,
,,5f12ab57b896bd212d80738f,2024-01-06_07h41.49.392,kallum_motion_pilot,2023.2.3,Win32,60.0240096,5f12ab57b896bd212d80738f,6598e6a5d84f07970b831e70,6598e74262a400b687bf733d,0.022,0.022,0,84,84,124,1,sevenfive,,,,,,,,,,,,,,,,,,,,,,,,,,,,,,,,,,,,,,,,,,,,,,,,,,,,,,,,,,,,,,,,,,,,,,,,,,,,,,,,,,,,,,,,,,,,,,,,,,,,,,,,,,,,,,,,,,,,,,,,,,,,,,,,,,,,,,,
,,5f12ab57b896bd212d80738f,2024-01-06_07h41.49.392,kallum_motion_pilot,2023.2.3,Win32,60.0240096,5f12ab57b896bd212d80738f,6598e6a5d84f07970b831e70,6598e74262a400b687bf733d,0.022,0.022,0,85,85,56,1,onetwo,,,,,,,,,,,,,,,,,,,,,,,,,,,,,,,,,,,,,,,,,,,,,,,,,,,,,,,,,,,,,,,,,,,,,,,,,,,,,,,,,,,,,,,,,,,,,,,,,,,,,,,,,,,,,,,,,,,,,,,,,,,,,,,,,,,,,,,
,,5f12ab57b896bd212d80738f,2024-01-06_07h41.49.392,kallum_motion_pilot,2023.2.3,Win32,60.0240096,5f12ab57b896bd212d80738f,6598e6a5d84f07970b831e70,6598e74262a400b687bf733d,0.022,0.022,0,86,86,25,1,onethree,,,,,,,,,,,,,,,,,,,,,,,,,,,,,,,,,,,,,,,,,,,,,,,,,,,,,,,,,,,,,,,,,,,,,,,,,,,,,,,,,,,,,,,,,,,,,,,,,,,,,,,,,,,,,,,,,,,,,,,,,,,,,,,,,,,,,,,
,,5f12ab57b896bd212d80738f,2024-01-06_07h41.49.392,kallum_motion_pilot,2023.2.3,Win32,60.0240096,5f12ab57b896bd212d80738f,6598e6a5d84f07970b831e70,6598e74262a400b687bf733d,0.022,0.022,0,87,87,145,1,fiveseven,,,,,,,,,,,,,,,,,,,,,,,,,,,,,,,,,,,,,,,,,,,,,,,,,,,,,,,,,,,,,,,,,,,,,,,,,,,,,,,,,,,,,,,,,,,,,,,,,,,,,,,,,,,,,,,,,,,,,,,,,,,,,,,,,,,,,,,
,,5f12ab57b896bd212d80738f,2024-01-06_07h41.49.392,kallum_motion_pilot,2023.2.3,Win32,60.0240096,5f12ab57b896bd212d80738f,6598e6a5d84f07970b831e70,6598e74262a400b687bf733d,0.022,0.022,0,88,88,32,1,onetwo,,,,,,,,,,,,,,,,,,,,,,,,,,,,,,,,,,,,,,,,,,,,,,,,,,,,,,,,,,,,,,,,,,,,,,,,,,,,,,,,,,,,,,,,,,,,,,,,,,,,,,,,,,,,,,,,,,,,,,,,,,,,,,,,,,,,,,,
,,5f12ab57b896bd212d80738f,2024-01-06_07h41.49.392,kallum_motion_pilot,2023.2.3,Win32,60.0240096,5f12ab57b896bd212d80738f,6598e6a5d84f07970b831e70,6598e74262a400b687bf733d,0.022,0.022,0,89,89,34,1,twoone,,,,,,,,,,,,,,,,,,,,,,,,,,,,,,,,,,,,,,,,,,,,,,,,,,,,,,,,,,,,,,,,,,,,,,,,,,,,,,,,,,,,,,,,,,,,,,,,,,,,,,,,,,,,,,,,,,,,,,,,,,,,,,,,,,,,,,,
,,5f12ab57b896bd212d80738f,2024-01-06_07h41.49.392,kallum_motion_pilot,2023.2.3,Win32,60.0240096,5f12ab57b896bd212d80738f,6598e6a5d84f07970b831e70,6598e74262a400b687bf733d,0.022,0.022,0,90,90,90,1,sixfive,,,,,,,,,,,,,,,,,,,,,,,,,,,,,,,,,,,,,,,,,,,,,,,,,,,,,,,,,,,,,,,,,,,,,,,,,,,,,,,,,,,,,,,,,,,,,,,,,,,,,,,,,,,,,,,,,,,,,,,,,,,,,,,,,,,,,,,
,,5f12ab57b896bd212d80738f,2024-01-06_07h41.49.392,kallum_motion_pilot,2023.2.3,Win32,60.0240096,5f12ab57b896bd212d80738f,6598e6a5d84f07970b831e70,6598e74262a400b687bf733d,0.022,0.022,0,91,91,52,1,threeone,,,,,,,,,,,,,,,,,,,,,,,,,,,,,,,,,,,,,,,,,,,,,,,,,,,,,,,,,,,,,,,,,,,,,,,,,,,,,,,,,,,,,,,,,,,,,,,,,,,,,,,,,,,,,,,,,,,,,,,,,,,,,,,,,,,,,,,
,,5f12ab57b896bd212d80738f,2024-01-06_07h41.49.392,kallum_motion_pilot,2023.2.3,Win32,60.0240096,5f12ab57b896bd212d80738f,6598e6a5d84f07970b831e70,6598e74262a400b687bf733d,0.023,0.023,0,92,92,7,1,fourthree,,,,,,,,,,,,,,,,,,,,,,,,,,,,,,,,,,,,,,,,,,,,,,,,,,,,,,,,,,,,,,,,,,,,,,,,,,,,,,,,,,,,,,,,,,,,,,,,,,,,,,,,,,,,,,,,,,,,,,,,,,,,,,,,,,,,,,,
,,5f12ab57b896bd212d80738f,2024-01-06_07h41.49.392,kallum_motion_pilot,2023.2.3,Win32,60.0240096,5f12ab57b896bd212d80738f,6598e6a5d84f07970b831e70,6598e74262a400b687bf733d,0.023,0.023,0,93,93,115,1,sixeight,,,,,,,,,,,,,,,,,,,,,,,,,,,,,,,,,,,,,,,,,,,,,,,,,,,,,,,,,,,,,,,,,,,,,,,,,,,,,,,,,,,,,,,,,,,,,,,,,,,,,,,,,,,,,,,,,,,,,,,,,,,,,,,,,,,,,,,
,,5f12ab57b896bd212d80738f,2024-01-06_07h41.49.392,kallum_motion_pilot,2023.2.3,Win32,60.0240096,5f12ab57b896bd212d80738f,6598e6a5d84f07970b831e70,6598e74262a400b687bf733d,0.023,0.023,0,94,94,37,1,threefour,,,,,,,,,,,,,,,,,,,,,,,,,,,,,,,,,,,,,,,,,,,,,,,,,,,,,,,,,,,,,,,,,,,,,,,,,,,,,,,,,,,,,,,,,,,,,,,,,,,,,,,,,,,,,,,,,,,,,,,,,,,,,,,,,,,,,,,
,,5f12ab57b896bd212d80738f,2024-01-06_07h41.49.392,kallum_motion_pilot,2023.2.3,Win32,60.0240096,5f12ab57b896bd212d80738f,6598e6a5d84f07970b831e70,6598e74262a400b687bf733d,0.023,0.023,0,95,95,121,1,fiveseven,,,,,,,,,,,,,,,,,,,,,,,,,,,,,,,,,,,,,,,,,,,,,,,,,,,,,,,,,,,,,,,,,,,,,,,,,,,,,,,,,,,,,,,,,,,,,,,,,,,,,,,,,,,,,,,,,,,,,,,,,,,,,,,,,,,,,,,
,,5f12ab57b896bd212d80738f,2024-01-06_07h41.49.392,kallum_motion_pilot,2023.2.3,Win32,60.0240096,5f12ab57b896bd212d80738f,6598e6a5d84f07970b831e70,6598e74262a400b687bf733d,0.023,0.023,0,96,96,67,1,twofour,,,,,,,,,,,,,,,,,,,,,,,,,,,,,,,,,,,,,,,,,,,,,,,,,,,,,,,,,,,,,,,,,,,,,,,,,,,,,,,,,,,,,,,,,,,,,,,,,,,,,,,,,,,,,,,,,,,,,,,,,,,,,,,,,,,,,,,
,,5f12ab57b896bd212d80738f,2024-01-06_07h41.49.392,kallum_motion_pilot,2023.2.3,Win32,60.0240096,5f12ab57b896bd212d80738f,6598e6a5d84f07970b831e70,6598e74262a400b687bf733d,0.023,0.023,0,97,97,149,1,seveneight,,,,,,,,,,,,,,,,,,,,,,,,,,,,,,,,,,,,,,,,,,,,,,,,,,,,,,,,,,,,,,,,,,,,,,,,,,,,,,,,,,,,,,,,,,,,,,,,,,,,,,,,,,,,,,,,,,,,,,,,,,,,,,,,,,,,,,,
,,5f12ab57b896bd212d80738f,2024-01-06_07h41.49.392,kallum_motion_pilot,2023.2.3,Win32,60.0240096,5f12ab57b896bd212d80738f,6598e6a5d84f07970b831e70,6598e74262a400b687bf733d,0.023,0.023,0,98,98,10,1,twoone,,,,,,,,,,,,,,,,,,,,,,,,,,,,,,,,,,,,,,,,,,,,,,,,,,,,,,,,,,,,,,,,,,,,,,,,,,,,,,,,,,,,,,,,,,,,,,,,,,,,,,,,,,,,,,,,,,,,,,,,,,,,,,,,,,,,,,,
,,5f12ab57b896bd212d80738f,2024-01-06_07h41.49.392,kallum_motion_pilot,2023.2.3,Win32,60.0240096,5f12ab57b896bd212d80738f,6598e6a5d84f07970b831e70,6598e74262a400b687bf733d,0.023,0.023,0,99,99,22,1,fourtwo,,,,,,,,,,,,,,,,,,,,,,,,,,,,,,,,,,,,,,,,,,,,,,,,,,,,,,,,,,,,,,,,,,,,,,,,,,,,,,,,,,,,,,,,,,,,,,,,,,,,,,,,,,,,,,,,,,,,,,,,,,,,,,,,,,,,,,,
,,5f12ab57b896bd212d80738f,2024-01-06_07h41.49.392,kallum_motion_pilot,2023.2.3,Win32,60.0240096,5f12ab57b896bd212d80738f,6598e6a5d84f07970b831e70,6598e74262a400b687bf733d,0.023,0.023,0,100,100,76,1,threeone,,,,,,,,,,,,,,,,,,,,,,,,,,,,,,,,,,,,,,,,,,,,,,,,,,,,,,,,,,,,,,,,,,,,,,,,,,,,,,,,,,,,,,,,,,,,,,,,,,,,,,,,,,,,,,,,,,,,,,,,,,,,,,,,,,,,,,,
,,5f12ab57b896bd212d80738f,2024-01-06_07h41.49.392,kallum_motion_pilot,2023.2.3,Win32,60.0240096,5f12ab57b896bd212d80738f,6598e6a5d84f07970b831e70,6598e74262a400b687bf733d,0.023,0.023,0,101,101,160,1,fivesix,,,,,,,,,,,,,,,,,,,,,,,,,,,,,,,,,,,,,,,,,,,,,,,,,,,,,,,,,,,,,,,,,,,,,,,,,,,,,,,,,,,,,,,,,,,,,,,,,,,,,,,,,,,,,,,,,,,,,,,,,,,,,,,,,,,,,,,
,,5f12ab57b896bd212d80738f,2024-01-06_07h41.49.392,kallum_motion_pilot,2023.2.3,Win32,60.0240096,5f12ab57b896bd212d80738f,6598e6a5d84f07970b831e70,6598e74262a400b687bf733d,0.023,0.023,0,102,102,59,1,twofour,,,,,,,,,,,,,,,,,,,,,,,,,,,,,,,,,,,,,,,,,,,,,,,,,,,,,,,,,,,,,,,,,,,,,,,,,,,,,,,,,,,,,,,,,,,,,,,,,,,,,,,,,,,,,,,,,,,,,,,,,,,,,,,,,,,,,,,
,,5f12ab57b896bd212d80738f,2024-01-06_07h41.49.392,kallum_motion_pilot,2023.2.3,Win32,60.0240096,5f12ab57b896bd212d80738f,6598e6a5d84f07970b831e70,6598e74262a400b687bf733d,0.023,0.023,0,103,103,147,1,sixeight,,,,,,,,,,,,,,,,,,,,,,,,,,,,,,,,,,,,,,,,,,,,,,,,,,,,,,,,,,,,,,,,,,,,,,,,,,,,,,,,,,,,,,,,,,,,,,,,,,,,,,,,,,,,,,,,,,,,,,,,,,,,,,,,,,,,,,,
,,5f12ab57b896bd212d80738f,2024-01-06_07h41.49.392,kallum_motion_pilot,2023.2.3,Win32,60.0240096,5f12ab57b896bd212d80738f,6598e6a5d84f07970b831e70,6598e74262a400b687bf733d,0.023,0.023,0,104,104,141,1,seveneight,,,,,,,,,,,,,,,,,,,,,,,,,,,,,,,,,,,,,,,,,,,,,,,,,,,,,,,,,,,,,,,,,,,,,,,,,,,,,,,,,,,,,,,,,,,,,,,,,,,,,,,,,,,,,,,,,,,,,,,,,,,,,,,,,,,,,,,
,,5f12ab57b896bd212d80738f,2024-01-06_07h41.49.392,kallum_motion_pilot,2023.2.3,Win32,60.0240096,5f12ab57b896bd212d80738f,6598e6a5d84f07970b831e70,6598e74262a400b687bf733d,0.024,0.024,0,105,105,31,1,fourthree,,,,,,,,,,,,,,,,,,,,,,,,,,,,,,,,,,,,,,,,,,,,,,,,,,,,,,,,,,,,,,,,,,,,,,,,,,,,,,,,,,,,,,,,,,,,,,,,,,,,,,,,,,,,,,,,,,,,,,,,,,,,,,,,,,,,,,,
,,5f12ab57b896bd212d80738f,2024-01-06_07h41.49.392,kallum_motion_pilot,2023.2.3,Win32,60.0240096,5f12ab57b896bd212d80738f,6598e6a5d84f07970b831e70,6598e74262a400b687bf733d,0.024,0.024,0,106,106,3,1,twofour,,,,,,,,,,,,,,,,,,,,,,,,,,,,,,,,,,,,,,,,,,,,,,,,,,,,,,,,,,,,,,,,,,,,,,,,,,,,,,,,,,,,,,,,,,,,,,,,,,,,,,,,,,,,,,,,,,,,,,,,,,,,,,,,,,,,,,,
,,5f12ab57b896bd212d80738f,2024-01-06_07h41.49.392,kallum_motion_pilot,2023.2.3,Win32,60.0240096,5f12ab57b896bd212d80738f,6598e6a5d84f07970b831e70,6598e74262a400b687bf733d,0.024,0.024,0,107,107,40,1,onetwo,,,,,,,,,,,,,,,,,,,,,,,,,,,,,,,,,,,,,,,,,,,,,,,,,,,,,,,,,,,,,,,,,,,,,,,,,,,,,,,,,,,,,,,,,,,,,,,,,,,,,,,,,,,,,,,,,,,,,,,,,,,,,,,,,,,,,,,
,,5f12ab57b896bd212d80738f,2024-01-06_07h41.49.392,kallum_motion_pilot,2023.2.3,Win32,60.0240096,5f12ab57b896bd212d80738f,6598e6a5d84f07970b831e70,6598e74262a400b687bf733d,0.024,0.024,0,108,108,119,1,eightseven,,,,,,,,,,,,,,,,,,,,,,,,,,,,,,,,,,,,,,,,,,,,,,,,,,,,,,,,,,,,,,,,,,,,,,,,,,,,,,,,,,,,,,,,,,,,,,,,,,,,,,,,,,,,,,,,,,,,,,,,,,,,,,,,,,,,,,,
,,5f12ab57b896bd212d80738f,2024-01-06_07h41.49.392,kallum_motion_pilot,2023.2.3,Win32,60.0240096,5f12ab57b896bd212d80738f,6598e6a5d84f07970b831e70,6598e74262a400b687bf733d,0.024,0.024,0,109,109,89,1,fiveseven,,,,,,,,,,,,,,,,,,,,,,,,,,,,,,,,,,,,,,,,,,,,,,,,,,,,,,,,,,,,,,,,,,,,,,,,,,,,,,,,,,,,,,,,,,,,,,,,,,,,,,,,,,,,,,,,,,,,,,,,,,,,,,,,,,,,,,,
,,5f12ab57b896bd212d80738f,2024-01-06_07h41.49.392,kallum_motion_pilot,2023.2.3,Win32,60.0240096,5f12ab57b896bd212d80738f,6598e6a5d84f07970b831e70,6598e74262a400b687bf733d,0.024,0.024,0,110,110,120,1,fivesix,,,,,,,,,,,,,,,,,,,,,,,,,,,,,,,,,,,,,,,,,,,,,,,,,,,,,,,,,,,,,,,,,,,,,,,,,,,,,,,,,,,,,,,,,,,,,,,,,,,,,,,,,,,,,,,,,,,,,,,,,,,,,,,,,,,,,,,
,,5f12ab57b896bd212d80738f,2024-01-06_07h41.49.392,kallum_motion_pilot,2023.2.3,Win32,60.0240096,5f12ab57b896bd212d80738f,6598e6a5d84f07970b831e70,6598e74262a400b687bf733d,0.024,0.024,0,111,111,92,1,sevenfive,,,,,,,,,,,,,,,,,,,,,,,,,,,,,,,,,,,,,,,,,,,,,,,,,,,,,,,,,,,,,,,,,,,,,,,,,,,,,,,,,,,,,,,,,,,,,,,,,,,,,,,,,,,,,,,,,,,,,,,,,,,,,,,,,,,,,,,
,,5f12ab57b896bd212d80738f,2024-01-06_07h41.49.392,kallum_motion_pilot,2023.2.3,Win32,60.0240096,5f12ab57b896bd212d80738f,6598e6a5d84f07970b831e70,6598e74262a400b687bf733d,0.024,0.024,0,112,112,148,1,sevenfive,,,,,,,,,,,,,,,,,,,,,,,,,,,,,,,,,,,,,,,,,,,,,,,,,,,,,,,,,,,,,,,,,,,,,,,,,,,,,,,,,,,,,,,,,,,,,,,,,,,,,,,,,,,,,,,,,,,,,,,,,,,,,,,,,,,,,,,
,,5f12ab57b896bd212d80738f,2024-01-06_07h41.49.392,kallum_motion_pilot,2023.2.3,Win32,60.0240096,5f12ab57b896bd212d80738f,6598e6a5d84f07970b831e70,6598e74262a400b687bf733d,0.024,0.024,0,113,113,138,1,sixfive,,,,,,,,,,,,,,,,,,,,,,,,,,,,,,,,,,,,,,,,,,,,,,,,,,,,,,,,,,,,,,,,,,,,,,,,,,,,,,,,,,,,,,,,,,,,,,,,,,,,,,,,,,,,,,,,,,,,,,,,,,,,,,,,,,,,,,,
,,5f12ab57b896bd212d80738f,2024-01-06_07h41.49.392,kallum_motion_pilot,2023.2.3,Win32,60.0240096,5f12ab57b896bd212d80738f,6598e6a5d84f07970b831e70,6598e74262a400b687bf733d,0.024,0.024,0,114,114,38,1,fourtwo,,,,,,,,,,,,,,,,,,,,,,,,,,,,,,,,,,,,,,,,,,,,,,,,,,,,,,,,,,,,,,,,,,,,,,,,,,,,,,,,,,,,,,,,,,,,,,,,,,,,,,,,,,,,,,,,,,,,,,,,,,,,,,,,,,,,,,,
,,5f12ab57b896bd212d80738f,2024-01-06_07h41.49.392,kallum_motion_pilot,2023.2.3,Win32,60.0240096,5f12ab57b896bd212d80738f,6598e6a5d84f07970b831e70,6598e74262a400b687bf733d,0.024,0.024,0,115,115,21,1,threefour,,,,,,,,,,,,,,,,,,,,,,,,,,,,,,,,,,,,,,,,,,,,,,,,,,,,,,,,,,,,,,,,,,,,,,,,,,,,,,,,,,,,,,,,,,,,,,,,,,,,,,,,,,,,,,,,,,,,,,,,,,,,,,,,,,,,,,,
,,5f12ab57b896bd212d80738f,2024-01-06_07h41.49.392,kallum_motion_pilot,2023.2.3,Win32,60.0240096,5f12ab57b896bd212d80738f,6598e6a5d84f07970b831e70,6598e74262a400b687bf733d,0.024,0.024,0,116,116,65,1,onethree,,,,,,,,,,,,,,,,,,,,,,,,,,,,,,,,,,,,,,,,,,,,,,,,,,,,,,,,,,,,,,,,,,,,,,,,,,,,,,,,,,,,,,,,,,,,,,,,,,,,,,,,,,,,,,,,,,,,,,,,,,,,,,,,,,,,,,,
,,5f12ab57b896bd212d80738f,2024-01-06_07h41.49.392,kallum_motion_pilot,2023.2.3,Win32,60.0240096,5f12ab57b896bd212d80738f,6598e6a5d84f07970b831e70,6598e74262a400b687bf733d,0.025,0.025,0,117,117,44,1,threeone,,,,,,,,,,,,,,,,,,,,,,,,,,,,,,,,,,,,,,,,,,,,,,,,,,,,,,,,,,,,,,,,,,,,,,,,,,,,,,,,,,,,,,,,,,,,,,,,,,,,,,,,,,,,,,,,,,,,,,,,,,,,,,,,,,,,,,,
,,5f12ab57b896bd212d80738f,2024-01-06_07h41.49.392,kallum_motion_pilot,2023.2.3,Win32,60.0240096,5f12ab57b896bd212d80738f,6598e6a5d84f07970b831e70,6598e74262a400b687bf733d,0.025,0.025,0,118,118,134,1,eightsix,,,,,,,,,,,,,,,,,,,,,,,,,,,,,,,,,,,,,,,,,,,,,,,,,,,,,,,,,,,,,,,,,,,,,,,,,,,,,,,,,,,,,,,,,,,,,,,,,,,,,,,,,,,,,,,,,,,,,,,,,,,,,,,,,,,,,,,
,,5f12ab57b896bd212d80738f,2024-01-06_07h41.49.392,kallum_motion_pilot,2023.2.3,Win32,60.0240096,5f12ab57b896bd212d80738f,6598e6a5d84f07970b831e70,6598e74262a400b687bf733d,0.025,0.025,0,119,119,133,1,seveneight,,,,,,,,,,,,,,,,,,,,,,,,,,,,,,,,,,,,,,,,,,,,,,,,,,,,,,,,,,,,,,,,,,,,,,,,,,,,,,,,,,,,,,,,,,,,,,,,,,,,,,,,,,,,,,,,,,,,,,,,,,,,,,,,,,,,,,,
,,5f12ab57b896bd212d80738f,2024-01-06_07h41.49.392,kallum_motion_pilot,2023.2.3,Win32,60.0240096,5f12ab57b896bd212d80738f,6598e6a5d84f07970b831e70,6598e74262a400b687bf733d,0.025,0.025,0,120,120,26,1,twoone,,,,,,,,,,,,,,,,,,,,,,,,,,,,,,,,,,,,,,,,,,,,,,,,,,,,,,,,,,,,,,,,,,,,,,,,,,,,,,,,,,,,,,,,,,,,,,,,,,,,,,,,,,,,,,,,,,,,,,,,,,,,,,,,,,,,,,,
,,5f12ab57b896bd212d80738f,2024-01-06_07h41.49.392,kallum_motion_pilot,2023.2.3,Win32,60.0240096,5f12ab57b896bd212d80738f,6598e6a5d84f07970b831e70,6598e74262a400b687bf733d,0.025,0.025,0,121,121,15,1,fourthree,,,,,,,,,,,,,,,,,,,,,,,,,,,,,,,,,,,,,,,,,,,,,,,,,,,,,,,,,,,,,,,,,,,,,,,,,,,,,,,,,,,,,,,,,,,,,,,,,,,,,,,,,,,,,,,,,,,,,,,,,,,,,,,,,,,,,,,
,,5f12ab57b896bd212d80738f,2024-01-06_07h41.49.392,kallum_motion_pilot,2023.2.3,Win32,60.0240096,5f12ab57b896bd212d80738f,6598e6a5d84f07970b831e70,6598e74262a400b687bf733d,0.025,0.025,0,122,122,98,1,sixfive,,,,,,,,,,,,,,,,,,,,,,,,,,,,,,,,,,,,,,,,,,,,,,,,,,,,,,,,,,,,,,,,,,,,,,,,,,,,,,,,,,,,,,,,,,,,,,,,,,,,,,,,,,,,,,,,,,,,,,,,,,,,,,,,,,,,,,,
,,5f12ab57b896bd212d80738f,2024-01-06_07h41.49.392,kallum_motion_pilot,2023.2.3,Win32,60.0240096,5f12ab57b896bd212d80738f,6598e6a5d84f07970b831e70,6598e74262a400b687bf733d,0.025,0.025,0,123,123,62,1,fourtwo,,,,,,,,,,,,,,,,,,,,,,,,,,,,,,,,,,,,,,,,,,,,,,,,,,,,,,,,,,,,,,,,,,,,,,,,,,,,,,,,,,,,,,,,,,,,,,,,,,,,,,,,,,,,,,,,,,,,,,,,,,,,,,,,,,,,,,,
,,5f12ab57b896bd212d80738f,2024-01-06_07h41.49.392,kallum_motion_pilot,2023.2.3,Win32,60.0240096,5f12ab57b896bd212d80738f,6598e6a5d84f07970b831e70,6598e74262a400b687bf733d,0.026,0.026,0,124,124,55,1,fourthree,,,,,,,,,,,,,,,,,,,,,,,,,,,,,,,,,,,,,,,,,,,,,,,,,,,,,,,,,,,,,,,,,,,,,,,,,,,,,,,,,,,,,,,,,,,,,,,,,,,,,,,,,,,,,,,,,,,,,,,,,,,,,,,,,,,,,,,
,,5f12ab57b896bd212d80738f,2024-01-06_07h41.49.392,kallum_motion_pilot,2023.2.3,Win32,60.0240096,5f12ab57b896bd212d80738f,6598e6a5d84f07970b831e70,6598e74262a400b687bf733d,0.026,0.026,0,125,125,158,1,eightsix,,,,,,,,,,,,,,,,,,,,,,,,,,,,,,,,,,,,,,,,,,,,,,,,,,,,,,,,,,,,,,,,,,,,,,,,,,,,,,,,,,,,,,,,,,,,,,,,,,,,,,,,,,,,,,,,,,,,,,,,,,,,,,,,,,,,,,,
,,5f12ab57b896bd212d80738f,2024-01-06_07h41.49.392,kallum_motion_pilot,2023.2.3,Win32,60.0240096,5f12ab57b896bd212d80738f,6598e6a5d84f07970b831e70,6598e74262a400b687bf733d,0.026,0.026,0,126,126,114,1,sixfive,,,,,,,,,,,,,,,,,,,,,,,,,,,,,,,,,,,,,,,,,,,,,,,,,,,,,,,,,,,,,,,,,,,,,,,,,,,,,,,,,,,,,,,,,,,,,,,,,,,,,,,,,,,,,,,,,,,,,,,,,,,,,,,,,,,,,,,
,,5f12ab57b896bd212d80738f,2024-01-06_07h41.49.392,kallum_motion_pilot,2023.2.3,Win32,60.0240096,5f12ab57b896bd212d80738f,6598e6a5d84f07970b831e70,6598e74262a400b687bf733d,0.026,0.026,0,127,127,117,1,seveneight,,,,,,,,,,,,,,,,,,,,,,,,,,,,,,,,,,,,,,,,,,,,,,,,,,,,,,,,,,,,,,,,,,,,,,,,,,,,,,,,,,,,,,,,,,,,,,,,,,,,,,,,,,,,,,,,,,,,,,,,,,,,,,,,,,,,,,,
,,5f12ab57b896bd212d80738f,2024-01-06_07h41.49.392,kallum_motion_pilot,2023.2.3,Win32,60.0240096,5f12ab57b896bd212d80738f,6598e6a5d84f07970b831e70,6598e74262a400b687bf733d,0.026,0.026,0,128,128,103,1,eightseven,,,,,,,,,,,,,,,,,,,,,,,,,,,,,,,,,,,,,,,,,,,,,,,,,,,,,,,,,,,,,,,,,,,,,,,,,,,,,,,,,,,,,,,,,,,,,,,,,,,,,,,,,,,,,,,,,,,,,,,,,,,,,,,,,,,,,,,
,,5f12ab57b896bd212d80738f,2024-01-06_07h41.49.392,kallum_motion_pilot,2023.2.3,Win32,60.0240096,5f12ab57b896bd212d80738f,6598e6a5d84f07970b831e70,6598e74262a400b687bf733d,0.026,0.026,0,129,129,130,1,sixfive,,,,,,,,,,,,,,,,,,,,,,,,,,,,,,,,,,,,,,,,,,,,,,,,,,,,,,,,,,,,,,,,,,,,,,,,,,,,,,,,,,,,,,,,,,,,,,,,,,,,,,,,,,,,,,,,,,,,,,,,,,,,,,,,,,,,,,,
,,5f12ab57b896bd212d80738f,2024-01-06_07h41.49.392,kallum_motion_pilot,2023.2.3,Win32,60.0240096,5f12ab57b896bd212d80738f,6598e6a5d84f07970b831e70,6598e74262a400b687bf733d,0.026,0.026,0,130,130,153,1,fiveseven,,,,,,,,,,,,,,,,,,,,,,,,,,,,,,,,,,,,,,,,,,,,,,,,,,,,,,,,,,,,,,,,,,,,,,,,,,,,,,,,,,,,,,,,,,,,,,,,,,,,,,,,,,,,,,,,,,,,,,,,,,,,,,,,,,,,,,,
,,5f12ab57b896bd212d80738f,2024-01-06_07h41.49.392,kallum_motion_pilot,2023.2.3,Win32,60.0240096,5f12ab57b896bd212d80738f,6598e6a5d84f07970b831e70,6598e74262a400b687bf733d,0.026,0.026,0,131,131,66,1,twoone,,,,,,,,,,,,,,,,,,,,,,,,,,,,,,,,,,,,,,,,,,,,,,,,,,,,,,,,,,,,,,,,,,,,,,,,,,,,,,,,,,,,,,,,,,,,,,,,,,,,,,,,,,,,,,,,,,,,,,,,,,,,,,,,,,,,,,,
,,5f12ab57b896bd212d80738f,2024-01-06_07h41.49.392,kallum_motion_pilot,2023.2.3,Win32,60.0240096,5f12ab57b896bd212d80738f,6598e6a5d84f07970b831e70,6598e74262a400b687bf733d,0.027,0.027,0,132,132,126,1,eightsix,,,,,,,,,,,,,,,,,,,,,,,,,,,,,,,,,,,,,,,,,,,,,,,,,,,,,,,,,,,,,,,,,,,,,,,,,,,,,,,,,,,,,,,,,,,,,,,,,,,,,,,,,,,,,,,,,,,,,,,,,,,,,,,,,,,,,,,
,,5f12ab57b896bd212d80738f,2024-01-06_07h41.49.392,kallum_motion_pilot,2023.2.3,Win32,60.0240096,5f12ab57b896bd212d80738f,6598e6a5d84f07970b831e70,6598e74262a400b687bf733d,0.027,0.027,0,133,133,46,1,fourtwo,,,,,,,,,,,,,,,,,,,,,,,,,,,,,,,,,,,,,,,,,,,,,,,,,,,,,,,,,,,,,,,,,,,,,,,,,,,,,,,,,,,,,,,,,,,,,,,,,,,,,,,,,,,,,,,,,,,,,,,,,,,,,,,,,,,,,,,
,,5f12ab57b896bd212d80738f,2024-01-06_07h41.49.392,kallum_motion_pilot,2023.2.3,Win32,60.0240096,5f12ab57b896bd212d80738f,6598e6a5d84f07970b831e70,6598e74262a400b687bf733d,0.027,0.027,0,134,134,49,1,onethree,,,,,,,,,,,,,,,,,,,,,,,,,,,,,,,,,,,,,,,,,,,,,,,,,,,,,,,,,,,,,,,,,,,,,,,,,,,,,,,,,,,,,,,,,,,,,,,,,,,,,,,,,,,,,,,,,,,,,,,,,,,,,,,,,,,,,,,
,,5f12ab57b896bd212d80738f,2024-01-06_07h41.49.392,kallum_motion_pilot,2023.2.3,Win32,60.0240096,5f12ab57b896bd212d80738f,6598e6a5d84f07970b831e70,6598e74262a400b687bf733d,0.027,0.027,0,135,135,5,1,threefour,,,,,,,,,,,,,,,,,,,,,,,,,,,,,,,,,,,,,,,,,,,,,,,,,,,,,,,,,,,,,,,,,,,,,,,,,,,,,,,,,,,,,,,,,,,,,,,,,,,,,,,,,,,,,,,,,,,,,,,,,,,,,,,,,,,,,,,
,,5f12ab57b896bd212d80738f,2024-01-06_07h41.49.392,kallum_motion_pilot,2023.2.3,Win32,60.0240096,5f12ab57b896bd212d80738f,6598e6a5d84f07970b831e70,6598e74262a400b687bf733d,0.027,0.027,0,136,136,131,1,sixeight,,,,,,,,,,,,,,,,,,,,,,,,,,,,,,,,,,,,,,,,,,,,,,,,,,,,,,,,,,,,,,,,,,,,,,,,,,,,,,,,,,,,,,,,,,,,,,,,,,,,,,,,,,,,,,,,,,,,,,,,,,,,,,,,,,,,,,,
,,5f12ab57b896bd212d80738f,2024-01-06_07h41.49.392,kallum_motion_pilot,2023.2.3,Win32,60.0240096,5f12ab57b896bd212d80738f,6598e6a5d84f07970b831e70,6598e74262a400b687bf733d,0.027,0.027,0,137,137,60,1,threeone,,,,,,,,,,,,,,,,,,,,,,,,,,,,,,,,,,,,,,,,,,,,,,,,,,,,,,,,,,,,,,,,,,,,,,,,,,,,,,,,,,,,,,,,,,,,,,,,,,,,,,,,,,,,,,,,,,,,,,,,,,,,,,,,,,,,,,,
,,5f12ab57b896bd212d80738f,2024-01-06_07h41.49.392,kallum_motion_pilot,2023.2.3,Win32,60.0240096,5f12ab57b896bd212d80738f,6598e6a5d84f07970b831e70,6598e74262a400b687bf733d,0.027,0.027,0,138,138,81,1,fiveseven,,,,,,,,,,,,,,,,,,,,,,,,,,,,,,,,,,,,,,,,,,,,,,,,,,,,,,,,,,,,,,,,,,,,,,,,,,,,,,,,,,,,,,,,,,,,,,,,,,,,,,,,,,,,,,,,,,,,,,,,,,,,,,,,,,,,,,,
,,5f12ab57b896bd212d80738f,2024-01-06_07h41.49.392,kallum_motion_pilot,2023.2.3,Win32,60.0240096,5f12ab57b896bd212d80738f,6598e6a5d84f07970b831e70,6598e74262a400b687bf733d,0.027,0.027,0,139,139,77,1,threefour,,,,,,,,,,,,,,,,,,,,,,,,,,,,,,,,,,,,,,,,,,,,,,,,,,,,,,,,,,,,,,,,,,,,,,,,,,,,,,,,,,,,,,,,,,,,,,,,,,,,,,,,,,,,,,,,,,,,,,,,,,,,,,,,,,,,,,,
,,5f12ab57b896bd212d80738f,2024-01-06_07h41.49.392,kallum_motion_pilot,2023.2.3,Win32,60.0240096,5f12ab57b896bd212d80738f,6598e6a5d84f07970b831e70,6598e74262a400b687bf733d,0.027,0.027,0,140,140,122,1,sixfive,,,,,,,,,,,,,,,,,,,,,,,,,,,,,,,,,,,,,,,,,,,,,,,,,,,,,,,,,,,,,,,,,,,,,,,,,,,,,,,,,,,,,,,,,,,,,,,,,,,,,,,,,,,,,,,,,,,,,,,,,,,,,,,,,,,,,,,
,,5f12ab57b896bd212d80738f,2024-01-06_07h41.49.392,kallum_motion_pilot,2023.2.3,Win32,60.0240096,5f12ab57b896bd212d80738f,6598e6a5d84f07970b831e70,6598e74262a400b687bf733d,0.027,0.027,0,141,141,17,1,onethree,,,,,,,,,,,,,,,,,,,,,,,,,,,,,,,,,,,,,,,,,,,,,,,,,,,,,,,,,,,,,,,,,,,,,,,,,,,,,,,,,,,,,,,,,,,,,,,,,,,,,,,,,,,,,,,,,,,,,,,,,,,,,,,,,,,,,,,
,,5f12ab57b896bd212d80738f,2024-01-06_07h41.49.392,kallum_motion_pilot,2023.2.3,Win32,60.0240096,5f12ab57b896bd212d80738f,6598e6a5d84f07970b831e70,6598e74262a400b687bf733d,0.027,0.027,0,142,142,93,1,seveneight,,,,,,,,,,,,,,,,,,,,,,,,,,,,,,,,,,,,,,,,,,,,,,,,,,,,,,,,,,,,,,,,,,,,,,,,,,,,,,,,,,,,,,,,,,,,,,,,,,,,,,,,,,,,,,,,,,,,,,,,,,,,,,,,,,,,,,,
,,5f12ab57b896bd212d80738f,2024-01-06_07h41.49.392,kallum_motion_pilot,2023.2.3,Win32,60.0240096,5f12ab57b896bd212d80738f,6598e6a5d84f07970b831e70,6598e74262a400b687bf733d,0.027,0.027,0,143,143,41,1,onethree,,,,,,,,,,,,,,,,,,,,,,,,,,,,,,,,,,,,,,,,,,,,,,,,,,,,,,,,,,,,,,,,,,,,,,,,,,,,,,,,,,,,,,,,,,,,,,,,,,,,,,,,,,,,,,,,,,,,,,,,,,,,,,,,,,,,,,,
,,5f12ab57b896bd212d80738f,2024-01-06_07h41.49.392,kallum_motion_pilot,2023.2.3,Win32,60.0240096,5f12ab57b896bd212d80738f,6598e6a5d84f07970b831e70,6598e74262a400b687bf733d,0.027,0.027,0,144,144,73,1,onethree,,,,,,,,,,,,,,,,,,,,,,,,,,,,,,,,,,,,,,,,,,,,,,,,,,,,,,,,,,,,,,,,,,,,,,,,,,,,,,,,,,,,,,,,,,,,,,,,,,,,,,,,,,,,,,,,,,,,,,,,,,,,,,,,,,,,,,,
,,5f12ab57b896bd212d80738f,2024-01-06_07h41.49.392,kallum_motion_pilot,2023.2.3,Win32,60.0240096,5f12ab57b896bd212d80738f,6598e6a5d84f07970b831e70,6598e74262a400b687bf733d,0.027,0.027,0,145,145,156,1,sevenfive,,,,,,,,,,,,,,,,,,,,,,,,,,,,,,,,,,,,,,,,,,,,,,,,,,,,,,,,,,,,,,,,,,,,,,,,,,,,,,,,,,,,,,,,,,,,,,,,,,,,,,,,,,,,,,,,,,,,,,,,,,,,,,,,,,,,,,,
,,5f12ab57b896bd212d80738f,2024-01-06_07h41.49.392,kallum_motion_pilot,2023.2.3,Win32,60.0240096,5f12ab57b896bd212d80738f,6598e6a5d84f07970b831e70,6598e74262a400b687bf733d,0.027,0.027,0,146,146,96,1,fivesix,,,,,,,,,,,,,,,,,,,,,,,,,,,,,,,,,,,,,,,,,,,,,,,,,,,,,,,,,,,,,,,,,,,,,,,,,,,,,,,,,,,,,,,,,,,,,,,,,,,,,,,,,,,,,,,,,,,,,,,,,,,,,,,,,,,,,,,
,,5f12ab57b896bd212d80738f,2024-01-06_07h41.49.392,kallum_motion_pilot,2023.2.3,Win32,60.0240096,5f12ab57b896bd212d80738f,6598e6a5d84f07970b831e70,6598e74262a400b687bf733d,0.027,0.027,0,147,147,110,1,eightsix,,,,,,,,,,,,,,,,,,,,,,,,,,,,,,,,,,,,,,,,,,,,,,,,,,,,,,,,,,,,,,,,,,,,,,,,,,,,,,,,,,,,,,,,,,,,,,,,,,,,,,,,,,,,,,,,,,,,,,,,,,,,,,,,,,,,,,,
,,5f12ab57b896bd212d80738f,2024-01-06_07h41.49.392,kallum_motion_pilot,2023.2.3,Win32,60.0240096,5f12ab57b896bd212d80738f,6598e6a5d84f07970b831e70,6598e74262a400b687bf733d,0.028,0.028,0,148,148,63,1,fourthree,,,,,,,,,,,,,,,,,,,,,,,,,,,,,,,,,,,,,,,,,,,,,,,,,,,,,,,,,,,,,,,,,,,,,,,,,,,,,,,,,,,,,,,,,,,,,,,,,,,,,,,,,,,,,,,,,,,,,,,,,,,,,,,,,,,,,,,
,,5f12ab57b896bd212d80738f,2024-01-06_07h41.49.392,kallum_motion_pilot,2023.2.3,Win32,60.0240096,5f12ab57b896bd212d80738f,6598e6a5d84f07970b831e70,6598e74262a400b687bf733d,0.028,0.028,0,149,149,54,1,fourtwo,,,,,,,,,,,,,,,,,,,,,,,,,,,,,,,,,,,,,,,,,,,,,,,,,,,,,,,,,,,,,,,,,,,,,,,,,,,,,,,,,,,,,,,,,,,,,,,,,,,,,,,,,,,,,,,,,,,,,,,,,,,,,,,,,,,,,,,
,,5f12ab57b896bd212d80738f,2024-01-06_07h41.49.392,kallum_motion_pilot,2023.2.3,Win32,60.0240096,5f12ab57b896bd212d80738f,6598e6a5d84f07970b831e70,6598e74262a400b687bf733d,0.028,0.028,0,150,150,20,1,threeone,,,,,,,,,,,,,,,,,,,,,,,,,,,,,,,,,,,,,,,,,,,,,,,,,,,,,,,,,,,,,,,,,,,,,,,,,,,,,,,,,,,,,,,,,,,,,,,,,,,,,,,,,,,,,,,,,,,,,,,,,,,,,,,,,,,,,,,
,,5f12ab57b896bd212d80738f,2024-01-06_07h41.49.392,kallum_motion_pilot,2023.2.3,Win32,60.0240096,5f12ab57b896bd212d80738f,6598e6a5d84f07970b831e70,6598e74262a400b687bf733d,0.028,0.028,0,151,151,78,1,fourtwo,,,,,,,,,,,,,,,,,,,,,,,,,,,,,,,,,,,,,,,,,,,,,,,,,,,,,,,,,,,,,,,,,,,,,,,,,,,,,,,,,,,,,,,,,,,,,,,,,,,,,,,,,,,,,,,,,,,,,,,,,,,,,,,,,,,,,,,
,,5f12ab57b896bd212d80738f,2024-01-06_07h41.49.392,kallum_motion_pilot,2023.2.3,Win32,60.0240096,5f12ab57b896bd212d80738f,6598e6a5d84f07970b831e70,6598e74262a400b687bf733d,0.028,0.028,0,152,152,12,1,threeone,,,,,,,,,,,,,,,,,,,,,,,,,,,,,,,,,,,,,,,,,,,,,,,,,,,,,,,,,,,,,,,,,,,,,,,,,,,,,,,,,,,,,,,,,,,,,,,,,,,,,,,,,,,,,,,,,,,,,,,,,,,,,,,,,,,,,,,
,,5f12ab57b896bd212d80738f,2024-01-06_07h41.49.392,kallum_motion_pilot,2023.2.3,Win32,60.0240096,5f12ab57b896bd212d80738f,6598e6a5d84f07970b831e70,6598e74262a400b687bf733d,0.028,0.028,0,153,153,107,1,sixeight,,,,,,,,,,,,,,,,,,,,,,,,,,,,,,,,,,,,,,,,,,,,,,,,,,,,,,,,,,,,,,,,,,,,,,,,,,,,,,,,,,,,,,,,,,,,,,,,,,,,,,,,,,,,,,,,,,,,,,,,,,,,,,,,,,,,,,,
,,5f12ab57b896bd212d80738f,2024-01-06_07h41.49.392,kallum_motion_pilot,2023.2.3,Win32,60.0240096,5f12ab57b896bd212d80738f,6598e6a5d84f07970b831e70,6598e74262a400b687bf733d,0.028,0.028,0,154,154,50,1,twoone,,,,,,,,,,,,,,,,,,,,,,,,,,,,,,,,,,,,,,,,,,,,,,,,,,,,,,,,,,,,,,,,,,,,,,,,,,,,,,,,,,,,,,,,,,,,,,,,,,,,,,,,,,,,,,,,,,,,,,,,,,,,,,,,,,,,,,,
,,5f12ab57b896bd212d80738f,2024-01-06_07h41.49.392,kallum_motion_pilot,2023.2.3,Win32,60.0240096,5f12ab57b896bd212d80738f,6598e6a5d84f07970b831e70,6598e74262a400b687bf733d,0.028,0.028,0,155,155,84,1,sevenfive,,,,,,,,,,,,,,,,,,,,,,,,,,,,,,,,,,,,,,,,,,,,,,,,,,,,,,,,,,,,,,,,,,,,,,,,,,,,,,,,,,,,,,,,,,,,,,,,,,,,,,,,,,,,,,,,,,,,,,,,,,,,,,,,,,,,,,,
,,5f12ab57b896bd212d80738f,2024-01-06_07h41.49.392,kallum_motion_pilot,2023.2.3,Win32,60.0240096,5f12ab57b896bd212d80738f,6598e6a5d84f07970b831e70,6598e74262a400b687bf733d,0.028,0.028,0,156,156,58,1,twoone,,,,,,,,,,,,,,,,,,,,,,,,,,,,,,,,,,,,,,,,,,,,,,,,,,,,,,,,,,,,,,,,,,,,,,,,,,,,,,,,,,,,,,,,,,,,,,,,,,,,,,,,,,,,,,,,,,,,,,,,,,,,,,,,,,,,,,,
,,5f12ab57b896bd212d80738f,2024-01-06_07h41.49.392,kallum_motion_pilot,2023.2.3,Win32,60.0240096,5f12ab57b896bd212d80738f,6598e6a5d84f07970b831e70,6598e74262a400b687bf733d,0.028,0.028,0,157,157,64,1,onetwo,,,,,,,,,,,,,,,,,,,,,,,,,,,,,,,,,,,,,,,,,,,,,,,,,,,,,,,,,,,,,,,,,,,,,,,,,,,,,,,,,,,,,,,,,,,,,,,,,,,,,,,,,,,,,,,,,,,,,,,,,,,,,,,,,,,,,,,
,,5f12ab57b896bd212d80738f,2024-01-06_07h41.49.392,kallum_motion_pilot,2023.2.3,Win32,60.0240096,5f12ab57b896bd212d80738f,6598e6a5d84f07970b831e70,6598e74262a400b687bf733d,0.028,0.028,0,158,158,116,1,sevenfive,,,,,,,,,,,,,,,,,,,,,,,,,,,,,,,,,,,,,,,,,,,,,,,,,,,,,,,,,,,,,,,,,,,,,,,,,,,,,,,,,,,,,,,,,,,,,,,,,,,,,,,,,,,,,,,,,,,,,,,,,,,,,,,,,,,,,,,
,,5f12ab57b896bd212d80738f,2024-01-06_07h41.49.392,kallum_motion_pilot,2023.2.3,Win32,60.0240096,5f12ab57b896bd212d80738f,6598e6a5d84f07970b831e70,6598e74262a400b687bf733d,0.028,0.028,0,159,159,28,1,threeone,,,,,,,,,,,,,,,,,,,,,,,,,,,,,,,,,,,,,,,,,,,,,,,,,,,,,,,,,,,,,,,,,,,,,,,,,,,,,,,,,,,,,,,,,,,,,,,,,,,,,,,,,,,,,,,,,,,,,,,,,,,,,,,,,,,,,,,
,,5f12ab57b896bd212d80738f,2024-01-06_07h41.49.392,kallum_motion_pilot,2023.2.3,Win32,60.0240096,5f12ab57b896bd212d80738f,6598e6a5d84f07970b831e70,6598e74262a400b687bf733d,0.028,0.028,0,160,160,91,1,sixeight,,,,,,,,,,,,,,,,,,,,,,,,,,,,,,,,,,,,,,,,,,,,,,,,,,,,,,,,,,,,,,,,,,,,,,,,,,,,,,,,,,,,,,,,,,,,,,,,,,,,,,,,,,,,,,,,,,,,,,,,,,,,,,,,,,,,,,,
,,5f12ab57b896bd212d80738f,2024-01-06_07h41.49.392,kallum_motion_pilot,2023.2.3,Win32,60.0240096,5f12ab57b896bd212d80738f,6598e6a5d84f07970b831e70,6598e74262a400b687bf733d,0.028,0.028,0,161,161,142,1,eightsix,,,,,,,,,,,,,,,,,,,,,,,,,,,,,,,,,,,,,,,,,,,,,,,,,,,,,,,,,,,,,,,,,,,,,,,,,,,,,,,,,,,,,,,,,,,,,,,,,,,,,,,,,,,,,,,,,,,,,,,,,,,,,,,,,,,,,,,
,,5f12ab57b896bd212d80738f,2024-01-06_07h41.49.392,kallum_motion_pilot,2023.2.3,Win32,60.0240096,5f12ab57b896bd212d80738f,6598e6a5d84f07970b831e70,6598e74262a400b687bf733d,0.028,0.028,1,0,162,154,1,sixfive,,,,,,,,,,,,,,,,,,,,,,,,,,,,,,,,,,,,,,,,,,,,,,,,,,,,,,,,,,,,,,,,,,,,,,,,,,,,,,,,,,,,,,,,,,,,,,,,,,,,,,,,,,,,,,,,,,,,,,,,,,,,,,,,,,,,,,,
,,5f12ab57b896bd212d80738f,2024-01-06_07h41.49.392,kallum_motion_pilot,2023.2.3,Win32,60.0240096,5f12ab57b896bd212d80738f,6598e6a5d84f07970b831e70,6598e74262a400b687bf733d,0.028,0.028,1,1,163,61,1,threefour,,,,,,,,,,,,,,,,,,,,,,,,,,,,,,,,,,,,,,,,,,,,,,,,,,,,,,,,,,,,,,,,,,,,,,,,,,,,,,,,,,,,,,,,,,,,,,,,,,,,,,,,,,,,,,,,,,,,,,,,,,,,,,,,,,,,,,,
,,5f12ab57b896bd212d80738f,2024-01-06_07h41.49.392,kallum_motion_pilot,2023.2.3,Win32,60.0240096,5f12ab57b896bd212d80738f,6598e6a5d84f07970b831e70,6598e74262a400b687bf733d,0.029,0.029,1,2,164,135,1,eightseven,,,,,,,,,,,,,,,,,,,,,,,,,,,,,,,,,,,,,,,,,,,,,,,,,,,,,,,,,,,,,,,,,,,,,,,,,,,,,,,,,,,,,,,,,,,,,,,,,,,,,,,,,,,,,,,,,,,,,,,,,,,,,,,,,,,,,,,
,,5f12ab57b896bd212d80738f,2024-01-06_07h41.49.392,kallum_motion_pilot,2023.2.3,Win32,60.0240096,5f12ab57b896bd212d80738f,6598e6a5d84f07970b831e70,6598e74262a400b687bf733d,0.029,0.029,1,3,165,143,1,eightseven,,,,,,,,,,,,,,,,,,,,,,,,,,,,,,,,,,,,,,,,,,,,,,,,,,,,,,,,,,,,,,,,,,,,,,,,,,,,,,,,,,,,,,,,,,,,,,,,,,,,,,,,,,,,,,,,,,,,,,,,,,,,,,,,,,,,,,,
,,5f12ab57b896bd212d80738f,2024-01-06_07h41.49.392,kallum_motion_pilot,2023.2.3,Win32,60.0240096,5f12ab57b896bd212d80738f,6598e6a5d84f07970b831e70,6598e74262a400b687bf733d,0.029,0.029,1,4,166,66,1,twoone,,,,,,,,,,,,,,,,,,,,,,,,,,,,,,,,,,,,,,,,,,,,,,,,,,,,,,,,,,,,,,,,,,,,,,,,,,,,,,,,,,,,,,,,,,,,,,,,,,,,,,,,,,,,,,,,,,,,,,,,,,,,,,,,,,,,,,,
,,5f12ab57b896bd212d80738f,2024-01-06_07h41.49.392,kallum_motion_pilot,2023.2.3,Win32,60.0240096,5f12ab57b896bd212d80738f,6598e6a5d84f07970b831e70,6598e74262a400b687bf733d,0.029,0.029,1,5,167,35,1,twofour,,,,,,,,,,,,,,,,,,,,,,,,,,,,,,,,,,,,,,,,,,,,,,,,,,,,,,,,,,,,,,,,,,,,,,,,,,,,,,,,,,,,,,,,,,,,,,,,,,,,,,,,,,,,,,,,,,,,,,,,,,,,,,,,,,,,,,,
,,5f12ab57b896bd212d80738f,2024-01-06_07h41.49.392,kallum_motion_pilot,2023.2.3,Win32,60.0240096,5f12ab57b896bd212d80738f,6598e6a5d84f07970b831e70,6598e74262a400b687bf733d,0.029,0.029,1,6,168,125,1,seveneight,,,,,,,,,,,,,,,,,,,,,,,,,,,,,,,,,,,,,,,,,,,,,,,,,,,,,,,,,,,,,,,,,,,,,,,,,,,,,,,,,,,,,,,,,,,,,,,,,,,,,,,,,,,,,,,,,,,,,,,,,,,,,,,,,,,,,,,
,,5f12ab57b896bd212d80738f,2024-01-06_07h41.49.392,kallum_motion_pilot,2023.2.3,Win32,60.0240096,5f12ab57b896bd212d80738f,6598e6a5d84f07970b831e70,6598e74262a400b687bf733d,0.029,0.029,1,7,169,77,1,threefour,,,,,,,,,,,,,,,,,,,,,,,,,,,,,,,,,,,,,,,,,,,,,,,,,,,,,,,,,,,,,,,,,,,,,,,,,,,,,,,,,,,,,,,,,,,,,,,,,,,,,,,,,,,,,,,,,,,,,,,,,,,,,,,,,,,,,,,
,,5f12ab57b896bd212d80738f,2024-01-06_07h41.49.392,kallum_motion_pilot,2023.2.3,Win32,60.0240096,5f12ab57b896bd212d80738f,6598e6a5d84f07970b831e70,6598e74262a400b687bf733d,0.029,0.029,1,8,170,72,1,onetwo,,,,,,,,,,,,,,,,,,,,,,,,,,,,,,,,,,,,,,,,,,,,,,,,,,,,,,,,,,,,,,,,,,,,,,,,,,,,,,,,,,,,,,,,,,,,,,,,,,,,,,,,,,,,,,,,,,,,,,,,,,,,,,,,,,,,,,,
,,5f12ab57b896bd212d80738f,2024-01-06_07h41.49.392,kallum_motion_pilot,2023.2.3,Win32,60.0240096,5f12ab57b896bd212d80738f,6598e6a5d84f07970b831e70,6598e74262a400b687bf733d,0.029,0.029,1,9,171,122,1,sixfive,,,,,,,,,,,,,,,,,,,,,,,,,,,,,,,,,,,,,,,,,,,,,,,,,,,,,,,,,,,,,,,,,,,,,,,,,,,,,,,,,,,,,,,,,,,,,,,,,,,,,,,,,,,,,,,,,,,,,,,,,,,,,,,,,,,,,,,
,,5f12ab57b896bd212d80738f,2024-01-06_07h41.49.392,kallum_motion_pilot,2023.2.3,Win32,60.0240096,5f12ab57b896bd212d80738f,6598e6a5d84f07970b831e70,6598e74262a400b687bf733d,0.029,0.029,1,10,172,25,1,onethree,,,,,,,,,,,,,,,,,,,,,,,,,,,,,,,,,,,,,,,,,,,,,,,,,,,,,,,,,,,,,,,,,,,,,,,,,,,,,,,,,,,,,,,,,,,,,,,,,,,,,,,,,,,,,,,,,,,,,,,,,,,,,,,,,,,,,,,
,,5f12ab57b896bd212d80738f,2024-01-06_07h41.49.392,kallum_motion_pilot,2023.2.3,Win32,60.0240096,5f12ab57b896bd212d80738f,6598e6a5d84f07970b831e70,6598e74262a400b687bf733d,0.029,0.029,1,11,173,32,1,onetwo,,,,,,,,,,,,,,,,,,,,,,,,,,,,,,,,,,,,,,,,,,,,,,,,,,,,,,,,,,,,,,,,,,,,,,,,,,,,,,,,,,,,,,,,,,,,,,,,,,,,,,,,,,,,,,,,,,,,,,,,,,,,,,,,,,,,,,,
,,5f12ab57b896bd212d80738f,2024-01-06_07h41.49.392,kallum_motion_pilot,2023.2.3,Win32,60.0240096,5f12ab57b896bd212d80738f,6598e6a5d84f07970b831e70,6598e74262a400b687bf733d,0.029,0.029,1,12,174,140,1,sevenfive,,,,,,,,,,,,,,,,,,,,,,,,,,,,,,,,,,,,,,,,,,,,,,,,,,,,,,,,,,,,,,,,,,,,,,,,,,,,,,,,,,,,,,,,,,,,,,,,,,,,,,,,,,,,,,,,,,,,,,,,,,,,,,,,,,,,,,,
,,5f12ab57b896bd212d80738f,2024-01-06_07h41.49.392,kallum_motion_pilot,2023.2.3,Win32,60.0240096,5f12ab57b896bd212d80738f,6598e6a5d84f07970b831e70,6598e74262a400b687bf733d,0.029,0.029,1,13,175,100,1,sevenfive,,,,,,,,,,,,,,,,,,,,,,,,,,,,,,,,,,,,,,,,,,,,,,,,,,,,,,,,,,,,,,,,,,,,,,,,,,,,,,,,,,,,,,,,,,,,,,,,,,,,,,,,,,,,,,,,,,,,,,,,,,,,,,,,,,,,,,,
,,5f12ab57b896bd212d80738f,2024-01-06_07h41.49.392,kallum_motion_pilot,2023.2.3,Win32,60.0240096,5f12ab57b896bd212d80738f,6598e6a5d84f07970b831e70,6598e74262a400b687bf733d,0.029,0.029,1,14,176,0,1,onetwo,,,,,,,,,,,,,,,,,,,,,,,,,,,,,,,,,,,,,,,,,,,,,,,,,,,,,,,,,,,,,,,,,,,,,,,,,,,,,,,,,,,,,,,,,,,,,,,,,,,,,,,,,,,,,,,,,,,,,,,,,,,,,,,,,,,,,,,
,,5f12ab57b896bd212d80738f,2024-01-06_07h41.49.392,kallum_motion_pilot,2023.2.3,Win32,60.0240096,5f12ab57b896bd212d80738f,6598e6a5d84f07970b831e70,6598e74262a400b687bf733d,0.029,0.029,1,15,177,65,1,onethree,,,,,,,,,,,,,,,,,,,,,,,,,,,,,,,,,,,,,,,,,,,,,,,,,,,,,,,,,,,,,,,,,,,,,,,,,,,,,,,,,,,,,,,,,,,,,,,,,,,,,,,,,,,,,,,,,,,,,,,,,,,,,,,,,,,,,,,
,,5f12ab57b896bd212d80738f,2024-01-06_07h41.49.392,kallum_motion_pilot,2023.2.3,Win32,60.0240096,5f12ab57b896bd212d80738f,6598e6a5d84f07970b831e70,6598e74262a400b687bf733d,0.029,0.029,1,16,178,113,1,fiveseven,,,,,,,,,,,,,,,,,,,,,,,,,,,,,,,,,,,,,,,,,,,,,,,,,,,,,,,,,,,,,,,,,,,,,,,,,,,,,,,,,,,,,,,,,,,,,,,,,,,,,,,,,,,,,,,,,,,,,,,,,,,,,,,,,,,,,,,
,,5f12ab57b896bd212d80738f,2024-01-06_07h41.49.392,kallum_motion_pilot,2023.2.3,Win32,60.0240096,5f12ab57b896bd212d80738f,6598e6a5d84f07970b831e70,6598e74262a400b687bf733d,0.03,0.03,1,17,179,105,1,fiveseven,,,,,,,,,,,,,,,,,,,,,,,,,,,,,,,,,,,,,,,,,,,,,,,,,,,,,,,,,,,,,,,,,,,,,,,,,,,,,,,,,,,,,,,,,,,,,,,,,,,,,,,,,,,,,,,,,,,,,,,,,,,,,,,,,,,,,,,
,,5f12ab57b896bd212d80738f,2024-01-06_07h41.49.392,kallum_motion_pilot,2023.2.3,Win32,60.0240096,5f12ab57b896bd212d80738f,6598e6a5d84f07970b831e70,6598e74262a400b687bf733d,0.03,0.03,1,18,180,88,1,fivesix,,,,,,,,,,,,,,,,,,,,,,,,,,,,,,,,,,,,,,,,,,,,,,,,,,,,,,,,,,,,,,,,,,,,,,,,,,,,,,,,,,,,,,,,,,,,,,,,,,,,,,,,,,,,,,,,,,,,,,,,,,,,,,,,,,,,,,,
,,5f12ab57b896bd212d80738f,2024-01-06_07h41.49.392,kallum_motion_pilot,2023.2.3,Win32,60.0240096,5f12ab57b896bd212d80738f,6598e6a5d84f07970b831e70,6598e74262a400b687bf733d,0.03,0.03,1,19,181,58,1,twoone,,,,,,,,,,,,,,,,,,,,,,,,,,,,,,,,,,,,,,,,,,,,,,,,,,,,,,,,,,,,,,,,,,,,,,,,,,,,,,,,,,,,,,,,,,,,,,,,,,,,,,,,,,,,,,,,,,,,,,,,,,,,,,,,,,,,,,,
,,5f12ab57b896bd212d80738f,2024-01-06_07h41.49.392,kallum_motion_pilot,2023.2.3,Win32,60.0240096,5f12ab57b896bd212d80738f,6598e6a5d84f07970b831e70,6598e74262a400b687bf733d,0.03,0.03,1,20,182,3,1,twofour,,,,,,,,,,,,,,,,,,,,,,,,,,,,,,,,,,,,,,,,,,,,,,,,,,,,,,,,,,,,,,,,,,,,,,,,,,,,,,,,,,,,,,,,,,,,,,,,,,,,,,,,,,,,,,,,,,,,,,,,,,,,,,,,,,,,,,,
,,5f12ab57b896bd212d80738f,2024-01-06_07h41.49.392,kallum_motion_pilot,2023.2.3,Win32,60.0240096,5f12ab57b896bd212d80738f,6598e6a5d84f07970b831e70,6598e74262a400b687bf733d,0.03,0.03,1,21,183,13,1,threefour,,,,,,,,,,,,,,,,,,,,,,,,,,,,,,,,,,,,,,,,,,,,,,,,,,,,,,,,,,,,,,,,,,,,,,,,,,,,,,,,,,,,,,,,,,,,,,,,,,,,,,,,,,,,,,,,,,,,,,,,,,,,,,,,,,,,,,,
,,5f12ab57b896bd212d80738f,2024-01-06_07h41.49.392,kallum_motion_pilot,2023.2.3,Win32,60.0240096,5f12ab57b896bd212d80738f,6598e6a5d84f07970b831e70,6598e74262a400b687bf733d,0.03,0.03,1,22,184,93,1,seveneight,,,,,,,,,,,,,,,,,,,,,,,,,,,,,,,,,,,,,,,,,,,,,,,,,,,,,,,,,,,,,,,,,,,,,,,,,,,,,,,,,,,,,,,,,,,,,,,,,,,,,,,,,,,,,,,,,,,,,,,,,,,,,,,,,,,,,,,
,,5f12ab57b896bd212d80738f,2024-01-06_07h41.49.392,kallum_motion_pilot,2023.2.3,Win32,60.0240096,5f12ab57b896bd212d80738f,6598e6a5d84f07970b831e70,6598e74262a400b687bf733d,0.031,0.031,1,23,185,47,1,fourthree,,,,,,,,,,,,,,,,,,,,,,,,,,,,,,,,,,,,,,,,,,,,,,,,,,,,,,,,,,,,,,,,,,,,,,,,,,,,,,,,,,,,,,,,,,,,,,,,,,,,,,,,,,,,,,,,,,,,,,,,,,,,,,,,,,,,,,,
,,5f12ab57b896bd212d80738f,2024-01-06_07h41.49.392,kallum_motion_pilot,2023.2.3,Win32,60.0240096,5f12ab57b896bd212d80738f,6598e6a5d84f07970b831e70,6598e74262a400b687bf733d,0.031,0.031,1,24,186,26,1,twoone,,,,,,,,,,,,,,,,,,,,,,,,,,,,,,,,,,,,,,,,,,,,,,,,,,,,,,,,,,,,,,,,,,,,,,,,,,,,,,,,,,,,,,,,,,,,,,,,,,,,,,,,,,,,,,,,,,,,,,,,,,,,,,,,,,,,,,,
,,5f12ab57b896bd212d80738f,2024-01-06_07h41.49.392,kallum_motion_pilot,2023.2.3,Win32,60.0240096,5f12ab57b896bd212d80738f,6598e6a5d84f07970b831e70,6598e74262a400b687bf733d,0.031,0.031,1,25,187,16,1,onetwo,,,,,,,,,,,,,,,,,,,,,,,,,,,,,,,,,,,,,,,,,,,,,,,,,,,,,,,,,,,,,,,,,,,,,,,,,,,,,,,,,,,,,,,,,,,,,,,,,,,,,,,,,,,,,,,,,,,,,,,,,,,,,,,,,,,,,,,
,,5f12ab57b896bd212d80738f,2024-01-06_07h41.49.392,kallum_motion_pilot,2023.2.3,Win32,60.0240096,5f12ab57b896bd212d80738f,6598e6a5d84f07970b831e70,6598e74262a400b687bf733d,0.031,0.031,1,26,188,161,1,fiveseven,,,,,,,,,,,,,,,,,,,,,,,,,,,,,,,,,,,,,,,,,,,,,,,,,,,,,,,,,,,,,,,,,,,,,,,,,,,,,,,,,,,,,,,,,,,,,,,,,,,,,,,,,,,,,,,,,,,,,,,,,,,,,,,,,,,,,,,
,,5f12ab57b896bd212d80738f,2024-01-06_07h41.49.392,kallum_motion_pilot,2023.2.3,Win32,60.0240096,5f12ab57b896bd212d80738f,6598e6a5d84f07970b831e70,6598e74262a400b687bf733d,0.031,0.031,1,27,189,70,1,fourtwo,,,,,,,,,,,,,,,,,,,,,,,,,,,,,,,,,,,,,,,,,,,,,,,,,,,,,,,,,,,,,,,,,,,,,,,,,,,,,,,,,,,,,,,,,,,,,,,,,,,,,,,,,,,,,,,,,,,,,,,,,,,,,,,,,,,,,,,
,,5f12ab57b896bd212d80738f,2024-01-06_07h41.49.392,kallum_motion_pilot,2023.2.3,Win32,60.0240096,5f12ab57b896bd212d80738f,6598e6a5d84f07970b831e70,6598e74262a400b687bf733d,0.031,0.031,1,28,190,107,1,sixeight,,,,,,,,,,,,,,,,,,,,,,,,,,,,,,,,,,,,,,,,,,,,,,,,,,,,,,,,,,,,,,,,,,,,,,,,,,,,,,,,,,,,,,,,,,,,,,,,,,,,,,,,,,,,,,,,,,,,,,,,,,,,,,,,,,,,,,,
,,5f12ab57b896bd212d80738f,2024-01-06_07h41.49.392,kallum_motion_pilot,2023.2.3,Win32,60.0240096,5f12ab57b896bd212d80738f,6598e6a5d84f07970b831e70,6598e74262a400b687bf733d,0.031,0.031,1,29,191,8,1,onetwo,,,,,,,,,,,,,,,,,,,,,,,,,,,,,,,,,,,,,,,,,,,,,,,,,,,,,,,,,,,,,,,,,,,,,,,,,,,,,,,,,,,,,,,,,,,,,,,,,,,,,,,,,,,,,,,,,,,,,,,,,,,,,,,,,,,,,,,
,,5f12ab57b896bd212d80738f,2024-01-06_07h41.49.392,kallum_motion_pilot,2023.2.3,Win32,60.0240096,5f12ab57b896bd212d80738f,6598e6a5d84f07970b831e70,6598e74262a400b687bf733d,0.031,0.031,1,30,192,110,1,eightsix,,,,,,,,,,,,,,,,,,,,,,,,,,,,,,,,,,,,,,,,,,,,,,,,,,,,,,,,,,,,,,,,,,,,,,,,,,,,,,,,,,,,,,,,,,,,,,,,,,,,,,,,,,,,,,,,,,,,,,,,,,,,,,,,,,,,,,,
,,5f12ab57b896bd212d80738f,2024-01-06_07h41.49.392,kallum_motion_pilot,2023.2.3,Win32,60.0240096,5f12ab57b896bd212d80738f,6598e6a5d84f07970b831e70,6598e74262a400b687bf733d,0.031,0.031,1,31,193,133,1,seveneight,,,,,,,,,,,,,,,,,,,,,,,,,,,,,,,,,,,,,,,,,,,,,,,,,,,,,,,,,,,,,,,,,,,,,,,,,,,,,,,,,,,,,,,,,,,,,,,,,,,,,,,,,,,,,,,,,,,,,,,,,,,,,,,,,,,,,,,
,,5f12ab57b896bd212d80738f,2024-01-06_07h41.49.392,kallum_motion_pilot,2023.2.3,Win32,60.0240096,5f12ab57b896bd212d80738f,6598e6a5d84f07970b831e70,6598e74262a400b687bf733d,0.031,0.031,1,32,194,159,1,eightseven,,,,,,,,,,,,,,,,,,,,,,,,,,,,,,,,,,,,,,,,,,,,,,,,,,,,,,,,,,,,,,,,,,,,,,,,,,,,,,,,,,,,,,,,,,,,,,,,,,,,,,,,,,,,,,,,,,,,,,,,,,,,,,,,,,,,,,,
,,5f12ab57b896bd212d80738f,2024-01-06_07h41.49.392,kallum_motion_pilot,2023.2.3,Win32,60.0240096,5f12ab57b896bd212d80738f,6598e6a5d84f07970b831e70,6598e74262a400b687bf733d,0.031,0.031,1,33,195,18,1,twoone,,,,,,,,,,,,,,,,,,,,,,,,,,,,,,,,,,,,,,,,,,,,,,,,,,,,,,,,,,,,,,,,,,,,,,,,,,,,,,,,,,,,,,,,,,,,,,,,,,,,,,,,,,,,,,,,,,,,,,,,,,,,,,,,,,,,,,,
,,5f12ab57b896bd212d80738f,2024-01-06_07h41.49.392,kallum_motion_pilot,2023.2.3,Win32,60.0240096,5f12ab57b896bd212d80738f,6598e6a5d84f07970b831e70,6598e74262a400b687bf733d,0.031,0.031,1,34,196,55,1,fourthree,,,,,,,,,,,,,,,,,,,,,,,,,,,,,,,,,,,,,,,,,,,,,,,,,,,,,,,,,,,,,,,,,,,,,,,,,,,,,,,,,,,,,,,,,,,,,,,,,,,,,,,,,,,,,,,,,,,,,,,,,,,,,,,,,,,,,,,
,,5f12ab57b896bd212d80738f,2024-01-06_07h41.49.392,kallum_motion_pilot,2023.2.3,Win32,60.0240096,5f12ab57b896bd212d80738f,6598e6a5d84f07970b831e70,6598e74262a400b687bf733d,0.031,0.031,1,35,197,119,1,eightseven,,,,,,,,,,,,,,,,,,,,,,,,,,,,,,,,,,,,,,,,,,,,,,,,,,,,,,,,,,,,,,,,,,,,,,,,,,,,,,,,,,,,,,,,,,,,,,,,,,,,,,,,,,,,,,,,,,,,,,,,,,,,,,,,,,,,,,,
,,5f12ab57b896bd212d80738f,2024-01-06_07h41.49.392,kallum_motion_pilot,2023.2.3,Win32,60.0240096,5f12ab57b896bd212d80738f,6598e6a5d84f07970b831e70,6598e74262a400b687bf733d,0.031,0.031,1,36,198,131,1,sixeight,,,,,,,,,,,,,,,,,,,,,,,,,,,,,,,,,,,,,,,,,,,,,,,,,,,,,,,,,,,,,,,,,,,,,,,,,,,,,,,,,,,,,,,,,,,,,,,,,,,,,,,,,,,,,,,,,,,,,,,,,,,,,,,,,,,,,,,
,,5f12ab57b896bd212d80738f,2024-01-06_07h41.49.392,kallum_motion_pilot,2023.2.3,Win32,60.0240096,5f12ab57b896bd212d80738f,6598e6a5d84f07970b831e70,6598e74262a400b687bf733d,0.031,0.031,1,37,199,34,1,twoone,,,,,,,,,,,,,,,,,,,,,,,,,,,,,,,,,,,,,,,,,,,,,,,,,,,,,,,,,,,,,,,,,,,,,,,,,,,,,,,,,,,,,,,,,,,,,,,,,,,,,,,,,,,,,,,,,,,,,,,,,,,,,,,,,,,,,,,
,,5f12ab57b896bd212d80738f,2024-01-06_07h41.49.392,kallum_motion_pilot,2023.2.3,Win32,60.0240096,5f12ab57b896bd212d80738f,6598e6a5d84f07970b831e70,6598e74262a400b687bf733d,0.031,0.031,1,38,200,76,1,threeone,,,,,,,,,,,,,,,,,,,,,,,,,,,,,,,,,,,,,,,,,,,,,,,,,,,,,,,,,,,,,,,,,,,,,,,,,,,,,,,,,,,,,,,,,,,,,,,,,,,,,,,,,,,,,,,,,,,,,,,,,,,,,,,,,,,,,,,
,,5f12ab57b896bd212d80738f,2024-01-06_07h41.49.392,kallum_motion_pilot,2023.2.3,Win32,60.0240096,5f12ab57b896bd212d80738f,6598e6a5d84f07970b831e70,6598e74262a400b687bf733d,0.031,0.031,1,39,201,99,1,sixeight,,,,,,,,,,,,,,,,,,,,,,,,,,,,,,,,,,,,,,,,,,,,,,,,,,,,,,,,,,,,,,,,,,,,,,,,,,,,,,,,,,,,,,,,,,,,,,,,,,,,,,,,,,,,,,,,,,,,,,,,,,,,,,,,,,,,,,,
,,5f12ab57b896bd212d80738f,2024-01-06_07h41.49.392,kallum_motion_pilot,2023.2.3,Win32,60.0240096,5f12ab57b896bd212d80738f,6598e6a5d84f07970b831e70,6598e74262a400b687bf733d,0.031,0.031,1,40,202,46,1,fourtwo,,,,,,,,,,,,,,,,,,,,,,,,,,,,,,,,,,,,,,,,,,,,,,,,,,,,,,,,,,,,,,,,,,,,,,,,,,,,,,,,,,,,,,,,,,,,,,,,,,,,,,,,,,,,,,,,,,,,,,,,,,,,,,,,,,,,,,,
,,5f12ab57b896bd212d80738f,2024-01-06_07h41.49.392,kallum_motion_pilot,2023.2.3,Win32,60.0240096,5f12ab57b896bd212d80738f,6598e6a5d84f07970b831e70,6598e74262a400b687bf733d,0.031,0.031,1,41,203,146,1,sixfive,,,,,,,,,,,,,,,,,,,,,,,,,,,,,,,,,,,,,,,,,,,,,,,,,,,,,,,,,,,,,,,,,,,,,,,,,,,,,,,,,,,,,,,,,,,,,,,,,,,,,,,,,,,,,,,,,,,,,,,,,,,,,,,,,,,,,,,
,,5f12ab57b896bd212d80738f,2024-01-06_07h41.49.392,kallum_motion_pilot,2023.2.3,Win32,60.0240096,5f12ab57b896bd212d80738f,6598e6a5d84f07970b831e70,6598e74262a400b687bf733d,0.032,0.032,1,42,204,42,1,twoone,,,,,,,,,,,,,,,,,,,,,,,,,,,,,,,,,,,,,,,,,,,,,,,,,,,,,,,,,,,,,,,,,,,,,,,,,,,,,,,,,,,,,,,,,,,,,,,,,,,,,,,,,,,,,,,,,,,,,,,,,,,,,,,,,,,,,,,
,,5f12ab57b896bd212d80738f,2024-01-06_07h41.49.392,kallum_motion_pilot,2023.2.3,Win32,60.0240096,5f12ab57b896bd212d80738f,6598e6a5d84f07970b831e70,6598e74262a400b687bf733d,0.032,0.032,1,43,205,12,1,threeone,,,,,,,,,,,,,,,,,,,,,,,,,,,,,,,,,,,,,,,,,,,,,,,,,,,,,,,,,,,,,,,,,,,,,,,,,,,,,,,,,,,,,,,,,,,,,,,,,,,,,,,,,,,,,,,,,,,,,,,,,,,,,,,,,,,,,,,
,,5f12ab57b896bd212d80738f,2024-01-06_07h41.49.392,kallum_motion_pilot,2023.2.3,Win32,60.0240096,5f12ab57b896bd212d80738f,6598e6a5d84f07970b831e70,6598e74262a400b687bf733d,0.032,0.032,1,44,206,48,1,onetwo,,,,,,,,,,,,,,,,,,,,,,,,,,,,,,,,,,,,,,,,,,,,,,,,,,,,,,,,,,,,,,,,,,,,,,,,,,,,,,,,,,,,,,,,,,,,,,,,,,,,,,,,,,,,,,,,,,,,,,,,,,,,,,,,,,,,,,,
,,5f12ab57b896bd212d80738f,2024-01-06_07h41.49.392,kallum_motion_pilot,2023.2.3,Win32,60.0240096,5f12ab57b896bd212d80738f,6598e6a5d84f07970b831e70,6598e74262a400b687bf733d,0.032,0.032,1,45,207,69,1,threefour,,,,,,,,,,,,,,,,,,,,,,,,,,,,,,,,,,,,,,,,,,,,,,,,,,,,,,,,,,,,,,,,,,,,,,,,,,,,,,,,,,,,,,,,,,,,,,,,,,,,,,,,,,,,,,,,,,,,,,,,,,,,,,,,,,,,,,,
,,5f12ab57b896bd212d80738f,2024-01-06_07h41.49.392,kallum_motion_pilot,2023.2.3,Win32,60.0240096,5f12ab57b896bd212d80738f,6598e6a5d84f07970b831e70,6598e74262a400b687bf733d,0.032,0.032,1,46,208,81,1,fiveseven,,,,,,,,,,,,,,,,,,,,,,,,,,,,,,,,,,,,,,,,,,,,,,,,,,,,,,,,,,,,,,,,,,,,,,,,,,,,,,,,,,,,,,,,,,,,,,,,,,,,,,,,,,,,,,,,,,,,,,,,,,,,,,,,,,,,,,,
,,5f12ab57b896bd212d80738f,2024-01-06_07h41.49.392,kallum_motion_pilot,2023.2.3,Win32,60.0240096,5f12ab57b896bd212d80738f,6598e6a5d84f07970b831e70,6598e74262a400b687bf733d,0.032,0.032,1,47,209,10,1,twoone,,,,,,,,,,,,,,,,,,,,,,,,,,,,,,,,,,,,,,,,,,,,,,,,,,,,,,,,,,,,,,,,,,,,,,,,,,,,,,,,,,,,,,,,,,,,,,,,,,,,,,,,,,,,,,,,,,,,,,,,,,,,,,,,,,,,,,,
,,5f12ab57b896bd212d80738f,2024-01-06_07h41.49.392,kallum_motion_pilot,2023.2.3,Win32,60.0240096,5f12ab57b896bd212d80738f,6598e6a5d84f07970b831e70,6598e74262a400b687bf733d,0.032,0.032,1,48,210,19,1,twofour,,,,,,,,,,,,,,,,,,,,,,,,,,,,,,,,,,,,,,,,,,,,,,,,,,,,,,,,,,,,,,,,,,,,,,,,,,,,,,,,,,,,,,,,,,,,,,,,,,,,,,,,,,,,,,,,,,,,,,,,,,,,,,,,,,,,,,,
,,5f12ab57b896bd212d80738f,2024-01-06_07h41.49.392,kallum_motion_pilot,2023.2.3,Win32,60.0240096,5f12ab57b896bd212d80738f,6598e6a5d84f07970b831e70,6598e74262a400b687bf733d,0.032,0.032,1,49,211,31,1,fourthree,,,,,,,,,,,,,,,,,,,,,,,,,,,,,,,,,,,,,,,,,,,,,,,,,,,,,,,,,,,,,,,,,,,,,,,,,,,,,,,,,,,,,,,,,,,,,,,,,,,,,,,,,,,,,,,,,,,,,,,,,,,,,,,,,,,,,,,
,,5f12ab57b896bd212d80738f,2024-01-06_07h41.49.392,kallum_motion_pilot,2023.2.3,Win32,60.0240096,5f12ab57b896bd212d80738f,6598e6a5d84f07970b831e70,6598e74262a400b687bf733d,0.032,0.032,1,50,212,144,1,fivesix,,,,,,,,,,,,,,,,,,,,,,,,,,,,,,,,,,,,,,,,,,,,,,,,,,,,,,,,,,,,,,,,,,,,,,,,,,,,,,,,,,,,,,,,,,,,,,,,,,,,,,,,,,,,,,,,,,,,,,,,,,,,,,,,,,,,,,,
,,5f12ab57b896bd212d80738f,2024-01-06_07h41.49.392,kallum_motion_pilot,2023.2.3,Win32,60.0240096,5f12ab57b896bd212d80738f,6598e6a5d84f07970b831e70,6598e74262a400b687bf733d,0.032,0.032,1,51,213,101,1,seveneight,,,,,,,,,,,,,,,,,,,,,,,,,,,,,,,,,,,,,,,,,,,,,,,,,,,,,,,,,,,,,,,,,,,,,,,,,,,,,,,,,,,,,,,,,,,,,,,,,,,,,,,,,,,,,,,,,,,,,,,,,,,,,,,,,,,,,,,
,,5f12ab57b896bd212d80738f,2024-01-06_07h41.49.392,kallum_motion_pilot,2023.2.3,Win32,60.0240096,5f12ab57b896bd212d80738f,6598e6a5d84f07970b831e70,6598e74262a400b687bf733d,0.032,0.032,1,52,214,96,1,fivesix,,,,,,,,,,,,,,,,,,,,,,,,,,,,,,,,,,,,,,,,,,,,,,,,,,,,,,,,,,,,,,,,,,,,,,,,,,,,,,,,,,,,,,,,,,,,,,,,,,,,,,,,,,,,,,,,,,,,,,,,,,,,,,,,,,,,,,,
,,5f12ab57b896bd212d80738f,2024-01-06_07h41.49.392,kallum_motion_pilot,2023.2.3,Win32,60.0240096,5f12ab57b896bd212d80738f,6598e6a5d84f07970b831e70,6598e74262a400b687bf733d,0.032,0.032,1,53,215,82,1,sixfive,,,,,,,,,,,,,,,,,,,,,,,,,,,,,,,,,,,,,,,,,,,,,,,,,,,,,,,,,,,,,,,,,,,,,,,,,,,,,,,,,,,,,,,,,,,,,,,,,,,,,,,,,,,,,,,,,,,,,,,,,,,,,,,,,,,,,,,
,,5f12ab57b896bd212d80738f,2024-01-06_07h41.49.392,kallum_motion_pilot,2023.2.3,Win32,60.0240096,5f12ab57b896bd212d80738f,6598e6a5d84f07970b831e70,6598e74262a400b687bf733d,0.032,0.032,1,54,216,102,1,eightsix,,,,,,,,,,,,,,,,,,,,,,,,,,,,,,,,,,,,,,,,,,,,,,,,,,,,,,,,,,,,,,,,,,,,,,,,,,,,,,,,,,,,,,,,,,,,,,,,,,,,,,,,,,,,,,,,,,,,,,,,,,,,,,,,,,,,,,,
,,5f12ab57b896bd212d80738f,2024-01-06_07h41.49.392,kallum_motion_pilot,2023.2.3,Win32,60.0240096,5f12ab57b896bd212d80738f,6598e6a5d84f07970b831e70,6598e74262a400b687bf733d,0.032,0.032,1,55,217,141,1,seveneight,,,,,,,,,,,,,,,,,,,,,,,,,,,,,,,,,,,,,,,,,,,,,,,,,,,,,,,,,,,,,,,,,,,,,,,,,,,,,,,,,,,,,,,,,,,,,,,,,,,,,,,,,,,,,,,,,,,,,,,,,,,,,,,,,,,,,,,
,,5f12ab57b896bd212d80738f,2024-01-06_07h41.49.392,kallum_motion_pilot,2023.2.3,Win32,60.0240096,5f12ab57b896bd212d80738f,6598e6a5d84f07970b831e70,6598e74262a400b687bf733d,0.032,0.032,1,56,218,126,1,eightsix,,,,,,,,,,,,,,,,,,,,,,,,,,,,,,,,,,,,,,,,,,,,,,,,,,,,,,,,,,,,,,,,,,,,,,,,,,,,,,,,,,,,,,,,,,,,,,,,,,,,,,,,,,,,,,,,,,,,,,,,,,,,,,,,,,,,,,,
,,5f12ab57b896bd212d80738f,2024-01-06_07h41.49.392,kallum_motion_pilot,2023.2.3,Win32,60.0240096,5f12ab57b896bd212d80738f,6598e6a5d84f07970b831e70,6598e74262a400b687bf733d,0.032,0.032,1,57,219,15,1,fourthree,,,,,,,,,,,,,,,,,,,,,,,,,,,,,,,,,,,,,,,,,,,,,,,,,,,,,,,,,,,,,,,,,,,,,,,,,,,,,,,,,,,,,,,,,,,,,,,,,,,,,,,,,,,,,,,,,,,,,,,,,,,,,,,,,,,,,,,
,,5f12ab57b896bd212d80738f,2024-01-06_07h41.49.392,kallum_motion_pilot,2023.2.3,Win32,60.0240096,5f12ab57b896bd212d80738f,6598e6a5d84f07970b831e70,6598e74262a400b687bf733d,0.033,0.033,1,58,220,142,1,eightsix,,,,,,,,,,,,,,,,,,,,,,,,,,,,,,,,,,,,,,,,,,,,,,,,,,,,,,,,,,,,,,,,,,,,,,,,,,,,,,,,,,,,,,,,,,,,,,,,,,,,,,,,,,,,,,,,,,,,,,,,,,,,,,,,,,,,,,,
,,5f12ab57b896bd212d80738f,2024-01-06_07h41.49.392,kallum_motion_pilot,2023.2.3,Win32,60.0240096,5f12ab57b896bd212d80738f,6598e6a5d84f07970b831e70,6598e74262a400b687bf733d,0.033,0.033,1,59,221,62,1,fourtwo,,,,,,,,,,,,,,,,,,,,,,,,,,,,,,,,,,,,,,,,,,,,,,,,,,,,,,,,,,,,,,,,,,,,,,,,,,,,,,,,,,,,,,,,,,,,,,,,,,,,,,,,,,,,,,,,,,,,,,,,,,,,,,,,,,,,,,,
,,5f12ab57b896bd212d80738f,2024-01-06_07h41.49.392,kallum_motion_pilot,2023.2.3,Win32,60.0240096,5f12ab57b896bd212d80738f,6598e6a5d84f07970b831e70,6598e74262a400b687bf733d,0.033,0.033,1,60,222,157,1,seveneight,,,,,,,,,,,,,,,,,,,,,,,,,,,,,,,,,,,,,,,,,,,,,,,,,,,,,,,,,,,,,,,,,,,,,,,,,,,,,,,,,,,,,,,,,,,,,,,,,,,,,,,,,,,,,,,,,,,,,,,,,,,,,,,,,,,,,,,
,,5f12ab57b896bd212d80738f,2024-01-06_07h41.49.392,kallum_motion_pilot,2023.2.3,Win32,60.0240096,5f12ab57b896bd212d80738f,6598e6a5d84f07970b831e70,6598e74262a400b687bf733d,0.033,0.033,1,61,223,121,1,fiveseven,,,,,,,,,,,,,,,,,,,,,,,,,,,,,,,,,,,,,,,,,,,,,,,,,,,,,,,,,,,,,,,,,,,,,,,,,,,,,,,,,,,,,,,,,,,,,,,,,,,,,,,,,,,,,,,,,,,,,,,,,,,,,,,,,,,,,,,
,,5f12ab57b896bd212d80738f,2024-01-06_07h41.49.392,kallum_motion_pilot,2023.2.3,Win32,60.0240096,5f12ab57b896bd212d80738f,6598e6a5d84f07970b831e70,6598e74262a400b687bf733d,0.033,0.033,1,62,224,109,1,seveneight,,,,,,,,,,,,,,,,,,,,,,,,,,,,,,,,,,,,,,,,,,,,,,,,,,,,,,,,,,,,,,,,,,,,,,,,,,,,,,,,,,,,,,,,,,,,,,,,,,,,,,,,,,,,,,,,,,,,,,,,,,,,,,,,,,,,,,,
,,5f12ab57b896bd212d80738f,2024-01-06_07h41.49.392,kallum_motion_pilot,2023.2.3,Win32,60.0240096,5f12ab57b896bd212d80738f,6598e6a5d84f07970b831e70,6598e74262a400b687bf733d,0.033,0.033,1,63,225,115,1,sixeight,,,,,,,,,,,,,,,,,,,,,,,,,,,,,,,,,,,,,,,,,,,,,,,,,,,,,,,,,,,,,,,,,,,,,,,,,,,,,,,,,,,,,,,,,,,,,,,,,,,,,,,,,,,,,,,,,,,,,,,,,,,,,,,,,,,,,,,
,,5f12ab57b896bd212d80738f,2024-01-06_07h41.49.392,kallum_motion_pilot,2023.2.3,Win32,60.0240096,5f12ab57b896bd212d80738f,6598e6a5d84f07970b831e70,6598e74262a400b687bf733d,0.033,0.033,1,64,226,98,1,sixfive,,,,,,,,,,,,,,,,,,,,,,,,,,,,,,,,,,,,,,,,,,,,,,,,,,,,,,,,,,,,,,,,,,,,,,,,,,,,,,,,,,,,,,,,,,,,,,,,,,,,,,,,,,,,,,,,,,,,,,,,,,,,,,,,,,,,,,,
,,5f12ab57b896bd212d80738f,2024-01-06_07h41.49.392,kallum_motion_pilot,2023.2.3,Win32,60.0240096,5f12ab57b896bd212d80738f,6598e6a5d84f07970b831e70,6598e74262a400b687bf733d,0.033,0.033,1,65,227,68,1,threeone,,,,,,,,,,,,,,,,,,,,,,,,,,,,,,,,,,,,,,,,,,,,,,,,,,,,,,,,,,,,,,,,,,,,,,,,,,,,,,,,,,,,,,,,,,,,,,,,,,,,,,,,,,,,,,,,,,,,,,,,,,,,,,,,,,,,,,,
,,5f12ab57b896bd212d80738f,2024-01-06_07h41.49.392,kallum_motion_pilot,2023.2.3,Win32,60.0240096,5f12ab57b896bd212d80738f,6598e6a5d84f07970b831e70,6598e74262a400b687bf733d,0.033,0.033,1,66,228,118,1,eightsix,,,,,,,,,,,,,,,,,,,,,,,,,,,,,,,,,,,,,,,,,,,,,,,,,,,,,,,,,,,,,,,,,,,,,,,,,,,,,,,,,,,,,,,,,,,,,,,,,,,,,,,,,,,,,,,,,,,,,,,,,,,,,,,,,,,,,,,
,,5f12ab57b896bd212d80738f,2024-01-06_07h41.49.392,kallum_motion_pilot,2023.2.3,Win32,60.0240096,5f12ab57b896bd212d80738f,6598e6a5d84f07970b831e70,6598e74262a400b687bf733d,0.033,0.033,1,67,229,40,1,onetwo,,,,,,,,,,,,,,,,,,,,,,,,,,,,,,,,,,,,,,,,,,,,,,,,,,,,,,,,,,,,,,,,,,,,,,,,,,,,,,,,,,,,,,,,,,,,,,,,,,,,,,,,,,,,,,,,,,,,,,,,,,,,,,,,,,,,,,,
,,5f12ab57b896bd212d80738f,2024-01-06_07h41.49.392,kallum_motion_pilot,2023.2.3,Win32,60.0240096,5f12ab57b896bd212d80738f,6598e6a5d84f07970b831e70,6598e74262a400b687bf733d,0.033,0.033,1,68,230,24,1,onetwo,,,,,,,,,,,,,,,,,,,,,,,,,,,,,,,,,,,,,,,,,,,,,,,,,,,,,,,,,,,,,,,,,,,,,,,,,,,,,,,,,,,,,,,,,,,,,,,,,,,,,,,,,,,,,,,,,,,,,,,,,,,,,,,,,,,,,,,
,,5f12ab57b896bd212d80738f,2024-01-06_07h41.49.392,kallum_motion_pilot,2023.2.3,Win32,60.0240096,5f12ab57b896bd212d80738f,6598e6a5d84f07970b831e70,6598e74262a400b687bf733d,0.033,0.033,1,69,231,37,1,threefour,,,,,,,,,,,,,,,,,,,,,,,,,,,,,,,,,,,,,,,,,,,,,,,,,,,,,,,,,,,,,,,,,,,,,,,,,,,,,,,,,,,,,,,,,,,,,,,,,,,,,,,,,,,,,,,,,,,,,,,,,,,,,,,,,,,,,,,
,,5f12ab57b896bd212d80738f,2024-01-06_07h41.49.392,kallum_motion_pilot,2023.2.3,Win32,60.0240096,5f12ab57b896bd212d80738f,6598e6a5d84f07970b831e70,6598e74262a400b687bf733d,0.033,0.033,1,70,232,84,1,sevenfive,,,,,,,,,,,,,,,,,,,,,,,,,,,,,,,,,,,,,,,,,,,,,,,,,,,,,,,,,,,,,,,,,,,,,,,,,,,,,,,,,,,,,,,,,,,,,,,,,,,,,,,,,,,,,,,,,,,,,,,,,,,,,,,,,,,,,,,
,,5f12ab57b896bd212d80738f,2024-01-06_07h41.49.392,kallum_motion_pilot,2023.2.3,Win32,60.0240096,5f12ab57b896bd212d80738f,6598e6a5d84f07970b831e70,6598e74262a400b687bf733d,0.033,0.033,1,71,233,149,1,seveneight,,,,,,,,,,,,,,,,,,,,,,,,,,,,,,,,,,,,,,,,,,,,,,,,,,,,,,,,,,,,,,,,,,,,,,,,,,,,,,,,,,,,,,,,,,,,,,,,,,,,,,,,,,,,,,,,,,,,,,,,,,,,,,,,,,,,,,,
,,5f12ab57b896bd212d80738f,2024-01-06_07h41.49.392,kallum_motion_pilot,2023.2.3,Win32,60.0240096,5f12ab57b896bd212d80738f,6598e6a5d84f07970b831e70,6598e74262a400b687bf733d,0.033,0.033,1,72,234,86,1,eightsix,,,,,,,,,,,,,,,,,,,,,,,,,,,,,,,,,,,,,,,,,,,,,,,,,,,,,,,,,,,,,,,,,,,,,,,,,,,,,,,,,,,,,,,,,,,,,,,,,,,,,,,,,,,,,,,,,,,,,,,,,,,,,,,,,,,,,,,
,,5f12ab57b896bd212d80738f,2024-01-06_07h41.49.392,kallum_motion_pilot,2023.2.3,Win32,60.0240096,5f12ab57b896bd212d80738f,6598e6a5d84f07970b831e70,6598e74262a400b687bf733d,0.034,0.034,1,73,235,45,1,threefour,,,,,,,,,,,,,,,,,,,,,,,,,,,,,,,,,,,,,,,,,,,,,,,,,,,,,,,,,,,,,,,,,,,,,,,,,,,,,,,,,,,,,,,,,,,,,,,,,,,,,,,,,,,,,,,,,,,,,,,,,,,,,,,,,,,,,,,
,,5f12ab57b896bd212d80738f,2024-01-06_07h41.49.392,kallum_motion_pilot,2023.2.3,Win32,60.0240096,5f12ab57b896bd212d80738f,6598e6a5d84f07970b831e70,6598e74262a400b687bf733d,0.034,0.034,1,74,236,120,1,fivesix,,,,,,,,,,,,,,,,,,,,,,,,,,,,,,,,,,,,,,,,,,,,,,,,,,,,,,,,,,,,,,,,,,,,,,,,,,,,,,,,,,,,,,,,,,,,,,,,,,,,,,,,,,,,,,,,,,,,,,,,,,,,,,,,,,,,,,,
,,5f12ab57b896bd212d80738f,2024-01-06_07h41.49.392,kallum_motion_pilot,2023.2.3,Win32,60.0240096,5f12ab57b896bd212d80738f,6598e6a5d84f07970b831e70,6598e74262a400b687bf733d,0.034,0.034,1,75,237,54,1,fourtwo,,,,,,,,,,,,,,,,,,,,,,,,,,,,,,,,,,,,,,,,,,,,,,,,,,,,,,,,,,,,,,,,,,,,,,,,,,,,,,,,,,,,,,,,,,,,,,,,,,,,,,,,,,,,,,,,,,,,,,,,,,,,,,,,,,,,,,,
,,5f12ab57b896bd212d80738f,2024-01-06_07h41.49.392,kallum_motion_pilot,2023.2.3,Win32,60.0240096,5f12ab57b896bd212d80738f,6598e6a5d84f07970b831e70,6598e74262a400b687bf733d,0.034,0.034,1,76,238,129,1,fiveseven,,,,,,,,,,,,,,,,,,,,,,,,,,,,,,,,,,,,,,,,,,,,,,,,,,,,,,,,,,,,,,,,,,,,,,,,,,,,,,,,,,,,,,,,,,,,,,,,,,,,,,,,,,,,,,,,,,,,,,,,,,,,,,,,,,,,,,,
,,5f12ab57b896bd212d80738f,2024-01-06_07h41.49.392,kallum_motion_pilot,2023.2.3,Win32,60.0240096,5f12ab57b896bd212d80738f,6598e6a5d84f07970b831e70,6598e74262a400b687bf733d,0.034,0.034,1,77,239,27,1,twofour,,,,,,,,,,,,,,,,,,,,,,,,,,,,,,,,,,,,,,,,,,,,,,,,,,,,,,,,,,,,,,,,,,,,,,,,,,,,,,,,,,,,,,,,,,,,,,,,,,,,,,,,,,,,,,,,,,,,,,,,,,,,,,,,,,,,,,,
,,5f12ab57b896bd212d80738f,2024-01-06_07h41.49.392,kallum_motion_pilot,2023.2.3,Win32,60.0240096,5f12ab57b896bd212d80738f,6598e6a5d84f07970b831e70,6598e74262a400b687bf733d,0.034,0.034,1,78,240,117,1,seveneight,,,,,,,,,,,,,,,,,,,,,,,,,,,,,,,,,,,,,,,,,,,,,,,,,,,,,,,,,,,,,,,,,,,,,,,,,,,,,,,,,,,,,,,,,,,,,,,,,,,,,,,,,,,,,,,,,,,,,,,,,,,,,,,,,,,,,,,
,,5f12ab57b896bd212d80738f,2024-01-06_07h41.49.392,kallum_motion_pilot,2023.2.3,Win32,60.0240096,5f12ab57b896bd212d80738f,6598e6a5d84f07970b831e70,6598e74262a400b687bf733d,0.034,0.034,1,79,241,127,1,eightseven,,,,,,,,,,,,,,,,,,,,,,,,,,,,,,,,,,,,,,,,,,,,,,,,,,,,,,,,,,,,,,,,,,,,,,,,,,,,,,,,,,,,,,,,,,,,,,,,,,,,,,,,,,,,,,,,,,,,,,,,,,,,,,,,,,,,,,,
,,5f12ab57b896bd212d80738f,2024-01-06_07h41.49.392,kallum_motion_pilot,2023.2.3,Win32,60.0240096,5f12ab57b896bd212d80738f,6598e6a5d84f07970b831e70,6598e74262a400b687bf733d,0.034,0.034,1,80,242,33,1,onethree,,,,,,,,,,,,,,,,,,,,,,,,,,,,,,,,,,,,,,,,,,,,,,,,,,,,,,,,,,,,,,,,,,,,,,,,,,,,,,,,,,,,,,,,,,,,,,,,,,,,,,,,,,,,,,,,,,,,,,,,,,,,,,,,,,,,,,,
,,5f12ab57b896bd212d80738f,2024-01-06_07h41.49.392,kallum_motion_pilot,2023.2.3,Win32,60.0240096,5f12ab57b896bd212d80738f,6598e6a5d84f07970b831e70,6598e74262a400b687bf733d,0.034,0.034,1,81,243,150,1,eightsix,,,,,,,,,,,,,,,,,,,,,,,,,,,,,,,,,,,,,,,,,,,,,,,,,,,,,,,,,,,,,,,,,,,,,,,,,,,,,,,,,,,,,,,,,,,,,,,,,,,,,,,,,,,,,,,,,,,,,,,,,,,,,,,,,,,,,,,
,,5f12ab57b896bd212d80738f,2024-01-06_07h41.49.392,kallum_motion_pilot,2023.2.3,Win32,60.0240096,5f12ab57b896bd212d80738f,6598e6a5d84f07970b831e70,6598e74262a400b687bf733d,0.034,0.034,1,82,244,137,1,fiveseven,,,,,,,,,,,,,,,,,,,,,,,,,,,,,,,,,,,,,,,,,,,,,,,,,,,,,,,,,,,,,,,,,,,,,,,,,,,,,,,,,,,,,,,,,,,,,,,,,,,,,,,,,,,,,,,,,,,,,,,,,,,,,,,,,,,,,,,
,,5f12ab57b896bd212d80738f,2024-01-06_07h41.49.392,kallum_motion_pilot,2023.2.3,Win32,60.0240096,5f12ab57b896bd212d80738f,6598e6a5d84f07970b831e70,6598e74262a400b687bf733d,0.034,0.034,1,83,245,57,1,onethree,,,,,,,,,,,,,,,,,,,,,,,,,,,,,,,,,,,,,,,,,,,,,,,,,,,,,,,,,,,,,,,,,,,,,,,,,,,,,,,,,,,,,,,,,,,,,,,,,,,,,,,,,,,,,,,,,,,,,,,,,,,,,,,,,,,,,,,
,,5f12ab57b896bd212d80738f,2024-01-06_07h41.49.392,kallum_motion_pilot,2023.2.3,Win32,60.0240096,5f12ab57b896bd212d80738f,6598e6a5d84f07970b831e70,6598e74262a400b687bf733d,0.034,0.034,1,84,246,74,1,twoone,,,,,,,,,,,,,,,,,,,,,,,,,,,,,,,,,,,,,,,,,,,,,,,,,,,,,,,,,,,,,,,,,,,,,,,,,,,,,,,,,,,,,,,,,,,,,,,,,,,,,,,,,,,,,,,,,,,,,,,,,,,,,,,,,,,,,,,
,,5f12ab57b896bd212d80738f,2024-01-06_07h41.49.392,kallum_motion_pilot,2023.2.3,Win32,60.0240096,5f12ab57b896bd212d80738f,6598e6a5d84f07970b831e70,6598e74262a400b687bf733d,0.034,0.034,1,85,247,4,1,threeone,,,,,,,,,,,,,,,,,,,,,,,,,,,,,,,,,,,,,,,,,,,,,,,,,,,,,,,,,,,,,,,,,,,,,,,,,,,,,,,,,,,,,,,,,,,,,,,,,,,,,,,,,,,,,,,,,,,,,,,,,,,,,,,,,,,,,,,
,,5f12ab57b896bd212d80738f,2024-01-06_07h41.49.392,kallum_motion_pilot,2023.2.3,Win32,60.0240096,5f12ab57b896bd212d80738f,6598e6a5d84f07970b831e70,6598e74262a400b687bf733d,0.034,0.034,1,86,248,156,1,sevenfive,,,,,,,,,,,,,,,,,,,,,,,,,,,,,,,,,,,,,,,,,,,,,,,,,,,,,,,,,,,,,,,,,,,,,,,,,,,,,,,,,,,,,,,,,,,,,,,,,,,,,,,,,,,,,,,,,,,,,,,,,,,,,,,,,,,,,,,
,,5f12ab57b896bd212d80738f,2024-01-06_07h41.49.392,kallum_motion_pilot,2023.2.3,Win32,60.0240096,5f12ab57b896bd212d80738f,6598e6a5d84f07970b831e70,6598e74262a400b687bf733d,0.034,0.034,1,87,249,5,1,threefour,,,,,,,,,,,,,,,,,,,,,,,,,,,,,,,,,,,,,,,,,,,,,,,,,,,,,,,,,,,,,,,,,,,,,,,,,,,,,,,,,,,,,,,,,,,,,,,,,,,,,,,,,,,,,,,,,,,,,,,,,,,,,,,,,,,,,,,
,,5f12ab57b896bd212d80738f,2024-01-06_07h41.49.392,kallum_motion_pilot,2023.2.3,Win32,60.0240096,5f12ab57b896bd212d80738f,6598e6a5d84f07970b831e70,6598e74262a400b687bf733d,0.036,0.036,1,88,250,108,1,sevenfive,,,,,,,,,,,,,,,,,,,,,,,,,,,,,,,,,,,,,,,,,,,,,,,,,,,,,,,,,,,,,,,,,,,,,,,,,,,,,,,,,,,,,,,,,,,,,,,,,,,,,,,,,,,,,,,,,,,,,,,,,,,,,,,,,,,,,,,
,,5f12ab57b896bd212d80738f,2024-01-06_07h41.49.392,kallum_motion_pilot,2023.2.3,Win32,60.0240096,5f12ab57b896bd212d80738f,6598e6a5d84f07970b831e70,6598e74262a400b687bf733d,0.036,0.036,1,89,251,124,1,sevenfive,,,,,,,,,,,,,,,,,,,,,,,,,,,,,,,,,,,,,,,,,,,,,,,,,,,,,,,,,,,,,,,,,,,,,,,,,,,,,,,,,,,,,,,,,,,,,,,,,,,,,,,,,,,,,,,,,,,,,,,,,,,,,,,,,,,,,,,
,,5f12ab57b896bd212d80738f,2024-01-06_07h41.49.392,kallum_motion_pilot,2023.2.3,Win32,60.0240096,5f12ab57b896bd212d80738f,6598e6a5d84f07970b831e70,6598e74262a400b687bf733d,0.036,0.036,1,90,252,6,1,fourtwo,,,,,,,,,,,,,,,,,,,,,,,,,,,,,,,,,,,,,,,,,,,,,,,,,,,,,,,,,,,,,,,,,,,,,,,,,,,,,,,,,,,,,,,,,,,,,,,,,,,,,,,,,,,,,,,,,,,,,,,,,,,,,,,,,,,,,,,
,,5f12ab57b896bd212d80738f,2024-01-06_07h41.49.392,kallum_motion_pilot,2023.2.3,Win32,60.0240096,5f12ab57b896bd212d80738f,6598e6a5d84f07970b831e70,6598e74262a400b687bf733d,0.036,0.036,1,91,253,103,1,eightseven,,,,,,,,,,,,,,,,,,,,,,,,,,,,,,,,,,,,,,,,,,,,,,,,,,,,,,,,,,,,,,,,,,,,,,,,,,,,,,,,,,,,,,,,,,,,,,,,,,,,,,,,,,,,,,,,,,,,,,,,,,,,,,,,,,,,,,,
,,5f12ab57b896bd212d80738f,2024-01-06_07h41.49.392,kallum_motion_pilot,2023.2.3,Win32,60.0240096,5f12ab57b896bd212d80738f,6598e6a5d84f07970b831e70,6598e74262a400b687bf733d,0.037,0.037,1,92,254,138,1,sixfive,,,,,,,,,,,,,,,,,,,,,,,,,,,,,,,,,,,,,,,,,,,,,,,,,,,,,,,,,,,,,,,,,,,,,,,,,,,,,,,,,,,,,,,,,,,,,,,,,,,,,,,,,,,,,,,,,,,,,,,,,,,,,,,,,,,,,,,
,,5f12ab57b896bd212d80738f,2024-01-06_07h41.49.392,kallum_motion_pilot,2023.2.3,Win32,60.0240096,5f12ab57b896bd212d80738f,6598e6a5d84f07970b831e70,6598e74262a400b687bf733d,0.037,0.037,1,93,255,56,1,onetwo,,,,,,,,,,,,,,,,,,,,,,,,,,,,,,,,,,,,,,,,,,,,,,,,,,,,,,,,,,,,,,,,,,,,,,,,,,,,,,,,,,,,,,,,,,,,,,,,,,,,,,,,,,,,,,,,,,,,,,,,,,,,,,,,,,,,,,,
,,5f12ab57b896bd212d80738f,2024-01-06_07h41.49.392,kallum_motion_pilot,2023.2.3,Win32,60.0240096,5f12ab57b896bd212d80738f,6598e6a5d84f07970b831e70,6598e74262a400b687bf733d,0.037,0.037,1,94,256,38,1,fourtwo,,,,,,,,,,,,,,,,,,,,,,,,,,,,,,,,,,,,,,,,,,,,,,,,,,,,,,,,,,,,,,,,,,,,,,,,,,,,,,,,,,,,,,,,,,,,,,,,,,,,,,,,,,,,,,,,,,,,,,,,,,,,,,,,,,,,,,,
,,5f12ab57b896bd212d80738f,2024-01-06_07h41.49.392,kallum_motion_pilot,2023.2.3,Win32,60.0240096,5f12ab57b896bd212d80738f,6598e6a5d84f07970b831e70,6598e74262a400b687bf733d,0.037,0.037,1,95,257,128,1,fivesix,,,,,,,,,,,,,,,,,,,,,,,,,,,,,,,,,,,,,,,,,,,,,,,,,,,,,,,,,,,,,,,,,,,,,,,,,,,,,,,,,,,,,,,,,,,,,,,,,,,,,,,,,,,,,,,,,,,,,,,,,,,,,,,,,,,,,,,
,,5f12ab57b896bd212d80738f,2024-01-06_07h41.49.392,kallum_motion_pilot,2023.2.3,Win32,60.0240096,5f12ab57b896bd212d80738f,6598e6a5d84f07970b831e70,6598e74262a400b687bf733d,0.037,0.037,1,96,258,123,1,sixeight,,,,,,,,,,,,,,,,,,,,,,,,,,,,,,,,,,,,,,,,,,,,,,,,,,,,,,,,,,,,,,,,,,,,,,,,,,,,,,,,,,,,,,,,,,,,,,,,,,,,,,,,,,,,,,,,,,,,,,,,,,,,,,,,,,,,,,,
,,5f12ab57b896bd212d80738f,2024-01-06_07h41.49.392,kallum_motion_pilot,2023.2.3,Win32,60.0240096,5f12ab57b896bd212d80738f,6598e6a5d84f07970b831e70,6598e74262a400b687bf733d,0.037,0.037,1,97,259,73,1,onethree,,,,,,,,,,,,,,,,,,,,,,,,,,,,,,,,,,,,,,,,,,,,,,,,,,,,,,,,,,,,,,,,,,,,,,,,,,,,,,,,,,,,,,,,,,,,,,,,,,,,,,,,,,,,,,,,,,,,,,,,,,,,,,,,,,,,,,,
,,5f12ab57b896bd212d80738f,2024-01-06_07h41.49.392,kallum_motion_pilot,2023.2.3,Win32,60.0240096,5f12ab57b896bd212d80738f,6598e6a5d84f07970b831e70,6598e74262a400b687bf733d,0.037,0.037,1,98,260,87,1,eightseven,,,,,,,,,,,,,,,,,,,,,,,,,,,,,,,,,,,,,,,,,,,,,,,,,,,,,,,,,,,,,,,,,,,,,,,,,,,,,,,,,,,,,,,,,,,,,,,,,,,,,,,,,,,,,,,,,,,,,,,,,,,,,,,,,,,,,,,
,,5f12ab57b896bd212d80738f,2024-01-06_07h41.49.392,kallum_motion_pilot,2023.2.3,Win32,60.0240096,5f12ab57b896bd212d80738f,6598e6a5d84f07970b831e70,6598e74262a400b687bf733d,0.037,0.037,1,99,261,71,1,fourthree,,,,,,,,,,,,,,,,,,,,,,,,,,,,,,,,,,,,,,,,,,,,,,,,,,,,,,,,,,,,,,,,,,,,,,,,,,,,,,,,,,,,,,,,,,,,,,,,,,,,,,,,,,,,,,,,,,,,,,,,,,,,,,,,,,,,,,,
,,5f12ab57b896bd212d80738f,2024-01-06_07h41.49.392,kallum_motion_pilot,2023.2.3,Win32,60.0240096,5f12ab57b896bd212d80738f,6598e6a5d84f07970b831e70,6598e74262a400b687bf733d,0.037,0.037,1,100,262,36,1,threeone,,,,,,,,,,,,,,,,,,,,,,,,,,,,,,,,,,,,,,,,,,,,,,,,,,,,,,,,,,,,,,,,,,,,,,,,,,,,,,,,,,,,,,,,,,,,,,,,,,,,,,,,,,,,,,,,,,,,,,,,,,,,,,,,,,,,,,,
,,5f12ab57b896bd212d80738f,2024-01-06_07h41.49.392,kallum_motion_pilot,2023.2.3,Win32,60.0240096,5f12ab57b896bd212d80738f,6598e6a5d84f07970b831e70,6598e74262a400b687bf733d,0.037,0.037,1,101,263,39,1,fourthree,,,,,,,,,,,,,,,,,,,,,,,,,,,,,,,,,,,,,,,,,,,,,,,,,,,,,,,,,,,,,,,,,,,,,,,,,,,,,,,,,,,,,,,,,,,,,,,,,,,,,,,,,,,,,,,,,,,,,,,,,,,,,,,,,,,,,,,
,,5f12ab57b896bd212d80738f,2024-01-06_07h41.49.392,kallum_motion_pilot,2023.2.3,Win32,60.0240096,5f12ab57b896bd212d80738f,6598e6a5d84f07970b831e70,6598e74262a400b687bf733d,0.037,0.037,1,102,264,20,1,threeone,,,,,,,,,,,,,,,,,,,,,,,,,,,,,,,,,,,,,,,,,,,,,,,,,,,,,,,,,,,,,,,,,,,,,,,,,,,,,,,,,,,,,,,,,,,,,,,,,,,,,,,,,,,,,,,,,,,,,,,,,,,,,,,,,,,,,,,
,,5f12ab57b896bd212d80738f,2024-01-06_07h41.49.392,kallum_motion_pilot,2023.2.3,Win32,60.0240096,5f12ab57b896bd212d80738f,6598e6a5d84f07970b831e70,6598e74262a400b687bf733d,0.037,0.037,1,103,265,23,1,fourthree,,,,,,,,,,,,,,,,,,,,,,,,,,,,,,,,,,,,,,,,,,,,,,,,,,,,,,,,,,,,,,,,,,,,,,,,,,,,,,,,,,,,,,,,,,,,,,,,,,,,,,,,,,,,,,,,,,,,,,,,,,,,,,,,,,,,,,,
,,5f12ab57b896bd212d80738f,2024-01-06_07h41.49.392,kallum_motion_pilot,2023.2.3,Win32,60.0240096,5f12ab57b896bd212d80738f,6598e6a5d84f07970b831e70,6598e74262a400b687bf733d,0.037,0.037,1,104,266,148,1,sevenfive,,,,,,,,,,,,,,,,,,,,,,,,,,,,,,,,,,,,,,,,,,,,,,,,,,,,,,,,,,,,,,,,,,,,,,,,,,,,,,,,,,,,,,,,,,,,,,,,,,,,,,,,,,,,,,,,,,,,,,,,,,,,,,,,,,,,,,,
,,5f12ab57b896bd212d80738f,2024-01-06_07h41.49.392,kallum_motion_pilot,2023.2.3,Win32,60.0240096,5f12ab57b896bd212d80738f,6598e6a5d84f07970b831e70,6598e74262a400b687bf733d,0.037,0.037,1,105,267,94,1,eightsix,,,,,,,,,,,,,,,,,,,,,,,,,,,,,,,,,,,,,,,,,,,,,,,,,,,,,,,,,,,,,,,,,,,,,,,,,,,,,,,,,,,,,,,,,,,,,,,,,,,,,,,,,,,,,,,,,,,,,,,,,,,,,,,,,,,,,,,
,,5f12ab57b896bd212d80738f,2024-01-06_07h41.49.392,kallum_motion_pilot,2023.2.3,Win32,60.0240096,5f12ab57b896bd212d80738f,6598e6a5d84f07970b831e70,6598e74262a400b687bf733d,0.037,0.037,1,106,268,111,1,eightseven,,,,,,,,,,,,,,,,,,,,,,,,,,,,,,,,,,,,,,,,,,,,,,,,,,,,,,,,,,,,,,,,,,,,,,,,,,,,,,,,,,,,,,,,,,,,,,,,,,,,,,,,,,,,,,,,,,,,,,,,,,,,,,,,,,,,,,,
,,5f12ab57b896bd212d80738f,2024-01-06_07h41.49.392,kallum_motion_pilot,2023.2.3,Win32,60.0240096,5f12ab57b896bd212d80738f,6598e6a5d84f07970b831e70,6598e74262a400b687bf733d,0.037,0.037,1,107,269,60,1,threeone,,,,,,,,,,,,,,,,,,,,,,,,,,,,,,,,,,,,,,,,,,,,,,,,,,,,,,,,,,,,,,,,,,,,,,,,,,,,,,,,,,,,,,,,,,,,,,,,,,,,,,,,,,,,,,,,,,,,,,,,,,,,,,,,,,,,,,,
,,5f12ab57b896bd212d80738f,2024-01-06_07h41.49.392,kallum_motion_pilot,2023.2.3,Win32,60.0240096,5f12ab57b896bd212d80738f,6598e6a5d84f07970b831e70,6598e74262a400b687bf733d,0.037,0.037,1,108,270,43,1,twofour,,,,,,,,,,,,,,,,,,,,,,,,,,,,,,,,,,,,,,,,,,,,,,,,,,,,,,,,,,,,,,,,,,,,,,,,,,,,,,,,,,,,,,,,,,,,,,,,,,,,,,,,,,,,,,,,,,,,,,,,,,,,,,,,,,,,,,,
,,5f12ab57b896bd212d80738f,2024-01-06_07h41.49.392,kallum_motion_pilot,2023.2.3,Win32,60.0240096,5f12ab57b896bd212d80738f,6598e6a5d84f07970b831e70,6598e74262a400b687bf733d,0.038,0.038,1,109,271,136,1,fivesix,,,,,,,,,,,,,,,,,,,,,,,,,,,,,,,,,,,,,,,,,,,,,,,,,,,,,,,,,,,,,,,,,,,,,,,,,,,,,,,,,,,,,,,,,,,,,,,,,,,,,,,,,,,,,,,,,,,,,,,,,,,,,,,,,,,,,,,
,,5f12ab57b896bd212d80738f,2024-01-06_07h41.49.392,kallum_motion_pilot,2023.2.3,Win32,60.0240096,5f12ab57b896bd212d80738f,6598e6a5d84f07970b831e70,6598e74262a400b687bf733d,0.038,0.038,1,110,272,49,1,onethree,,,,,,,,,,,,,,,,,,,,,,,,,,,,,,,,,,,,,,,,,,,,,,,,,,,,,,,,,,,,,,,,,,,,,,,,,,,,,,,,,,,,,,,,,,,,,,,,,,,,,,,,,,,,,,,,,,,,,,,,,,,,,,,,,,,,,,,
,,5f12ab57b896bd212d80738f,2024-01-06_07h41.49.392,kallum_motion_pilot,2023.2.3,Win32,60.0240096,5f12ab57b896bd212d80738f,6598e6a5d84f07970b831e70,6598e74262a400b687bf733d,0.038,0.038,1,111,273,116,1,sevenfive,,,,,,,,,,,,,,,,,,,,,,,,,,,,,,,,,,,,,,,,,,,,,,,,,,,,,,,,,,,,,,,,,,,,,,,,,,,,,,,,,,,,,,,,,,,,,,,,,,,,,,,,,,,,,,,,,,,,,,,,,,,,,,,,,,,,,,,
,,5f12ab57b896bd212d80738f,2024-01-06_07h41.49.392,kallum_motion_pilot,2023.2.3,Win32,60.0240096,5f12ab57b896bd212d80738f,6598e6a5d84f07970b831e70,6598e74262a400b687bf733d,0.038,0.038,1,112,274,1,1,onethree,,,,,,,,,,,,,,,,,,,,,,,,,,,,,,,,,,,,,,,,,,,,,,,,,,,,,,,,,,,,,,,,,,,,,,,,,,,,,,,,,,,,,,,,,,,,,,,,,,,,,,,,,,,,,,,,,,,,,,,,,,,,,,,,,,,,,,,
,,5f12ab57b896bd212d80738f,2024-01-06_07h41.49.392,kallum_motion_pilot,2023.2.3,Win32,60.0240096,5f12ab57b896bd212d80738f,6598e6a5d84f07970b831e70,6598e74262a400b687bf733d,0.038,0.038,1,113,275,2,1,twoone,,,,,,,,,,,,,,,,,,,,,,,,,,,,,,,,,,,,,,,,,,,,,,,,,,,,,,,,,,,,,,,,,,,,,,,,,,,,,,,,,,,,,,,,,,,,,,,,,,,,,,,,,,,,,,,,,,,,,,,,,,,,,,,,,,,,,,,
,,5f12ab57b896bd212d80738f,2024-01-06_07h41.49.392,kallum_motion_pilot,2023.2.3,Win32,60.0240096,5f12ab57b896bd212d80738f,6598e6a5d84f07970b831e70,6598e74262a400b687bf733d,0.038,0.038,1,114,276,63,1,fourthree,,,,,,,,,,,,,,,,,,,,,,,,,,,,,,,,,,,,,,,,,,,,,,,,,,,,,,,,,,,,,,,,,,,,,,,,,,,,,,,,,,,,,,,,,,,,,,,,,,,,,,,,,,,,,,,,,,,,,,,,,,,,,,,,,,,,,,,
,,5f12ab57b896bd212d80738f,2024-01-06_07h41.49.392,kallum_motion_pilot,2023.2.3,Win32,60.0240096,5f12ab57b896bd212d80738f,6598e6a5d84f07970b831e70,6598e74262a400b687bf733d,0.038,0.038,1,115,277,95,1,eightseven,,,,,,,,,,,,,,,,,,,,,,,,,,,,,,,,,,,,,,,,,,,,,,,,,,,,,,,,,,,,,,,,,,,,,,,,,,,,,,,,,,,,,,,,,,,,,,,,,,,,,,,,,,,,,,,,,,,,,,,,,,,,,,,,,,,,,,,
,,5f12ab57b896bd212d80738f,2024-01-06_07h41.49.392,kallum_motion_pilot,2023.2.3,Win32,60.0240096,5f12ab57b896bd212d80738f,6598e6a5d84f07970b831e70,6598e74262a400b687bf733d,0.038,0.038,1,116,278,22,1,fourtwo,,,,,,,,,,,,,,,,,,,,,,,,,,,,,,,,,,,,,,,,,,,,,,,,,,,,,,,,,,,,,,,,,,,,,,,,,,,,,,,,,,,,,,,,,,,,,,,,,,,,,,,,,,,,,,,,,,,,,,,,,,,,,,,,,,,,,,,
,,5f12ab57b896bd212d80738f,2024-01-06_07h41.49.392,kallum_motion_pilot,2023.2.3,Win32,60.0240096,5f12ab57b896bd212d80738f,6598e6a5d84f07970b831e70,6598e74262a400b687bf733d,0.038,0.038,1,117,279,28,1,threeone,,,,,,,,,,,,,,,,,,,,,,,,,,,,,,,,,,,,,,,,,,,,,,,,,,,,,,,,,,,,,,,,,,,,,,,,,,,,,,,,,,,,,,,,,,,,,,,,,,,,,,,,,,,,,,,,,,,,,,,,,,,,,,,,,,,,,,,
,,5f12ab57b896bd212d80738f,2024-01-06_07h41.49.392,kallum_motion_pilot,2023.2.3,Win32,60.0240096,5f12ab57b896bd212d80738f,6598e6a5d84f07970b831e70,6598e74262a400b687bf733d,0.038,0.038,1,118,280,89,1,fiveseven,,,,,,,,,,,,,,,,,,,,,,,,,,,,,,,,,,,,,,,,,,,,,,,,,,,,,,,,,,,,,,,,,,,,,,,,,,,,,,,,,,,,,,,,,,,,,,,,,,,,,,,,,,,,,,,,,,,,,,,,,,,,,,,,,,,,,,,
,,5f12ab57b896bd212d80738f,2024-01-06_07h41.49.392,kallum_motion_pilot,2023.2.3,Win32,60.0240096,5f12ab57b896bd212d80738f,6598e6a5d84f07970b831e70,6598e74262a400b687bf733d,0.038,0.038,1,119,281,17,1,onethree,,,,,,,,,,,,,,,,,,,,,,,,,,,,,,,,,,,,,,,,,,,,,,,,,,,,,,,,,,,,,,,,,,,,,,,,,,,,,,,,,,,,,,,,,,,,,,,,,,,,,,,,,,,,,,,,,,,,,,,,,,,,,,,,,,,,,,,
