startup.started,startup.stopped,Prolific ID*,date,expName,psychopyVersion,OS,frameRate,PROLIFIC_PID,STUDY_ID,SESSION_ID,stimpositions.started,stimpositions.stopped,hardcoded_stimulus_positions.thisRepN,hardcoded_stimulus_positions.thisTrialN,hardcoded_stimulus_positions.thisN,hardcoded_stimulus_positions.thisIndex,hardcoded_stimulus_positions.ran,StimulusPos,stimorientation.started,stimorientation.stopped,prac_stimorientation_import_loop.thisRepN,prac_stimorientation_import_loop.thisTrialN,prac_stimorientation_import_loop.thisN,prac_stimorientation_import_loop.thisIndex,prac_stimorientation_import_loop.ran,Stimorientation,welcome_instr.started,welcome_instr.stopped,key_resp.keys,key_resp.rt,key_resp.duration,response_steppedout_1.started,response_steppedout_1.stopped,key_resp_20.keys,key_resp_20.rt,key_resp_20.duration,response_steppedout_2.started,response_steppedout_2.stopped,key_resp_19.keys,key_resp_19.rt,key_resp_19.duration,stim_response_instr.started,stim_response_instr.stopped,key_resp_15.keys,key_resp_15.rt,key_resp_15.duration,direction_instr_2.started,direction_instr_2.stopped,key_resp_9.keys,key_resp_9.rt,key_resp_9.duration,instr_prac.started,instr_prac.stopped,key_resp_10.keys,key_resp_10.rt,key_resp_10.duration,Stim1_display_prac.started,Stim1_display_prac.stopped,Ecc,Circle1_ori,Circle2_ori,response_prac.started,similarity,response_time,response_prac.stopped,mouse_5.x,mouse_5.y,mouse_5.leftButton,mouse_5.midButton,mouse_5.rightButton,mouse_5.clicked_name,responseprac_feedback.started,responseprac_feedback.stopped,summary2_prac.started,summary2_prac.stopped,mouse_6.x,mouse_6.y,mouse_6.leftButton,mouse_6.midButton,mouse_6.rightButton,mouse_6.clicked_name,duringprac.thisRepN,duringprac.thisTrialN,duringprac.thisN,duringprac.thisIndex,duringprac.ran,begin.started,begin.stopped,key_resp_22.keys,key_resp_22.rt,key_resp_22.duration,Stim1_display.started,Stim1_display.stopped,circle1_ori,circle2_ori,blank.started,blank.stopped,response.started,response.stopped,mouse.x,mouse.y,mouse.leftButton,mouse.midButton,mouse.rightButton,mouse.clicked_name,response_2.started,response_2.stopped,mouse_2.x,mouse_2.y,mouse_2.leftButton,mouse_2.midButton,mouse_2.rightButton,mouse_2.clicked_name,special_trial.started,special_trial.stopped,catch_1.started,catch_1.stopped,mouse_3.x,mouse_3.y,mouse_3.leftButton,mouse_3.midButton,mouse_3.rightButton,catchresponse,catchnumber,response_time_catch,Catch,response_sum.started,response_sum.stopped,mouse_11.x,mouse_11.y,mouse_11.leftButton,mouse_11.midButton,mouse_11.rightButton,main_trial.thisRepN,main_trial.thisTrialN,main_trial.thisN,main_trial.thisIndex,main_trial.ran,Orientationtrialno,xcircle1_ori,xcircle2_ori,flip_presentation_sequence_for_double_pass.started,flip_presentation_sequence_for_double_pass.stopped,double_pass.thisRepN,double_pass.thisTrialN,double_pass.thisN,double_pass.thisIndex,double_pass.ran,goodbye.started,goodbye.stopped,key_resp_3.keys,key_resp_3.rt,key_resp_3.duration
0.0003,0.0004,64ac362b0979becb1044e190,2024-01-06_24h39.52.870,kallum_motion_pilot,2023.2.3,MacIntel,59.97361161,64ac362b0979becb1044e190,6598e6a5d84f07970b831e70,6598e79377b71480cf78df61,,,,,,,,,,,,,,,,,,,,,,,,,,,,,,,,,,,,,,,,,,,,,,,,,,,,,,,,,,,,,,,,,,,,,,,,,,,,,,,,,,,,,,,,,,,,,,,,,,,,,,,,,,,,,,,,,,,,,,,,,,,,,,,,,,,,,,,,,,,,,,,
,,64ac362b0979becb1044e190,2024-01-06_24h39.52.870,kallum_motion_pilot,2023.2.3,MacIntel,59.97361161,64ac362b0979becb1044e190,6598e6a5d84f07970b831e70,6598e79377b71480cf78df61,0.0539,0.0542,0,0,0,57,1,onethree,,,,,,,,,,,,,,,,,,,,,,,,,,,,,,,,,,,,,,,,,,,,,,,,,,,,,,,,,,,,,,,,,,,,,,,,,,,,,,,,,,,,,,,,,,,,,,,,,,,,,,,,,,,,,,,,,,,,,,,,,,,,,,,,,,,,,,,
,,64ac362b0979becb1044e190,2024-01-06_24h39.52.870,kallum_motion_pilot,2023.2.3,MacIntel,59.97361161,64ac362b0979becb1044e190,6598e6a5d84f07970b831e70,6598e79377b71480cf78df61,0.0547,0.0548,0,1,1,100,1,sevenfive,,,,,,,,,,,,,,,,,,,,,,,,,,,,,,,,,,,,,,,,,,,,,,,,,,,,,,,,,,,,,,,,,,,,,,,,,,,,,,,,,,,,,,,,,,,,,,,,,,,,,,,,,,,,,,,,,,,,,,,,,,,,,,,,,,,,,,,
,,64ac362b0979becb1044e190,2024-01-06_24h39.52.870,kallum_motion_pilot,2023.2.3,MacIntel,59.97361161,64ac362b0979becb1044e190,6598e6a5d84f07970b831e70,6598e79377b71480cf78df61,0.055,0.0551,0,2,2,87,1,eightseven,,,,,,,,,,,,,,,,,,,,,,,,,,,,,,,,,,,,,,,,,,,,,,,,,,,,,,,,,,,,,,,,,,,,,,,,,,,,,,,,,,,,,,,,,,,,,,,,,,,,,,,,,,,,,,,,,,,,,,,,,,,,,,,,,,,,,,,
,,64ac362b0979becb1044e190,2024-01-06_24h39.52.870,kallum_motion_pilot,2023.2.3,MacIntel,59.97361161,64ac362b0979becb1044e190,6598e6a5d84f07970b831e70,6598e79377b71480cf78df61,0.0554,0.0554,0,3,3,45,1,threefour,,,,,,,,,,,,,,,,,,,,,,,,,,,,,,,,,,,,,,,,,,,,,,,,,,,,,,,,,,,,,,,,,,,,,,,,,,,,,,,,,,,,,,,,,,,,,,,,,,,,,,,,,,,,,,,,,,,,,,,,,,,,,,,,,,,,,,,
,,64ac362b0979becb1044e190,2024-01-06_24h39.52.870,kallum_motion_pilot,2023.2.3,MacIntel,59.97361161,64ac362b0979becb1044e190,6598e6a5d84f07970b831e70,6598e79377b71480cf78df61,0.0558,0.0559,0,4,4,65,1,onethree,,,,,,,,,,,,,,,,,,,,,,,,,,,,,,,,,,,,,,,,,,,,,,,,,,,,,,,,,,,,,,,,,,,,,,,,,,,,,,,,,,,,,,,,,,,,,,,,,,,,,,,,,,,,,,,,,,,,,,,,,,,,,,,,,,,,,,,
,,64ac362b0979becb1044e190,2024-01-06_24h39.52.870,kallum_motion_pilot,2023.2.3,MacIntel,59.97361161,64ac362b0979becb1044e190,6598e6a5d84f07970b831e70,6598e79377b71480cf78df61,0.0561,0.0561,0,5,5,146,1,sixfive,,,,,,,,,,,,,,,,,,,,,,,,,,,,,,,,,,,,,,,,,,,,,,,,,,,,,,,,,,,,,,,,,,,,,,,,,,,,,,,,,,,,,,,,,,,,,,,,,,,,,,,,,,,,,,,,,,,,,,,,,,,,,,,,,,,,,,,
,,64ac362b0979becb1044e190,2024-01-06_24h39.52.870,kallum_motion_pilot,2023.2.3,MacIntel,59.97361161,64ac362b0979becb1044e190,6598e6a5d84f07970b831e70,6598e79377b71480cf78df61,0.0564,0.0565,0,6,6,7,1,fourthree,,,,,,,,,,,,,,,,,,,,,,,,,,,,,,,,,,,,,,,,,,,,,,,,,,,,,,,,,,,,,,,,,,,,,,,,,,,,,,,,,,,,,,,,,,,,,,,,,,,,,,,,,,,,,,,,,,,,,,,,,,,,,,,,,,,,,,,
,,64ac362b0979becb1044e190,2024-01-06_24h39.52.870,kallum_motion_pilot,2023.2.3,MacIntel,59.97361161,64ac362b0979becb1044e190,6598e6a5d84f07970b831e70,6598e79377b71480cf78df61,0.0567,0.0569,0,7,7,78,1,fourtwo,,,,,,,,,,,,,,,,,,,,,,,,,,,,,,,,,,,,,,,,,,,,,,,,,,,,,,,,,,,,,,,,,,,,,,,,,,,,,,,,,,,,,,,,,,,,,,,,,,,,,,,,,,,,,,,,,,,,,,,,,,,,,,,,,,,,,,,
,,64ac362b0979becb1044e190,2024-01-06_24h39.52.870,kallum_motion_pilot,2023.2.3,MacIntel,59.97361161,64ac362b0979becb1044e190,6598e6a5d84f07970b831e70,6598e79377b71480cf78df61,0.0571,0.0572,0,8,8,55,1,fourthree,,,,,,,,,,,,,,,,,,,,,,,,,,,,,,,,,,,,,,,,,,,,,,,,,,,,,,,,,,,,,,,,,,,,,,,,,,,,,,,,,,,,,,,,,,,,,,,,,,,,,,,,,,,,,,,,,,,,,,,,,,,,,,,,,,,,,,,
,,64ac362b0979becb1044e190,2024-01-06_24h39.52.870,kallum_motion_pilot,2023.2.3,MacIntel,59.97361161,64ac362b0979becb1044e190,6598e6a5d84f07970b831e70,6598e79377b71480cf78df61,0.0575,0.0576,0,9,9,147,1,sixeight,,,,,,,,,,,,,,,,,,,,,,,,,,,,,,,,,,,,,,,,,,,,,,,,,,,,,,,,,,,,,,,,,,,,,,,,,,,,,,,,,,,,,,,,,,,,,,,,,,,,,,,,,,,,,,,,,,,,,,,,,,,,,,,,,,,,,,,
,,64ac362b0979becb1044e190,2024-01-06_24h39.52.870,kallum_motion_pilot,2023.2.3,MacIntel,59.97361161,64ac362b0979becb1044e190,6598e6a5d84f07970b831e70,6598e79377b71480cf78df61,0.0578,0.0578,0,10,10,72,1,onetwo,,,,,,,,,,,,,,,,,,,,,,,,,,,,,,,,,,,,,,,,,,,,,,,,,,,,,,,,,,,,,,,,,,,,,,,,,,,,,,,,,,,,,,,,,,,,,,,,,,,,,,,,,,,,,,,,,,,,,,,,,,,,,,,,,,,,,,,
,,64ac362b0979becb1044e190,2024-01-06_24h39.52.870,kallum_motion_pilot,2023.2.3,MacIntel,59.97361161,64ac362b0979becb1044e190,6598e6a5d84f07970b831e70,6598e79377b71480cf78df61,0.0581,0.0581,0,11,11,137,1,fiveseven,,,,,,,,,,,,,,,,,,,,,,,,,,,,,,,,,,,,,,,,,,,,,,,,,,,,,,,,,,,,,,,,,,,,,,,,,,,,,,,,,,,,,,,,,,,,,,,,,,,,,,,,,,,,,,,,,,,,,,,,,,,,,,,,,,,,,,,
,,64ac362b0979becb1044e190,2024-01-06_24h39.52.870,kallum_motion_pilot,2023.2.3,MacIntel,59.97361161,64ac362b0979becb1044e190,6598e6a5d84f07970b831e70,6598e79377b71480cf78df61,0.0583,0.0584,0,12,12,108,1,sevenfive,,,,,,,,,,,,,,,,,,,,,,,,,,,,,,,,,,,,,,,,,,,,,,,,,,,,,,,,,,,,,,,,,,,,,,,,,,,,,,,,,,,,,,,,,,,,,,,,,,,,,,,,,,,,,,,,,,,,,,,,,,,,,,,,,,,,,,,
,,64ac362b0979becb1044e190,2024-01-06_24h39.52.870,kallum_motion_pilot,2023.2.3,MacIntel,59.97361161,64ac362b0979becb1044e190,6598e6a5d84f07970b831e70,6598e79377b71480cf78df61,0.0585,0.0586,0,13,13,86,1,eightsix,,,,,,,,,,,,,,,,,,,,,,,,,,,,,,,,,,,,,,,,,,,,,,,,,,,,,,,,,,,,,,,,,,,,,,,,,,,,,,,,,,,,,,,,,,,,,,,,,,,,,,,,,,,,,,,,,,,,,,,,,,,,,,,,,,,,,,,
,,64ac362b0979becb1044e190,2024-01-06_24h39.52.870,kallum_motion_pilot,2023.2.3,MacIntel,59.97361161,64ac362b0979becb1044e190,6598e6a5d84f07970b831e70,6598e79377b71480cf78df61,0.0588,0.0589,0,14,14,71,1,fourthree,,,,,,,,,,,,,,,,,,,,,,,,,,,,,,,,,,,,,,,,,,,,,,,,,,,,,,,,,,,,,,,,,,,,,,,,,,,,,,,,,,,,,,,,,,,,,,,,,,,,,,,,,,,,,,,,,,,,,,,,,,,,,,,,,,,,,,,
,,64ac362b0979becb1044e190,2024-01-06_24h39.52.870,kallum_motion_pilot,2023.2.3,MacIntel,59.97361161,64ac362b0979becb1044e190,6598e6a5d84f07970b831e70,6598e79377b71480cf78df61,0.0592,0.0592,0,15,15,150,1,eightsix,,,,,,,,,,,,,,,,,,,,,,,,,,,,,,,,,,,,,,,,,,,,,,,,,,,,,,,,,,,,,,,,,,,,,,,,,,,,,,,,,,,,,,,,,,,,,,,,,,,,,,,,,,,,,,,,,,,,,,,,,,,,,,,,,,,,,,,
,,64ac362b0979becb1044e190,2024-01-06_24h39.52.870,kallum_motion_pilot,2023.2.3,MacIntel,59.97361161,64ac362b0979becb1044e190,6598e6a5d84f07970b831e70,6598e79377b71480cf78df61,0.0594,0.0594,0,16,16,135,1,eightseven,,,,,,,,,,,,,,,,,,,,,,,,,,,,,,,,,,,,,,,,,,,,,,,,,,,,,,,,,,,,,,,,,,,,,,,,,,,,,,,,,,,,,,,,,,,,,,,,,,,,,,,,,,,,,,,,,,,,,,,,,,,,,,,,,,,,,,,
,,64ac362b0979becb1044e190,2024-01-06_24h39.52.870,kallum_motion_pilot,2023.2.3,MacIntel,59.97361161,64ac362b0979becb1044e190,6598e6a5d84f07970b831e70,6598e79377b71480cf78df61,0.0596,0.0598,0,17,17,157,1,seveneight,,,,,,,,,,,,,,,,,,,,,,,,,,,,,,,,,,,,,,,,,,,,,,,,,,,,,,,,,,,,,,,,,,,,,,,,,,,,,,,,,,,,,,,,,,,,,,,,,,,,,,,,,,,,,,,,,,,,,,,,,,,,,,,,,,,,,,,
,,64ac362b0979becb1044e190,2024-01-06_24h39.52.870,kallum_motion_pilot,2023.2.3,MacIntel,59.97361161,64ac362b0979becb1044e190,6598e6a5d84f07970b831e70,6598e79377b71480cf78df61,0.0599,0.06,0,18,18,102,1,eightsix,,,,,,,,,,,,,,,,,,,,,,,,,,,,,,,,,,,,,,,,,,,,,,,,,,,,,,,,,,,,,,,,,,,,,,,,,,,,,,,,,,,,,,,,,,,,,,,,,,,,,,,,,,,,,,,,,,,,,,,,,,,,,,,,,,,,,,,
,,64ac362b0979becb1044e190,2024-01-06_24h39.52.870,kallum_motion_pilot,2023.2.3,MacIntel,59.97361161,64ac362b0979becb1044e190,6598e6a5d84f07970b831e70,6598e79377b71480cf78df61,0.0602,0.0603,0,19,19,114,1,sixfive,,,,,,,,,,,,,,,,,,,,,,,,,,,,,,,,,,,,,,,,,,,,,,,,,,,,,,,,,,,,,,,,,,,,,,,,,,,,,,,,,,,,,,,,,,,,,,,,,,,,,,,,,,,,,,,,,,,,,,,,,,,,,,,,,,,,,,,
,,64ac362b0979becb1044e190,2024-01-06_24h39.52.870,kallum_motion_pilot,2023.2.3,MacIntel,59.97361161,64ac362b0979becb1044e190,6598e6a5d84f07970b831e70,6598e79377b71480cf78df61,0.0605,0.0606,0,20,20,48,1,onetwo,,,,,,,,,,,,,,,,,,,,,,,,,,,,,,,,,,,,,,,,,,,,,,,,,,,,,,,,,,,,,,,,,,,,,,,,,,,,,,,,,,,,,,,,,,,,,,,,,,,,,,,,,,,,,,,,,,,,,,,,,,,,,,,,,,,,,,,
,,64ac362b0979becb1044e190,2024-01-06_24h39.52.870,kallum_motion_pilot,2023.2.3,MacIntel,59.97361161,64ac362b0979becb1044e190,6598e6a5d84f07970b831e70,6598e79377b71480cf78df61,0.0607,0.0608,0,21,21,64,1,onetwo,,,,,,,,,,,,,,,,,,,,,,,,,,,,,,,,,,,,,,,,,,,,,,,,,,,,,,,,,,,,,,,,,,,,,,,,,,,,,,,,,,,,,,,,,,,,,,,,,,,,,,,,,,,,,,,,,,,,,,,,,,,,,,,,,,,,,,,
,,64ac362b0979becb1044e190,2024-01-06_24h39.52.870,kallum_motion_pilot,2023.2.3,MacIntel,59.97361161,64ac362b0979becb1044e190,6598e6a5d84f07970b831e70,6598e79377b71480cf78df61,0.0611,0.0611,0,22,22,51,1,twofour,,,,,,,,,,,,,,,,,,,,,,,,,,,,,,,,,,,,,,,,,,,,,,,,,,,,,,,,,,,,,,,,,,,,,,,,,,,,,,,,,,,,,,,,,,,,,,,,,,,,,,,,,,,,,,,,,,,,,,,,,,,,,,,,,,,,,,,
,,64ac362b0979becb1044e190,2024-01-06_24h39.52.870,kallum_motion_pilot,2023.2.3,MacIntel,59.97361161,64ac362b0979becb1044e190,6598e6a5d84f07970b831e70,6598e79377b71480cf78df61,0.0613,0.0614,0,23,23,80,1,fivesix,,,,,,,,,,,,,,,,,,,,,,,,,,,,,,,,,,,,,,,,,,,,,,,,,,,,,,,,,,,,,,,,,,,,,,,,,,,,,,,,,,,,,,,,,,,,,,,,,,,,,,,,,,,,,,,,,,,,,,,,,,,,,,,,,,,,,,,
,,64ac362b0979becb1044e190,2024-01-06_24h39.52.870,kallum_motion_pilot,2023.2.3,MacIntel,59.97361161,64ac362b0979becb1044e190,6598e6a5d84f07970b831e70,6598e79377b71480cf78df61,0.0616,0.0617,0,24,24,122,1,sixfive,,,,,,,,,,,,,,,,,,,,,,,,,,,,,,,,,,,,,,,,,,,,,,,,,,,,,,,,,,,,,,,,,,,,,,,,,,,,,,,,,,,,,,,,,,,,,,,,,,,,,,,,,,,,,,,,,,,,,,,,,,,,,,,,,,,,,,,
,,64ac362b0979becb1044e190,2024-01-06_24h39.52.870,kallum_motion_pilot,2023.2.3,MacIntel,59.97361161,64ac362b0979becb1044e190,6598e6a5d84f07970b831e70,6598e79377b71480cf78df61,0.0623,0.0626,0,25,25,49,1,onethree,,,,,,,,,,,,,,,,,,,,,,,,,,,,,,,,,,,,,,,,,,,,,,,,,,,,,,,,,,,,,,,,,,,,,,,,,,,,,,,,,,,,,,,,,,,,,,,,,,,,,,,,,,,,,,,,,,,,,,,,,,,,,,,,,,,,,,,
,,64ac362b0979becb1044e190,2024-01-06_24h39.52.870,kallum_motion_pilot,2023.2.3,MacIntel,59.97361161,64ac362b0979becb1044e190,6598e6a5d84f07970b831e70,6598e79377b71480cf78df61,0.0632,0.0633,0,26,26,126,1,eightsix,,,,,,,,,,,,,,,,,,,,,,,,,,,,,,,,,,,,,,,,,,,,,,,,,,,,,,,,,,,,,,,,,,,,,,,,,,,,,,,,,,,,,,,,,,,,,,,,,,,,,,,,,,,,,,,,,,,,,,,,,,,,,,,,,,,,,,,
,,64ac362b0979becb1044e190,2024-01-06_24h39.52.870,kallum_motion_pilot,2023.2.3,MacIntel,59.97361161,64ac362b0979becb1044e190,6598e6a5d84f07970b831e70,6598e79377b71480cf78df61,0.0639,0.0641,0,27,27,151,1,eightseven,,,,,,,,,,,,,,,,,,,,,,,,,,,,,,,,,,,,,,,,,,,,,,,,,,,,,,,,,,,,,,,,,,,,,,,,,,,,,,,,,,,,,,,,,,,,,,,,,,,,,,,,,,,,,,,,,,,,,,,,,,,,,,,,,,,,,,,
,,64ac362b0979becb1044e190,2024-01-06_24h39.52.870,kallum_motion_pilot,2023.2.3,MacIntel,59.97361161,64ac362b0979becb1044e190,6598e6a5d84f07970b831e70,6598e79377b71480cf78df61,0.0645,0.0646,0,28,28,143,1,eightseven,,,,,,,,,,,,,,,,,,,,,,,,,,,,,,,,,,,,,,,,,,,,,,,,,,,,,,,,,,,,,,,,,,,,,,,,,,,,,,,,,,,,,,,,,,,,,,,,,,,,,,,,,,,,,,,,,,,,,,,,,,,,,,,,,,,,,,,
,,64ac362b0979becb1044e190,2024-01-06_24h39.52.870,kallum_motion_pilot,2023.2.3,MacIntel,59.97361161,64ac362b0979becb1044e190,6598e6a5d84f07970b831e70,6598e79377b71480cf78df61,0.065,0.0651,0,29,29,134,1,eightsix,,,,,,,,,,,,,,,,,,,,,,,,,,,,,,,,,,,,,,,,,,,,,,,,,,,,,,,,,,,,,,,,,,,,,,,,,,,,,,,,,,,,,,,,,,,,,,,,,,,,,,,,,,,,,,,,,,,,,,,,,,,,,,,,,,,,,,,
,,64ac362b0979becb1044e190,2024-01-06_24h39.52.870,kallum_motion_pilot,2023.2.3,MacIntel,59.97361161,64ac362b0979becb1044e190,6598e6a5d84f07970b831e70,6598e79377b71480cf78df61,0.0654,0.0655,0,30,30,124,1,sevenfive,,,,,,,,,,,,,,,,,,,,,,,,,,,,,,,,,,,,,,,,,,,,,,,,,,,,,,,,,,,,,,,,,,,,,,,,,,,,,,,,,,,,,,,,,,,,,,,,,,,,,,,,,,,,,,,,,,,,,,,,,,,,,,,,,,,,,,,
,,64ac362b0979becb1044e190,2024-01-06_24h39.52.870,kallum_motion_pilot,2023.2.3,MacIntel,59.97361161,64ac362b0979becb1044e190,6598e6a5d84f07970b831e70,6598e79377b71480cf78df61,0.0657,0.0657,0,31,31,0,1,onetwo,,,,,,,,,,,,,,,,,,,,,,,,,,,,,,,,,,,,,,,,,,,,,,,,,,,,,,,,,,,,,,,,,,,,,,,,,,,,,,,,,,,,,,,,,,,,,,,,,,,,,,,,,,,,,,,,,,,,,,,,,,,,,,,,,,,,,,,
,,64ac362b0979becb1044e190,2024-01-06_24h39.52.870,kallum_motion_pilot,2023.2.3,MacIntel,59.97361161,64ac362b0979becb1044e190,6598e6a5d84f07970b831e70,6598e79377b71480cf78df61,0.066,0.066,0,32,32,132,1,sevenfive,,,,,,,,,,,,,,,,,,,,,,,,,,,,,,,,,,,,,,,,,,,,,,,,,,,,,,,,,,,,,,,,,,,,,,,,,,,,,,,,,,,,,,,,,,,,,,,,,,,,,,,,,,,,,,,,,,,,,,,,,,,,,,,,,,,,,,,
,,64ac362b0979becb1044e190,2024-01-06_24h39.52.870,kallum_motion_pilot,2023.2.3,MacIntel,59.97361161,64ac362b0979becb1044e190,6598e6a5d84f07970b831e70,6598e79377b71480cf78df61,0.0663,0.0665,0,33,33,17,1,onethree,,,,,,,,,,,,,,,,,,,,,,,,,,,,,,,,,,,,,,,,,,,,,,,,,,,,,,,,,,,,,,,,,,,,,,,,,,,,,,,,,,,,,,,,,,,,,,,,,,,,,,,,,,,,,,,,,,,,,,,,,,,,,,,,,,,,,,,
,,64ac362b0979becb1044e190,2024-01-06_24h39.52.870,kallum_motion_pilot,2023.2.3,MacIntel,59.97361161,64ac362b0979becb1044e190,6598e6a5d84f07970b831e70,6598e79377b71480cf78df61,0.0667,0.0667,0,34,34,16,1,onetwo,,,,,,,,,,,,,,,,,,,,,,,,,,,,,,,,,,,,,,,,,,,,,,,,,,,,,,,,,,,,,,,,,,,,,,,,,,,,,,,,,,,,,,,,,,,,,,,,,,,,,,,,,,,,,,,,,,,,,,,,,,,,,,,,,,,,,,,
,,64ac362b0979becb1044e190,2024-01-06_24h39.52.870,kallum_motion_pilot,2023.2.3,MacIntel,59.97361161,64ac362b0979becb1044e190,6598e6a5d84f07970b831e70,6598e79377b71480cf78df61,0.0669,0.0669,0,35,35,113,1,fiveseven,,,,,,,,,,,,,,,,,,,,,,,,,,,,,,,,,,,,,,,,,,,,,,,,,,,,,,,,,,,,,,,,,,,,,,,,,,,,,,,,,,,,,,,,,,,,,,,,,,,,,,,,,,,,,,,,,,,,,,,,,,,,,,,,,,,,,,,
,,64ac362b0979becb1044e190,2024-01-06_24h39.52.870,kallum_motion_pilot,2023.2.3,MacIntel,59.97361161,64ac362b0979becb1044e190,6598e6a5d84f07970b831e70,6598e79377b71480cf78df61,0.0671,0.0672,0,36,36,77,1,threefour,,,,,,,,,,,,,,,,,,,,,,,,,,,,,,,,,,,,,,,,,,,,,,,,,,,,,,,,,,,,,,,,,,,,,,,,,,,,,,,,,,,,,,,,,,,,,,,,,,,,,,,,,,,,,,,,,,,,,,,,,,,,,,,,,,,,,,,
,,64ac362b0979becb1044e190,2024-01-06_24h39.52.870,kallum_motion_pilot,2023.2.3,MacIntel,59.97361161,64ac362b0979becb1044e190,6598e6a5d84f07970b831e70,6598e79377b71480cf78df61,0.0675,0.0675,0,37,37,23,1,fourthree,,,,,,,,,,,,,,,,,,,,,,,,,,,,,,,,,,,,,,,,,,,,,,,,,,,,,,,,,,,,,,,,,,,,,,,,,,,,,,,,,,,,,,,,,,,,,,,,,,,,,,,,,,,,,,,,,,,,,,,,,,,,,,,,,,,,,,,
,,64ac362b0979becb1044e190,2024-01-06_24h39.52.870,kallum_motion_pilot,2023.2.3,MacIntel,59.97361161,64ac362b0979becb1044e190,6598e6a5d84f07970b831e70,6598e79377b71480cf78df61,0.0677,0.0679,0,38,38,22,1,fourtwo,,,,,,,,,,,,,,,,,,,,,,,,,,,,,,,,,,,,,,,,,,,,,,,,,,,,,,,,,,,,,,,,,,,,,,,,,,,,,,,,,,,,,,,,,,,,,,,,,,,,,,,,,,,,,,,,,,,,,,,,,,,,,,,,,,,,,,,
,,64ac362b0979becb1044e190,2024-01-06_24h39.52.870,kallum_motion_pilot,2023.2.3,MacIntel,59.97361161,64ac362b0979becb1044e190,6598e6a5d84f07970b831e70,6598e79377b71480cf78df61,0.0681,0.0683,0,39,39,26,1,twoone,,,,,,,,,,,,,,,,,,,,,,,,,,,,,,,,,,,,,,,,,,,,,,,,,,,,,,,,,,,,,,,,,,,,,,,,,,,,,,,,,,,,,,,,,,,,,,,,,,,,,,,,,,,,,,,,,,,,,,,,,,,,,,,,,,,,,,,
,,64ac362b0979becb1044e190,2024-01-06_24h39.52.870,kallum_motion_pilot,2023.2.3,MacIntel,59.97361161,64ac362b0979becb1044e190,6598e6a5d84f07970b831e70,6598e79377b71480cf78df61,0.0685,0.0685,0,40,40,159,1,eightseven,,,,,,,,,,,,,,,,,,,,,,,,,,,,,,,,,,,,,,,,,,,,,,,,,,,,,,,,,,,,,,,,,,,,,,,,,,,,,,,,,,,,,,,,,,,,,,,,,,,,,,,,,,,,,,,,,,,,,,,,,,,,,,,,,,,,,,,
,,64ac362b0979becb1044e190,2024-01-06_24h39.52.870,kallum_motion_pilot,2023.2.3,MacIntel,59.97361161,64ac362b0979becb1044e190,6598e6a5d84f07970b831e70,6598e79377b71480cf78df61,0.0687,0.0688,0,41,41,98,1,sixfive,,,,,,,,,,,,,,,,,,,,,,,,,,,,,,,,,,,,,,,,,,,,,,,,,,,,,,,,,,,,,,,,,,,,,,,,,,,,,,,,,,,,,,,,,,,,,,,,,,,,,,,,,,,,,,,,,,,,,,,,,,,,,,,,,,,,,,,
,,64ac362b0979becb1044e190,2024-01-06_24h39.52.870,kallum_motion_pilot,2023.2.3,MacIntel,59.97361161,64ac362b0979becb1044e190,6598e6a5d84f07970b831e70,6598e79377b71480cf78df61,0.069,0.0692,0,42,42,125,1,seveneight,,,,,,,,,,,,,,,,,,,,,,,,,,,,,,,,,,,,,,,,,,,,,,,,,,,,,,,,,,,,,,,,,,,,,,,,,,,,,,,,,,,,,,,,,,,,,,,,,,,,,,,,,,,,,,,,,,,,,,,,,,,,,,,,,,,,,,,
,,64ac362b0979becb1044e190,2024-01-06_24h39.52.870,kallum_motion_pilot,2023.2.3,MacIntel,59.97361161,64ac362b0979becb1044e190,6598e6a5d84f07970b831e70,6598e79377b71480cf78df61,0.0694,0.0694,0,43,43,46,1,fourtwo,,,,,,,,,,,,,,,,,,,,,,,,,,,,,,,,,,,,,,,,,,,,,,,,,,,,,,,,,,,,,,,,,,,,,,,,,,,,,,,,,,,,,,,,,,,,,,,,,,,,,,,,,,,,,,,,,,,,,,,,,,,,,,,,,,,,,,,
,,64ac362b0979becb1044e190,2024-01-06_24h39.52.870,kallum_motion_pilot,2023.2.3,MacIntel,59.97361161,64ac362b0979becb1044e190,6598e6a5d84f07970b831e70,6598e79377b71480cf78df61,0.0697,0.0698,0,44,44,33,1,onethree,,,,,,,,,,,,,,,,,,,,,,,,,,,,,,,,,,,,,,,,,,,,,,,,,,,,,,,,,,,,,,,,,,,,,,,,,,,,,,,,,,,,,,,,,,,,,,,,,,,,,,,,,,,,,,,,,,,,,,,,,,,,,,,,,,,,,,,
,,64ac362b0979becb1044e190,2024-01-06_24h39.52.870,kallum_motion_pilot,2023.2.3,MacIntel,59.97361161,64ac362b0979becb1044e190,6598e6a5d84f07970b831e70,6598e79377b71480cf78df61,0.07,0.0701,0,45,45,145,1,fiveseven,,,,,,,,,,,,,,,,,,,,,,,,,,,,,,,,,,,,,,,,,,,,,,,,,,,,,,,,,,,,,,,,,,,,,,,,,,,,,,,,,,,,,,,,,,,,,,,,,,,,,,,,,,,,,,,,,,,,,,,,,,,,,,,,,,,,,,,
,,64ac362b0979becb1044e190,2024-01-06_24h39.52.870,kallum_motion_pilot,2023.2.3,MacIntel,59.97361161,64ac362b0979becb1044e190,6598e6a5d84f07970b831e70,6598e79377b71480cf78df61,0.0703,0.0703,0,46,46,15,1,fourthree,,,,,,,,,,,,,,,,,,,,,,,,,,,,,,,,,,,,,,,,,,,,,,,,,,,,,,,,,,,,,,,,,,,,,,,,,,,,,,,,,,,,,,,,,,,,,,,,,,,,,,,,,,,,,,,,,,,,,,,,,,,,,,,,,,,,,,,
,,64ac362b0979becb1044e190,2024-01-06_24h39.52.870,kallum_motion_pilot,2023.2.3,MacIntel,59.97361161,64ac362b0979becb1044e190,6598e6a5d84f07970b831e70,6598e79377b71480cf78df61,0.0706,0.0707,0,47,47,60,1,threeone,,,,,,,,,,,,,,,,,,,,,,,,,,,,,,,,,,,,,,,,,,,,,,,,,,,,,,,,,,,,,,,,,,,,,,,,,,,,,,,,,,,,,,,,,,,,,,,,,,,,,,,,,,,,,,,,,,,,,,,,,,,,,,,,,,,,,,,
,,64ac362b0979becb1044e190,2024-01-06_24h39.52.870,kallum_motion_pilot,2023.2.3,MacIntel,59.97361161,64ac362b0979becb1044e190,6598e6a5d84f07970b831e70,6598e79377b71480cf78df61,0.0709,0.071,0,48,48,97,1,fiveseven,,,,,,,,,,,,,,,,,,,,,,,,,,,,,,,,,,,,,,,,,,,,,,,,,,,,,,,,,,,,,,,,,,,,,,,,,,,,,,,,,,,,,,,,,,,,,,,,,,,,,,,,,,,,,,,,,,,,,,,,,,,,,,,,,,,,,,,
,,64ac362b0979becb1044e190,2024-01-06_24h39.52.870,kallum_motion_pilot,2023.2.3,MacIntel,59.97361161,64ac362b0979becb1044e190,6598e6a5d84f07970b831e70,6598e79377b71480cf78df61,0.0712,0.0713,0,49,49,74,1,twoone,,,,,,,,,,,,,,,,,,,,,,,,,,,,,,,,,,,,,,,,,,,,,,,,,,,,,,,,,,,,,,,,,,,,,,,,,,,,,,,,,,,,,,,,,,,,,,,,,,,,,,,,,,,,,,,,,,,,,,,,,,,,,,,,,,,,,,,
,,64ac362b0979becb1044e190,2024-01-06_24h39.52.870,kallum_motion_pilot,2023.2.3,MacIntel,59.97361161,64ac362b0979becb1044e190,6598e6a5d84f07970b831e70,6598e79377b71480cf78df61,0.0716,0.0717,0,50,50,152,1,fivesix,,,,,,,,,,,,,,,,,,,,,,,,,,,,,,,,,,,,,,,,,,,,,,,,,,,,,,,,,,,,,,,,,,,,,,,,,,,,,,,,,,,,,,,,,,,,,,,,,,,,,,,,,,,,,,,,,,,,,,,,,,,,,,,,,,,,,,,
,,64ac362b0979becb1044e190,2024-01-06_24h39.52.870,kallum_motion_pilot,2023.2.3,MacIntel,59.97361161,64ac362b0979becb1044e190,6598e6a5d84f07970b831e70,6598e79377b71480cf78df61,0.0719,0.0719,0,51,51,118,1,eightsix,,,,,,,,,,,,,,,,,,,,,,,,,,,,,,,,,,,,,,,,,,,,,,,,,,,,,,,,,,,,,,,,,,,,,,,,,,,,,,,,,,,,,,,,,,,,,,,,,,,,,,,,,,,,,,,,,,,,,,,,,,,,,,,,,,,,,,,
,,64ac362b0979becb1044e190,2024-01-06_24h39.52.870,kallum_motion_pilot,2023.2.3,MacIntel,59.97361161,64ac362b0979becb1044e190,6598e6a5d84f07970b831e70,6598e79377b71480cf78df61,0.0722,0.0723,0,52,52,6,1,fourtwo,,,,,,,,,,,,,,,,,,,,,,,,,,,,,,,,,,,,,,,,,,,,,,,,,,,,,,,,,,,,,,,,,,,,,,,,,,,,,,,,,,,,,,,,,,,,,,,,,,,,,,,,,,,,,,,,,,,,,,,,,,,,,,,,,,,,,,,
,,64ac362b0979becb1044e190,2024-01-06_24h39.52.870,kallum_motion_pilot,2023.2.3,MacIntel,59.97361161,64ac362b0979becb1044e190,6598e6a5d84f07970b831e70,6598e79377b71480cf78df61,0.0725,0.0725,0,53,53,56,1,onetwo,,,,,,,,,,,,,,,,,,,,,,,,,,,,,,,,,,,,,,,,,,,,,,,,,,,,,,,,,,,,,,,,,,,,,,,,,,,,,,,,,,,,,,,,,,,,,,,,,,,,,,,,,,,,,,,,,,,,,,,,,,,,,,,,,,,,,,,
,,64ac362b0979becb1044e190,2024-01-06_24h39.52.870,kallum_motion_pilot,2023.2.3,MacIntel,59.97361161,64ac362b0979becb1044e190,6598e6a5d84f07970b831e70,6598e79377b71480cf78df61,0.0728,0.0728,0,54,54,61,1,threefour,,,,,,,,,,,,,,,,,,,,,,,,,,,,,,,,,,,,,,,,,,,,,,,,,,,,,,,,,,,,,,,,,,,,,,,,,,,,,,,,,,,,,,,,,,,,,,,,,,,,,,,,,,,,,,,,,,,,,,,,,,,,,,,,,,,,,,,
,,64ac362b0979becb1044e190,2024-01-06_24h39.52.870,kallum_motion_pilot,2023.2.3,MacIntel,59.97361161,64ac362b0979becb1044e190,6598e6a5d84f07970b831e70,6598e79377b71480cf78df61,0.073,0.0731,0,55,55,18,1,twoone,,,,,,,,,,,,,,,,,,,,,,,,,,,,,,,,,,,,,,,,,,,,,,,,,,,,,,,,,,,,,,,,,,,,,,,,,,,,,,,,,,,,,,,,,,,,,,,,,,,,,,,,,,,,,,,,,,,,,,,,,,,,,,,,,,,,,,,
,,64ac362b0979becb1044e190,2024-01-06_24h39.52.870,kallum_motion_pilot,2023.2.3,MacIntel,59.97361161,64ac362b0979becb1044e190,6598e6a5d84f07970b831e70,6598e79377b71480cf78df61,0.0734,0.0735,0,56,56,73,1,onethree,,,,,,,,,,,,,,,,,,,,,,,,,,,,,,,,,,,,,,,,,,,,,,,,,,,,,,,,,,,,,,,,,,,,,,,,,,,,,,,,,,,,,,,,,,,,,,,,,,,,,,,,,,,,,,,,,,,,,,,,,,,,,,,,,,,,,,,
,,64ac362b0979becb1044e190,2024-01-06_24h39.52.870,kallum_motion_pilot,2023.2.3,MacIntel,59.97361161,64ac362b0979becb1044e190,6598e6a5d84f07970b831e70,6598e79377b71480cf78df61,0.0738,0.0739,0,57,57,67,1,twofour,,,,,,,,,,,,,,,,,,,,,,,,,,,,,,,,,,,,,,,,,,,,,,,,,,,,,,,,,,,,,,,,,,,,,,,,,,,,,,,,,,,,,,,,,,,,,,,,,,,,,,,,,,,,,,,,,,,,,,,,,,,,,,,,,,,,,,,
,,64ac362b0979becb1044e190,2024-01-06_24h39.52.870,kallum_motion_pilot,2023.2.3,MacIntel,59.97361161,64ac362b0979becb1044e190,6598e6a5d84f07970b831e70,6598e79377b71480cf78df61,0.0741,0.0742,0,58,58,95,1,eightseven,,,,,,,,,,,,,,,,,,,,,,,,,,,,,,,,,,,,,,,,,,,,,,,,,,,,,,,,,,,,,,,,,,,,,,,,,,,,,,,,,,,,,,,,,,,,,,,,,,,,,,,,,,,,,,,,,,,,,,,,,,,,,,,,,,,,,,,
,,64ac362b0979becb1044e190,2024-01-06_24h39.52.870,kallum_motion_pilot,2023.2.3,MacIntel,59.97361161,64ac362b0979becb1044e190,6598e6a5d84f07970b831e70,6598e79377b71480cf78df61,0.0745,0.0745,0,59,59,5,1,threefour,,,,,,,,,,,,,,,,,,,,,,,,,,,,,,,,,,,,,,,,,,,,,,,,,,,,,,,,,,,,,,,,,,,,,,,,,,,,,,,,,,,,,,,,,,,,,,,,,,,,,,,,,,,,,,,,,,,,,,,,,,,,,,,,,,,,,,,
,,64ac362b0979becb1044e190,2024-01-06_24h39.52.870,kallum_motion_pilot,2023.2.3,MacIntel,59.97361161,64ac362b0979becb1044e190,6598e6a5d84f07970b831e70,6598e79377b71480cf78df61,0.0746,0.0748,0,60,60,52,1,threeone,,,,,,,,,,,,,,,,,,,,,,,,,,,,,,,,,,,,,,,,,,,,,,,,,,,,,,,,,,,,,,,,,,,,,,,,,,,,,,,,,,,,,,,,,,,,,,,,,,,,,,,,,,,,,,,,,,,,,,,,,,,,,,,,,,,,,,,
,,64ac362b0979becb1044e190,2024-01-06_24h39.52.870,kallum_motion_pilot,2023.2.3,MacIntel,59.97361161,64ac362b0979becb1044e190,6598e6a5d84f07970b831e70,6598e79377b71480cf78df61,0.075,0.0751,0,61,61,89,1,fiveseven,,,,,,,,,,,,,,,,,,,,,,,,,,,,,,,,,,,,,,,,,,,,,,,,,,,,,,,,,,,,,,,,,,,,,,,,,,,,,,,,,,,,,,,,,,,,,,,,,,,,,,,,,,,,,,,,,,,,,,,,,,,,,,,,,,,,,,,
,,64ac362b0979becb1044e190,2024-01-06_24h39.52.870,kallum_motion_pilot,2023.2.3,MacIntel,59.97361161,64ac362b0979becb1044e190,6598e6a5d84f07970b831e70,6598e79377b71480cf78df61,0.0753,0.0754,0,62,62,39,1,fourthree,,,,,,,,,,,,,,,,,,,,,,,,,,,,,,,,,,,,,,,,,,,,,,,,,,,,,,,,,,,,,,,,,,,,,,,,,,,,,,,,,,,,,,,,,,,,,,,,,,,,,,,,,,,,,,,,,,,,,,,,,,,,,,,,,,,,,,,
,,64ac362b0979becb1044e190,2024-01-06_24h39.52.870,kallum_motion_pilot,2023.2.3,MacIntel,59.97361161,64ac362b0979becb1044e190,6598e6a5d84f07970b831e70,6598e79377b71480cf78df61,0.0756,0.0757,0,63,63,20,1,threeone,,,,,,,,,,,,,,,,,,,,,,,,,,,,,,,,,,,,,,,,,,,,,,,,,,,,,,,,,,,,,,,,,,,,,,,,,,,,,,,,,,,,,,,,,,,,,,,,,,,,,,,,,,,,,,,,,,,,,,,,,,,,,,,,,,,,,,,
,,64ac362b0979becb1044e190,2024-01-06_24h39.52.870,kallum_motion_pilot,2023.2.3,MacIntel,59.97361161,64ac362b0979becb1044e190,6598e6a5d84f07970b831e70,6598e79377b71480cf78df61,0.0759,0.076,0,64,64,128,1,fivesix,,,,,,,,,,,,,,,,,,,,,,,,,,,,,,,,,,,,,,,,,,,,,,,,,,,,,,,,,,,,,,,,,,,,,,,,,,,,,,,,,,,,,,,,,,,,,,,,,,,,,,,,,,,,,,,,,,,,,,,,,,,,,,,,,,,,,,,
,,64ac362b0979becb1044e190,2024-01-06_24h39.52.870,kallum_motion_pilot,2023.2.3,MacIntel,59.97361161,64ac362b0979becb1044e190,6598e6a5d84f07970b831e70,6598e79377b71480cf78df61,0.0762,0.0763,0,65,65,44,1,threeone,,,,,,,,,,,,,,,,,,,,,,,,,,,,,,,,,,,,,,,,,,,,,,,,,,,,,,,,,,,,,,,,,,,,,,,,,,,,,,,,,,,,,,,,,,,,,,,,,,,,,,,,,,,,,,,,,,,,,,,,,,,,,,,,,,,,,,,
,,64ac362b0979becb1044e190,2024-01-06_24h39.52.870,kallum_motion_pilot,2023.2.3,MacIntel,59.97361161,64ac362b0979becb1044e190,6598e6a5d84f07970b831e70,6598e79377b71480cf78df61,0.0765,0.0766,0,66,66,63,1,fourthree,,,,,,,,,,,,,,,,,,,,,,,,,,,,,,,,,,,,,,,,,,,,,,,,,,,,,,,,,,,,,,,,,,,,,,,,,,,,,,,,,,,,,,,,,,,,,,,,,,,,,,,,,,,,,,,,,,,,,,,,,,,,,,,,,,,,,,,
,,64ac362b0979becb1044e190,2024-01-06_24h39.52.870,kallum_motion_pilot,2023.2.3,MacIntel,59.97361161,64ac362b0979becb1044e190,6598e6a5d84f07970b831e70,6598e79377b71480cf78df61,0.0769,0.077,0,67,67,3,1,twofour,,,,,,,,,,,,,,,,,,,,,,,,,,,,,,,,,,,,,,,,,,,,,,,,,,,,,,,,,,,,,,,,,,,,,,,,,,,,,,,,,,,,,,,,,,,,,,,,,,,,,,,,,,,,,,,,,,,,,,,,,,,,,,,,,,,,,,,
,,64ac362b0979becb1044e190,2024-01-06_24h39.52.870,kallum_motion_pilot,2023.2.3,MacIntel,59.97361161,64ac362b0979becb1044e190,6598e6a5d84f07970b831e70,6598e79377b71480cf78df61,0.0772,0.0773,0,68,68,30,1,fourtwo,,,,,,,,,,,,,,,,,,,,,,,,,,,,,,,,,,,,,,,,,,,,,,,,,,,,,,,,,,,,,,,,,,,,,,,,,,,,,,,,,,,,,,,,,,,,,,,,,,,,,,,,,,,,,,,,,,,,,,,,,,,,,,,,,,,,,,,
,,64ac362b0979becb1044e190,2024-01-06_24h39.52.870,kallum_motion_pilot,2023.2.3,MacIntel,59.97361161,64ac362b0979becb1044e190,6598e6a5d84f07970b831e70,6598e79377b71480cf78df61,0.0776,0.0777,0,69,69,1,1,onethree,,,,,,,,,,,,,,,,,,,,,,,,,,,,,,,,,,,,,,,,,,,,,,,,,,,,,,,,,,,,,,,,,,,,,,,,,,,,,,,,,,,,,,,,,,,,,,,,,,,,,,,,,,,,,,,,,,,,,,,,,,,,,,,,,,,,,,,
,,64ac362b0979becb1044e190,2024-01-06_24h39.52.870,kallum_motion_pilot,2023.2.3,MacIntel,59.97361161,64ac362b0979becb1044e190,6598e6a5d84f07970b831e70,6598e79377b71480cf78df61,0.078,0.0781,0,70,70,160,1,fivesix,,,,,,,,,,,,,,,,,,,,,,,,,,,,,,,,,,,,,,,,,,,,,,,,,,,,,,,,,,,,,,,,,,,,,,,,,,,,,,,,,,,,,,,,,,,,,,,,,,,,,,,,,,,,,,,,,,,,,,,,,,,,,,,,,,,,,,,
,,64ac362b0979becb1044e190,2024-01-06_24h39.52.870,kallum_motion_pilot,2023.2.3,MacIntel,59.97361161,64ac362b0979becb1044e190,6598e6a5d84f07970b831e70,6598e79377b71480cf78df61,0.0788,0.0791,0,71,71,92,1,sevenfive,,,,,,,,,,,,,,,,,,,,,,,,,,,,,,,,,,,,,,,,,,,,,,,,,,,,,,,,,,,,,,,,,,,,,,,,,,,,,,,,,,,,,,,,,,,,,,,,,,,,,,,,,,,,,,,,,,,,,,,,,,,,,,,,,,,,,,,
,,64ac362b0979becb1044e190,2024-01-06_24h39.52.870,kallum_motion_pilot,2023.2.3,MacIntel,59.97361161,64ac362b0979becb1044e190,6598e6a5d84f07970b831e70,6598e79377b71480cf78df61,0.0796,0.0801,0,72,72,12,1,threeone,,,,,,,,,,,,,,,,,,,,,,,,,,,,,,,,,,,,,,,,,,,,,,,,,,,,,,,,,,,,,,,,,,,,,,,,,,,,,,,,,,,,,,,,,,,,,,,,,,,,,,,,,,,,,,,,,,,,,,,,,,,,,,,,,,,,,,,
,,64ac362b0979becb1044e190,2024-01-06_24h39.52.870,kallum_motion_pilot,2023.2.3,MacIntel,59.97361161,64ac362b0979becb1044e190,6598e6a5d84f07970b831e70,6598e79377b71480cf78df61,0.0806,0.0807,0,73,73,139,1,sixeight,,,,,,,,,,,,,,,,,,,,,,,,,,,,,,,,,,,,,,,,,,,,,,,,,,,,,,,,,,,,,,,,,,,,,,,,,,,,,,,,,,,,,,,,,,,,,,,,,,,,,,,,,,,,,,,,,,,,,,,,,,,,,,,,,,,,,,,
,,64ac362b0979becb1044e190,2024-01-06_24h39.52.870,kallum_motion_pilot,2023.2.3,MacIntel,59.97361161,64ac362b0979becb1044e190,6598e6a5d84f07970b831e70,6598e79377b71480cf78df61,0.081,0.081,0,74,74,53,1,threefour,,,,,,,,,,,,,,,,,,,,,,,,,,,,,,,,,,,,,,,,,,,,,,,,,,,,,,,,,,,,,,,,,,,,,,,,,,,,,,,,,,,,,,,,,,,,,,,,,,,,,,,,,,,,,,,,,,,,,,,,,,,,,,,,,,,,,,,
,,64ac362b0979becb1044e190,2024-01-06_24h39.52.870,kallum_motion_pilot,2023.2.3,MacIntel,59.97361161,64ac362b0979becb1044e190,6598e6a5d84f07970b831e70,6598e79377b71480cf78df61,0.0813,0.0814,0,75,75,28,1,threeone,,,,,,,,,,,,,,,,,,,,,,,,,,,,,,,,,,,,,,,,,,,,,,,,,,,,,,,,,,,,,,,,,,,,,,,,,,,,,,,,,,,,,,,,,,,,,,,,,,,,,,,,,,,,,,,,,,,,,,,,,,,,,,,,,,,,,,,
,,64ac362b0979becb1044e190,2024-01-06_24h39.52.870,kallum_motion_pilot,2023.2.3,MacIntel,59.97361161,64ac362b0979becb1044e190,6598e6a5d84f07970b831e70,6598e79377b71480cf78df61,0.0818,0.0819,0,76,76,62,1,fourtwo,,,,,,,,,,,,,,,,,,,,,,,,,,,,,,,,,,,,,,,,,,,,,,,,,,,,,,,,,,,,,,,,,,,,,,,,,,,,,,,,,,,,,,,,,,,,,,,,,,,,,,,,,,,,,,,,,,,,,,,,,,,,,,,,,,,,,,,
,,64ac362b0979becb1044e190,2024-01-06_24h39.52.870,kallum_motion_pilot,2023.2.3,MacIntel,59.97361161,64ac362b0979becb1044e190,6598e6a5d84f07970b831e70,6598e79377b71480cf78df61,0.0821,0.0822,0,77,77,144,1,fivesix,,,,,,,,,,,,,,,,,,,,,,,,,,,,,,,,,,,,,,,,,,,,,,,,,,,,,,,,,,,,,,,,,,,,,,,,,,,,,,,,,,,,,,,,,,,,,,,,,,,,,,,,,,,,,,,,,,,,,,,,,,,,,,,,,,,,,,,
,,64ac362b0979becb1044e190,2024-01-06_24h39.52.870,kallum_motion_pilot,2023.2.3,MacIntel,59.97361161,64ac362b0979becb1044e190,6598e6a5d84f07970b831e70,6598e79377b71480cf78df61,0.0824,0.0825,0,78,78,142,1,eightsix,,,,,,,,,,,,,,,,,,,,,,,,,,,,,,,,,,,,,,,,,,,,,,,,,,,,,,,,,,,,,,,,,,,,,,,,,,,,,,,,,,,,,,,,,,,,,,,,,,,,,,,,,,,,,,,,,,,,,,,,,,,,,,,,,,,,,,,
,,64ac362b0979becb1044e190,2024-01-06_24h39.52.870,kallum_motion_pilot,2023.2.3,MacIntel,59.97361161,64ac362b0979becb1044e190,6598e6a5d84f07970b831e70,6598e79377b71480cf78df61,0.0827,0.0829,0,79,79,90,1,sixfive,,,,,,,,,,,,,,,,,,,,,,,,,,,,,,,,,,,,,,,,,,,,,,,,,,,,,,,,,,,,,,,,,,,,,,,,,,,,,,,,,,,,,,,,,,,,,,,,,,,,,,,,,,,,,,,,,,,,,,,,,,,,,,,,,,,,,,,
,,64ac362b0979becb1044e190,2024-01-06_24h39.52.870,kallum_motion_pilot,2023.2.3,MacIntel,59.97361161,64ac362b0979becb1044e190,6598e6a5d84f07970b831e70,6598e79377b71480cf78df61,0.0831,0.0831,0,80,80,88,1,fivesix,,,,,,,,,,,,,,,,,,,,,,,,,,,,,,,,,,,,,,,,,,,,,,,,,,,,,,,,,,,,,,,,,,,,,,,,,,,,,,,,,,,,,,,,,,,,,,,,,,,,,,,,,,,,,,,,,,,,,,,,,,,,,,,,,,,,,,,
,,64ac362b0979becb1044e190,2024-01-06_24h39.52.870,kallum_motion_pilot,2023.2.3,MacIntel,59.97361161,64ac362b0979becb1044e190,6598e6a5d84f07970b831e70,6598e79377b71480cf78df61,0.0834,0.0834,0,81,81,138,1,sixfive,,,,,,,,,,,,,,,,,,,,,,,,,,,,,,,,,,,,,,,,,,,,,,,,,,,,,,,,,,,,,,,,,,,,,,,,,,,,,,,,,,,,,,,,,,,,,,,,,,,,,,,,,,,,,,,,,,,,,,,,,,,,,,,,,,,,,,,
,,64ac362b0979becb1044e190,2024-01-06_24h39.52.870,kallum_motion_pilot,2023.2.3,MacIntel,59.97361161,64ac362b0979becb1044e190,6598e6a5d84f07970b831e70,6598e79377b71480cf78df61,0.0838,0.0838,0,82,82,110,1,eightsix,,,,,,,,,,,,,,,,,,,,,,,,,,,,,,,,,,,,,,,,,,,,,,,,,,,,,,,,,,,,,,,,,,,,,,,,,,,,,,,,,,,,,,,,,,,,,,,,,,,,,,,,,,,,,,,,,,,,,,,,,,,,,,,,,,,,,,,
,,64ac362b0979becb1044e190,2024-01-06_24h39.52.870,kallum_motion_pilot,2023.2.3,MacIntel,59.97361161,64ac362b0979becb1044e190,6598e6a5d84f07970b831e70,6598e79377b71480cf78df61,0.0841,0.0841,0,83,83,42,1,twoone,,,,,,,,,,,,,,,,,,,,,,,,,,,,,,,,,,,,,,,,,,,,,,,,,,,,,,,,,,,,,,,,,,,,,,,,,,,,,,,,,,,,,,,,,,,,,,,,,,,,,,,,,,,,,,,,,,,,,,,,,,,,,,,,,,,,,,,
,,64ac362b0979becb1044e190,2024-01-06_24h39.52.870,kallum_motion_pilot,2023.2.3,MacIntel,59.97361161,64ac362b0979becb1044e190,6598e6a5d84f07970b831e70,6598e79377b71480cf78df61,0.0843,0.0844,0,84,84,14,1,fourtwo,,,,,,,,,,,,,,,,,,,,,,,,,,,,,,,,,,,,,,,,,,,,,,,,,,,,,,,,,,,,,,,,,,,,,,,,,,,,,,,,,,,,,,,,,,,,,,,,,,,,,,,,,,,,,,,,,,,,,,,,,,,,,,,,,,,,,,,
,,64ac362b0979becb1044e190,2024-01-06_24h39.52.870,kallum_motion_pilot,2023.2.3,MacIntel,59.97361161,64ac362b0979becb1044e190,6598e6a5d84f07970b831e70,6598e79377b71480cf78df61,0.0846,0.0847,0,85,85,133,1,seveneight,,,,,,,,,,,,,,,,,,,,,,,,,,,,,,,,,,,,,,,,,,,,,,,,,,,,,,,,,,,,,,,,,,,,,,,,,,,,,,,,,,,,,,,,,,,,,,,,,,,,,,,,,,,,,,,,,,,,,,,,,,,,,,,,,,,,,,,
,,64ac362b0979becb1044e190,2024-01-06_24h39.52.870,kallum_motion_pilot,2023.2.3,MacIntel,59.97361161,64ac362b0979becb1044e190,6598e6a5d84f07970b831e70,6598e79377b71480cf78df61,0.085,0.085,0,86,86,109,1,seveneight,,,,,,,,,,,,,,,,,,,,,,,,,,,,,,,,,,,,,,,,,,,,,,,,,,,,,,,,,,,,,,,,,,,,,,,,,,,,,,,,,,,,,,,,,,,,,,,,,,,,,,,,,,,,,,,,,,,,,,,,,,,,,,,,,,,,,,,
,,64ac362b0979becb1044e190,2024-01-06_24h39.52.870,kallum_motion_pilot,2023.2.3,MacIntel,59.97361161,64ac362b0979becb1044e190,6598e6a5d84f07970b831e70,6598e79377b71480cf78df61,0.0853,0.0855,0,87,87,161,1,fiveseven,,,,,,,,,,,,,,,,,,,,,,,,,,,,,,,,,,,,,,,,,,,,,,,,,,,,,,,,,,,,,,,,,,,,,,,,,,,,,,,,,,,,,,,,,,,,,,,,,,,,,,,,,,,,,,,,,,,,,,,,,,,,,,,,,,,,,,,
,,64ac362b0979becb1044e190,2024-01-06_24h39.52.870,kallum_motion_pilot,2023.2.3,MacIntel,59.97361161,64ac362b0979becb1044e190,6598e6a5d84f07970b831e70,6598e79377b71480cf78df61,0.0857,0.0859,0,88,88,148,1,sevenfive,,,,,,,,,,,,,,,,,,,,,,,,,,,,,,,,,,,,,,,,,,,,,,,,,,,,,,,,,,,,,,,,,,,,,,,,,,,,,,,,,,,,,,,,,,,,,,,,,,,,,,,,,,,,,,,,,,,,,,,,,,,,,,,,,,,,,,,
,,64ac362b0979becb1044e190,2024-01-06_24h39.52.870,kallum_motion_pilot,2023.2.3,MacIntel,59.97361161,64ac362b0979becb1044e190,6598e6a5d84f07970b831e70,6598e79377b71480cf78df61,0.0862,0.0863,0,89,89,43,1,twofour,,,,,,,,,,,,,,,,,,,,,,,,,,,,,,,,,,,,,,,,,,,,,,,,,,,,,,,,,,,,,,,,,,,,,,,,,,,,,,,,,,,,,,,,,,,,,,,,,,,,,,,,,,,,,,,,,,,,,,,,,,,,,,,,,,,,,,,
,,64ac362b0979becb1044e190,2024-01-06_24h39.52.870,kallum_motion_pilot,2023.2.3,MacIntel,59.97361161,64ac362b0979becb1044e190,6598e6a5d84f07970b831e70,6598e79377b71480cf78df61,0.0865,0.0867,0,90,90,156,1,sevenfive,,,,,,,,,,,,,,,,,,,,,,,,,,,,,,,,,,,,,,,,,,,,,,,,,,,,,,,,,,,,,,,,,,,,,,,,,,,,,,,,,,,,,,,,,,,,,,,,,,,,,,,,,,,,,,,,,,,,,,,,,,,,,,,,,,,,,,,
,,64ac362b0979becb1044e190,2024-01-06_24h39.52.870,kallum_motion_pilot,2023.2.3,MacIntel,59.97361161,64ac362b0979becb1044e190,6598e6a5d84f07970b831e70,6598e79377b71480cf78df61,0.0869,0.087,0,91,91,38,1,fourtwo,,,,,,,,,,,,,,,,,,,,,,,,,,,,,,,,,,,,,,,,,,,,,,,,,,,,,,,,,,,,,,,,,,,,,,,,,,,,,,,,,,,,,,,,,,,,,,,,,,,,,,,,,,,,,,,,,,,,,,,,,,,,,,,,,,,,,,,
,,64ac362b0979becb1044e190,2024-01-06_24h39.52.870,kallum_motion_pilot,2023.2.3,MacIntel,59.97361161,64ac362b0979becb1044e190,6598e6a5d84f07970b831e70,6598e79377b71480cf78df61,0.0873,0.0874,0,92,92,31,1,fourthree,,,,,,,,,,,,,,,,,,,,,,,,,,,,,,,,,,,,,,,,,,,,,,,,,,,,,,,,,,,,,,,,,,,,,,,,,,,,,,,,,,,,,,,,,,,,,,,,,,,,,,,,,,,,,,,,,,,,,,,,,,,,,,,,,,,,,,,
,,64ac362b0979becb1044e190,2024-01-06_24h39.52.870,kallum_motion_pilot,2023.2.3,MacIntel,59.97361161,64ac362b0979becb1044e190,6598e6a5d84f07970b831e70,6598e79377b71480cf78df61,0.0877,0.0878,0,93,93,111,1,eightseven,,,,,,,,,,,,,,,,,,,,,,,,,,,,,,,,,,,,,,,,,,,,,,,,,,,,,,,,,,,,,,,,,,,,,,,,,,,,,,,,,,,,,,,,,,,,,,,,,,,,,,,,,,,,,,,,,,,,,,,,,,,,,,,,,,,,,,,
,,64ac362b0979becb1044e190,2024-01-06_24h39.52.870,kallum_motion_pilot,2023.2.3,MacIntel,59.97361161,64ac362b0979becb1044e190,6598e6a5d84f07970b831e70,6598e79377b71480cf78df61,0.0881,0.0882,0,94,94,101,1,seveneight,,,,,,,,,,,,,,,,,,,,,,,,,,,,,,,,,,,,,,,,,,,,,,,,,,,,,,,,,,,,,,,,,,,,,,,,,,,,,,,,,,,,,,,,,,,,,,,,,,,,,,,,,,,,,,,,,,,,,,,,,,,,,,,,,,,,,,,
,,64ac362b0979becb1044e190,2024-01-06_24h39.52.870,kallum_motion_pilot,2023.2.3,MacIntel,59.97361161,64ac362b0979becb1044e190,6598e6a5d84f07970b831e70,6598e79377b71480cf78df61,0.0884,0.0885,0,95,95,136,1,fivesix,,,,,,,,,,,,,,,,,,,,,,,,,,,,,,,,,,,,,,,,,,,,,,,,,,,,,,,,,,,,,,,,,,,,,,,,,,,,,,,,,,,,,,,,,,,,,,,,,,,,,,,,,,,,,,,,,,,,,,,,,,,,,,,,,,,,,,,
,,64ac362b0979becb1044e190,2024-01-06_24h39.52.870,kallum_motion_pilot,2023.2.3,MacIntel,59.97361161,64ac362b0979becb1044e190,6598e6a5d84f07970b831e70,6598e79377b71480cf78df61,0.0887,0.0888,0,96,96,19,1,twofour,,,,,,,,,,,,,,,,,,,,,,,,,,,,,,,,,,,,,,,,,,,,,,,,,,,,,,,,,,,,,,,,,,,,,,,,,,,,,,,,,,,,,,,,,,,,,,,,,,,,,,,,,,,,,,,,,,,,,,,,,,,,,,,,,,,,,,,
,,64ac362b0979becb1044e190,2024-01-06_24h39.52.870,kallum_motion_pilot,2023.2.3,MacIntel,59.97361161,64ac362b0979becb1044e190,6598e6a5d84f07970b831e70,6598e79377b71480cf78df61,0.0892,0.0893,0,97,97,79,1,eightseven,,,,,,,,,,,,,,,,,,,,,,,,,,,,,,,,,,,,,,,,,,,,,,,,,,,,,,,,,,,,,,,,,,,,,,,,,,,,,,,,,,,,,,,,,,,,,,,,,,,,,,,,,,,,,,,,,,,,,,,,,,,,,,,,,,,,,,,
,,64ac362b0979becb1044e190,2024-01-06_24h39.52.870,kallum_motion_pilot,2023.2.3,MacIntel,59.97361161,64ac362b0979becb1044e190,6598e6a5d84f07970b831e70,6598e79377b71480cf78df61,0.0896,0.0896,0,98,98,140,1,sevenfive,,,,,,,,,,,,,,,,,,,,,,,,,,,,,,,,,,,,,,,,,,,,,,,,,,,,,,,,,,,,,,,,,,,,,,,,,,,,,,,,,,,,,,,,,,,,,,,,,,,,,,,,,,,,,,,,,,,,,,,,,,,,,,,,,,,,,,,
,,64ac362b0979becb1044e190,2024-01-06_24h39.52.870,kallum_motion_pilot,2023.2.3,MacIntel,59.97361161,64ac362b0979becb1044e190,6598e6a5d84f07970b831e70,6598e79377b71480cf78df61,0.0898,0.09,0,99,99,75,1,twofour,,,,,,,,,,,,,,,,,,,,,,,,,,,,,,,,,,,,,,,,,,,,,,,,,,,,,,,,,,,,,,,,,,,,,,,,,,,,,,,,,,,,,,,,,,,,,,,,,,,,,,,,,,,,,,,,,,,,,,,,,,,,,,,,,,,,,,,
,,64ac362b0979becb1044e190,2024-01-06_24h39.52.870,kallum_motion_pilot,2023.2.3,MacIntel,59.97361161,64ac362b0979becb1044e190,6598e6a5d84f07970b831e70,6598e79377b71480cf78df61,0.0902,0.0903,0,100,100,36,1,threeone,,,,,,,,,,,,,,,,,,,,,,,,,,,,,,,,,,,,,,,,,,,,,,,,,,,,,,,,,,,,,,,,,,,,,,,,,,,,,,,,,,,,,,,,,,,,,,,,,,,,,,,,,,,,,,,,,,,,,,,,,,,,,,,,,,,,,,,
,,64ac362b0979becb1044e190,2024-01-06_24h39.52.870,kallum_motion_pilot,2023.2.3,MacIntel,59.97361161,64ac362b0979becb1044e190,6598e6a5d84f07970b831e70,6598e79377b71480cf78df61,0.0905,0.0906,0,101,101,21,1,threefour,,,,,,,,,,,,,,,,,,,,,,,,,,,,,,,,,,,,,,,,,,,,,,,,,,,,,,,,,,,,,,,,,,,,,,,,,,,,,,,,,,,,,,,,,,,,,,,,,,,,,,,,,,,,,,,,,,,,,,,,,,,,,,,,,,,,,,,
,,64ac362b0979becb1044e190,2024-01-06_24h39.52.870,kallum_motion_pilot,2023.2.3,MacIntel,59.97361161,64ac362b0979becb1044e190,6598e6a5d84f07970b831e70,6598e79377b71480cf78df61,0.0908,0.091,0,102,102,34,1,twoone,,,,,,,,,,,,,,,,,,,,,,,,,,,,,,,,,,,,,,,,,,,,,,,,,,,,,,,,,,,,,,,,,,,,,,,,,,,,,,,,,,,,,,,,,,,,,,,,,,,,,,,,,,,,,,,,,,,,,,,,,,,,,,,,,,,,,,,
,,64ac362b0979becb1044e190,2024-01-06_24h39.52.870,kallum_motion_pilot,2023.2.3,MacIntel,59.97361161,64ac362b0979becb1044e190,6598e6a5d84f07970b831e70,6598e79377b71480cf78df61,0.0913,0.0914,0,103,103,41,1,onethree,,,,,,,,,,,,,,,,,,,,,,,,,,,,,,,,,,,,,,,,,,,,,,,,,,,,,,,,,,,,,,,,,,,,,,,,,,,,,,,,,,,,,,,,,,,,,,,,,,,,,,,,,,,,,,,,,,,,,,,,,,,,,,,,,,,,,,,
,,64ac362b0979becb1044e190,2024-01-06_24h39.52.870,kallum_motion_pilot,2023.2.3,MacIntel,59.97361161,64ac362b0979becb1044e190,6598e6a5d84f07970b831e70,6598e79377b71480cf78df61,0.0917,0.0918,0,104,104,24,1,onetwo,,,,,,,,,,,,,,,,,,,,,,,,,,,,,,,,,,,,,,,,,,,,,,,,,,,,,,,,,,,,,,,,,,,,,,,,,,,,,,,,,,,,,,,,,,,,,,,,,,,,,,,,,,,,,,,,,,,,,,,,,,,,,,,,,,,,,,,
,,64ac362b0979becb1044e190,2024-01-06_24h39.52.870,kallum_motion_pilot,2023.2.3,MacIntel,59.97361161,64ac362b0979becb1044e190,6598e6a5d84f07970b831e70,6598e79377b71480cf78df61,0.092,0.0921,0,105,105,129,1,fiveseven,,,,,,,,,,,,,,,,,,,,,,,,,,,,,,,,,,,,,,,,,,,,,,,,,,,,,,,,,,,,,,,,,,,,,,,,,,,,,,,,,,,,,,,,,,,,,,,,,,,,,,,,,,,,,,,,,,,,,,,,,,,,,,,,,,,,,,,
,,64ac362b0979becb1044e190,2024-01-06_24h39.52.870,kallum_motion_pilot,2023.2.3,MacIntel,59.97361161,64ac362b0979becb1044e190,6598e6a5d84f07970b831e70,6598e79377b71480cf78df61,0.0923,0.0924,0,106,106,69,1,threefour,,,,,,,,,,,,,,,,,,,,,,,,,,,,,,,,,,,,,,,,,,,,,,,,,,,,,,,,,,,,,,,,,,,,,,,,,,,,,,,,,,,,,,,,,,,,,,,,,,,,,,,,,,,,,,,,,,,,,,,,,,,,,,,,,,,,,,,
,,64ac362b0979becb1044e190,2024-01-06_24h39.52.870,kallum_motion_pilot,2023.2.3,MacIntel,59.97361161,64ac362b0979becb1044e190,6598e6a5d84f07970b831e70,6598e79377b71480cf78df61,0.0927,0.0927,0,107,107,13,1,threefour,,,,,,,,,,,,,,,,,,,,,,,,,,,,,,,,,,,,,,,,,,,,,,,,,,,,,,,,,,,,,,,,,,,,,,,,,,,,,,,,,,,,,,,,,,,,,,,,,,,,,,,,,,,,,,,,,,,,,,,,,,,,,,,,,,,,,,,
,,64ac362b0979becb1044e190,2024-01-06_24h39.52.870,kallum_motion_pilot,2023.2.3,MacIntel,59.97361161,64ac362b0979becb1044e190,6598e6a5d84f07970b831e70,6598e79377b71480cf78df61,0.0931,0.0931,0,108,108,40,1,onetwo,,,,,,,,,,,,,,,,,,,,,,,,,,,,,,,,,,,,,,,,,,,,,,,,,,,,,,,,,,,,,,,,,,,,,,,,,,,,,,,,,,,,,,,,,,,,,,,,,,,,,,,,,,,,,,,,,,,,,,,,,,,,,,,,,,,,,,,
,,64ac362b0979becb1044e190,2024-01-06_24h39.52.870,kallum_motion_pilot,2023.2.3,MacIntel,59.97361161,64ac362b0979becb1044e190,6598e6a5d84f07970b831e70,6598e79377b71480cf78df61,0.0934,0.0936,0,109,109,103,1,eightseven,,,,,,,,,,,,,,,,,,,,,,,,,,,,,,,,,,,,,,,,,,,,,,,,,,,,,,,,,,,,,,,,,,,,,,,,,,,,,,,,,,,,,,,,,,,,,,,,,,,,,,,,,,,,,,,,,,,,,,,,,,,,,,,,,,,,,,,
,,64ac362b0979becb1044e190,2024-01-06_24h39.52.870,kallum_motion_pilot,2023.2.3,MacIntel,59.97361161,64ac362b0979becb1044e190,6598e6a5d84f07970b831e70,6598e79377b71480cf78df61,0.0938,0.0938,0,110,110,115,1,sixeight,,,,,,,,,,,,,,,,,,,,,,,,,,,,,,,,,,,,,,,,,,,,,,,,,,,,,,,,,,,,,,,,,,,,,,,,,,,,,,,,,,,,,,,,,,,,,,,,,,,,,,,,,,,,,,,,,,,,,,,,,,,,,,,,,,,,,,,
,,64ac362b0979becb1044e190,2024-01-06_24h39.52.870,kallum_motion_pilot,2023.2.3,MacIntel,59.97361161,64ac362b0979becb1044e190,6598e6a5d84f07970b831e70,6598e79377b71480cf78df61,0.0941,0.0942,0,111,111,121,1,fiveseven,,,,,,,,,,,,,,,,,,,,,,,,,,,,,,,,,,,,,,,,,,,,,,,,,,,,,,,,,,,,,,,,,,,,,,,,,,,,,,,,,,,,,,,,,,,,,,,,,,,,,,,,,,,,,,,,,,,,,,,,,,,,,,,,,,,,,,,
,,64ac362b0979becb1044e190,2024-01-06_24h39.52.870,kallum_motion_pilot,2023.2.3,MacIntel,59.97361161,64ac362b0979becb1044e190,6598e6a5d84f07970b831e70,6598e79377b71480cf78df61,0.0945,0.0947,0,112,112,8,1,onetwo,,,,,,,,,,,,,,,,,,,,,,,,,,,,,,,,,,,,,,,,,,,,,,,,,,,,,,,,,,,,,,,,,,,,,,,,,,,,,,,,,,,,,,,,,,,,,,,,,,,,,,,,,,,,,,,,,,,,,,,,,,,,,,,,,,,,,,,
,,64ac362b0979becb1044e190,2024-01-06_24h39.52.870,kallum_motion_pilot,2023.2.3,MacIntel,59.97361161,64ac362b0979becb1044e190,6598e6a5d84f07970b831e70,6598e79377b71480cf78df61,0.0949,0.0952,0,113,113,149,1,seveneight,,,,,,,,,,,,,,,,,,,,,,,,,,,,,,,,,,,,,,,,,,,,,,,,,,,,,,,,,,,,,,,,,,,,,,,,,,,,,,,,,,,,,,,,,,,,,,,,,,,,,,,,,,,,,,,,,,,,,,,,,,,,,,,,,,,,,,,
,,64ac362b0979becb1044e190,2024-01-06_24h39.52.870,kallum_motion_pilot,2023.2.3,MacIntel,59.97361161,64ac362b0979becb1044e190,6598e6a5d84f07970b831e70,6598e79377b71480cf78df61,0.0957,0.096,0,114,114,81,1,fiveseven,,,,,,,,,,,,,,,,,,,,,,,,,,,,,,,,,,,,,,,,,,,,,,,,,,,,,,,,,,,,,,,,,,,,,,,,,,,,,,,,,,,,,,,,,,,,,,,,,,,,,,,,,,,,,,,,,,,,,,,,,,,,,,,,,,,,,,,
,,64ac362b0979becb1044e190,2024-01-06_24h39.52.870,kallum_motion_pilot,2023.2.3,MacIntel,59.97361161,64ac362b0979becb1044e190,6598e6a5d84f07970b831e70,6598e79377b71480cf78df61,0.0966,0.0967,0,115,115,94,1,eightsix,,,,,,,,,,,,,,,,,,,,,,,,,,,,,,,,,,,,,,,,,,,,,,,,,,,,,,,,,,,,,,,,,,,,,,,,,,,,,,,,,,,,,,,,,,,,,,,,,,,,,,,,,,,,,,,,,,,,,,,,,,,,,,,,,,,,,,,
,,64ac362b0979becb1044e190,2024-01-06_24h39.52.870,kallum_motion_pilot,2023.2.3,MacIntel,59.97361161,64ac362b0979becb1044e190,6598e6a5d84f07970b831e70,6598e79377b71480cf78df61,0.0974,0.0976,0,116,116,141,1,seveneight,,,,,,,,,,,,,,,,,,,,,,,,,,,,,,,,,,,,,,,,,,,,,,,,,,,,,,,,,,,,,,,,,,,,,,,,,,,,,,,,,,,,,,,,,,,,,,,,,,,,,,,,,,,,,,,,,,,,,,,,,,,,,,,,,,,,,,,
,,64ac362b0979becb1044e190,2024-01-06_24h39.52.870,kallum_motion_pilot,2023.2.3,MacIntel,59.97361161,64ac362b0979becb1044e190,6598e6a5d84f07970b831e70,6598e79377b71480cf78df61,0.0993,0.0994,0,117,117,11,1,twofour,,,,,,,,,,,,,,,,,,,,,,,,,,,,,,,,,,,,,,,,,,,,,,,,,,,,,,,,,,,,,,,,,,,,,,,,,,,,,,,,,,,,,,,,,,,,,,,,,,,,,,,,,,,,,,,,,,,,,,,,,,,,,,,,,,,,,,,
,,64ac362b0979becb1044e190,2024-01-06_24h39.52.870,kallum_motion_pilot,2023.2.3,MacIntel,59.97361161,64ac362b0979becb1044e190,6598e6a5d84f07970b831e70,6598e79377b71480cf78df61,0.0997,0.0999,0,118,118,37,1,threefour,,,,,,,,,,,,,,,,,,,,,,,,,,,,,,,,,,,,,,,,,,,,,,,,,,,,,,,,,,,,,,,,,,,,,,,,,,,,,,,,,,,,,,,,,,,,,,,,,,,,,,,,,,,,,,,,,,,,,,,,,,,,,,,,,,,,,,,
,,64ac362b0979becb1044e190,2024-01-06_24h39.52.870,kallum_motion_pilot,2023.2.3,MacIntel,59.97361161,64ac362b0979becb1044e190,6598e6a5d84f07970b831e70,6598e79377b71480cf78df61,0.1001,0.1002,0,119,119,59,1,twofour,,,,,,,,,,,,,,,,,,,,,,,,,,,,,,,,,,,,,,,,,,,,,,,,,,,,,,,,,,,,,,,,,,,,,,,,,,,,,,,,,,,,,,,,,,,,,,,,,,,,,,,,,,,,,,,,,,,,,,,,,,,,,,,,,,,,,,,
,,64ac362b0979becb1044e190,2024-01-06_24h39.52.870,kallum_motion_pilot,2023.2.3,MacIntel,59.97361161,64ac362b0979becb1044e190,6598e6a5d84f07970b831e70,6598e79377b71480cf78df61,0.1004,0.1005,0,120,120,50,1,twoone,,,,,,,,,,,,,,,,,,,,,,,,,,,,,,,,,,,,,,,,,,,,,,,,,,,,,,,,,,,,,,,,,,,,,,,,,,,,,,,,,,,,,,,,,,,,,,,,,,,,,,,,,,,,,,,,,,,,,,,,,,,,,,,,,,,,,,,
,,64ac362b0979becb1044e190,2024-01-06_24h39.52.870,kallum_motion_pilot,2023.2.3,MacIntel,59.97361161,64ac362b0979becb1044e190,6598e6a5d84f07970b831e70,6598e79377b71480cf78df61,0.1007,0.1008,0,121,121,153,1,fiveseven,,,,,,,,,,,,,,,,,,,,,,,,,,,,,,,,,,,,,,,,,,,,,,,,,,,,,,,,,,,,,,,,,,,,,,,,,,,,,,,,,,,,,,,,,,,,,,,,,,,,,,,,,,,,,,,,,,,,,,,,,,,,,,,,,,,,,,,
,,64ac362b0979becb1044e190,2024-01-06_24h39.52.870,kallum_motion_pilot,2023.2.3,MacIntel,59.97361161,64ac362b0979becb1044e190,6598e6a5d84f07970b831e70,6598e79377b71480cf78df61,0.1011,0.1012,0,122,122,155,1,sixeight,,,,,,,,,,,,,,,,,,,,,,,,,,,,,,,,,,,,,,,,,,,,,,,,,,,,,,,,,,,,,,,,,,,,,,,,,,,,,,,,,,,,,,,,,,,,,,,,,,,,,,,,,,,,,,,,,,,,,,,,,,,,,,,,,,,,,,,
,,64ac362b0979becb1044e190,2024-01-06_24h39.52.870,kallum_motion_pilot,2023.2.3,MacIntel,59.97361161,64ac362b0979becb1044e190,6598e6a5d84f07970b831e70,6598e79377b71480cf78df61,0.1014,0.1015,0,123,123,54,1,fourtwo,,,,,,,,,,,,,,,,,,,,,,,,,,,,,,,,,,,,,,,,,,,,,,,,,,,,,,,,,,,,,,,,,,,,,,,,,,,,,,,,,,,,,,,,,,,,,,,,,,,,,,,,,,,,,,,,,,,,,,,,,,,,,,,,,,,,,,,
,,64ac362b0979becb1044e190,2024-01-06_24h39.52.870,kallum_motion_pilot,2023.2.3,MacIntel,59.97361161,64ac362b0979becb1044e190,6598e6a5d84f07970b831e70,6598e79377b71480cf78df61,0.1018,0.1019,0,124,124,91,1,sixeight,,,,,,,,,,,,,,,,,,,,,,,,,,,,,,,,,,,,,,,,,,,,,,,,,,,,,,,,,,,,,,,,,,,,,,,,,,,,,,,,,,,,,,,,,,,,,,,,,,,,,,,,,,,,,,,,,,,,,,,,,,,,,,,,,,,,,,,
,,64ac362b0979becb1044e190,2024-01-06_24h39.52.870,kallum_motion_pilot,2023.2.3,MacIntel,59.97361161,64ac362b0979becb1044e190,6598e6a5d84f07970b831e70,6598e79377b71480cf78df61,0.1022,0.1023,0,125,125,68,1,threeone,,,,,,,,,,,,,,,,,,,,,,,,,,,,,,,,,,,,,,,,,,,,,,,,,,,,,,,,,,,,,,,,,,,,,,,,,,,,,,,,,,,,,,,,,,,,,,,,,,,,,,,,,,,,,,,,,,,,,,,,,,,,,,,,,,,,,,,
,,64ac362b0979becb1044e190,2024-01-06_24h39.52.870,kallum_motion_pilot,2023.2.3,MacIntel,59.97361161,64ac362b0979becb1044e190,6598e6a5d84f07970b831e70,6598e79377b71480cf78df61,0.1025,0.1026,0,126,126,10,1,twoone,,,,,,,,,,,,,,,,,,,,,,,,,,,,,,,,,,,,,,,,,,,,,,,,,,,,,,,,,,,,,,,,,,,,,,,,,,,,,,,,,,,,,,,,,,,,,,,,,,,,,,,,,,,,,,,,,,,,,,,,,,,,,,,,,,,,,,,
,,64ac362b0979becb1044e190,2024-01-06_24h39.52.870,kallum_motion_pilot,2023.2.3,MacIntel,59.97361161,64ac362b0979becb1044e190,6598e6a5d84f07970b831e70,6598e79377b71480cf78df61,0.103,0.1031,0,127,127,123,1,sixeight,,,,,,,,,,,,,,,,,,,,,,,,,,,,,,,,,,,,,,,,,,,,,,,,,,,,,,,,,,,,,,,,,,,,,,,,,,,,,,,,,,,,,,,,,,,,,,,,,,,,,,,,,,,,,,,,,,,,,,,,,,,,,,,,,,,,,,,
,,64ac362b0979becb1044e190,2024-01-06_24h39.52.870,kallum_motion_pilot,2023.2.3,MacIntel,59.97361161,64ac362b0979becb1044e190,6598e6a5d84f07970b831e70,6598e79377b71480cf78df61,0.1033,0.1034,0,128,128,82,1,sixfive,,,,,,,,,,,,,,,,,,,,,,,,,,,,,,,,,,,,,,,,,,,,,,,,,,,,,,,,,,,,,,,,,,,,,,,,,,,,,,,,,,,,,,,,,,,,,,,,,,,,,,,,,,,,,,,,,,,,,,,,,,,,,,,,,,,,,,,
,,64ac362b0979becb1044e190,2024-01-06_24h39.52.870,kallum_motion_pilot,2023.2.3,MacIntel,59.97361161,64ac362b0979becb1044e190,6598e6a5d84f07970b831e70,6598e79377b71480cf78df61,0.1037,0.1038,0,129,129,119,1,eightseven,,,,,,,,,,,,,,,,,,,,,,,,,,,,,,,,,,,,,,,,,,,,,,,,,,,,,,,,,,,,,,,,,,,,,,,,,,,,,,,,,,,,,,,,,,,,,,,,,,,,,,,,,,,,,,,,,,,,,,,,,,,,,,,,,,,,,,,
,,64ac362b0979becb1044e190,2024-01-06_24h39.52.870,kallum_motion_pilot,2023.2.3,MacIntel,59.97361161,64ac362b0979becb1044e190,6598e6a5d84f07970b831e70,6598e79377b71480cf78df61,0.104,0.1041,0,130,130,47,1,fourthree,,,,,,,,,,,,,,,,,,,,,,,,,,,,,,,,,,,,,,,,,,,,,,,,,,,,,,,,,,,,,,,,,,,,,,,,,,,,,,,,,,,,,,,,,,,,,,,,,,,,,,,,,,,,,,,,,,,,,,,,,,,,,,,,,,,,,,,
,,64ac362b0979becb1044e190,2024-01-06_24h39.52.870,kallum_motion_pilot,2023.2.3,MacIntel,59.97361161,64ac362b0979becb1044e190,6598e6a5d84f07970b831e70,6598e79377b71480cf78df61,0.1043,0.1045,0,131,131,116,1,sevenfive,,,,,,,,,,,,,,,,,,,,,,,,,,,,,,,,,,,,,,,,,,,,,,,,,,,,,,,,,,,,,,,,,,,,,,,,,,,,,,,,,,,,,,,,,,,,,,,,,,,,,,,,,,,,,,,,,,,,,,,,,,,,,,,,,,,,,,,
,,64ac362b0979becb1044e190,2024-01-06_24h39.52.870,kallum_motion_pilot,2023.2.3,MacIntel,59.97361161,64ac362b0979becb1044e190,6598e6a5d84f07970b831e70,6598e79377b71480cf78df61,0.1047,0.1048,0,132,132,84,1,sevenfive,,,,,,,,,,,,,,,,,,,,,,,,,,,,,,,,,,,,,,,,,,,,,,,,,,,,,,,,,,,,,,,,,,,,,,,,,,,,,,,,,,,,,,,,,,,,,,,,,,,,,,,,,,,,,,,,,,,,,,,,,,,,,,,,,,,,,,,
,,64ac362b0979becb1044e190,2024-01-06_24h39.52.870,kallum_motion_pilot,2023.2.3,MacIntel,59.97361161,64ac362b0979becb1044e190,6598e6a5d84f07970b831e70,6598e79377b71480cf78df61,0.105,0.1051,0,133,133,32,1,onetwo,,,,,,,,,,,,,,,,,,,,,,,,,,,,,,,,,,,,,,,,,,,,,,,,,,,,,,,,,,,,,,,,,,,,,,,,,,,,,,,,,,,,,,,,,,,,,,,,,,,,,,,,,,,,,,,,,,,,,,,,,,,,,,,,,,,,,,,
,,64ac362b0979becb1044e190,2024-01-06_24h39.52.870,kallum_motion_pilot,2023.2.3,MacIntel,59.97361161,64ac362b0979becb1044e190,6598e6a5d84f07970b831e70,6598e79377b71480cf78df61,0.1054,0.1055,0,134,134,117,1,seveneight,,,,,,,,,,,,,,,,,,,,,,,,,,,,,,,,,,,,,,,,,,,,,,,,,,,,,,,,,,,,,,,,,,,,,,,,,,,,,,,,,,,,,,,,,,,,,,,,,,,,,,,,,,,,,,,,,,,,,,,,,,,,,,,,,,,,,,,
,,64ac362b0979becb1044e190,2024-01-06_24h39.52.870,kallum_motion_pilot,2023.2.3,MacIntel,59.97361161,64ac362b0979becb1044e190,6598e6a5d84f07970b831e70,6598e79377b71480cf78df61,0.1058,0.1059,0,135,135,29,1,threefour,,,,,,,,,,,,,,,,,,,,,,,,,,,,,,,,,,,,,,,,,,,,,,,,,,,,,,,,,,,,,,,,,,,,,,,,,,,,,,,,,,,,,,,,,,,,,,,,,,,,,,,,,,,,,,,,,,,,,,,,,,,,,,,,,,,,,,,
,,64ac362b0979becb1044e190,2024-01-06_24h39.52.870,kallum_motion_pilot,2023.2.3,MacIntel,59.97361161,64ac362b0979becb1044e190,6598e6a5d84f07970b831e70,6598e79377b71480cf78df61,0.106,0.1062,0,136,136,105,1,fiveseven,,,,,,,,,,,,,,,,,,,,,,,,,,,,,,,,,,,,,,,,,,,,,,,,,,,,,,,,,,,,,,,,,,,,,,,,,,,,,,,,,,,,,,,,,,,,,,,,,,,,,,,,,,,,,,,,,,,,,,,,,,,,,,,,,,,,,,,
,,64ac362b0979becb1044e190,2024-01-06_24h39.52.870,kallum_motion_pilot,2023.2.3,MacIntel,59.97361161,64ac362b0979becb1044e190,6598e6a5d84f07970b831e70,6598e79377b71480cf78df61,0.1064,0.1065,0,137,137,93,1,seveneight,,,,,,,,,,,,,,,,,,,,,,,,,,,,,,,,,,,,,,,,,,,,,,,,,,,,,,,,,,,,,,,,,,,,,,,,,,,,,,,,,,,,,,,,,,,,,,,,,,,,,,,,,,,,,,,,,,,,,,,,,,,,,,,,,,,,,,,
,,64ac362b0979becb1044e190,2024-01-06_24h39.52.870,kallum_motion_pilot,2023.2.3,MacIntel,59.97361161,64ac362b0979becb1044e190,6598e6a5d84f07970b831e70,6598e79377b71480cf78df61,0.1067,0.1069,0,138,138,99,1,sixeight,,,,,,,,,,,,,,,,,,,,,,,,,,,,,,,,,,,,,,,,,,,,,,,,,,,,,,,,,,,,,,,,,,,,,,,,,,,,,,,,,,,,,,,,,,,,,,,,,,,,,,,,,,,,,,,,,,,,,,,,,,,,,,,,,,,,,,,
,,64ac362b0979becb1044e190,2024-01-06_24h39.52.870,kallum_motion_pilot,2023.2.3,MacIntel,59.97361161,64ac362b0979becb1044e190,6598e6a5d84f07970b831e70,6598e79377b71480cf78df61,0.1071,0.1073,0,139,139,4,1,threeone,,,,,,,,,,,,,,,,,,,,,,,,,,,,,,,,,,,,,,,,,,,,,,,,,,,,,,,,,,,,,,,,,,,,,,,,,,,,,,,,,,,,,,,,,,,,,,,,,,,,,,,,,,,,,,,,,,,,,,,,,,,,,,,,,,,,,,,
,,64ac362b0979becb1044e190,2024-01-06_24h39.52.870,kallum_motion_pilot,2023.2.3,MacIntel,59.97361161,64ac362b0979becb1044e190,6598e6a5d84f07970b831e70,6598e79377b71480cf78df61,0.1075,0.1076,0,140,140,106,1,sixfive,,,,,,,,,,,,,,,,,,,,,,,,,,,,,,,,,,,,,,,,,,,,,,,,,,,,,,,,,,,,,,,,,,,,,,,,,,,,,,,,,,,,,,,,,,,,,,,,,,,,,,,,,,,,,,,,,,,,,,,,,,,,,,,,,,,,,,,
,,64ac362b0979becb1044e190,2024-01-06_24h39.52.870,kallum_motion_pilot,2023.2.3,MacIntel,59.97361161,64ac362b0979becb1044e190,6598e6a5d84f07970b831e70,6598e79377b71480cf78df61,0.1078,0.1079,0,141,141,112,1,fivesix,,,,,,,,,,,,,,,,,,,,,,,,,,,,,,,,,,,,,,,,,,,,,,,,,,,,,,,,,,,,,,,,,,,,,,,,,,,,,,,,,,,,,,,,,,,,,,,,,,,,,,,,,,,,,,,,,,,,,,,,,,,,,,,,,,,,,,,
,,64ac362b0979becb1044e190,2024-01-06_24h39.52.870,kallum_motion_pilot,2023.2.3,MacIntel,59.97361161,64ac362b0979becb1044e190,6598e6a5d84f07970b831e70,6598e79377b71480cf78df61,0.1081,0.1082,0,142,142,120,1,fivesix,,,,,,,,,,,,,,,,,,,,,,,,,,,,,,,,,,,,,,,,,,,,,,,,,,,,,,,,,,,,,,,,,,,,,,,,,,,,,,,,,,,,,,,,,,,,,,,,,,,,,,,,,,,,,,,,,,,,,,,,,,,,,,,,,,,,,,,
,,64ac362b0979becb1044e190,2024-01-06_24h39.52.870,kallum_motion_pilot,2023.2.3,MacIntel,59.97361161,64ac362b0979becb1044e190,6598e6a5d84f07970b831e70,6598e79377b71480cf78df61,0.1084,0.1084,0,143,143,25,1,onethree,,,,,,,,,,,,,,,,,,,,,,,,,,,,,,,,,,,,,,,,,,,,,,,,,,,,,,,,,,,,,,,,,,,,,,,,,,,,,,,,,,,,,,,,,,,,,,,,,,,,,,,,,,,,,,,,,,,,,,,,,,,,,,,,,,,,,,,
,,64ac362b0979becb1044e190,2024-01-06_24h39.52.870,kallum_motion_pilot,2023.2.3,MacIntel,59.97361161,64ac362b0979becb1044e190,6598e6a5d84f07970b831e70,6598e79377b71480cf78df61,0.1087,0.1088,0,144,144,85,1,seveneight,,,,,,,,,,,,,,,,,,,,,,,,,,,,,,,,,,,,,,,,,,,,,,,,,,,,,,,,,,,,,,,,,,,,,,,,,,,,,,,,,,,,,,,,,,,,,,,,,,,,,,,,,,,,,,,,,,,,,,,,,,,,,,,,,,,,,,,
,,64ac362b0979becb1044e190,2024-01-06_24h39.52.870,kallum_motion_pilot,2023.2.3,MacIntel,59.97361161,64ac362b0979becb1044e190,6598e6a5d84f07970b831e70,6598e79377b71480cf78df61,0.109,0.1091,0,145,145,58,1,twoone,,,,,,,,,,,,,,,,,,,,,,,,,,,,,,,,,,,,,,,,,,,,,,,,,,,,,,,,,,,,,,,,,,,,,,,,,,,,,,,,,,,,,,,,,,,,,,,,,,,,,,,,,,,,,,,,,,,,,,,,,,,,,,,,,,,,,,,
,,64ac362b0979becb1044e190,2024-01-06_24h39.52.870,kallum_motion_pilot,2023.2.3,MacIntel,59.97361161,64ac362b0979becb1044e190,6598e6a5d84f07970b831e70,6598e79377b71480cf78df61,0.1094,0.1095,0,146,146,9,1,onethree,,,,,,,,,,,,,,,,,,,,,,,,,,,,,,,,,,,,,,,,,,,,,,,,,,,,,,,,,,,,,,,,,,,,,,,,,,,,,,,,,,,,,,,,,,,,,,,,,,,,,,,,,,,,,,,,,,,,,,,,,,,,,,,,,,,,,,,
,,64ac362b0979becb1044e190,2024-01-06_24h39.52.870,kallum_motion_pilot,2023.2.3,MacIntel,59.97361161,64ac362b0979becb1044e190,6598e6a5d84f07970b831e70,6598e79377b71480cf78df61,0.1097,0.1098,0,147,147,35,1,twofour,,,,,,,,,,,,,,,,,,,,,,,,,,,,,,,,,,,,,,,,,,,,,,,,,,,,,,,,,,,,,,,,,,,,,,,,,,,,,,,,,,,,,,,,,,,,,,,,,,,,,,,,,,,,,,,,,,,,,,,,,,,,,,,,,,,,,,,
,,64ac362b0979becb1044e190,2024-01-06_24h39.52.870,kallum_motion_pilot,2023.2.3,MacIntel,59.97361161,64ac362b0979becb1044e190,6598e6a5d84f07970b831e70,6598e79377b71480cf78df61,0.11,0.1102,0,148,148,76,1,threeone,,,,,,,,,,,,,,,,,,,,,,,,,,,,,,,,,,,,,,,,,,,,,,,,,,,,,,,,,,,,,,,,,,,,,,,,,,,,,,,,,,,,,,,,,,,,,,,,,,,,,,,,,,,,,,,,,,,,,,,,,,,,,,,,,,,,,,,
,,64ac362b0979becb1044e190,2024-01-06_24h39.52.870,kallum_motion_pilot,2023.2.3,MacIntel,59.97361161,64ac362b0979becb1044e190,6598e6a5d84f07970b831e70,6598e79377b71480cf78df61,0.1104,0.1106,0,149,149,83,1,sixeight,,,,,,,,,,,,,,,,,,,,,,,,,,,,,,,,,,,,,,,,,,,,,,,,,,,,,,,,,,,,,,,,,,,,,,,,,,,,,,,,,,,,,,,,,,,,,,,,,,,,,,,,,,,,,,,,,,,,,,,,,,,,,,,,,,,,,,,
,,64ac362b0979becb1044e190,2024-01-06_24h39.52.870,kallum_motion_pilot,2023.2.3,MacIntel,59.97361161,64ac362b0979becb1044e190,6598e6a5d84f07970b831e70,6598e79377b71480cf78df61,0.1109,0.111,0,150,150,158,1,eightsix,,,,,,,,,,,,,,,,,,,,,,,,,,,,,,,,,,,,,,,,,,,,,,,,,,,,,,,,,,,,,,,,,,,,,,,,,,,,,,,,,,,,,,,,,,,,,,,,,,,,,,,,,,,,,,,,,,,,,,,,,,,,,,,,,,,,,,,
,,64ac362b0979becb1044e190,2024-01-06_24h39.52.870,kallum_motion_pilot,2023.2.3,MacIntel,59.97361161,64ac362b0979becb1044e190,6598e6a5d84f07970b831e70,6598e79377b71480cf78df61,0.1113,0.1113,0,151,151,96,1,fivesix,,,,,,,,,,,,,,,,,,,,,,,,,,,,,,,,,,,,,,,,,,,,,,,,,,,,,,,,,,,,,,,,,,,,,,,,,,,,,,,,,,,,,,,,,,,,,,,,,,,,,,,,,,,,,,,,,,,,,,,,,,,,,,,,,,,,,,,
,,64ac362b0979becb1044e190,2024-01-06_24h39.52.870,kallum_motion_pilot,2023.2.3,MacIntel,59.97361161,64ac362b0979becb1044e190,6598e6a5d84f07970b831e70,6598e79377b71480cf78df61,0.1116,0.1118,0,152,152,70,1,fourtwo,,,,,,,,,,,,,,,,,,,,,,,,,,,,,,,,,,,,,,,,,,,,,,,,,,,,,,,,,,,,,,,,,,,,,,,,,,,,,,,,,,,,,,,,,,,,,,,,,,,,,,,,,,,,,,,,,,,,,,,,,,,,,,,,,,,,,,,
,,64ac362b0979becb1044e190,2024-01-06_24h39.52.870,kallum_motion_pilot,2023.2.3,MacIntel,59.97361161,64ac362b0979becb1044e190,6598e6a5d84f07970b831e70,6598e79377b71480cf78df61,0.112,0.1122,0,153,153,130,1,sixfive,,,,,,,,,,,,,,,,,,,,,,,,,,,,,,,,,,,,,,,,,,,,,,,,,,,,,,,,,,,,,,,,,,,,,,,,,,,,,,,,,,,,,,,,,,,,,,,,,,,,,,,,,,,,,,,,,,,,,,,,,,,,,,,,,,,,,,,
,,64ac362b0979becb1044e190,2024-01-06_24h39.52.870,kallum_motion_pilot,2023.2.3,MacIntel,59.97361161,64ac362b0979becb1044e190,6598e6a5d84f07970b831e70,6598e79377b71480cf78df61,0.1129,0.1132,0,154,154,131,1,sixeight,,,,,,,,,,,,,,,,,,,,,,,,,,,,,,,,,,,,,,,,,,,,,,,,,,,,,,,,,,,,,,,,,,,,,,,,,,,,,,,,,,,,,,,,,,,,,,,,,,,,,,,,,,,,,,,,,,,,,,,,,,,,,,,,,,,,,,,
,,64ac362b0979becb1044e190,2024-01-06_24h39.52.870,kallum_motion_pilot,2023.2.3,MacIntel,59.97361161,64ac362b0979becb1044e190,6598e6a5d84f07970b831e70,6598e79377b71480cf78df61,0.1151,0.1153,0,155,155,154,1,sixfive,,,,,,,,,,,,,,,,,,,,,,,,,,,,,,,,,,,,,,,,,,,,,,,,,,,,,,,,,,,,,,,,,,,,,,,,,,,,,,,,,,,,,,,,,,,,,,,,,,,,,,,,,,,,,,,,,,,,,,,,,,,,,,,,,,,,,,,
,,64ac362b0979becb1044e190,2024-01-06_24h39.52.870,kallum_motion_pilot,2023.2.3,MacIntel,59.97361161,64ac362b0979becb1044e190,6598e6a5d84f07970b831e70,6598e79377b71480cf78df61,0.1157,0.1159,0,156,156,127,1,eightseven,,,,,,,,,,,,,,,,,,,,,,,,,,,,,,,,,,,,,,,,,,,,,,,,,,,,,,,,,,,,,,,,,,,,,,,,,,,,,,,,,,,,,,,,,,,,,,,,,,,,,,,,,,,,,,,,,,,,,,,,,,,,,,,,,,,,,,,
,,64ac362b0979becb1044e190,2024-01-06_24h39.52.870,kallum_motion_pilot,2023.2.3,MacIntel,59.97361161,64ac362b0979becb1044e190,6598e6a5d84f07970b831e70,6598e79377b71480cf78df61,0.1162,0.1163,0,157,157,2,1,twoone,,,,,,,,,,,,,,,,,,,,,,,,,,,,,,,,,,,,,,,,,,,,,,,,,,,,,,,,,,,,,,,,,,,,,,,,,,,,,,,,,,,,,,,,,,,,,,,,,,,,,,,,,,,,,,,,,,,,,,,,,,,,,,,,,,,,,,,
,,64ac362b0979becb1044e190,2024-01-06_24h39.52.870,kallum_motion_pilot,2023.2.3,MacIntel,59.97361161,64ac362b0979becb1044e190,6598e6a5d84f07970b831e70,6598e79377b71480cf78df61,0.1166,0.1167,0,158,158,104,1,fivesix,,,,,,,,,,,,,,,,,,,,,,,,,,,,,,,,,,,,,,,,,,,,,,,,,,,,,,,,,,,,,,,,,,,,,,,,,,,,,,,,,,,,,,,,,,,,,,,,,,,,,,,,,,,,,,,,,,,,,,,,,,,,,,,,,,,,,,,
,,64ac362b0979becb1044e190,2024-01-06_24h39.52.870,kallum_motion_pilot,2023.2.3,MacIntel,59.97361161,64ac362b0979becb1044e190,6598e6a5d84f07970b831e70,6598e79377b71480cf78df61,0.1171,0.1171,0,159,159,27,1,twofour,,,,,,,,,,,,,,,,,,,,,,,,,,,,,,,,,,,,,,,,,,,,,,,,,,,,,,,,,,,,,,,,,,,,,,,,,,,,,,,,,,,,,,,,,,,,,,,,,,,,,,,,,,,,,,,,,,,,,,,,,,,,,,,,,,,,,,,
,,64ac362b0979becb1044e190,2024-01-06_24h39.52.870,kallum_motion_pilot,2023.2.3,MacIntel,59.97361161,64ac362b0979becb1044e190,6598e6a5d84f07970b831e70,6598e79377b71480cf78df61,0.1174,0.1175,0,160,160,66,1,twoone,,,,,,,,,,,,,,,,,,,,,,,,,,,,,,,,,,,,,,,,,,,,,,,,,,,,,,,,,,,,,,,,,,,,,,,,,,,,,,,,,,,,,,,,,,,,,,,,,,,,,,,,,,,,,,,,,,,,,,,,,,,,,,,,,,,,,,,
,,64ac362b0979becb1044e190,2024-01-06_24h39.52.870,kallum_motion_pilot,2023.2.3,MacIntel,59.97361161,64ac362b0979becb1044e190,6598e6a5d84f07970b831e70,6598e79377b71480cf78df61,0.1178,0.118,0,161,161,107,1,sixeight,,,,,,,,,,,,,,,,,,,,,,,,,,,,,,,,,,,,,,,,,,,,,,,,,,,,,,,,,,,,,,,,,,,,,,,,,,,,,,,,,,,,,,,,,,,,,,,,,,,,,,,,,,,,,,,,,,,,,,,,,,,,,,,,,,,,,,,
,,64ac362b0979becb1044e190,2024-01-06_24h39.52.870,kallum_motion_pilot,2023.2.3,MacIntel,59.97361161,64ac362b0979becb1044e190,6598e6a5d84f07970b831e70,6598e79377b71480cf78df61,0.1182,0.1183,1,0,162,96,1,fivesix,,,,,,,,,,,,,,,,,,,,,,,,,,,,,,,,,,,,,,,,,,,,,,,,,,,,,,,,,,,,,,,,,,,,,,,,,,,,,,,,,,,,,,,,,,,,,,,,,,,,,,,,,,,,,,,,,,,,,,,,,,,,,,,,,,,,,,,
,,64ac362b0979becb1044e190,2024-01-06_24h39.52.870,kallum_motion_pilot,2023.2.3,MacIntel,59.97361161,64ac362b0979becb1044e190,6598e6a5d84f07970b831e70,6598e79377b71480cf78df61,0.1187,0.1188,1,1,163,144,1,fivesix,,,,,,,,,,,,,,,,,,,,,,,,,,,,,,,,,,,,,,,,,,,,,,,,,,,,,,,,,,,,,,,,,,,,,,,,,,,,,,,,,,,,,,,,,,,,,,,,,,,,,,,,,,,,,,,,,,,,,,,,,,,,,,,,,,,,,,,
,,64ac362b0979becb1044e190,2024-01-06_24h39.52.870,kallum_motion_pilot,2023.2.3,MacIntel,59.97361161,64ac362b0979becb1044e190,6598e6a5d84f07970b831e70,6598e79377b71480cf78df61,0.1191,0.1192,1,2,164,41,1,onethree,,,,,,,,,,,,,,,,,,,,,,,,,,,,,,,,,,,,,,,,,,,,,,,,,,,,,,,,,,,,,,,,,,,,,,,,,,,,,,,,,,,,,,,,,,,,,,,,,,,,,,,,,,,,,,,,,,,,,,,,,,,,,,,,,,,,,,,
,,64ac362b0979becb1044e190,2024-01-06_24h39.52.870,kallum_motion_pilot,2023.2.3,MacIntel,59.97361161,64ac362b0979becb1044e190,6598e6a5d84f07970b831e70,6598e79377b71480cf78df61,0.1195,0.1196,1,3,165,86,1,eightsix,,,,,,,,,,,,,,,,,,,,,,,,,,,,,,,,,,,,,,,,,,,,,,,,,,,,,,,,,,,,,,,,,,,,,,,,,,,,,,,,,,,,,,,,,,,,,,,,,,,,,,,,,,,,,,,,,,,,,,,,,,,,,,,,,,,,,,,
,,64ac362b0979becb1044e190,2024-01-06_24h39.52.870,kallum_motion_pilot,2023.2.3,MacIntel,59.97361161,64ac362b0979becb1044e190,6598e6a5d84f07970b831e70,6598e79377b71480cf78df61,0.1198,0.1204,1,4,166,57,1,onethree,,,,,,,,,,,,,,,,,,,,,,,,,,,,,,,,,,,,,,,,,,,,,,,,,,,,,,,,,,,,,,,,,,,,,,,,,,,,,,,,,,,,,,,,,,,,,,,,,,,,,,,,,,,,,,,,,,,,,,,,,,,,,,,,,,,,,,,
,,64ac362b0979becb1044e190,2024-01-06_24h39.52.870,kallum_motion_pilot,2023.2.3,MacIntel,59.97361161,64ac362b0979becb1044e190,6598e6a5d84f07970b831e70,6598e79377b71480cf78df61,0.1206,0.1207,1,5,167,33,1,onethree,,,,,,,,,,,,,,,,,,,,,,,,,,,,,,,,,,,,,,,,,,,,,,,,,,,,,,,,,,,,,,,,,,,,,,,,,,,,,,,,,,,,,,,,,,,,,,,,,,,,,,,,,,,,,,,,,,,,,,,,,,,,,,,,,,,,,,,
,,64ac362b0979becb1044e190,2024-01-06_24h39.52.870,kallum_motion_pilot,2023.2.3,MacIntel,59.97361161,64ac362b0979becb1044e190,6598e6a5d84f07970b831e70,6598e79377b71480cf78df61,0.1209,0.1211,1,6,168,132,1,sevenfive,,,,,,,,,,,,,,,,,,,,,,,,,,,,,,,,,,,,,,,,,,,,,,,,,,,,,,,,,,,,,,,,,,,,,,,,,,,,,,,,,,,,,,,,,,,,,,,,,,,,,,,,,,,,,,,,,,,,,,,,,,,,,,,,,,,,,,,
,,64ac362b0979becb1044e190,2024-01-06_24h39.52.870,kallum_motion_pilot,2023.2.3,MacIntel,59.97361161,64ac362b0979becb1044e190,6598e6a5d84f07970b831e70,6598e79377b71480cf78df61,0.1213,0.1214,1,7,169,26,1,twoone,,,,,,,,,,,,,,,,,,,,,,,,,,,,,,,,,,,,,,,,,,,,,,,,,,,,,,,,,,,,,,,,,,,,,,,,,,,,,,,,,,,,,,,,,,,,,,,,,,,,,,,,,,,,,,,,,,,,,,,,,,,,,,,,,,,,,,,
,,64ac362b0979becb1044e190,2024-01-06_24h39.52.870,kallum_motion_pilot,2023.2.3,MacIntel,59.97361161,64ac362b0979becb1044e190,6598e6a5d84f07970b831e70,6598e79377b71480cf78df61,0.1217,0.1218,1,8,170,3,1,twofour,,,,,,,,,,,,,,,,,,,,,,,,,,,,,,,,,,,,,,,,,,,,,,,,,,,,,,,,,,,,,,,,,,,,,,,,,,,,,,,,,,,,,,,,,,,,,,,,,,,,,,,,,,,,,,,,,,,,,,,,,,,,,,,,,,,,,,,
,,64ac362b0979becb1044e190,2024-01-06_24h39.52.870,kallum_motion_pilot,2023.2.3,MacIntel,59.97361161,64ac362b0979becb1044e190,6598e6a5d84f07970b831e70,6598e79377b71480cf78df61,0.1219,0.1221,1,9,171,97,1,fiveseven,,,,,,,,,,,,,,,,,,,,,,,,,,,,,,,,,,,,,,,,,,,,,,,,,,,,,,,,,,,,,,,,,,,,,,,,,,,,,,,,,,,,,,,,,,,,,,,,,,,,,,,,,,,,,,,,,,,,,,,,,,,,,,,,,,,,,,,
,,64ac362b0979becb1044e190,2024-01-06_24h39.52.870,kallum_motion_pilot,2023.2.3,MacIntel,59.97361161,64ac362b0979becb1044e190,6598e6a5d84f07970b831e70,6598e79377b71480cf78df61,0.1224,0.1224,1,10,172,8,1,onetwo,,,,,,,,,,,,,,,,,,,,,,,,,,,,,,,,,,,,,,,,,,,,,,,,,,,,,,,,,,,,,,,,,,,,,,,,,,,,,,,,,,,,,,,,,,,,,,,,,,,,,,,,,,,,,,,,,,,,,,,,,,,,,,,,,,,,,,,
,,64ac362b0979becb1044e190,2024-01-06_24h39.52.870,kallum_motion_pilot,2023.2.3,MacIntel,59.97361161,64ac362b0979becb1044e190,6598e6a5d84f07970b831e70,6598e79377b71480cf78df61,0.1227,0.1228,1,11,173,76,1,threeone,,,,,,,,,,,,,,,,,,,,,,,,,,,,,,,,,,,,,,,,,,,,,,,,,,,,,,,,,,,,,,,,,,,,,,,,,,,,,,,,,,,,,,,,,,,,,,,,,,,,,,,,,,,,,,,,,,,,,,,,,,,,,,,,,,,,,,,
,,64ac362b0979becb1044e190,2024-01-06_24h39.52.870,kallum_motion_pilot,2023.2.3,MacIntel,59.97361161,64ac362b0979becb1044e190,6598e6a5d84f07970b831e70,6598e79377b71480cf78df61,0.1231,0.1232,1,12,174,119,1,eightseven,,,,,,,,,,,,,,,,,,,,,,,,,,,,,,,,,,,,,,,,,,,,,,,,,,,,,,,,,,,,,,,,,,,,,,,,,,,,,,,,,,,,,,,,,,,,,,,,,,,,,,,,,,,,,,,,,,,,,,,,,,,,,,,,,,,,,,,
,,64ac362b0979becb1044e190,2024-01-06_24h39.52.870,kallum_motion_pilot,2023.2.3,MacIntel,59.97361161,64ac362b0979becb1044e190,6598e6a5d84f07970b831e70,6598e79377b71480cf78df61,0.1234,0.1235,1,13,175,94,1,eightsix,,,,,,,,,,,,,,,,,,,,,,,,,,,,,,,,,,,,,,,,,,,,,,,,,,,,,,,,,,,,,,,,,,,,,,,,,,,,,,,,,,,,,,,,,,,,,,,,,,,,,,,,,,,,,,,,,,,,,,,,,,,,,,,,,,,,,,,
,,64ac362b0979becb1044e190,2024-01-06_24h39.52.870,kallum_motion_pilot,2023.2.3,MacIntel,59.97361161,64ac362b0979becb1044e190,6598e6a5d84f07970b831e70,6598e79377b71480cf78df61,0.1237,0.1239,1,14,176,88,1,fivesix,,,,,,,,,,,,,,,,,,,,,,,,,,,,,,,,,,,,,,,,,,,,,,,,,,,,,,,,,,,,,,,,,,,,,,,,,,,,,,,,,,,,,,,,,,,,,,,,,,,,,,,,,,,,,,,,,,,,,,,,,,,,,,,,,,,,,,,
,,64ac362b0979becb1044e190,2024-01-06_24h39.52.870,kallum_motion_pilot,2023.2.3,MacIntel,59.97361161,64ac362b0979becb1044e190,6598e6a5d84f07970b831e70,6598e79377b71480cf78df61,0.1241,0.1242,1,15,177,114,1,sixfive,,,,,,,,,,,,,,,,,,,,,,,,,,,,,,,,,,,,,,,,,,,,,,,,,,,,,,,,,,,,,,,,,,,,,,,,,,,,,,,,,,,,,,,,,,,,,,,,,,,,,,,,,,,,,,,,,,,,,,,,,,,,,,,,,,,,,,,
,,64ac362b0979becb1044e190,2024-01-06_24h39.52.870,kallum_motion_pilot,2023.2.3,MacIntel,59.97361161,64ac362b0979becb1044e190,6598e6a5d84f07970b831e70,6598e79377b71480cf78df61,0.1244,0.1246,1,16,178,120,1,fivesix,,,,,,,,,,,,,,,,,,,,,,,,,,,,,,,,,,,,,,,,,,,,,,,,,,,,,,,,,,,,,,,,,,,,,,,,,,,,,,,,,,,,,,,,,,,,,,,,,,,,,,,,,,,,,,,,,,,,,,,,,,,,,,,,,,,,,,,
,,64ac362b0979becb1044e190,2024-01-06_24h39.52.870,kallum_motion_pilot,2023.2.3,MacIntel,59.97361161,64ac362b0979becb1044e190,6598e6a5d84f07970b831e70,6598e79377b71480cf78df61,0.1248,0.125,1,17,179,148,1,sevenfive,,,,,,,,,,,,,,,,,,,,,,,,,,,,,,,,,,,,,,,,,,,,,,,,,,,,,,,,,,,,,,,,,,,,,,,,,,,,,,,,,,,,,,,,,,,,,,,,,,,,,,,,,,,,,,,,,,,,,,,,,,,,,,,,,,,,,,,
,,64ac362b0979becb1044e190,2024-01-06_24h39.52.870,kallum_motion_pilot,2023.2.3,MacIntel,59.97361161,64ac362b0979becb1044e190,6598e6a5d84f07970b831e70,6598e79377b71480cf78df61,0.1252,0.1253,1,18,180,111,1,eightseven,,,,,,,,,,,,,,,,,,,,,,,,,,,,,,,,,,,,,,,,,,,,,,,,,,,,,,,,,,,,,,,,,,,,,,,,,,,,,,,,,,,,,,,,,,,,,,,,,,,,,,,,,,,,,,,,,,,,,,,,,,,,,,,,,,,,,,,
,,64ac362b0979becb1044e190,2024-01-06_24h39.52.870,kallum_motion_pilot,2023.2.3,MacIntel,59.97361161,64ac362b0979becb1044e190,6598e6a5d84f07970b831e70,6598e79377b71480cf78df61,0.1256,0.1257,1,19,181,55,1,fourthree,,,,,,,,,,,,,,,,,,,,,,,,,,,,,,,,,,,,,,,,,,,,,,,,,,,,,,,,,,,,,,,,,,,,,,,,,,,,,,,,,,,,,,,,,,,,,,,,,,,,,,,,,,,,,,,,,,,,,,,,,,,,,,,,,,,,,,,
,,64ac362b0979becb1044e190,2024-01-06_24h39.52.870,kallum_motion_pilot,2023.2.3,MacIntel,59.97361161,64ac362b0979becb1044e190,6598e6a5d84f07970b831e70,6598e79377b71480cf78df61,0.126,0.1262,1,20,182,138,1,sixfive,,,,,,,,,,,,,,,,,,,,,,,,,,,,,,,,,,,,,,,,,,,,,,,,,,,,,,,,,,,,,,,,,,,,,,,,,,,,,,,,,,,,,,,,,,,,,,,,,,,,,,,,,,,,,,,,,,,,,,,,,,,,,,,,,,,,,,,
,,64ac362b0979becb1044e190,2024-01-06_24h39.52.870,kallum_motion_pilot,2023.2.3,MacIntel,59.97361161,64ac362b0979becb1044e190,6598e6a5d84f07970b831e70,6598e79377b71480cf78df61,0.1264,0.1265,1,21,183,123,1,sixeight,,,,,,,,,,,,,,,,,,,,,,,,,,,,,,,,,,,,,,,,,,,,,,,,,,,,,,,,,,,,,,,,,,,,,,,,,,,,,,,,,,,,,,,,,,,,,,,,,,,,,,,,,,,,,,,,,,,,,,,,,,,,,,,,,,,,,,,
,,64ac362b0979becb1044e190,2024-01-06_24h39.52.870,kallum_motion_pilot,2023.2.3,MacIntel,59.97361161,64ac362b0979becb1044e190,6598e6a5d84f07970b831e70,6598e79377b71480cf78df61,0.1268,0.127,1,22,184,20,1,threeone,,,,,,,,,,,,,,,,,,,,,,,,,,,,,,,,,,,,,,,,,,,,,,,,,,,,,,,,,,,,,,,,,,,,,,,,,,,,,,,,,,,,,,,,,,,,,,,,,,,,,,,,,,,,,,,,,,,,,,,,,,,,,,,,,,,,,,,
,,64ac362b0979becb1044e190,2024-01-06_24h39.52.870,kallum_motion_pilot,2023.2.3,MacIntel,59.97361161,64ac362b0979becb1044e190,6598e6a5d84f07970b831e70,6598e79377b71480cf78df61,0.1272,0.1275,1,23,185,104,1,fivesix,,,,,,,,,,,,,,,,,,,,,,,,,,,,,,,,,,,,,,,,,,,,,,,,,,,,,,,,,,,,,,,,,,,,,,,,,,,,,,,,,,,,,,,,,,,,,,,,,,,,,,,,,,,,,,,,,,,,,,,,,,,,,,,,,,,,,,,
,,64ac362b0979becb1044e190,2024-01-06_24h39.52.870,kallum_motion_pilot,2023.2.3,MacIntel,59.97361161,64ac362b0979becb1044e190,6598e6a5d84f07970b831e70,6598e79377b71480cf78df61,0.1277,0.1279,1,24,186,51,1,twofour,,,,,,,,,,,,,,,,,,,,,,,,,,,,,,,,,,,,,,,,,,,,,,,,,,,,,,,,,,,,,,,,,,,,,,,,,,,,,,,,,,,,,,,,,,,,,,,,,,,,,,,,,,,,,,,,,,,,,,,,,,,,,,,,,,,,,,,
,,64ac362b0979becb1044e190,2024-01-06_24h39.52.870,kallum_motion_pilot,2023.2.3,MacIntel,59.97361161,64ac362b0979becb1044e190,6598e6a5d84f07970b831e70,6598e79377b71480cf78df61,0.1283,0.1284,1,25,187,4,1,threeone,,,,,,,,,,,,,,,,,,,,,,,,,,,,,,,,,,,,,,,,,,,,,,,,,,,,,,,,,,,,,,,,,,,,,,,,,,,,,,,,,,,,,,,,,,,,,,,,,,,,,,,,,,,,,,,,,,,,,,,,,,,,,,,,,,,,,,,
,,64ac362b0979becb1044e190,2024-01-06_24h39.52.870,kallum_motion_pilot,2023.2.3,MacIntel,59.97361161,64ac362b0979becb1044e190,6598e6a5d84f07970b831e70,6598e79377b71480cf78df61,0.1289,0.1291,1,26,188,158,1,eightsix,,,,,,,,,,,,,,,,,,,,,,,,,,,,,,,,,,,,,,,,,,,,,,,,,,,,,,,,,,,,,,,,,,,,,,,,,,,,,,,,,,,,,,,,,,,,,,,,,,,,,,,,,,,,,,,,,,,,,,,,,,,,,,,,,,,,,,,
,,64ac362b0979becb1044e190,2024-01-06_24h39.52.870,kallum_motion_pilot,2023.2.3,MacIntel,59.97361161,64ac362b0979becb1044e190,6598e6a5d84f07970b831e70,6598e79377b71480cf78df61,0.13,0.1304,1,27,189,22,1,fourtwo,,,,,,,,,,,,,,,,,,,,,,,,,,,,,,,,,,,,,,,,,,,,,,,,,,,,,,,,,,,,,,,,,,,,,,,,,,,,,,,,,,,,,,,,,,,,,,,,,,,,,,,,,,,,,,,,,,,,,,,,,,,,,,,,,,,,,,,
,,64ac362b0979becb1044e190,2024-01-06_24h39.52.870,kallum_motion_pilot,2023.2.3,MacIntel,59.97361161,64ac362b0979becb1044e190,6598e6a5d84f07970b831e70,6598e79377b71480cf78df61,0.1315,0.1323,1,28,190,70,1,fourtwo,,,,,,,,,,,,,,,,,,,,,,,,,,,,,,,,,,,,,,,,,,,,,,,,,,,,,,,,,,,,,,,,,,,,,,,,,,,,,,,,,,,,,,,,,,,,,,,,,,,,,,,,,,,,,,,,,,,,,,,,,,,,,,,,,,,,,,,
,,64ac362b0979becb1044e190,2024-01-06_24h39.52.870,kallum_motion_pilot,2023.2.3,MacIntel,59.97361161,64ac362b0979becb1044e190,6598e6a5d84f07970b831e70,6598e79377b71480cf78df61,0.1327,0.1329,1,29,191,139,1,sixeight,,,,,,,,,,,,,,,,,,,,,,,,,,,,,,,,,,,,,,,,,,,,,,,,,,,,,,,,,,,,,,,,,,,,,,,,,,,,,,,,,,,,,,,,,,,,,,,,,,,,,,,,,,,,,,,,,,,,,,,,,,,,,,,,,,,,,,,
,,64ac362b0979becb1044e190,2024-01-06_24h39.52.870,kallum_motion_pilot,2023.2.3,MacIntel,59.97361161,64ac362b0979becb1044e190,6598e6a5d84f07970b831e70,6598e79377b71480cf78df61,0.1333,0.1335,1,30,192,59,1,twofour,,,,,,,,,,,,,,,,,,,,,,,,,,,,,,,,,,,,,,,,,,,,,,,,,,,,,,,,,,,,,,,,,,,,,,,,,,,,,,,,,,,,,,,,,,,,,,,,,,,,,,,,,,,,,,,,,,,,,,,,,,,,,,,,,,,,,,,
,,64ac362b0979becb1044e190,2024-01-06_24h39.52.870,kallum_motion_pilot,2023.2.3,MacIntel,59.97361161,64ac362b0979becb1044e190,6598e6a5d84f07970b831e70,6598e79377b71480cf78df61,0.1338,0.134,1,31,193,48,1,onetwo,,,,,,,,,,,,,,,,,,,,,,,,,,,,,,,,,,,,,,,,,,,,,,,,,,,,,,,,,,,,,,,,,,,,,,,,,,,,,,,,,,,,,,,,,,,,,,,,,,,,,,,,,,,,,,,,,,,,,,,,,,,,,,,,,,,,,,,
,,64ac362b0979becb1044e190,2024-01-06_24h39.52.870,kallum_motion_pilot,2023.2.3,MacIntel,59.97361161,64ac362b0979becb1044e190,6598e6a5d84f07970b831e70,6598e79377b71480cf78df61,0.1341,0.1343,1,32,194,30,1,fourtwo,,,,,,,,,,,,,,,,,,,,,,,,,,,,,,,,,,,,,,,,,,,,,,,,,,,,,,,,,,,,,,,,,,,,,,,,,,,,,,,,,,,,,,,,,,,,,,,,,,,,,,,,,,,,,,,,,,,,,,,,,,,,,,,,,,,,,,,
,,64ac362b0979becb1044e190,2024-01-06_24h39.52.870,kallum_motion_pilot,2023.2.3,MacIntel,59.97361161,64ac362b0979becb1044e190,6598e6a5d84f07970b831e70,6598e79377b71480cf78df61,0.1345,0.1346,1,33,195,60,1,threeone,,,,,,,,,,,,,,,,,,,,,,,,,,,,,,,,,,,,,,,,,,,,,,,,,,,,,,,,,,,,,,,,,,,,,,,,,,,,,,,,,,,,,,,,,,,,,,,,,,,,,,,,,,,,,,,,,,,,,,,,,,,,,,,,,,,,,,,
,,64ac362b0979becb1044e190,2024-01-06_24h39.52.870,kallum_motion_pilot,2023.2.3,MacIntel,59.97361161,64ac362b0979becb1044e190,6598e6a5d84f07970b831e70,6598e79377b71480cf78df61,0.1349,0.1351,1,34,196,152,1,fivesix,,,,,,,,,,,,,,,,,,,,,,,,,,,,,,,,,,,,,,,,,,,,,,,,,,,,,,,,,,,,,,,,,,,,,,,,,,,,,,,,,,,,,,,,,,,,,,,,,,,,,,,,,,,,,,,,,,,,,,,,,,,,,,,,,,,,,,,
,,64ac362b0979becb1044e190,2024-01-06_24h39.52.870,kallum_motion_pilot,2023.2.3,MacIntel,59.97361161,64ac362b0979becb1044e190,6598e6a5d84f07970b831e70,6598e79377b71480cf78df61,0.1354,0.1356,1,35,197,44,1,threeone,,,,,,,,,,,,,,,,,,,,,,,,,,,,,,,,,,,,,,,,,,,,,,,,,,,,,,,,,,,,,,,,,,,,,,,,,,,,,,,,,,,,,,,,,,,,,,,,,,,,,,,,,,,,,,,,,,,,,,,,,,,,,,,,,,,,,,,
,,64ac362b0979becb1044e190,2024-01-06_24h39.52.870,kallum_motion_pilot,2023.2.3,MacIntel,59.97361161,64ac362b0979becb1044e190,6598e6a5d84f07970b831e70,6598e79377b71480cf78df61,0.1358,0.136,1,36,198,0,1,onetwo,,,,,,,,,,,,,,,,,,,,,,,,,,,,,,,,,,,,,,,,,,,,,,,,,,,,,,,,,,,,,,,,,,,,,,,,,,,,,,,,,,,,,,,,,,,,,,,,,,,,,,,,,,,,,,,,,,,,,,,,,,,,,,,,,,,,,,,
,,64ac362b0979becb1044e190,2024-01-06_24h39.52.870,kallum_motion_pilot,2023.2.3,MacIntel,59.97361161,64ac362b0979becb1044e190,6598e6a5d84f07970b831e70,6598e79377b71480cf78df61,0.1362,0.1364,1,37,199,72,1,onetwo,,,,,,,,,,,,,,,,,,,,,,,,,,,,,,,,,,,,,,,,,,,,,,,,,,,,,,,,,,,,,,,,,,,,,,,,,,,,,,,,,,,,,,,,,,,,,,,,,,,,,,,,,,,,,,,,,,,,,,,,,,,,,,,,,,,,,,,
,,64ac362b0979becb1044e190,2024-01-06_24h39.52.870,kallum_motion_pilot,2023.2.3,MacIntel,59.97361161,64ac362b0979becb1044e190,6598e6a5d84f07970b831e70,6598e79377b71480cf78df61,0.1367,0.1368,1,38,200,1,1,onethree,,,,,,,,,,,,,,,,,,,,,,,,,,,,,,,,,,,,,,,,,,,,,,,,,,,,,,,,,,,,,,,,,,,,,,,,,,,,,,,,,,,,,,,,,,,,,,,,,,,,,,,,,,,,,,,,,,,,,,,,,,,,,,,,,,,,,,,
,,64ac362b0979becb1044e190,2024-01-06_24h39.52.870,kallum_motion_pilot,2023.2.3,MacIntel,59.97361161,64ac362b0979becb1044e190,6598e6a5d84f07970b831e70,6598e79377b71480cf78df61,0.1372,0.1374,1,39,201,15,1,fourthree,,,,,,,,,,,,,,,,,,,,,,,,,,,,,,,,,,,,,,,,,,,,,,,,,,,,,,,,,,,,,,,,,,,,,,,,,,,,,,,,,,,,,,,,,,,,,,,,,,,,,,,,,,,,,,,,,,,,,,,,,,,,,,,,,,,,,,,
,,64ac362b0979becb1044e190,2024-01-06_24h39.52.870,kallum_motion_pilot,2023.2.3,MacIntel,59.97361161,64ac362b0979becb1044e190,6598e6a5d84f07970b831e70,6598e79377b71480cf78df61,0.1379,0.1381,1,40,202,89,1,fiveseven,,,,,,,,,,,,,,,,,,,,,,,,,,,,,,,,,,,,,,,,,,,,,,,,,,,,,,,,,,,,,,,,,,,,,,,,,,,,,,,,,,,,,,,,,,,,,,,,,,,,,,,,,,,,,,,,,,,,,,,,,,,,,,,,,,,,,,,
,,64ac362b0979becb1044e190,2024-01-06_24h39.52.870,kallum_motion_pilot,2023.2.3,MacIntel,59.97361161,64ac362b0979becb1044e190,6598e6a5d84f07970b831e70,6598e79377b71480cf78df61,0.1383,0.1385,1,41,203,125,1,seveneight,,,,,,,,,,,,,,,,,,,,,,,,,,,,,,,,,,,,,,,,,,,,,,,,,,,,,,,,,,,,,,,,,,,,,,,,,,,,,,,,,,,,,,,,,,,,,,,,,,,,,,,,,,,,,,,,,,,,,,,,,,,,,,,,,,,,,,,
,,64ac362b0979becb1044e190,2024-01-06_24h39.52.870,kallum_motion_pilot,2023.2.3,MacIntel,59.97361161,64ac362b0979becb1044e190,6598e6a5d84f07970b831e70,6598e79377b71480cf78df61,0.1387,0.1389,1,42,204,42,1,twoone,,,,,,,,,,,,,,,,,,,,,,,,,,,,,,,,,,,,,,,,,,,,,,,,,,,,,,,,,,,,,,,,,,,,,,,,,,,,,,,,,,,,,,,,,,,,,,,,,,,,,,,,,,,,,,,,,,,,,,,,,,,,,,,,,,,,,,,
,,64ac362b0979becb1044e190,2024-01-06_24h39.52.870,kallum_motion_pilot,2023.2.3,MacIntel,59.97361161,64ac362b0979becb1044e190,6598e6a5d84f07970b831e70,6598e79377b71480cf78df61,0.1391,0.1393,1,43,205,38,1,fourtwo,,,,,,,,,,,,,,,,,,,,,,,,,,,,,,,,,,,,,,,,,,,,,,,,,,,,,,,,,,,,,,,,,,,,,,,,,,,,,,,,,,,,,,,,,,,,,,,,,,,,,,,,,,,,,,,,,,,,,,,,,,,,,,,,,,,,,,,
,,64ac362b0979becb1044e190,2024-01-06_24h39.52.870,kallum_motion_pilot,2023.2.3,MacIntel,59.97361161,64ac362b0979becb1044e190,6598e6a5d84f07970b831e70,6598e79377b71480cf78df61,0.1396,0.1398,1,44,206,13,1,threefour,,,,,,,,,,,,,,,,,,,,,,,,,,,,,,,,,,,,,,,,,,,,,,,,,,,,,,,,,,,,,,,,,,,,,,,,,,,,,,,,,,,,,,,,,,,,,,,,,,,,,,,,,,,,,,,,,,,,,,,,,,,,,,,,,,,,,,,
,,64ac362b0979becb1044e190,2024-01-06_24h39.52.870,kallum_motion_pilot,2023.2.3,MacIntel,59.97361161,64ac362b0979becb1044e190,6598e6a5d84f07970b831e70,6598e79377b71480cf78df61,0.14,0.1402,1,45,207,159,1,eightseven,,,,,,,,,,,,,,,,,,,,,,,,,,,,,,,,,,,,,,,,,,,,,,,,,,,,,,,,,,,,,,,,,,,,,,,,,,,,,,,,,,,,,,,,,,,,,,,,,,,,,,,,,,,,,,,,,,,,,,,,,,,,,,,,,,,,,,,
,,64ac362b0979becb1044e190,2024-01-06_24h39.52.870,kallum_motion_pilot,2023.2.3,MacIntel,59.97361161,64ac362b0979becb1044e190,6598e6a5d84f07970b831e70,6598e79377b71480cf78df61,0.1404,0.1405,1,46,208,99,1,sixeight,,,,,,,,,,,,,,,,,,,,,,,,,,,,,,,,,,,,,,,,,,,,,,,,,,,,,,,,,,,,,,,,,,,,,,,,,,,,,,,,,,,,,,,,,,,,,,,,,,,,,,,,,,,,,,,,,,,,,,,,,,,,,,,,,,,,,,,
,,64ac362b0979becb1044e190,2024-01-06_24h39.52.870,kallum_motion_pilot,2023.2.3,MacIntel,59.97361161,64ac362b0979becb1044e190,6598e6a5d84f07970b831e70,6598e79377b71480cf78df61,0.1407,0.1409,1,47,209,6,1,fourtwo,,,,,,,,,,,,,,,,,,,,,,,,,,,,,,,,,,,,,,,,,,,,,,,,,,,,,,,,,,,,,,,,,,,,,,,,,,,,,,,,,,,,,,,,,,,,,,,,,,,,,,,,,,,,,,,,,,,,,,,,,,,,,,,,,,,,,,,
,,64ac362b0979becb1044e190,2024-01-06_24h39.52.870,kallum_motion_pilot,2023.2.3,MacIntel,59.97361161,64ac362b0979becb1044e190,6598e6a5d84f07970b831e70,6598e79377b71480cf78df61,0.1411,0.1412,1,48,210,84,1,sevenfive,,,,,,,,,,,,,,,,,,,,,,,,,,,,,,,,,,,,,,,,,,,,,,,,,,,,,,,,,,,,,,,,,,,,,,,,,,,,,,,,,,,,,,,,,,,,,,,,,,,,,,,,,,,,,,,,,,,,,,,,,,,,,,,,,,,,,,,
,,64ac362b0979becb1044e190,2024-01-06_24h39.52.870,kallum_motion_pilot,2023.2.3,MacIntel,59.97361161,64ac362b0979becb1044e190,6598e6a5d84f07970b831e70,6598e79377b71480cf78df61,0.1415,0.1416,1,49,211,129,1,fiveseven,,,,,,,,,,,,,,,,,,,,,,,,,,,,,,,,,,,,,,,,,,,,,,,,,,,,,,,,,,,,,,,,,,,,,,,,,,,,,,,,,,,,,,,,,,,,,,,,,,,,,,,,,,,,,,,,,,,,,,,,,,,,,,,,,,,,,,,
,,64ac362b0979becb1044e190,2024-01-06_24h39.52.870,kallum_motion_pilot,2023.2.3,MacIntel,59.97361161,64ac362b0979becb1044e190,6598e6a5d84f07970b831e70,6598e79377b71480cf78df61,0.1421,0.1423,1,50,212,83,1,sixeight,,,,,,,,,,,,,,,,,,,,,,,,,,,,,,,,,,,,,,,,,,,,,,,,,,,,,,,,,,,,,,,,,,,,,,,,,,,,,,,,,,,,,,,,,,,,,,,,,,,,,,,,,,,,,,,,,,,,,,,,,,,,,,,,,,,,,,,
,,64ac362b0979becb1044e190,2024-01-06_24h39.52.870,kallum_motion_pilot,2023.2.3,MacIntel,59.97361161,64ac362b0979becb1044e190,6598e6a5d84f07970b831e70,6598e79377b71480cf78df61,0.1425,0.1427,1,51,213,2,1,twoone,,,,,,,,,,,,,,,,,,,,,,,,,,,,,,,,,,,,,,,,,,,,,,,,,,,,,,,,,,,,,,,,,,,,,,,,,,,,,,,,,,,,,,,,,,,,,,,,,,,,,,,,,,,,,,,,,,,,,,,,,,,,,,,,,,,,,,,
,,64ac362b0979becb1044e190,2024-01-06_24h39.52.870,kallum_motion_pilot,2023.2.3,MacIntel,59.97361161,64ac362b0979becb1044e190,6598e6a5d84f07970b831e70,6598e79377b71480cf78df61,0.1429,0.1431,1,52,214,151,1,eightseven,,,,,,,,,,,,,,,,,,,,,,,,,,,,,,,,,,,,,,,,,,,,,,,,,,,,,,,,,,,,,,,,,,,,,,,,,,,,,,,,,,,,,,,,,,,,,,,,,,,,,,,,,,,,,,,,,,,,,,,,,,,,,,,,,,,,,,,
,,64ac362b0979becb1044e190,2024-01-06_24h39.52.870,kallum_motion_pilot,2023.2.3,MacIntel,59.97361161,64ac362b0979becb1044e190,6598e6a5d84f07970b831e70,6598e79377b71480cf78df61,0.1435,0.1437,1,53,215,121,1,fiveseven,,,,,,,,,,,,,,,,,,,,,,,,,,,,,,,,,,,,,,,,,,,,,,,,,,,,,,,,,,,,,,,,,,,,,,,,,,,,,,,,,,,,,,,,,,,,,,,,,,,,,,,,,,,,,,,,,,,,,,,,,,,,,,,,,,,,,,,
,,64ac362b0979becb1044e190,2024-01-06_24h39.52.870,kallum_motion_pilot,2023.2.3,MacIntel,59.97361161,64ac362b0979becb1044e190,6598e6a5d84f07970b831e70,6598e79377b71480cf78df61,0.144,0.1442,1,54,216,118,1,eightsix,,,,,,,,,,,,,,,,,,,,,,,,,,,,,,,,,,,,,,,,,,,,,,,,,,,,,,,,,,,,,,,,,,,,,,,,,,,,,,,,,,,,,,,,,,,,,,,,,,,,,,,,,,,,,,,,,,,,,,,,,,,,,,,,,,,,,,,
,,64ac362b0979becb1044e190,2024-01-06_24h39.52.870,kallum_motion_pilot,2023.2.3,MacIntel,59.97361161,64ac362b0979becb1044e190,6598e6a5d84f07970b831e70,6598e79377b71480cf78df61,0.1445,0.1446,1,55,217,50,1,twoone,,,,,,,,,,,,,,,,,,,,,,,,,,,,,,,,,,,,,,,,,,,,,,,,,,,,,,,,,,,,,,,,,,,,,,,,,,,,,,,,,,,,,,,,,,,,,,,,,,,,,,,,,,,,,,,,,,,,,,,,,,,,,,,,,,,,,,,
,,64ac362b0979becb1044e190,2024-01-06_24h39.52.870,kallum_motion_pilot,2023.2.3,MacIntel,59.97361161,64ac362b0979becb1044e190,6598e6a5d84f07970b831e70,6598e79377b71480cf78df61,0.145,0.1451,1,56,218,61,1,threefour,,,,,,,,,,,,,,,,,,,,,,,,,,,,,,,,,,,,,,,,,,,,,,,,,,,,,,,,,,,,,,,,,,,,,,,,,,,,,,,,,,,,,,,,,,,,,,,,,,,,,,,,,,,,,,,,,,,,,,,,,,,,,,,,,,,,,,,
,,64ac362b0979becb1044e190,2024-01-06_24h39.52.870,kallum_motion_pilot,2023.2.3,MacIntel,59.97361161,64ac362b0979becb1044e190,6598e6a5d84f07970b831e70,6598e79377b71480cf78df61,0.1454,0.1459,1,57,219,10,1,twoone,,,,,,,,,,,,,,,,,,,,,,,,,,,,,,,,,,,,,,,,,,,,,,,,,,,,,,,,,,,,,,,,,,,,,,,,,,,,,,,,,,,,,,,,,,,,,,,,,,,,,,,,,,,,,,,,,,,,,,,,,,,,,,,,,,,,,,,
,,64ac362b0979becb1044e190,2024-01-06_24h39.52.870,kallum_motion_pilot,2023.2.3,MacIntel,59.97361161,64ac362b0979becb1044e190,6598e6a5d84f07970b831e70,6598e79377b71480cf78df61,0.1467,0.147,1,58,220,54,1,fourtwo,,,,,,,,,,,,,,,,,,,,,,,,,,,,,,,,,,,,,,,,,,,,,,,,,,,,,,,,,,,,,,,,,,,,,,,,,,,,,,,,,,,,,,,,,,,,,,,,,,,,,,,,,,,,,,,,,,,,,,,,,,,,,,,,,,,,,,,
,,64ac362b0979becb1044e190,2024-01-06_24h39.52.870,kallum_motion_pilot,2023.2.3,MacIntel,59.97361161,64ac362b0979becb1044e190,6598e6a5d84f07970b831e70,6598e79377b71480cf78df61,0.1477,0.1481,1,59,221,161,1,fiveseven,,,,,,,,,,,,,,,,,,,,,,,,,,,,,,,,,,,,,,,,,,,,,,,,,,,,,,,,,,,,,,,,,,,,,,,,,,,,,,,,,,,,,,,,,,,,,,,,,,,,,,,,,,,,,,,,,,,,,,,,,,,,,,,,,,,,,,,
,,64ac362b0979becb1044e190,2024-01-06_24h39.52.870,kallum_motion_pilot,2023.2.3,MacIntel,59.97361161,64ac362b0979becb1044e190,6598e6a5d84f07970b831e70,6598e79377b71480cf78df61,0.1484,0.1486,1,60,222,40,1,onetwo,,,,,,,,,,,,,,,,,,,,,,,,,,,,,,,,,,,,,,,,,,,,,,,,,,,,,,,,,,,,,,,,,,,,,,,,,,,,,,,,,,,,,,,,,,,,,,,,,,,,,,,,,,,,,,,,,,,,,,,,,,,,,,,,,,,,,,,
,,64ac362b0979becb1044e190,2024-01-06_24h39.52.870,kallum_motion_pilot,2023.2.3,MacIntel,59.97361161,64ac362b0979becb1044e190,6598e6a5d84f07970b831e70,6598e79377b71480cf78df61,0.1489,0.1491,1,61,223,108,1,sevenfive,,,,,,,,,,,,,,,,,,,,,,,,,,,,,,,,,,,,,,,,,,,,,,,,,,,,,,,,,,,,,,,,,,,,,,,,,,,,,,,,,,,,,,,,,,,,,,,,,,,,,,,,,,,,,,,,,,,,,,,,,,,,,,,,,,,,,,,
,,64ac362b0979becb1044e190,2024-01-06_24h39.52.870,kallum_motion_pilot,2023.2.3,MacIntel,59.97361161,64ac362b0979becb1044e190,6598e6a5d84f07970b831e70,6598e79377b71480cf78df61,0.1495,0.1497,1,62,224,93,1,seveneight,,,,,,,,,,,,,,,,,,,,,,,,,,,,,,,,,,,,,,,,,,,,,,,,,,,,,,,,,,,,,,,,,,,,,,,,,,,,,,,,,,,,,,,,,,,,,,,,,,,,,,,,,,,,,,,,,,,,,,,,,,,,,,,,,,,,,,,
,,64ac362b0979becb1044e190,2024-01-06_24h39.52.870,kallum_motion_pilot,2023.2.3,MacIntel,59.97361161,64ac362b0979becb1044e190,6598e6a5d84f07970b831e70,6598e79377b71480cf78df61,0.1499,0.1501,1,63,225,17,1,onethree,,,,,,,,,,,,,,,,,,,,,,,,,,,,,,,,,,,,,,,,,,,,,,,,,,,,,,,,,,,,,,,,,,,,,,,,,,,,,,,,,,,,,,,,,,,,,,,,,,,,,,,,,,,,,,,,,,,,,,,,,,,,,,,,,,,,,,,
,,64ac362b0979becb1044e190,2024-01-06_24h39.52.870,kallum_motion_pilot,2023.2.3,MacIntel,59.97361161,64ac362b0979becb1044e190,6598e6a5d84f07970b831e70,6598e79377b71480cf78df61,0.1503,0.1505,1,64,226,101,1,seveneight,,,,,,,,,,,,,,,,,,,,,,,,,,,,,,,,,,,,,,,,,,,,,,,,,,,,,,,,,,,,,,,,,,,,,,,,,,,,,,,,,,,,,,,,,,,,,,,,,,,,,,,,,,,,,,,,,,,,,,,,,,,,,,,,,,,,,,,
,,64ac362b0979becb1044e190,2024-01-06_24h39.52.870,kallum_motion_pilot,2023.2.3,MacIntel,59.97361161,64ac362b0979becb1044e190,6598e6a5d84f07970b831e70,6598e79377b71480cf78df61,0.1508,0.151,1,65,227,133,1,seveneight,,,,,,,,,,,,,,,,,,,,,,,,,,,,,,,,,,,,,,,,,,,,,,,,,,,,,,,,,,,,,,,,,,,,,,,,,,,,,,,,,,,,,,,,,,,,,,,,,,,,,,,,,,,,,,,,,,,,,,,,,,,,,,,,,,,,,,,
,,64ac362b0979becb1044e190,2024-01-06_24h39.52.870,kallum_motion_pilot,2023.2.3,MacIntel,59.97361161,64ac362b0979becb1044e190,6598e6a5d84f07970b831e70,6598e79377b71480cf78df61,0.1512,0.1514,1,66,228,91,1,sixeight,,,,,,,,,,,,,,,,,,,,,,,,,,,,,,,,,,,,,,,,,,,,,,,,,,,,,,,,,,,,,,,,,,,,,,,,,,,,,,,,,,,,,,,,,,,,,,,,,,,,,,,,,,,,,,,,,,,,,,,,,,,,,,,,,,,,,,,
,,64ac362b0979becb1044e190,2024-01-06_24h39.52.870,kallum_motion_pilot,2023.2.3,MacIntel,59.97361161,64ac362b0979becb1044e190,6598e6a5d84f07970b831e70,6598e79377b71480cf78df61,0.1516,0.1518,1,67,229,124,1,sevenfive,,,,,,,,,,,,,,,,,,,,,,,,,,,,,,,,,,,,,,,,,,,,,,,,,,,,,,,,,,,,,,,,,,,,,,,,,,,,,,,,,,,,,,,,,,,,,,,,,,,,,,,,,,,,,,,,,,,,,,,,,,,,,,,,,,,,,,,
,,64ac362b0979becb1044e190,2024-01-06_24h39.52.870,kallum_motion_pilot,2023.2.3,MacIntel,59.97361161,64ac362b0979becb1044e190,6598e6a5d84f07970b831e70,6598e79377b71480cf78df61,0.152,0.1522,1,68,230,78,1,fourtwo,,,,,,,,,,,,,,,,,,,,,,,,,,,,,,,,,,,,,,,,,,,,,,,,,,,,,,,,,,,,,,,,,,,,,,,,,,,,,,,,,,,,,,,,,,,,,,,,,,,,,,,,,,,,,,,,,,,,,,,,,,,,,,,,,,,,,,,
,,64ac362b0979becb1044e190,2024-01-06_24h39.52.870,kallum_motion_pilot,2023.2.3,MacIntel,59.97361161,64ac362b0979becb1044e190,6598e6a5d84f07970b831e70,6598e79377b71480cf78df61,0.1524,0.1526,1,69,231,156,1,sevenfive,,,,,,,,,,,,,,,,,,,,,,,,,,,,,,,,,,,,,,,,,,,,,,,,,,,,,,,,,,,,,,,,,,,,,,,,,,,,,,,,,,,,,,,,,,,,,,,,,,,,,,,,,,,,,,,,,,,,,,,,,,,,,,,,,,,,,,,
,,64ac362b0979becb1044e190,2024-01-06_24h39.52.870,kallum_motion_pilot,2023.2.3,MacIntel,59.97361161,64ac362b0979becb1044e190,6598e6a5d84f07970b831e70,6598e79377b71480cf78df61,0.1528,0.1529,1,70,232,73,1,onethree,,,,,,,,,,,,,,,,,,,,,,,,,,,,,,,,,,,,,,,,,,,,,,,,,,,,,,,,,,,,,,,,,,,,,,,,,,,,,,,,,,,,,,,,,,,,,,,,,,,,,,,,,,,,,,,,,,,,,,,,,,,,,,,,,,,,,,,
,,64ac362b0979becb1044e190,2024-01-06_24h39.52.870,kallum_motion_pilot,2023.2.3,MacIntel,59.97361161,64ac362b0979becb1044e190,6598e6a5d84f07970b831e70,6598e79377b71480cf78df61,0.1532,0.1534,1,71,233,109,1,seveneight,,,,,,,,,,,,,,,,,,,,,,,,,,,,,,,,,,,,,,,,,,,,,,,,,,,,,,,,,,,,,,,,,,,,,,,,,,,,,,,,,,,,,,,,,,,,,,,,,,,,,,,,,,,,,,,,,,,,,,,,,,,,,,,,,,,,,,,
,,64ac362b0979becb1044e190,2024-01-06_24h39.52.870,kallum_motion_pilot,2023.2.3,MacIntel,59.97361161,64ac362b0979becb1044e190,6598e6a5d84f07970b831e70,6598e79377b71480cf78df61,0.1536,0.1537,1,72,234,35,1,twofour,,,,,,,,,,,,,,,,,,,,,,,,,,,,,,,,,,,,,,,,,,,,,,,,,,,,,,,,,,,,,,,,,,,,,,,,,,,,,,,,,,,,,,,,,,,,,,,,,,,,,,,,,,,,,,,,,,,,,,,,,,,,,,,,,,,,,,,
,,64ac362b0979becb1044e190,2024-01-06_24h39.52.870,kallum_motion_pilot,2023.2.3,MacIntel,59.97361161,64ac362b0979becb1044e190,6598e6a5d84f07970b831e70,6598e79377b71480cf78df61,0.154,0.1542,1,73,235,64,1,onetwo,,,,,,,,,,,,,,,,,,,,,,,,,,,,,,,,,,,,,,,,,,,,,,,,,,,,,,,,,,,,,,,,,,,,,,,,,,,,,,,,,,,,,,,,,,,,,,,,,,,,,,,,,,,,,,,,,,,,,,,,,,,,,,,,,,,,,,,
,,64ac362b0979becb1044e190,2024-01-06_24h39.52.870,kallum_motion_pilot,2023.2.3,MacIntel,59.97361161,64ac362b0979becb1044e190,6598e6a5d84f07970b831e70,6598e79377b71480cf78df61,0.1544,0.1546,1,74,236,106,1,sixfive,,,,,,,,,,,,,,,,,,,,,,,,,,,,,,,,,,,,,,,,,,,,,,,,,,,,,,,,,,,,,,,,,,,,,,,,,,,,,,,,,,,,,,,,,,,,,,,,,,,,,,,,,,,,,,,,,,,,,,,,,,,,,,,,,,,,,,,
,,64ac362b0979becb1044e190,2024-01-06_24h39.52.870,kallum_motion_pilot,2023.2.3,MacIntel,59.97361161,64ac362b0979becb1044e190,6598e6a5d84f07970b831e70,6598e79377b71480cf78df61,0.1548,0.155,1,75,237,19,1,twofour,,,,,,,,,,,,,,,,,,,,,,,,,,,,,,,,,,,,,,,,,,,,,,,,,,,,,,,,,,,,,,,,,,,,,,,,,,,,,,,,,,,,,,,,,,,,,,,,,,,,,,,,,,,,,,,,,,,,,,,,,,,,,,,,,,,,,,,
,,64ac362b0979becb1044e190,2024-01-06_24h39.52.870,kallum_motion_pilot,2023.2.3,MacIntel,59.97361161,64ac362b0979becb1044e190,6598e6a5d84f07970b831e70,6598e79377b71480cf78df61,0.1553,0.1554,1,76,238,27,1,twofour,,,,,,,,,,,,,,,,,,,,,,,,,,,,,,,,,,,,,,,,,,,,,,,,,,,,,,,,,,,,,,,,,,,,,,,,,,,,,,,,,,,,,,,,,,,,,,,,,,,,,,,,,,,,,,,,,,,,,,,,,,,,,,,,,,,,,,,
,,64ac362b0979becb1044e190,2024-01-06_24h39.52.870,kallum_motion_pilot,2023.2.3,MacIntel,59.97361161,64ac362b0979becb1044e190,6598e6a5d84f07970b831e70,6598e79377b71480cf78df61,0.1557,0.1559,1,77,239,149,1,seveneight,,,,,,,,,,,,,,,,,,,,,,,,,,,,,,,,,,,,,,,,,,,,,,,,,,,,,,,,,,,,,,,,,,,,,,,,,,,,,,,,,,,,,,,,,,,,,,,,,,,,,,,,,,,,,,,,,,,,,,,,,,,,,,,,,,,,,,,
,,64ac362b0979becb1044e190,2024-01-06_24h39.52.870,kallum_motion_pilot,2023.2.3,MacIntel,59.97361161,64ac362b0979becb1044e190,6598e6a5d84f07970b831e70,6598e79377b71480cf78df61,0.1562,0.1563,1,78,240,46,1,fourtwo,,,,,,,,,,,,,,,,,,,,,,,,,,,,,,,,,,,,,,,,,,,,,,,,,,,,,,,,,,,,,,,,,,,,,,,,,,,,,,,,,,,,,,,,,,,,,,,,,,,,,,,,,,,,,,,,,,,,,,,,,,,,,,,,,,,,,,,
,,64ac362b0979becb1044e190,2024-01-06_24h39.52.870,kallum_motion_pilot,2023.2.3,MacIntel,59.97361161,64ac362b0979becb1044e190,6598e6a5d84f07970b831e70,6598e79377b71480cf78df61,0.1565,0.1567,1,79,241,18,1,twoone,,,,,,,,,,,,,,,,,,,,,,,,,,,,,,,,,,,,,,,,,,,,,,,,,,,,,,,,,,,,,,,,,,,,,,,,,,,,,,,,,,,,,,,,,,,,,,,,,,,,,,,,,,,,,,,,,,,,,,,,,,,,,,,,,,,,,,,
,,64ac362b0979becb1044e190,2024-01-06_24h39.52.870,kallum_motion_pilot,2023.2.3,MacIntel,59.97361161,64ac362b0979becb1044e190,6598e6a5d84f07970b831e70,6598e79377b71480cf78df61,0.157,0.1572,1,80,242,126,1,eightsix,,,,,,,,,,,,,,,,,,,,,,,,,,,,,,,,,,,,,,,,,,,,,,,,,,,,,,,,,,,,,,,,,,,,,,,,,,,,,,,,,,,,,,,,,,,,,,,,,,,,,,,,,,,,,,,,,,,,,,,,,,,,,,,,,,,,,,,
,,64ac362b0979becb1044e190,2024-01-06_24h39.52.870,kallum_motion_pilot,2023.2.3,MacIntel,59.97361161,64ac362b0979becb1044e190,6598e6a5d84f07970b831e70,6598e79377b71480cf78df61,0.1575,0.1575,1,81,243,47,1,fourthree,,,,,,,,,,,,,,,,,,,,,,,,,,,,,,,,,,,,,,,,,,,,,,,,,,,,,,,,,,,,,,,,,,,,,,,,,,,,,,,,,,,,,,,,,,,,,,,,,,,,,,,,,,,,,,,,,,,,,,,,,,,,,,,,,,,,,,,
,,64ac362b0979becb1044e190,2024-01-06_24h39.52.870,kallum_motion_pilot,2023.2.3,MacIntel,59.97361161,64ac362b0979becb1044e190,6598e6a5d84f07970b831e70,6598e79377b71480cf78df61,0.1578,0.158,1,82,244,85,1,seveneight,,,,,,,,,,,,,,,,,,,,,,,,,,,,,,,,,,,,,,,,,,,,,,,,,,,,,,,,,,,,,,,,,,,,,,,,,,,,,,,,,,,,,,,,,,,,,,,,,,,,,,,,,,,,,,,,,,,,,,,,,,,,,,,,,,,,,,,
,,64ac362b0979becb1044e190,2024-01-06_24h39.52.870,kallum_motion_pilot,2023.2.3,MacIntel,59.97361161,64ac362b0979becb1044e190,6598e6a5d84f07970b831e70,6598e79377b71480cf78df61,0.1582,0.1583,1,83,245,9,1,onethree,,,,,,,,,,,,,,,,,,,,,,,,,,,,,,,,,,,,,,,,,,,,,,,,,,,,,,,,,,,,,,,,,,,,,,,,,,,,,,,,,,,,,,,,,,,,,,,,,,,,,,,,,,,,,,,,,,,,,,,,,,,,,,,,,,,,,,,
,,64ac362b0979becb1044e190,2024-01-06_24h39.52.870,kallum_motion_pilot,2023.2.3,MacIntel,59.97361161,64ac362b0979becb1044e190,6598e6a5d84f07970b831e70,6598e79377b71480cf78df61,0.1585,0.1586,1,84,246,16,1,onetwo,,,,,,,,,,,,,,,,,,,,,,,,,,,,,,,,,,,,,,,,,,,,,,,,,,,,,,,,,,,,,,,,,,,,,,,,,,,,,,,,,,,,,,,,,,,,,,,,,,,,,,,,,,,,,,,,,,,,,,,,,,,,,,,,,,,,,,,
,,64ac362b0979becb1044e190,2024-01-06_24h39.52.870,kallum_motion_pilot,2023.2.3,MacIntel,59.97361161,64ac362b0979becb1044e190,6598e6a5d84f07970b831e70,6598e79377b71480cf78df61,0.1589,0.1591,1,85,247,112,1,fivesix,,,,,,,,,,,,,,,,,,,,,,,,,,,,,,,,,,,,,,,,,,,,,,,,,,,,,,,,,,,,,,,,,,,,,,,,,,,,,,,,,,,,,,,,,,,,,,,,,,,,,,,,,,,,,,,,,,,,,,,,,,,,,,,,,,,,,,,
,,64ac362b0979becb1044e190,2024-01-06_24h39.52.870,kallum_motion_pilot,2023.2.3,MacIntel,59.97361161,64ac362b0979becb1044e190,6598e6a5d84f07970b831e70,6598e79377b71480cf78df61,0.1594,0.1595,1,86,248,71,1,fourthree,,,,,,,,,,,,,,,,,,,,,,,,,,,,,,,,,,,,,,,,,,,,,,,,,,,,,,,,,,,,,,,,,,,,,,,,,,,,,,,,,,,,,,,,,,,,,,,,,,,,,,,,,,,,,,,,,,,,,,,,,,,,,,,,,,,,,,,
,,64ac362b0979becb1044e190,2024-01-06_24h39.52.870,kallum_motion_pilot,2023.2.3,MacIntel,59.97361161,64ac362b0979becb1044e190,6598e6a5d84f07970b831e70,6598e79377b71480cf78df61,0.1598,0.1599,1,87,249,37,1,threefour,,,,,,,,,,,,,,,,,,,,,,,,,,,,,,,,,,,,,,,,,,,,,,,,,,,,,,,,,,,,,,,,,,,,,,,,,,,,,,,,,,,,,,,,,,,,,,,,,,,,,,,,,,,,,,,,,,,,,,,,,,,,,,,,,,,,,,,
,,64ac362b0979becb1044e190,2024-01-06_24h39.52.870,kallum_motion_pilot,2023.2.3,MacIntel,59.97361161,64ac362b0979becb1044e190,6598e6a5d84f07970b831e70,6598e79377b71480cf78df61,0.1602,0.1604,1,88,250,116,1,sevenfive,,,,,,,,,,,,,,,,,,,,,,,,,,,,,,,,,,,,,,,,,,,,,,,,,,,,,,,,,,,,,,,,,,,,,,,,,,,,,,,,,,,,,,,,,,,,,,,,,,,,,,,,,,,,,,,,,,,,,,,,,,,,,,,,,,,,,,,
,,64ac362b0979becb1044e190,2024-01-06_24h39.52.870,kallum_motion_pilot,2023.2.3,MacIntel,59.97361161,64ac362b0979becb1044e190,6598e6a5d84f07970b831e70,6598e79377b71480cf78df61,0.1607,0.1609,1,89,251,53,1,threefour,,,,,,,,,,,,,,,,,,,,,,,,,,,,,,,,,,,,,,,,,,,,,,,,,,,,,,,,,,,,,,,,,,,,,,,,,,,,,,,,,,,,,,,,,,,,,,,,,,,,,,,,,,,,,,,,,,,,,,,,,,,,,,,,,,,,,,,
,,64ac362b0979becb1044e190,2024-01-06_24h39.52.870,kallum_motion_pilot,2023.2.3,MacIntel,59.97361161,64ac362b0979becb1044e190,6598e6a5d84f07970b831e70,6598e79377b71480cf78df61,0.1612,0.1615,1,90,252,45,1,threefour,,,,,,,,,,,,,,,,,,,,,,,,,,,,,,,,,,,,,,,,,,,,,,,,,,,,,,,,,,,,,,,,,,,,,,,,,,,,,,,,,,,,,,,,,,,,,,,,,,,,,,,,,,,,,,,,,,,,,,,,,,,,,,,,,,,,,,,
,,64ac362b0979becb1044e190,2024-01-06_24h39.52.870,kallum_motion_pilot,2023.2.3,MacIntel,59.97361161,64ac362b0979becb1044e190,6598e6a5d84f07970b831e70,6598e79377b71480cf78df61,0.1617,0.1619,1,91,253,137,1,fiveseven,,,,,,,,,,,,,,,,,,,,,,,,,,,,,,,,,,,,,,,,,,,,,,,,,,,,,,,,,,,,,,,,,,,,,,,,,,,,,,,,,,,,,,,,,,,,,,,,,,,,,,,,,,,,,,,,,,,,,,,,,,,,,,,,,,,,,,,
,,64ac362b0979becb1044e190,2024-01-06_24h39.52.870,kallum_motion_pilot,2023.2.3,MacIntel,59.97361161,64ac362b0979becb1044e190,6598e6a5d84f07970b831e70,6598e79377b71480cf78df61,0.1621,0.1623,1,92,254,102,1,eightsix,,,,,,,,,,,,,,,,,,,,,,,,,,,,,,,,,,,,,,,,,,,,,,,,,,,,,,,,,,,,,,,,,,,,,,,,,,,,,,,,,,,,,,,,,,,,,,,,,,,,,,,,,,,,,,,,,,,,,,,,,,,,,,,,,,,,,,,
,,64ac362b0979becb1044e190,2024-01-06_24h39.52.870,kallum_motion_pilot,2023.2.3,MacIntel,59.97361161,64ac362b0979becb1044e190,6598e6a5d84f07970b831e70,6598e79377b71480cf78df61,0.1629,0.1632,1,93,255,134,1,eightsix,,,,,,,,,,,,,,,,,,,,,,,,,,,,,,,,,,,,,,,,,,,,,,,,,,,,,,,,,,,,,,,,,,,,,,,,,,,,,,,,,,,,,,,,,,,,,,,,,,,,,,,,,,,,,,,,,,,,,,,,,,,,,,,,,,,,,,,
,,64ac362b0979becb1044e190,2024-01-06_24h39.52.870,kallum_motion_pilot,2023.2.3,MacIntel,59.97361161,64ac362b0979becb1044e190,6598e6a5d84f07970b831e70,6598e79377b71480cf78df61,0.1639,0.1642,1,94,256,147,1,sixeight,,,,,,,,,,,,,,,,,,,,,,,,,,,,,,,,,,,,,,,,,,,,,,,,,,,,,,,,,,,,,,,,,,,,,,,,,,,,,,,,,,,,,,,,,,,,,,,,,,,,,,,,,,,,,,,,,,,,,,,,,,,,,,,,,,,,,,,
,,64ac362b0979becb1044e190,2024-01-06_24h39.52.870,kallum_motion_pilot,2023.2.3,MacIntel,59.97361161,64ac362b0979becb1044e190,6598e6a5d84f07970b831e70,6598e79377b71480cf78df61,0.1647,0.165,1,95,257,28,1,threeone,,,,,,,,,,,,,,,,,,,,,,,,,,,,,,,,,,,,,,,,,,,,,,,,,,,,,,,,,,,,,,,,,,,,,,,,,,,,,,,,,,,,,,,,,,,,,,,,,,,,,,,,,,,,,,,,,,,,,,,,,,,,,,,,,,,,,,,
,,64ac362b0979becb1044e190,2024-01-06_24h39.52.870,kallum_motion_pilot,2023.2.3,MacIntel,59.97361161,64ac362b0979becb1044e190,6598e6a5d84f07970b831e70,6598e79377b71480cf78df61,0.1653,0.1656,1,96,258,31,1,fourthree,,,,,,,,,,,,,,,,,,,,,,,,,,,,,,,,,,,,,,,,,,,,,,,,,,,,,,,,,,,,,,,,,,,,,,,,,,,,,,,,,,,,,,,,,,,,,,,,,,,,,,,,,,,,,,,,,,,,,,,,,,,,,,,,,,,,,,,
,,64ac362b0979becb1044e190,2024-01-06_24h39.52.870,kallum_motion_pilot,2023.2.3,MacIntel,59.97361161,64ac362b0979becb1044e190,6598e6a5d84f07970b831e70,6598e79377b71480cf78df61,0.1658,0.166,1,97,259,7,1,fourthree,,,,,,,,,,,,,,,,,,,,,,,,,,,,,,,,,,,,,,,,,,,,,,,,,,,,,,,,,,,,,,,,,,,,,,,,,,,,,,,,,,,,,,,,,,,,,,,,,,,,,,,,,,,,,,,,,,,,,,,,,,,,,,,,,,,,,,,
,,64ac362b0979becb1044e190,2024-01-06_24h39.52.870,kallum_motion_pilot,2023.2.3,MacIntel,59.97361161,64ac362b0979becb1044e190,6598e6a5d84f07970b831e70,6598e79377b71480cf78df61,0.1663,0.1664,1,98,260,157,1,seveneight,,,,,,,,,,,,,,,,,,,,,,,,,,,,,,,,,,,,,,,,,,,,,,,,,,,,,,,,,,,,,,,,,,,,,,,,,,,,,,,,,,,,,,,,,,,,,,,,,,,,,,,,,,,,,,,,,,,,,,,,,,,,,,,,,,,,,,,
,,64ac362b0979becb1044e190,2024-01-06_24h39.52.870,kallum_motion_pilot,2023.2.3,MacIntel,59.97361161,64ac362b0979becb1044e190,6598e6a5d84f07970b831e70,6598e79377b71480cf78df61,0.1669,0.167,1,99,261,62,1,fourtwo,,,,,,,,,,,,,,,,,,,,,,,,,,,,,,,,,,,,,,,,,,,,,,,,,,,,,,,,,,,,,,,,,,,,,,,,,,,,,,,,,,,,,,,,,,,,,,,,,,,,,,,,,,,,,,,,,,,,,,,,,,,,,,,,,,,,,,,
,,64ac362b0979becb1044e190,2024-01-06_24h39.52.870,kallum_motion_pilot,2023.2.3,MacIntel,59.97361161,64ac362b0979becb1044e190,6598e6a5d84f07970b831e70,6598e79377b71480cf78df61,0.1673,0.1675,1,100,262,69,1,threefour,,,,,,,,,,,,,,,,,,,,,,,,,,,,,,,,,,,,,,,,,,,,,,,,,,,,,,,,,,,,,,,,,,,,,,,,,,,,,,,,,,,,,,,,,,,,,,,,,,,,,,,,,,,,,,,,,,,,,,,,,,,,,,,,,,,,,,,
,,64ac362b0979becb1044e190,2024-01-06_24h39.52.870,kallum_motion_pilot,2023.2.3,MacIntel,59.97361161,64ac362b0979becb1044e190,6598e6a5d84f07970b831e70,6598e79377b71480cf78df61,0.1678,0.1679,1,101,263,21,1,threefour,,,,,,,,,,,,,,,,,,,,,,,,,,,,,,,,,,,,,,,,,,,,,,,,,,,,,,,,,,,,,,,,,,,,,,,,,,,,,,,,,,,,,,,,,,,,,,,,,,,,,,,,,,,,,,,,,,,,,,,,,,,,,,,,,,,,,,,
,,64ac362b0979becb1044e190,2024-01-06_24h39.52.870,kallum_motion_pilot,2023.2.3,MacIntel,59.97361161,64ac362b0979becb1044e190,6598e6a5d84f07970b831e70,6598e79377b71480cf78df61,0.1681,0.1683,1,102,264,95,1,eightseven,,,,,,,,,,,,,,,,,,,,,,,,,,,,,,,,,,,,,,,,,,,,,,,,,,,,,,,,,,,,,,,,,,,,,,,,,,,,,,,,,,,,,,,,,,,,,,,,,,,,,,,,,,,,,,,,,,,,,,,,,,,,,,,,,,,,,,,
,,64ac362b0979becb1044e190,2024-01-06_24h39.52.870,kallum_motion_pilot,2023.2.3,MacIntel,59.97361161,64ac362b0979becb1044e190,6598e6a5d84f07970b831e70,6598e79377b71480cf78df61,0.1686,0.1687,1,103,265,155,1,sixeight,,,,,,,,,,,,,,,,,,,,,,,,,,,,,,,,,,,,,,,,,,,,,,,,,,,,,,,,,,,,,,,,,,,,,,,,,,,,,,,,,,,,,,,,,,,,,,,,,,,,,,,,,,,,,,,,,,,,,,,,,,,,,,,,,,,,,,,
,,64ac362b0979becb1044e190,2024-01-06_24h39.52.870,kallum_motion_pilot,2023.2.3,MacIntel,59.97361161,64ac362b0979becb1044e190,6598e6a5d84f07970b831e70,6598e79377b71480cf78df61,0.169,0.1692,1,104,266,98,1,sixfive,,,,,,,,,,,,,,,,,,,,,,,,,,,,,,,,,,,,,,,,,,,,,,,,,,,,,,,,,,,,,,,,,,,,,,,,,,,,,,,,,,,,,,,,,,,,,,,,,,,,,,,,,,,,,,,,,,,,,,,,,,,,,,,,,,,,,,,
,,64ac362b0979becb1044e190,2024-01-06_24h39.52.870,kallum_motion_pilot,2023.2.3,MacIntel,59.97361161,64ac362b0979becb1044e190,6598e6a5d84f07970b831e70,6598e79377b71480cf78df61,0.1695,0.1695,1,105,267,107,1,sixeight,,,,,,,,,,,,,,,,,,,,,,,,,,,,,,,,,,,,,,,,,,,,,,,,,,,,,,,,,,,,,,,,,,,,,,,,,,,,,,,,,,,,,,,,,,,,,,,,,,,,,,,,,,,,,,,,,,,,,,,,,,,,,,,,,,,,,,,
,,64ac362b0979becb1044e190,2024-01-06_24h39.52.870,kallum_motion_pilot,2023.2.3,MacIntel,59.97361161,64ac362b0979becb1044e190,6598e6a5d84f07970b831e70,6598e79377b71480cf78df61,0.1697,0.17,1,106,268,12,1,threeone,,,,,,,,,,,,,,,,,,,,,,,,,,,,,,,,,,,,,,,,,,,,,,,,,,,,,,,,,,,,,,,,,,,,,,,,,,,,,,,,,,,,,,,,,,,,,,,,,,,,,,,,,,,,,,,,,,,,,,,,,,,,,,,,,,,,,,,
,,64ac362b0979becb1044e190,2024-01-06_24h39.52.870,kallum_motion_pilot,2023.2.3,MacIntel,59.97361161,64ac362b0979becb1044e190,6598e6a5d84f07970b831e70,6598e79377b71480cf78df61,0.1702,0.1704,1,107,269,49,1,onethree,,,,,,,,,,,,,,,,,,,,,,,,,,,,,,,,,,,,,,,,,,,,,,,,,,,,,,,,,,,,,,,,,,,,,,,,,,,,,,,,,,,,,,,,,,,,,,,,,,,,,,,,,,,,,,,,,,,,,,,,,,,,,,,,,,,,,,,
,,64ac362b0979becb1044e190,2024-01-06_24h39.52.870,kallum_motion_pilot,2023.2.3,MacIntel,59.97361161,64ac362b0979becb1044e190,6598e6a5d84f07970b831e70,6598e79377b71480cf78df61,0.1705,0.1708,1,108,270,80,1,fivesix,,,,,,,,,,,,,,,,,,,,,,,,,,,,,,,,,,,,,,,,,,,,,,,,,,,,,,,,,,,,,,,,,,,,,,,,,,,,,,,,,,,,,,,,,,,,,,,,,,,,,,,,,,,,,,,,,,,,,,,,,,,,,,,,,,,,,,,
,,64ac362b0979becb1044e190,2024-01-06_24h39.52.870,kallum_motion_pilot,2023.2.3,MacIntel,59.97361161,64ac362b0979becb1044e190,6598e6a5d84f07970b831e70,6598e79377b71480cf78df61,0.171,0.1712,1,109,271,153,1,fiveseven,,,,,,,,,,,,,,,,,,,,,,,,,,,,,,,,,,,,,,,,,,,,,,,,,,,,,,,,,,,,,,,,,,,,,,,,,,,,,,,,,,,,,,,,,,,,,,,,,,,,,,,,,,,,,,,,,,,,,,,,,,,,,,,,,,,,,,,
,,64ac362b0979becb1044e190,2024-01-06_24h39.52.870,kallum_motion_pilot,2023.2.3,MacIntel,59.97361161,64ac362b0979becb1044e190,6598e6a5d84f07970b831e70,6598e79377b71480cf78df61,0.1715,0.1716,1,110,272,52,1,threeone,,,,,,,,,,,,,,,,,,,,,,,,,,,,,,,,,,,,,,,,,,,,,,,,,,,,,,,,,,,,,,,,,,,,,,,,,,,,,,,,,,,,,,,,,,,,,,,,,,,,,,,,,,,,,,,,,,,,,,,,,,,,,,,,,,,,,,,
,,64ac362b0979becb1044e190,2024-01-06_24h39.52.870,kallum_motion_pilot,2023.2.3,MacIntel,59.97361161,64ac362b0979becb1044e190,6598e6a5d84f07970b831e70,6598e79377b71480cf78df61,0.1718,0.172,1,111,273,58,1,twoone,,,,,,,,,,,,,,,,,,,,,,,,,,,,,,,,,,,,,,,,,,,,,,,,,,,,,,,,,,,,,,,,,,,,,,,,,,,,,,,,,,,,,,,,,,,,,,,,,,,,,,,,,,,,,,,,,,,,,,,,,,,,,,,,,,,,,,,
,,64ac362b0979becb1044e190,2024-01-06_24h39.52.870,kallum_motion_pilot,2023.2.3,MacIntel,59.97361161,64ac362b0979becb1044e190,6598e6a5d84f07970b831e70,6598e79377b71480cf78df61,0.1723,0.1726,1,112,274,68,1,threeone,,,,,,,,,,,,,,,,,,,,,,,,,,,,,,,,,,,,,,,,,,,,,,,,,,,,,,,,,,,,,,,,,,,,,,,,,,,,,,,,,,,,,,,,,,,,,,,,,,,,,,,,,,,,,,,,,,,,,,,,,,,,,,,,,,,,,,,
,,64ac362b0979becb1044e190,2024-01-06_24h39.52.870,kallum_motion_pilot,2023.2.3,MacIntel,59.97361161,64ac362b0979becb1044e190,6598e6a5d84f07970b831e70,6598e79377b71480cf78df61,0.1729,0.173,1,113,275,160,1,fivesix,,,,,,,,,,,,,,,,,,,,,,,,,,,,,,,,,,,,,,,,,,,,,,,,,,,,,,,,,,,,,,,,,,,,,,,,,,,,,,,,,,,,,,,,,,,,,,,,,,,,,,,,,,,,,,,,,,,,,,,,,,,,,,,,,,,,,,,
,,64ac362b0979becb1044e190,2024-01-06_24h39.52.870,kallum_motion_pilot,2023.2.3,MacIntel,59.97361161,64ac362b0979becb1044e190,6598e6a5d84f07970b831e70,6598e79377b71480cf78df61,0.1732,0.1734,1,114,276,5,1,threefour,,,,,,,,,,,,,,,,,,,,,,,,,,,,,,,,,,,,,,,,,,,,,,,,,,,,,,,,,,,,,,,,,,,,,,,,,,,,,,,,,,,,,,,,,,,,,,,,,,,,,,,,,,,,,,,,,,,,,,,,,,,,,,,,,,,,,,,
