startup.started,startup.stopped,Prolific ID*,date,expName,psychopyVersion,OS,frameRate,PROLIFIC_PID,STUDY_ID,SESSION_ID,stimpositions.started,stimpositions.stopped,hardcoded_stimulus_positions.thisRepN,hardcoded_stimulus_positions.thisTrialN,hardcoded_stimulus_positions.thisN,hardcoded_stimulus_positions.thisIndex,hardcoded_stimulus_positions.ran,StimulusPos,stimorientation.started,stimorientation.stopped,prac_stimorientation_import_loop.thisRepN,prac_stimorientation_import_loop.thisTrialN,prac_stimorientation_import_loop.thisN,prac_stimorientation_import_loop.thisIndex,prac_stimorientation_import_loop.ran,Stimorientation,welcome_instr.started,welcome_instr.stopped,key_resp.keys,key_resp.rt,key_resp.duration,response_steppedout_1.started,response_steppedout_1.stopped,key_resp_20.keys,key_resp_20.rt,key_resp_20.duration,response_steppedout_2.started,response_steppedout_2.stopped,key_resp_19.keys,key_resp_19.rt,key_resp_19.duration,stim_response_instr.started,stim_response_instr.stopped,key_resp_15.keys,key_resp_15.rt,key_resp_15.duration,direction_instr_2.started,direction_instr_2.stopped,key_resp_9.keys,key_resp_9.rt,key_resp_9.duration,instr_prac.started,instr_prac.stopped,key_resp_10.keys,key_resp_10.rt,key_resp_10.duration,Stim1_display_prac.started,Stim1_display_prac.stopped,Ecc,Circle1_ori,Circle2_ori,response_prac.started,similarity,response_time,response_prac.stopped,mouse_5.x,mouse_5.y,mouse_5.leftButton,mouse_5.midButton,mouse_5.rightButton,mouse_5.clicked_name,responseprac_feedback.started,responseprac_feedback.stopped,summary2_prac.started,summary2_prac.stopped,mouse_6.x,mouse_6.y,mouse_6.leftButton,mouse_6.midButton,mouse_6.rightButton,mouse_6.clicked_name,duringprac.thisRepN,duringprac.thisTrialN,duringprac.thisN,duringprac.thisIndex,duringprac.ran,begin.started,begin.stopped,key_resp_22.keys,key_resp_22.rt,key_resp_22.duration,Stim1_display.started,Stim1_display.stopped,circle1_ori,circle2_ori,blank.started,blank.stopped,response.started,response.stopped,mouse.x,mouse.y,mouse.leftButton,mouse.midButton,mouse.rightButton,mouse.clicked_name,response_2.started,response_2.stopped,mouse_2.x,mouse_2.y,mouse_2.leftButton,mouse_2.midButton,mouse_2.rightButton,mouse_2.clicked_name,special_trial.started,special_trial.stopped,catch_1.started,catch_1.stopped,mouse_3.x,mouse_3.y,mouse_3.leftButton,mouse_3.midButton,mouse_3.rightButton,catchresponse,catchnumber,response_time_catch,Catch,response_sum.started,response_sum.stopped,mouse_11.x,mouse_11.y,mouse_11.leftButton,mouse_11.midButton,mouse_11.rightButton,main_trial.thisRepN,main_trial.thisTrialN,main_trial.thisN,main_trial.thisIndex,main_trial.ran,Orientationtrialno,xcircle1_ori,xcircle2_ori,flip_presentation_sequence_for_double_pass.started,flip_presentation_sequence_for_double_pass.stopped,double_pass.thisRepN,double_pass.thisTrialN,double_pass.thisN,double_pass.thisIndex,double_pass.ran,goodbye.started,goodbye.stopped,key_resp_3.keys,key_resp_3.rt,key_resp_3.duration
0,0.001,650739048d93f13a5f6b200b,2024-01-06_24h50.17.424,kallum_motion_pilot,2023.2.3,MacIntel,62.5,650739048d93f13a5f6b200b,6598e6a5d84f07970b831e70,6598e9fd0f1f93cb1ab50923,,,,,,,,,,,,,,,,,,,,,,,,,,,,,,,,,,,,,,,,,,,,,,,,,,,,,,,,,,,,,,,,,,,,,,,,,,,,,,,,,,,,,,,,,,,,,,,,,,,,,,,,,,,,,,,,,,,,,,,,,,,,,,,,,,,,,,,,,,,,,,,
,,650739048d93f13a5f6b200b,2024-01-06_24h50.17.424,kallum_motion_pilot,2023.2.3,MacIntel,62.5,650739048d93f13a5f6b200b,6598e6a5d84f07970b831e70,6598e9fd0f1f93cb1ab50923,0.012,0.012,0,0,0,139,1,sixeight,,,,,,,,,,,,,,,,,,,,,,,,,,,,,,,,,,,,,,,,,,,,,,,,,,,,,,,,,,,,,,,,,,,,,,,,,,,,,,,,,,,,,,,,,,,,,,,,,,,,,,,,,,,,,,,,,,,,,,,,,,,,,,,,,,,,,,,
,,650739048d93f13a5f6b200b,2024-01-06_24h50.17.424,kallum_motion_pilot,2023.2.3,MacIntel,62.5,650739048d93f13a5f6b200b,6598e6a5d84f07970b831e70,6598e9fd0f1f93cb1ab50923,0.012,0.012,0,1,1,70,1,fourtwo,,,,,,,,,,,,,,,,,,,,,,,,,,,,,,,,,,,,,,,,,,,,,,,,,,,,,,,,,,,,,,,,,,,,,,,,,,,,,,,,,,,,,,,,,,,,,,,,,,,,,,,,,,,,,,,,,,,,,,,,,,,,,,,,,,,,,,,
,,650739048d93f13a5f6b200b,2024-01-06_24h50.17.424,kallum_motion_pilot,2023.2.3,MacIntel,62.5,650739048d93f13a5f6b200b,6598e6a5d84f07970b831e70,6598e9fd0f1f93cb1ab50923,0.012,0.012,0,2,2,147,1,sixeight,,,,,,,,,,,,,,,,,,,,,,,,,,,,,,,,,,,,,,,,,,,,,,,,,,,,,,,,,,,,,,,,,,,,,,,,,,,,,,,,,,,,,,,,,,,,,,,,,,,,,,,,,,,,,,,,,,,,,,,,,,,,,,,,,,,,,,,
,,650739048d93f13a5f6b200b,2024-01-06_24h50.17.424,kallum_motion_pilot,2023.2.3,MacIntel,62.5,650739048d93f13a5f6b200b,6598e6a5d84f07970b831e70,6598e9fd0f1f93cb1ab50923,0.012,0.012,0,3,3,140,1,sevenfive,,,,,,,,,,,,,,,,,,,,,,,,,,,,,,,,,,,,,,,,,,,,,,,,,,,,,,,,,,,,,,,,,,,,,,,,,,,,,,,,,,,,,,,,,,,,,,,,,,,,,,,,,,,,,,,,,,,,,,,,,,,,,,,,,,,,,,,
,,650739048d93f13a5f6b200b,2024-01-06_24h50.17.424,kallum_motion_pilot,2023.2.3,MacIntel,62.5,650739048d93f13a5f6b200b,6598e6a5d84f07970b831e70,6598e9fd0f1f93cb1ab50923,0.012,0.012,0,4,4,55,1,fourthree,,,,,,,,,,,,,,,,,,,,,,,,,,,,,,,,,,,,,,,,,,,,,,,,,,,,,,,,,,,,,,,,,,,,,,,,,,,,,,,,,,,,,,,,,,,,,,,,,,,,,,,,,,,,,,,,,,,,,,,,,,,,,,,,,,,,,,,
,,650739048d93f13a5f6b200b,2024-01-06_24h50.17.424,kallum_motion_pilot,2023.2.3,MacIntel,62.5,650739048d93f13a5f6b200b,6598e6a5d84f07970b831e70,6598e9fd0f1f93cb1ab50923,0.012,0.012,0,5,5,72,1,onetwo,,,,,,,,,,,,,,,,,,,,,,,,,,,,,,,,,,,,,,,,,,,,,,,,,,,,,,,,,,,,,,,,,,,,,,,,,,,,,,,,,,,,,,,,,,,,,,,,,,,,,,,,,,,,,,,,,,,,,,,,,,,,,,,,,,,,,,,
,,650739048d93f13a5f6b200b,2024-01-06_24h50.17.424,kallum_motion_pilot,2023.2.3,MacIntel,62.5,650739048d93f13a5f6b200b,6598e6a5d84f07970b831e70,6598e9fd0f1f93cb1ab50923,0.012,0.012,0,6,6,100,1,sevenfive,,,,,,,,,,,,,,,,,,,,,,,,,,,,,,,,,,,,,,,,,,,,,,,,,,,,,,,,,,,,,,,,,,,,,,,,,,,,,,,,,,,,,,,,,,,,,,,,,,,,,,,,,,,,,,,,,,,,,,,,,,,,,,,,,,,,,,,
,,650739048d93f13a5f6b200b,2024-01-06_24h50.17.424,kallum_motion_pilot,2023.2.3,MacIntel,62.5,650739048d93f13a5f6b200b,6598e6a5d84f07970b831e70,6598e9fd0f1f93cb1ab50923,0.012,0.012,0,7,7,3,1,twofour,,,,,,,,,,,,,,,,,,,,,,,,,,,,,,,,,,,,,,,,,,,,,,,,,,,,,,,,,,,,,,,,,,,,,,,,,,,,,,,,,,,,,,,,,,,,,,,,,,,,,,,,,,,,,,,,,,,,,,,,,,,,,,,,,,,,,,,
,,650739048d93f13a5f6b200b,2024-01-06_24h50.17.424,kallum_motion_pilot,2023.2.3,MacIntel,62.5,650739048d93f13a5f6b200b,6598e6a5d84f07970b831e70,6598e9fd0f1f93cb1ab50923,0.012,0.012,0,8,8,84,1,sevenfive,,,,,,,,,,,,,,,,,,,,,,,,,,,,,,,,,,,,,,,,,,,,,,,,,,,,,,,,,,,,,,,,,,,,,,,,,,,,,,,,,,,,,,,,,,,,,,,,,,,,,,,,,,,,,,,,,,,,,,,,,,,,,,,,,,,,,,,
,,650739048d93f13a5f6b200b,2024-01-06_24h50.17.424,kallum_motion_pilot,2023.2.3,MacIntel,62.5,650739048d93f13a5f6b200b,6598e6a5d84f07970b831e70,6598e9fd0f1f93cb1ab50923,0.012,0.012,0,9,9,69,1,threefour,,,,,,,,,,,,,,,,,,,,,,,,,,,,,,,,,,,,,,,,,,,,,,,,,,,,,,,,,,,,,,,,,,,,,,,,,,,,,,,,,,,,,,,,,,,,,,,,,,,,,,,,,,,,,,,,,,,,,,,,,,,,,,,,,,,,,,,
,,650739048d93f13a5f6b200b,2024-01-06_24h50.17.424,kallum_motion_pilot,2023.2.3,MacIntel,62.5,650739048d93f13a5f6b200b,6598e6a5d84f07970b831e70,6598e9fd0f1f93cb1ab50923,0.012,0.012,0,10,10,110,1,eightsix,,,,,,,,,,,,,,,,,,,,,,,,,,,,,,,,,,,,,,,,,,,,,,,,,,,,,,,,,,,,,,,,,,,,,,,,,,,,,,,,,,,,,,,,,,,,,,,,,,,,,,,,,,,,,,,,,,,,,,,,,,,,,,,,,,,,,,,
,,650739048d93f13a5f6b200b,2024-01-06_24h50.17.424,kallum_motion_pilot,2023.2.3,MacIntel,62.5,650739048d93f13a5f6b200b,6598e6a5d84f07970b831e70,6598e9fd0f1f93cb1ab50923,0.012,0.012,0,11,11,138,1,sixfive,,,,,,,,,,,,,,,,,,,,,,,,,,,,,,,,,,,,,,,,,,,,,,,,,,,,,,,,,,,,,,,,,,,,,,,,,,,,,,,,,,,,,,,,,,,,,,,,,,,,,,,,,,,,,,,,,,,,,,,,,,,,,,,,,,,,,,,
,,650739048d93f13a5f6b200b,2024-01-06_24h50.17.424,kallum_motion_pilot,2023.2.3,MacIntel,62.5,650739048d93f13a5f6b200b,6598e6a5d84f07970b831e70,6598e9fd0f1f93cb1ab50923,0.012,0.012,0,12,12,76,1,threeone,,,,,,,,,,,,,,,,,,,,,,,,,,,,,,,,,,,,,,,,,,,,,,,,,,,,,,,,,,,,,,,,,,,,,,,,,,,,,,,,,,,,,,,,,,,,,,,,,,,,,,,,,,,,,,,,,,,,,,,,,,,,,,,,,,,,,,,
,,650739048d93f13a5f6b200b,2024-01-06_24h50.17.424,kallum_motion_pilot,2023.2.3,MacIntel,62.5,650739048d93f13a5f6b200b,6598e6a5d84f07970b831e70,6598e9fd0f1f93cb1ab50923,0.012,0.012,0,13,13,17,1,onethree,,,,,,,,,,,,,,,,,,,,,,,,,,,,,,,,,,,,,,,,,,,,,,,,,,,,,,,,,,,,,,,,,,,,,,,,,,,,,,,,,,,,,,,,,,,,,,,,,,,,,,,,,,,,,,,,,,,,,,,,,,,,,,,,,,,,,,,
,,650739048d93f13a5f6b200b,2024-01-06_24h50.17.424,kallum_motion_pilot,2023.2.3,MacIntel,62.5,650739048d93f13a5f6b200b,6598e6a5d84f07970b831e70,6598e9fd0f1f93cb1ab50923,0.012,0.012,0,14,14,157,1,seveneight,,,,,,,,,,,,,,,,,,,,,,,,,,,,,,,,,,,,,,,,,,,,,,,,,,,,,,,,,,,,,,,,,,,,,,,,,,,,,,,,,,,,,,,,,,,,,,,,,,,,,,,,,,,,,,,,,,,,,,,,,,,,,,,,,,,,,,,
,,650739048d93f13a5f6b200b,2024-01-06_24h50.17.424,kallum_motion_pilot,2023.2.3,MacIntel,62.5,650739048d93f13a5f6b200b,6598e6a5d84f07970b831e70,6598e9fd0f1f93cb1ab50923,0.013,0.013,0,15,15,119,1,eightseven,,,,,,,,,,,,,,,,,,,,,,,,,,,,,,,,,,,,,,,,,,,,,,,,,,,,,,,,,,,,,,,,,,,,,,,,,,,,,,,,,,,,,,,,,,,,,,,,,,,,,,,,,,,,,,,,,,,,,,,,,,,,,,,,,,,,,,,
,,650739048d93f13a5f6b200b,2024-01-06_24h50.17.424,kallum_motion_pilot,2023.2.3,MacIntel,62.5,650739048d93f13a5f6b200b,6598e6a5d84f07970b831e70,6598e9fd0f1f93cb1ab50923,0.013,0.013,0,16,16,58,1,twoone,,,,,,,,,,,,,,,,,,,,,,,,,,,,,,,,,,,,,,,,,,,,,,,,,,,,,,,,,,,,,,,,,,,,,,,,,,,,,,,,,,,,,,,,,,,,,,,,,,,,,,,,,,,,,,,,,,,,,,,,,,,,,,,,,,,,,,,
,,650739048d93f13a5f6b200b,2024-01-06_24h50.17.424,kallum_motion_pilot,2023.2.3,MacIntel,62.5,650739048d93f13a5f6b200b,6598e6a5d84f07970b831e70,6598e9fd0f1f93cb1ab50923,0.013,0.013,0,17,17,19,1,twofour,,,,,,,,,,,,,,,,,,,,,,,,,,,,,,,,,,,,,,,,,,,,,,,,,,,,,,,,,,,,,,,,,,,,,,,,,,,,,,,,,,,,,,,,,,,,,,,,,,,,,,,,,,,,,,,,,,,,,,,,,,,,,,,,,,,,,,,
,,650739048d93f13a5f6b200b,2024-01-06_24h50.17.424,kallum_motion_pilot,2023.2.3,MacIntel,62.5,650739048d93f13a5f6b200b,6598e6a5d84f07970b831e70,6598e9fd0f1f93cb1ab50923,0.013,0.013,0,18,18,111,1,eightseven,,,,,,,,,,,,,,,,,,,,,,,,,,,,,,,,,,,,,,,,,,,,,,,,,,,,,,,,,,,,,,,,,,,,,,,,,,,,,,,,,,,,,,,,,,,,,,,,,,,,,,,,,,,,,,,,,,,,,,,,,,,,,,,,,,,,,,,
,,650739048d93f13a5f6b200b,2024-01-06_24h50.17.424,kallum_motion_pilot,2023.2.3,MacIntel,62.5,650739048d93f13a5f6b200b,6598e6a5d84f07970b831e70,6598e9fd0f1f93cb1ab50923,0.013,0.013,0,19,19,15,1,fourthree,,,,,,,,,,,,,,,,,,,,,,,,,,,,,,,,,,,,,,,,,,,,,,,,,,,,,,,,,,,,,,,,,,,,,,,,,,,,,,,,,,,,,,,,,,,,,,,,,,,,,,,,,,,,,,,,,,,,,,,,,,,,,,,,,,,,,,,
,,650739048d93f13a5f6b200b,2024-01-06_24h50.17.424,kallum_motion_pilot,2023.2.3,MacIntel,62.5,650739048d93f13a5f6b200b,6598e6a5d84f07970b831e70,6598e9fd0f1f93cb1ab50923,0.013,0.013,0,20,20,53,1,threefour,,,,,,,,,,,,,,,,,,,,,,,,,,,,,,,,,,,,,,,,,,,,,,,,,,,,,,,,,,,,,,,,,,,,,,,,,,,,,,,,,,,,,,,,,,,,,,,,,,,,,,,,,,,,,,,,,,,,,,,,,,,,,,,,,,,,,,,
,,650739048d93f13a5f6b200b,2024-01-06_24h50.17.424,kallum_motion_pilot,2023.2.3,MacIntel,62.5,650739048d93f13a5f6b200b,6598e6a5d84f07970b831e70,6598e9fd0f1f93cb1ab50923,0.013,0.013,0,21,21,65,1,onethree,,,,,,,,,,,,,,,,,,,,,,,,,,,,,,,,,,,,,,,,,,,,,,,,,,,,,,,,,,,,,,,,,,,,,,,,,,,,,,,,,,,,,,,,,,,,,,,,,,,,,,,,,,,,,,,,,,,,,,,,,,,,,,,,,,,,,,,
,,650739048d93f13a5f6b200b,2024-01-06_24h50.17.424,kallum_motion_pilot,2023.2.3,MacIntel,62.5,650739048d93f13a5f6b200b,6598e6a5d84f07970b831e70,6598e9fd0f1f93cb1ab50923,0.013,0.014,0,22,22,59,1,twofour,,,,,,,,,,,,,,,,,,,,,,,,,,,,,,,,,,,,,,,,,,,,,,,,,,,,,,,,,,,,,,,,,,,,,,,,,,,,,,,,,,,,,,,,,,,,,,,,,,,,,,,,,,,,,,,,,,,,,,,,,,,,,,,,,,,,,,,
,,650739048d93f13a5f6b200b,2024-01-06_24h50.17.424,kallum_motion_pilot,2023.2.3,MacIntel,62.5,650739048d93f13a5f6b200b,6598e6a5d84f07970b831e70,6598e9fd0f1f93cb1ab50923,0.014,0.014,0,23,23,117,1,seveneight,,,,,,,,,,,,,,,,,,,,,,,,,,,,,,,,,,,,,,,,,,,,,,,,,,,,,,,,,,,,,,,,,,,,,,,,,,,,,,,,,,,,,,,,,,,,,,,,,,,,,,,,,,,,,,,,,,,,,,,,,,,,,,,,,,,,,,,
,,650739048d93f13a5f6b200b,2024-01-06_24h50.17.424,kallum_motion_pilot,2023.2.3,MacIntel,62.5,650739048d93f13a5f6b200b,6598e6a5d84f07970b831e70,6598e9fd0f1f93cb1ab50923,0.014,0.014,0,24,24,47,1,fourthree,,,,,,,,,,,,,,,,,,,,,,,,,,,,,,,,,,,,,,,,,,,,,,,,,,,,,,,,,,,,,,,,,,,,,,,,,,,,,,,,,,,,,,,,,,,,,,,,,,,,,,,,,,,,,,,,,,,,,,,,,,,,,,,,,,,,,,,
,,650739048d93f13a5f6b200b,2024-01-06_24h50.17.424,kallum_motion_pilot,2023.2.3,MacIntel,62.5,650739048d93f13a5f6b200b,6598e6a5d84f07970b831e70,6598e9fd0f1f93cb1ab50923,0.014,0.014,0,25,25,27,1,twofour,,,,,,,,,,,,,,,,,,,,,,,,,,,,,,,,,,,,,,,,,,,,,,,,,,,,,,,,,,,,,,,,,,,,,,,,,,,,,,,,,,,,,,,,,,,,,,,,,,,,,,,,,,,,,,,,,,,,,,,,,,,,,,,,,,,,,,,
,,650739048d93f13a5f6b200b,2024-01-06_24h50.17.424,kallum_motion_pilot,2023.2.3,MacIntel,62.5,650739048d93f13a5f6b200b,6598e6a5d84f07970b831e70,6598e9fd0f1f93cb1ab50923,0.014,0.014,0,26,26,98,1,sixfive,,,,,,,,,,,,,,,,,,,,,,,,,,,,,,,,,,,,,,,,,,,,,,,,,,,,,,,,,,,,,,,,,,,,,,,,,,,,,,,,,,,,,,,,,,,,,,,,,,,,,,,,,,,,,,,,,,,,,,,,,,,,,,,,,,,,,,,
,,650739048d93f13a5f6b200b,2024-01-06_24h50.17.424,kallum_motion_pilot,2023.2.3,MacIntel,62.5,650739048d93f13a5f6b200b,6598e6a5d84f07970b831e70,6598e9fd0f1f93cb1ab50923,0.014,0.014,0,27,27,133,1,seveneight,,,,,,,,,,,,,,,,,,,,,,,,,,,,,,,,,,,,,,,,,,,,,,,,,,,,,,,,,,,,,,,,,,,,,,,,,,,,,,,,,,,,,,,,,,,,,,,,,,,,,,,,,,,,,,,,,,,,,,,,,,,,,,,,,,,,,,,
,,650739048d93f13a5f6b200b,2024-01-06_24h50.17.424,kallum_motion_pilot,2023.2.3,MacIntel,62.5,650739048d93f13a5f6b200b,6598e6a5d84f07970b831e70,6598e9fd0f1f93cb1ab50923,0.014,0.014,0,28,28,92,1,sevenfive,,,,,,,,,,,,,,,,,,,,,,,,,,,,,,,,,,,,,,,,,,,,,,,,,,,,,,,,,,,,,,,,,,,,,,,,,,,,,,,,,,,,,,,,,,,,,,,,,,,,,,,,,,,,,,,,,,,,,,,,,,,,,,,,,,,,,,,
,,650739048d93f13a5f6b200b,2024-01-06_24h50.17.424,kallum_motion_pilot,2023.2.3,MacIntel,62.5,650739048d93f13a5f6b200b,6598e6a5d84f07970b831e70,6598e9fd0f1f93cb1ab50923,0.014,0.014,0,29,29,128,1,fivesix,,,,,,,,,,,,,,,,,,,,,,,,,,,,,,,,,,,,,,,,,,,,,,,,,,,,,,,,,,,,,,,,,,,,,,,,,,,,,,,,,,,,,,,,,,,,,,,,,,,,,,,,,,,,,,,,,,,,,,,,,,,,,,,,,,,,,,,
,,650739048d93f13a5f6b200b,2024-01-06_24h50.17.424,kallum_motion_pilot,2023.2.3,MacIntel,62.5,650739048d93f13a5f6b200b,6598e6a5d84f07970b831e70,6598e9fd0f1f93cb1ab50923,0.014,0.014,0,30,30,56,1,onetwo,,,,,,,,,,,,,,,,,,,,,,,,,,,,,,,,,,,,,,,,,,,,,,,,,,,,,,,,,,,,,,,,,,,,,,,,,,,,,,,,,,,,,,,,,,,,,,,,,,,,,,,,,,,,,,,,,,,,,,,,,,,,,,,,,,,,,,,
,,650739048d93f13a5f6b200b,2024-01-06_24h50.17.424,kallum_motion_pilot,2023.2.3,MacIntel,62.5,650739048d93f13a5f6b200b,6598e6a5d84f07970b831e70,6598e9fd0f1f93cb1ab50923,0.014,0.014,0,31,31,130,1,sixfive,,,,,,,,,,,,,,,,,,,,,,,,,,,,,,,,,,,,,,,,,,,,,,,,,,,,,,,,,,,,,,,,,,,,,,,,,,,,,,,,,,,,,,,,,,,,,,,,,,,,,,,,,,,,,,,,,,,,,,,,,,,,,,,,,,,,,,,
,,650739048d93f13a5f6b200b,2024-01-06_24h50.17.424,kallum_motion_pilot,2023.2.3,MacIntel,62.5,650739048d93f13a5f6b200b,6598e6a5d84f07970b831e70,6598e9fd0f1f93cb1ab50923,0.014,0.014,0,32,32,123,1,sixeight,,,,,,,,,,,,,,,,,,,,,,,,,,,,,,,,,,,,,,,,,,,,,,,,,,,,,,,,,,,,,,,,,,,,,,,,,,,,,,,,,,,,,,,,,,,,,,,,,,,,,,,,,,,,,,,,,,,,,,,,,,,,,,,,,,,,,,,
,,650739048d93f13a5f6b200b,2024-01-06_24h50.17.424,kallum_motion_pilot,2023.2.3,MacIntel,62.5,650739048d93f13a5f6b200b,6598e6a5d84f07970b831e70,6598e9fd0f1f93cb1ab50923,0.014,0.014,0,33,33,57,1,onethree,,,,,,,,,,,,,,,,,,,,,,,,,,,,,,,,,,,,,,,,,,,,,,,,,,,,,,,,,,,,,,,,,,,,,,,,,,,,,,,,,,,,,,,,,,,,,,,,,,,,,,,,,,,,,,,,,,,,,,,,,,,,,,,,,,,,,,,
,,650739048d93f13a5f6b200b,2024-01-06_24h50.17.424,kallum_motion_pilot,2023.2.3,MacIntel,62.5,650739048d93f13a5f6b200b,6598e6a5d84f07970b831e70,6598e9fd0f1f93cb1ab50923,0.014,0.014,0,34,34,62,1,fourtwo,,,,,,,,,,,,,,,,,,,,,,,,,,,,,,,,,,,,,,,,,,,,,,,,,,,,,,,,,,,,,,,,,,,,,,,,,,,,,,,,,,,,,,,,,,,,,,,,,,,,,,,,,,,,,,,,,,,,,,,,,,,,,,,,,,,,,,,
,,650739048d93f13a5f6b200b,2024-01-06_24h50.17.424,kallum_motion_pilot,2023.2.3,MacIntel,62.5,650739048d93f13a5f6b200b,6598e6a5d84f07970b831e70,6598e9fd0f1f93cb1ab50923,0.014,0.014,0,35,35,28,1,threeone,,,,,,,,,,,,,,,,,,,,,,,,,,,,,,,,,,,,,,,,,,,,,,,,,,,,,,,,,,,,,,,,,,,,,,,,,,,,,,,,,,,,,,,,,,,,,,,,,,,,,,,,,,,,,,,,,,,,,,,,,,,,,,,,,,,,,,,
,,650739048d93f13a5f6b200b,2024-01-06_24h50.17.424,kallum_motion_pilot,2023.2.3,MacIntel,62.5,650739048d93f13a5f6b200b,6598e6a5d84f07970b831e70,6598e9fd0f1f93cb1ab50923,0.014,0.014,0,36,36,5,1,threefour,,,,,,,,,,,,,,,,,,,,,,,,,,,,,,,,,,,,,,,,,,,,,,,,,,,,,,,,,,,,,,,,,,,,,,,,,,,,,,,,,,,,,,,,,,,,,,,,,,,,,,,,,,,,,,,,,,,,,,,,,,,,,,,,,,,,,,,
,,650739048d93f13a5f6b200b,2024-01-06_24h50.17.424,kallum_motion_pilot,2023.2.3,MacIntel,62.5,650739048d93f13a5f6b200b,6598e6a5d84f07970b831e70,6598e9fd0f1f93cb1ab50923,0.014,0.014,0,37,37,151,1,eightseven,,,,,,,,,,,,,,,,,,,,,,,,,,,,,,,,,,,,,,,,,,,,,,,,,,,,,,,,,,,,,,,,,,,,,,,,,,,,,,,,,,,,,,,,,,,,,,,,,,,,,,,,,,,,,,,,,,,,,,,,,,,,,,,,,,,,,,,
,,650739048d93f13a5f6b200b,2024-01-06_24h50.17.424,kallum_motion_pilot,2023.2.3,MacIntel,62.5,650739048d93f13a5f6b200b,6598e6a5d84f07970b831e70,6598e9fd0f1f93cb1ab50923,0.014,0.014,0,38,38,14,1,fourtwo,,,,,,,,,,,,,,,,,,,,,,,,,,,,,,,,,,,,,,,,,,,,,,,,,,,,,,,,,,,,,,,,,,,,,,,,,,,,,,,,,,,,,,,,,,,,,,,,,,,,,,,,,,,,,,,,,,,,,,,,,,,,,,,,,,,,,,,
,,650739048d93f13a5f6b200b,2024-01-06_24h50.17.424,kallum_motion_pilot,2023.2.3,MacIntel,62.5,650739048d93f13a5f6b200b,6598e6a5d84f07970b831e70,6598e9fd0f1f93cb1ab50923,0.014,0.014,0,39,39,26,1,twoone,,,,,,,,,,,,,,,,,,,,,,,,,,,,,,,,,,,,,,,,,,,,,,,,,,,,,,,,,,,,,,,,,,,,,,,,,,,,,,,,,,,,,,,,,,,,,,,,,,,,,,,,,,,,,,,,,,,,,,,,,,,,,,,,,,,,,,,
,,650739048d93f13a5f6b200b,2024-01-06_24h50.17.424,kallum_motion_pilot,2023.2.3,MacIntel,62.5,650739048d93f13a5f6b200b,6598e6a5d84f07970b831e70,6598e9fd0f1f93cb1ab50923,0.014,0.014,0,40,40,137,1,fiveseven,,,,,,,,,,,,,,,,,,,,,,,,,,,,,,,,,,,,,,,,,,,,,,,,,,,,,,,,,,,,,,,,,,,,,,,,,,,,,,,,,,,,,,,,,,,,,,,,,,,,,,,,,,,,,,,,,,,,,,,,,,,,,,,,,,,,,,,
,,650739048d93f13a5f6b200b,2024-01-06_24h50.17.424,kallum_motion_pilot,2023.2.3,MacIntel,62.5,650739048d93f13a5f6b200b,6598e6a5d84f07970b831e70,6598e9fd0f1f93cb1ab50923,0.014,0.015,0,41,41,67,1,twofour,,,,,,,,,,,,,,,,,,,,,,,,,,,,,,,,,,,,,,,,,,,,,,,,,,,,,,,,,,,,,,,,,,,,,,,,,,,,,,,,,,,,,,,,,,,,,,,,,,,,,,,,,,,,,,,,,,,,,,,,,,,,,,,,,,,,,,,
,,650739048d93f13a5f6b200b,2024-01-06_24h50.17.424,kallum_motion_pilot,2023.2.3,MacIntel,62.5,650739048d93f13a5f6b200b,6598e6a5d84f07970b831e70,6598e9fd0f1f93cb1ab50923,0.015,0.015,0,42,42,9,1,onethree,,,,,,,,,,,,,,,,,,,,,,,,,,,,,,,,,,,,,,,,,,,,,,,,,,,,,,,,,,,,,,,,,,,,,,,,,,,,,,,,,,,,,,,,,,,,,,,,,,,,,,,,,,,,,,,,,,,,,,,,,,,,,,,,,,,,,,,
,,650739048d93f13a5f6b200b,2024-01-06_24h50.17.424,kallum_motion_pilot,2023.2.3,MacIntel,62.5,650739048d93f13a5f6b200b,6598e6a5d84f07970b831e70,6598e9fd0f1f93cb1ab50923,0.015,0.015,0,43,43,48,1,onetwo,,,,,,,,,,,,,,,,,,,,,,,,,,,,,,,,,,,,,,,,,,,,,,,,,,,,,,,,,,,,,,,,,,,,,,,,,,,,,,,,,,,,,,,,,,,,,,,,,,,,,,,,,,,,,,,,,,,,,,,,,,,,,,,,,,,,,,,
,,650739048d93f13a5f6b200b,2024-01-06_24h50.17.424,kallum_motion_pilot,2023.2.3,MacIntel,62.5,650739048d93f13a5f6b200b,6598e6a5d84f07970b831e70,6598e9fd0f1f93cb1ab50923,0.015,0.015,0,44,44,97,1,fiveseven,,,,,,,,,,,,,,,,,,,,,,,,,,,,,,,,,,,,,,,,,,,,,,,,,,,,,,,,,,,,,,,,,,,,,,,,,,,,,,,,,,,,,,,,,,,,,,,,,,,,,,,,,,,,,,,,,,,,,,,,,,,,,,,,,,,,,,,
,,650739048d93f13a5f6b200b,2024-01-06_24h50.17.424,kallum_motion_pilot,2023.2.3,MacIntel,62.5,650739048d93f13a5f6b200b,6598e6a5d84f07970b831e70,6598e9fd0f1f93cb1ab50923,0.015,0.015,0,45,45,80,1,fivesix,,,,,,,,,,,,,,,,,,,,,,,,,,,,,,,,,,,,,,,,,,,,,,,,,,,,,,,,,,,,,,,,,,,,,,,,,,,,,,,,,,,,,,,,,,,,,,,,,,,,,,,,,,,,,,,,,,,,,,,,,,,,,,,,,,,,,,,
,,650739048d93f13a5f6b200b,2024-01-06_24h50.17.424,kallum_motion_pilot,2023.2.3,MacIntel,62.5,650739048d93f13a5f6b200b,6598e6a5d84f07970b831e70,6598e9fd0f1f93cb1ab50923,0.015,0.015,0,46,46,152,1,fivesix,,,,,,,,,,,,,,,,,,,,,,,,,,,,,,,,,,,,,,,,,,,,,,,,,,,,,,,,,,,,,,,,,,,,,,,,,,,,,,,,,,,,,,,,,,,,,,,,,,,,,,,,,,,,,,,,,,,,,,,,,,,,,,,,,,,,,,,
,,650739048d93f13a5f6b200b,2024-01-06_24h50.17.424,kallum_motion_pilot,2023.2.3,MacIntel,62.5,650739048d93f13a5f6b200b,6598e6a5d84f07970b831e70,6598e9fd0f1f93cb1ab50923,0.015,0.015,0,47,47,115,1,sixeight,,,,,,,,,,,,,,,,,,,,,,,,,,,,,,,,,,,,,,,,,,,,,,,,,,,,,,,,,,,,,,,,,,,,,,,,,,,,,,,,,,,,,,,,,,,,,,,,,,,,,,,,,,,,,,,,,,,,,,,,,,,,,,,,,,,,,,,
,,650739048d93f13a5f6b200b,2024-01-06_24h50.17.424,kallum_motion_pilot,2023.2.3,MacIntel,62.5,650739048d93f13a5f6b200b,6598e6a5d84f07970b831e70,6598e9fd0f1f93cb1ab50923,0.015,0.015,0,48,48,141,1,seveneight,,,,,,,,,,,,,,,,,,,,,,,,,,,,,,,,,,,,,,,,,,,,,,,,,,,,,,,,,,,,,,,,,,,,,,,,,,,,,,,,,,,,,,,,,,,,,,,,,,,,,,,,,,,,,,,,,,,,,,,,,,,,,,,,,,,,,,,
,,650739048d93f13a5f6b200b,2024-01-06_24h50.17.424,kallum_motion_pilot,2023.2.3,MacIntel,62.5,650739048d93f13a5f6b200b,6598e6a5d84f07970b831e70,6598e9fd0f1f93cb1ab50923,0.015,0.015,0,49,49,86,1,eightsix,,,,,,,,,,,,,,,,,,,,,,,,,,,,,,,,,,,,,,,,,,,,,,,,,,,,,,,,,,,,,,,,,,,,,,,,,,,,,,,,,,,,,,,,,,,,,,,,,,,,,,,,,,,,,,,,,,,,,,,,,,,,,,,,,,,,,,,
,,650739048d93f13a5f6b200b,2024-01-06_24h50.17.424,kallum_motion_pilot,2023.2.3,MacIntel,62.5,650739048d93f13a5f6b200b,6598e6a5d84f07970b831e70,6598e9fd0f1f93cb1ab50923,0.015,0.015,0,50,50,78,1,fourtwo,,,,,,,,,,,,,,,,,,,,,,,,,,,,,,,,,,,,,,,,,,,,,,,,,,,,,,,,,,,,,,,,,,,,,,,,,,,,,,,,,,,,,,,,,,,,,,,,,,,,,,,,,,,,,,,,,,,,,,,,,,,,,,,,,,,,,,,
,,650739048d93f13a5f6b200b,2024-01-06_24h50.17.424,kallum_motion_pilot,2023.2.3,MacIntel,62.5,650739048d93f13a5f6b200b,6598e6a5d84f07970b831e70,6598e9fd0f1f93cb1ab50923,0.015,0.015,0,51,51,99,1,sixeight,,,,,,,,,,,,,,,,,,,,,,,,,,,,,,,,,,,,,,,,,,,,,,,,,,,,,,,,,,,,,,,,,,,,,,,,,,,,,,,,,,,,,,,,,,,,,,,,,,,,,,,,,,,,,,,,,,,,,,,,,,,,,,,,,,,,,,,
,,650739048d93f13a5f6b200b,2024-01-06_24h50.17.424,kallum_motion_pilot,2023.2.3,MacIntel,62.5,650739048d93f13a5f6b200b,6598e6a5d84f07970b831e70,6598e9fd0f1f93cb1ab50923,0.015,0.015,0,52,52,36,1,threeone,,,,,,,,,,,,,,,,,,,,,,,,,,,,,,,,,,,,,,,,,,,,,,,,,,,,,,,,,,,,,,,,,,,,,,,,,,,,,,,,,,,,,,,,,,,,,,,,,,,,,,,,,,,,,,,,,,,,,,,,,,,,,,,,,,,,,,,
,,650739048d93f13a5f6b200b,2024-01-06_24h50.17.424,kallum_motion_pilot,2023.2.3,MacIntel,62.5,650739048d93f13a5f6b200b,6598e6a5d84f07970b831e70,6598e9fd0f1f93cb1ab50923,0.015,0.015,0,53,53,154,1,sixfive,,,,,,,,,,,,,,,,,,,,,,,,,,,,,,,,,,,,,,,,,,,,,,,,,,,,,,,,,,,,,,,,,,,,,,,,,,,,,,,,,,,,,,,,,,,,,,,,,,,,,,,,,,,,,,,,,,,,,,,,,,,,,,,,,,,,,,,
,,650739048d93f13a5f6b200b,2024-01-06_24h50.17.424,kallum_motion_pilot,2023.2.3,MacIntel,62.5,650739048d93f13a5f6b200b,6598e6a5d84f07970b831e70,6598e9fd0f1f93cb1ab50923,0.015,0.015,0,54,54,38,1,fourtwo,,,,,,,,,,,,,,,,,,,,,,,,,,,,,,,,,,,,,,,,,,,,,,,,,,,,,,,,,,,,,,,,,,,,,,,,,,,,,,,,,,,,,,,,,,,,,,,,,,,,,,,,,,,,,,,,,,,,,,,,,,,,,,,,,,,,,,,
,,650739048d93f13a5f6b200b,2024-01-06_24h50.17.424,kallum_motion_pilot,2023.2.3,MacIntel,62.5,650739048d93f13a5f6b200b,6598e6a5d84f07970b831e70,6598e9fd0f1f93cb1ab50923,0.015,0.015,0,55,55,148,1,sevenfive,,,,,,,,,,,,,,,,,,,,,,,,,,,,,,,,,,,,,,,,,,,,,,,,,,,,,,,,,,,,,,,,,,,,,,,,,,,,,,,,,,,,,,,,,,,,,,,,,,,,,,,,,,,,,,,,,,,,,,,,,,,,,,,,,,,,,,,
,,650739048d93f13a5f6b200b,2024-01-06_24h50.17.424,kallum_motion_pilot,2023.2.3,MacIntel,62.5,650739048d93f13a5f6b200b,6598e6a5d84f07970b831e70,6598e9fd0f1f93cb1ab50923,0.015,0.015,0,56,56,33,1,onethree,,,,,,,,,,,,,,,,,,,,,,,,,,,,,,,,,,,,,,,,,,,,,,,,,,,,,,,,,,,,,,,,,,,,,,,,,,,,,,,,,,,,,,,,,,,,,,,,,,,,,,,,,,,,,,,,,,,,,,,,,,,,,,,,,,,,,,,
,,650739048d93f13a5f6b200b,2024-01-06_24h50.17.424,kallum_motion_pilot,2023.2.3,MacIntel,62.5,650739048d93f13a5f6b200b,6598e6a5d84f07970b831e70,6598e9fd0f1f93cb1ab50923,0.015,0.015,0,57,57,44,1,threeone,,,,,,,,,,,,,,,,,,,,,,,,,,,,,,,,,,,,,,,,,,,,,,,,,,,,,,,,,,,,,,,,,,,,,,,,,,,,,,,,,,,,,,,,,,,,,,,,,,,,,,,,,,,,,,,,,,,,,,,,,,,,,,,,,,,,,,,
,,650739048d93f13a5f6b200b,2024-01-06_24h50.17.424,kallum_motion_pilot,2023.2.3,MacIntel,62.5,650739048d93f13a5f6b200b,6598e6a5d84f07970b831e70,6598e9fd0f1f93cb1ab50923,0.015,0.015,0,58,58,71,1,fourthree,,,,,,,,,,,,,,,,,,,,,,,,,,,,,,,,,,,,,,,,,,,,,,,,,,,,,,,,,,,,,,,,,,,,,,,,,,,,,,,,,,,,,,,,,,,,,,,,,,,,,,,,,,,,,,,,,,,,,,,,,,,,,,,,,,,,,,,
,,650739048d93f13a5f6b200b,2024-01-06_24h50.17.424,kallum_motion_pilot,2023.2.3,MacIntel,62.5,650739048d93f13a5f6b200b,6598e6a5d84f07970b831e70,6598e9fd0f1f93cb1ab50923,0.015,0.015,0,59,59,81,1,fiveseven,,,,,,,,,,,,,,,,,,,,,,,,,,,,,,,,,,,,,,,,,,,,,,,,,,,,,,,,,,,,,,,,,,,,,,,,,,,,,,,,,,,,,,,,,,,,,,,,,,,,,,,,,,,,,,,,,,,,,,,,,,,,,,,,,,,,,,,
,,650739048d93f13a5f6b200b,2024-01-06_24h50.17.424,kallum_motion_pilot,2023.2.3,MacIntel,62.5,650739048d93f13a5f6b200b,6598e6a5d84f07970b831e70,6598e9fd0f1f93cb1ab50923,0.015,0.015,0,60,60,32,1,onetwo,,,,,,,,,,,,,,,,,,,,,,,,,,,,,,,,,,,,,,,,,,,,,,,,,,,,,,,,,,,,,,,,,,,,,,,,,,,,,,,,,,,,,,,,,,,,,,,,,,,,,,,,,,,,,,,,,,,,,,,,,,,,,,,,,,,,,,,
,,650739048d93f13a5f6b200b,2024-01-06_24h50.17.424,kallum_motion_pilot,2023.2.3,MacIntel,62.5,650739048d93f13a5f6b200b,6598e6a5d84f07970b831e70,6598e9fd0f1f93cb1ab50923,0.015,0.015,0,61,61,106,1,sixfive,,,,,,,,,,,,,,,,,,,,,,,,,,,,,,,,,,,,,,,,,,,,,,,,,,,,,,,,,,,,,,,,,,,,,,,,,,,,,,,,,,,,,,,,,,,,,,,,,,,,,,,,,,,,,,,,,,,,,,,,,,,,,,,,,,,,,,,
,,650739048d93f13a5f6b200b,2024-01-06_24h50.17.424,kallum_motion_pilot,2023.2.3,MacIntel,62.5,650739048d93f13a5f6b200b,6598e6a5d84f07970b831e70,6598e9fd0f1f93cb1ab50923,0.015,0.015,0,62,62,136,1,fivesix,,,,,,,,,,,,,,,,,,,,,,,,,,,,,,,,,,,,,,,,,,,,,,,,,,,,,,,,,,,,,,,,,,,,,,,,,,,,,,,,,,,,,,,,,,,,,,,,,,,,,,,,,,,,,,,,,,,,,,,,,,,,,,,,,,,,,,,
,,650739048d93f13a5f6b200b,2024-01-06_24h50.17.424,kallum_motion_pilot,2023.2.3,MacIntel,62.5,650739048d93f13a5f6b200b,6598e6a5d84f07970b831e70,6598e9fd0f1f93cb1ab50923,0.015,0.015,0,63,63,30,1,fourtwo,,,,,,,,,,,,,,,,,,,,,,,,,,,,,,,,,,,,,,,,,,,,,,,,,,,,,,,,,,,,,,,,,,,,,,,,,,,,,,,,,,,,,,,,,,,,,,,,,,,,,,,,,,,,,,,,,,,,,,,,,,,,,,,,,,,,,,,
,,650739048d93f13a5f6b200b,2024-01-06_24h50.17.424,kallum_motion_pilot,2023.2.3,MacIntel,62.5,650739048d93f13a5f6b200b,6598e6a5d84f07970b831e70,6598e9fd0f1f93cb1ab50923,0.015,0.016,0,64,64,63,1,fourthree,,,,,,,,,,,,,,,,,,,,,,,,,,,,,,,,,,,,,,,,,,,,,,,,,,,,,,,,,,,,,,,,,,,,,,,,,,,,,,,,,,,,,,,,,,,,,,,,,,,,,,,,,,,,,,,,,,,,,,,,,,,,,,,,,,,,,,,
,,650739048d93f13a5f6b200b,2024-01-06_24h50.17.424,kallum_motion_pilot,2023.2.3,MacIntel,62.5,650739048d93f13a5f6b200b,6598e6a5d84f07970b831e70,6598e9fd0f1f93cb1ab50923,0.016,0.016,0,65,65,87,1,eightseven,,,,,,,,,,,,,,,,,,,,,,,,,,,,,,,,,,,,,,,,,,,,,,,,,,,,,,,,,,,,,,,,,,,,,,,,,,,,,,,,,,,,,,,,,,,,,,,,,,,,,,,,,,,,,,,,,,,,,,,,,,,,,,,,,,,,,,,
,,650739048d93f13a5f6b200b,2024-01-06_24h50.17.424,kallum_motion_pilot,2023.2.3,MacIntel,62.5,650739048d93f13a5f6b200b,6598e6a5d84f07970b831e70,6598e9fd0f1f93cb1ab50923,0.016,0.016,0,66,66,94,1,eightsix,,,,,,,,,,,,,,,,,,,,,,,,,,,,,,,,,,,,,,,,,,,,,,,,,,,,,,,,,,,,,,,,,,,,,,,,,,,,,,,,,,,,,,,,,,,,,,,,,,,,,,,,,,,,,,,,,,,,,,,,,,,,,,,,,,,,,,,
,,650739048d93f13a5f6b200b,2024-01-06_24h50.17.424,kallum_motion_pilot,2023.2.3,MacIntel,62.5,650739048d93f13a5f6b200b,6598e6a5d84f07970b831e70,6598e9fd0f1f93cb1ab50923,0.016,0.016,0,67,67,159,1,eightseven,,,,,,,,,,,,,,,,,,,,,,,,,,,,,,,,,,,,,,,,,,,,,,,,,,,,,,,,,,,,,,,,,,,,,,,,,,,,,,,,,,,,,,,,,,,,,,,,,,,,,,,,,,,,,,,,,,,,,,,,,,,,,,,,,,,,,,,
,,650739048d93f13a5f6b200b,2024-01-06_24h50.17.424,kallum_motion_pilot,2023.2.3,MacIntel,62.5,650739048d93f13a5f6b200b,6598e6a5d84f07970b831e70,6598e9fd0f1f93cb1ab50923,0.016,0.016,0,68,68,41,1,onethree,,,,,,,,,,,,,,,,,,,,,,,,,,,,,,,,,,,,,,,,,,,,,,,,,,,,,,,,,,,,,,,,,,,,,,,,,,,,,,,,,,,,,,,,,,,,,,,,,,,,,,,,,,,,,,,,,,,,,,,,,,,,,,,,,,,,,,,
,,650739048d93f13a5f6b200b,2024-01-06_24h50.17.424,kallum_motion_pilot,2023.2.3,MacIntel,62.5,650739048d93f13a5f6b200b,6598e6a5d84f07970b831e70,6598e9fd0f1f93cb1ab50923,0.016,0.016,0,69,69,46,1,fourtwo,,,,,,,,,,,,,,,,,,,,,,,,,,,,,,,,,,,,,,,,,,,,,,,,,,,,,,,,,,,,,,,,,,,,,,,,,,,,,,,,,,,,,,,,,,,,,,,,,,,,,,,,,,,,,,,,,,,,,,,,,,,,,,,,,,,,,,,
,,650739048d93f13a5f6b200b,2024-01-06_24h50.17.424,kallum_motion_pilot,2023.2.3,MacIntel,62.5,650739048d93f13a5f6b200b,6598e6a5d84f07970b831e70,6598e9fd0f1f93cb1ab50923,0.016,0.016,0,70,70,116,1,sevenfive,,,,,,,,,,,,,,,,,,,,,,,,,,,,,,,,,,,,,,,,,,,,,,,,,,,,,,,,,,,,,,,,,,,,,,,,,,,,,,,,,,,,,,,,,,,,,,,,,,,,,,,,,,,,,,,,,,,,,,,,,,,,,,,,,,,,,,,
,,650739048d93f13a5f6b200b,2024-01-06_24h50.17.424,kallum_motion_pilot,2023.2.3,MacIntel,62.5,650739048d93f13a5f6b200b,6598e6a5d84f07970b831e70,6598e9fd0f1f93cb1ab50923,0.016,0.016,0,71,71,145,1,fiveseven,,,,,,,,,,,,,,,,,,,,,,,,,,,,,,,,,,,,,,,,,,,,,,,,,,,,,,,,,,,,,,,,,,,,,,,,,,,,,,,,,,,,,,,,,,,,,,,,,,,,,,,,,,,,,,,,,,,,,,,,,,,,,,,,,,,,,,,
,,650739048d93f13a5f6b200b,2024-01-06_24h50.17.424,kallum_motion_pilot,2023.2.3,MacIntel,62.5,650739048d93f13a5f6b200b,6598e6a5d84f07970b831e70,6598e9fd0f1f93cb1ab50923,0.016,0.016,0,72,72,105,1,fiveseven,,,,,,,,,,,,,,,,,,,,,,,,,,,,,,,,,,,,,,,,,,,,,,,,,,,,,,,,,,,,,,,,,,,,,,,,,,,,,,,,,,,,,,,,,,,,,,,,,,,,,,,,,,,,,,,,,,,,,,,,,,,,,,,,,,,,,,,
,,650739048d93f13a5f6b200b,2024-01-06_24h50.17.424,kallum_motion_pilot,2023.2.3,MacIntel,62.5,650739048d93f13a5f6b200b,6598e6a5d84f07970b831e70,6598e9fd0f1f93cb1ab50923,0.016,0.016,0,73,73,54,1,fourtwo,,,,,,,,,,,,,,,,,,,,,,,,,,,,,,,,,,,,,,,,,,,,,,,,,,,,,,,,,,,,,,,,,,,,,,,,,,,,,,,,,,,,,,,,,,,,,,,,,,,,,,,,,,,,,,,,,,,,,,,,,,,,,,,,,,,,,,,
,,650739048d93f13a5f6b200b,2024-01-06_24h50.17.424,kallum_motion_pilot,2023.2.3,MacIntel,62.5,650739048d93f13a5f6b200b,6598e6a5d84f07970b831e70,6598e9fd0f1f93cb1ab50923,0.016,0.016,0,74,74,75,1,twofour,,,,,,,,,,,,,,,,,,,,,,,,,,,,,,,,,,,,,,,,,,,,,,,,,,,,,,,,,,,,,,,,,,,,,,,,,,,,,,,,,,,,,,,,,,,,,,,,,,,,,,,,,,,,,,,,,,,,,,,,,,,,,,,,,,,,,,,
,,650739048d93f13a5f6b200b,2024-01-06_24h50.17.424,kallum_motion_pilot,2023.2.3,MacIntel,62.5,650739048d93f13a5f6b200b,6598e6a5d84f07970b831e70,6598e9fd0f1f93cb1ab50923,0.016,0.016,0,75,75,60,1,threeone,,,,,,,,,,,,,,,,,,,,,,,,,,,,,,,,,,,,,,,,,,,,,,,,,,,,,,,,,,,,,,,,,,,,,,,,,,,,,,,,,,,,,,,,,,,,,,,,,,,,,,,,,,,,,,,,,,,,,,,,,,,,,,,,,,,,,,,
,,650739048d93f13a5f6b200b,2024-01-06_24h50.17.424,kallum_motion_pilot,2023.2.3,MacIntel,62.5,650739048d93f13a5f6b200b,6598e6a5d84f07970b831e70,6598e9fd0f1f93cb1ab50923,0.016,0.016,0,76,76,68,1,threeone,,,,,,,,,,,,,,,,,,,,,,,,,,,,,,,,,,,,,,,,,,,,,,,,,,,,,,,,,,,,,,,,,,,,,,,,,,,,,,,,,,,,,,,,,,,,,,,,,,,,,,,,,,,,,,,,,,,,,,,,,,,,,,,,,,,,,,,
,,650739048d93f13a5f6b200b,2024-01-06_24h50.17.424,kallum_motion_pilot,2023.2.3,MacIntel,62.5,650739048d93f13a5f6b200b,6598e6a5d84f07970b831e70,6598e9fd0f1f93cb1ab50923,0.016,0.016,0,77,77,146,1,sixfive,,,,,,,,,,,,,,,,,,,,,,,,,,,,,,,,,,,,,,,,,,,,,,,,,,,,,,,,,,,,,,,,,,,,,,,,,,,,,,,,,,,,,,,,,,,,,,,,,,,,,,,,,,,,,,,,,,,,,,,,,,,,,,,,,,,,,,,
,,650739048d93f13a5f6b200b,2024-01-06_24h50.17.424,kallum_motion_pilot,2023.2.3,MacIntel,62.5,650739048d93f13a5f6b200b,6598e6a5d84f07970b831e70,6598e9fd0f1f93cb1ab50923,0.016,0.016,0,78,78,160,1,fivesix,,,,,,,,,,,,,,,,,,,,,,,,,,,,,,,,,,,,,,,,,,,,,,,,,,,,,,,,,,,,,,,,,,,,,,,,,,,,,,,,,,,,,,,,,,,,,,,,,,,,,,,,,,,,,,,,,,,,,,,,,,,,,,,,,,,,,,,
,,650739048d93f13a5f6b200b,2024-01-06_24h50.17.424,kallum_motion_pilot,2023.2.3,MacIntel,62.5,650739048d93f13a5f6b200b,6598e6a5d84f07970b831e70,6598e9fd0f1f93cb1ab50923,0.016,0.016,0,79,79,149,1,seveneight,,,,,,,,,,,,,,,,,,,,,,,,,,,,,,,,,,,,,,,,,,,,,,,,,,,,,,,,,,,,,,,,,,,,,,,,,,,,,,,,,,,,,,,,,,,,,,,,,,,,,,,,,,,,,,,,,,,,,,,,,,,,,,,,,,,,,,,
,,650739048d93f13a5f6b200b,2024-01-06_24h50.17.424,kallum_motion_pilot,2023.2.3,MacIntel,62.5,650739048d93f13a5f6b200b,6598e6a5d84f07970b831e70,6598e9fd0f1f93cb1ab50923,0.016,0.016,0,80,80,4,1,threeone,,,,,,,,,,,,,,,,,,,,,,,,,,,,,,,,,,,,,,,,,,,,,,,,,,,,,,,,,,,,,,,,,,,,,,,,,,,,,,,,,,,,,,,,,,,,,,,,,,,,,,,,,,,,,,,,,,,,,,,,,,,,,,,,,,,,,,,
,,650739048d93f13a5f6b200b,2024-01-06_24h50.17.424,kallum_motion_pilot,2023.2.3,MacIntel,62.5,650739048d93f13a5f6b200b,6598e6a5d84f07970b831e70,6598e9fd0f1f93cb1ab50923,0.016,0.016,0,81,81,6,1,fourtwo,,,,,,,,,,,,,,,,,,,,,,,,,,,,,,,,,,,,,,,,,,,,,,,,,,,,,,,,,,,,,,,,,,,,,,,,,,,,,,,,,,,,,,,,,,,,,,,,,,,,,,,,,,,,,,,,,,,,,,,,,,,,,,,,,,,,,,,
,,650739048d93f13a5f6b200b,2024-01-06_24h50.17.424,kallum_motion_pilot,2023.2.3,MacIntel,62.5,650739048d93f13a5f6b200b,6598e6a5d84f07970b831e70,6598e9fd0f1f93cb1ab50923,0.016,0.016,0,82,82,155,1,sixeight,,,,,,,,,,,,,,,,,,,,,,,,,,,,,,,,,,,,,,,,,,,,,,,,,,,,,,,,,,,,,,,,,,,,,,,,,,,,,,,,,,,,,,,,,,,,,,,,,,,,,,,,,,,,,,,,,,,,,,,,,,,,,,,,,,,,,,,
,,650739048d93f13a5f6b200b,2024-01-06_24h50.17.424,kallum_motion_pilot,2023.2.3,MacIntel,62.5,650739048d93f13a5f6b200b,6598e6a5d84f07970b831e70,6598e9fd0f1f93cb1ab50923,0.017,0.017,0,83,83,158,1,eightsix,,,,,,,,,,,,,,,,,,,,,,,,,,,,,,,,,,,,,,,,,,,,,,,,,,,,,,,,,,,,,,,,,,,,,,,,,,,,,,,,,,,,,,,,,,,,,,,,,,,,,,,,,,,,,,,,,,,,,,,,,,,,,,,,,,,,,,,
,,650739048d93f13a5f6b200b,2024-01-06_24h50.17.424,kallum_motion_pilot,2023.2.3,MacIntel,62.5,650739048d93f13a5f6b200b,6598e6a5d84f07970b831e70,6598e9fd0f1f93cb1ab50923,0.017,0.017,0,84,84,107,1,sixeight,,,,,,,,,,,,,,,,,,,,,,,,,,,,,,,,,,,,,,,,,,,,,,,,,,,,,,,,,,,,,,,,,,,,,,,,,,,,,,,,,,,,,,,,,,,,,,,,,,,,,,,,,,,,,,,,,,,,,,,,,,,,,,,,,,,,,,,
,,650739048d93f13a5f6b200b,2024-01-06_24h50.17.424,kallum_motion_pilot,2023.2.3,MacIntel,62.5,650739048d93f13a5f6b200b,6598e6a5d84f07970b831e70,6598e9fd0f1f93cb1ab50923,0.017,0.017,0,85,85,2,1,twoone,,,,,,,,,,,,,,,,,,,,,,,,,,,,,,,,,,,,,,,,,,,,,,,,,,,,,,,,,,,,,,,,,,,,,,,,,,,,,,,,,,,,,,,,,,,,,,,,,,,,,,,,,,,,,,,,,,,,,,,,,,,,,,,,,,,,,,,
,,650739048d93f13a5f6b200b,2024-01-06_24h50.17.424,kallum_motion_pilot,2023.2.3,MacIntel,62.5,650739048d93f13a5f6b200b,6598e6a5d84f07970b831e70,6598e9fd0f1f93cb1ab50923,0.017,0.017,0,86,86,124,1,sevenfive,,,,,,,,,,,,,,,,,,,,,,,,,,,,,,,,,,,,,,,,,,,,,,,,,,,,,,,,,,,,,,,,,,,,,,,,,,,,,,,,,,,,,,,,,,,,,,,,,,,,,,,,,,,,,,,,,,,,,,,,,,,,,,,,,,,,,,,
,,650739048d93f13a5f6b200b,2024-01-06_24h50.17.424,kallum_motion_pilot,2023.2.3,MacIntel,62.5,650739048d93f13a5f6b200b,6598e6a5d84f07970b831e70,6598e9fd0f1f93cb1ab50923,0.017,0.017,0,87,87,112,1,fivesix,,,,,,,,,,,,,,,,,,,,,,,,,,,,,,,,,,,,,,,,,,,,,,,,,,,,,,,,,,,,,,,,,,,,,,,,,,,,,,,,,,,,,,,,,,,,,,,,,,,,,,,,,,,,,,,,,,,,,,,,,,,,,,,,,,,,,,,
,,650739048d93f13a5f6b200b,2024-01-06_24h50.17.424,kallum_motion_pilot,2023.2.3,MacIntel,62.5,650739048d93f13a5f6b200b,6598e6a5d84f07970b831e70,6598e9fd0f1f93cb1ab50923,0.017,0.017,0,88,88,29,1,threefour,,,,,,,,,,,,,,,,,,,,,,,,,,,,,,,,,,,,,,,,,,,,,,,,,,,,,,,,,,,,,,,,,,,,,,,,,,,,,,,,,,,,,,,,,,,,,,,,,,,,,,,,,,,,,,,,,,,,,,,,,,,,,,,,,,,,,,,
,,650739048d93f13a5f6b200b,2024-01-06_24h50.17.424,kallum_motion_pilot,2023.2.3,MacIntel,62.5,650739048d93f13a5f6b200b,6598e6a5d84f07970b831e70,6598e9fd0f1f93cb1ab50923,0.017,0.017,0,89,89,74,1,twoone,,,,,,,,,,,,,,,,,,,,,,,,,,,,,,,,,,,,,,,,,,,,,,,,,,,,,,,,,,,,,,,,,,,,,,,,,,,,,,,,,,,,,,,,,,,,,,,,,,,,,,,,,,,,,,,,,,,,,,,,,,,,,,,,,,,,,,,
,,650739048d93f13a5f6b200b,2024-01-06_24h50.17.424,kallum_motion_pilot,2023.2.3,MacIntel,62.5,650739048d93f13a5f6b200b,6598e6a5d84f07970b831e70,6598e9fd0f1f93cb1ab50923,0.017,0.017,0,90,90,79,1,eightseven,,,,,,,,,,,,,,,,,,,,,,,,,,,,,,,,,,,,,,,,,,,,,,,,,,,,,,,,,,,,,,,,,,,,,,,,,,,,,,,,,,,,,,,,,,,,,,,,,,,,,,,,,,,,,,,,,,,,,,,,,,,,,,,,,,,,,,,
,,650739048d93f13a5f6b200b,2024-01-06_24h50.17.424,kallum_motion_pilot,2023.2.3,MacIntel,62.5,650739048d93f13a5f6b200b,6598e6a5d84f07970b831e70,6598e9fd0f1f93cb1ab50923,0.018,0.018,0,91,91,52,1,threeone,,,,,,,,,,,,,,,,,,,,,,,,,,,,,,,,,,,,,,,,,,,,,,,,,,,,,,,,,,,,,,,,,,,,,,,,,,,,,,,,,,,,,,,,,,,,,,,,,,,,,,,,,,,,,,,,,,,,,,,,,,,,,,,,,,,,,,,
,,650739048d93f13a5f6b200b,2024-01-06_24h50.17.424,kallum_motion_pilot,2023.2.3,MacIntel,62.5,650739048d93f13a5f6b200b,6598e6a5d84f07970b831e70,6598e9fd0f1f93cb1ab50923,0.018,0.018,0,92,92,40,1,onetwo,,,,,,,,,,,,,,,,,,,,,,,,,,,,,,,,,,,,,,,,,,,,,,,,,,,,,,,,,,,,,,,,,,,,,,,,,,,,,,,,,,,,,,,,,,,,,,,,,,,,,,,,,,,,,,,,,,,,,,,,,,,,,,,,,,,,,,,
,,650739048d93f13a5f6b200b,2024-01-06_24h50.17.424,kallum_motion_pilot,2023.2.3,MacIntel,62.5,650739048d93f13a5f6b200b,6598e6a5d84f07970b831e70,6598e9fd0f1f93cb1ab50923,0.018,0.018,0,93,93,83,1,sixeight,,,,,,,,,,,,,,,,,,,,,,,,,,,,,,,,,,,,,,,,,,,,,,,,,,,,,,,,,,,,,,,,,,,,,,,,,,,,,,,,,,,,,,,,,,,,,,,,,,,,,,,,,,,,,,,,,,,,,,,,,,,,,,,,,,,,,,,
,,650739048d93f13a5f6b200b,2024-01-06_24h50.17.424,kallum_motion_pilot,2023.2.3,MacIntel,62.5,650739048d93f13a5f6b200b,6598e6a5d84f07970b831e70,6598e9fd0f1f93cb1ab50923,0.018,0.018,0,94,94,73,1,onethree,,,,,,,,,,,,,,,,,,,,,,,,,,,,,,,,,,,,,,,,,,,,,,,,,,,,,,,,,,,,,,,,,,,,,,,,,,,,,,,,,,,,,,,,,,,,,,,,,,,,,,,,,,,,,,,,,,,,,,,,,,,,,,,,,,,,,,,
,,650739048d93f13a5f6b200b,2024-01-06_24h50.17.424,kallum_motion_pilot,2023.2.3,MacIntel,62.5,650739048d93f13a5f6b200b,6598e6a5d84f07970b831e70,6598e9fd0f1f93cb1ab50923,0.018,0.018,0,95,95,21,1,threefour,,,,,,,,,,,,,,,,,,,,,,,,,,,,,,,,,,,,,,,,,,,,,,,,,,,,,,,,,,,,,,,,,,,,,,,,,,,,,,,,,,,,,,,,,,,,,,,,,,,,,,,,,,,,,,,,,,,,,,,,,,,,,,,,,,,,,,,
,,650739048d93f13a5f6b200b,2024-01-06_24h50.17.424,kallum_motion_pilot,2023.2.3,MacIntel,62.5,650739048d93f13a5f6b200b,6598e6a5d84f07970b831e70,6598e9fd0f1f93cb1ab50923,0.018,0.018,0,96,96,93,1,seveneight,,,,,,,,,,,,,,,,,,,,,,,,,,,,,,,,,,,,,,,,,,,,,,,,,,,,,,,,,,,,,,,,,,,,,,,,,,,,,,,,,,,,,,,,,,,,,,,,,,,,,,,,,,,,,,,,,,,,,,,,,,,,,,,,,,,,,,,
,,650739048d93f13a5f6b200b,2024-01-06_24h50.17.424,kallum_motion_pilot,2023.2.3,MacIntel,62.5,650739048d93f13a5f6b200b,6598e6a5d84f07970b831e70,6598e9fd0f1f93cb1ab50923,0.018,0.018,0,97,97,31,1,fourthree,,,,,,,,,,,,,,,,,,,,,,,,,,,,,,,,,,,,,,,,,,,,,,,,,,,,,,,,,,,,,,,,,,,,,,,,,,,,,,,,,,,,,,,,,,,,,,,,,,,,,,,,,,,,,,,,,,,,,,,,,,,,,,,,,,,,,,,
,,650739048d93f13a5f6b200b,2024-01-06_24h50.17.424,kallum_motion_pilot,2023.2.3,MacIntel,62.5,650739048d93f13a5f6b200b,6598e6a5d84f07970b831e70,6598e9fd0f1f93cb1ab50923,0.018,0.018,0,98,98,156,1,sevenfive,,,,,,,,,,,,,,,,,,,,,,,,,,,,,,,,,,,,,,,,,,,,,,,,,,,,,,,,,,,,,,,,,,,,,,,,,,,,,,,,,,,,,,,,,,,,,,,,,,,,,,,,,,,,,,,,,,,,,,,,,,,,,,,,,,,,,,,
,,650739048d93f13a5f6b200b,2024-01-06_24h50.17.424,kallum_motion_pilot,2023.2.3,MacIntel,62.5,650739048d93f13a5f6b200b,6598e6a5d84f07970b831e70,6598e9fd0f1f93cb1ab50923,0.018,0.018,0,99,99,13,1,threefour,,,,,,,,,,,,,,,,,,,,,,,,,,,,,,,,,,,,,,,,,,,,,,,,,,,,,,,,,,,,,,,,,,,,,,,,,,,,,,,,,,,,,,,,,,,,,,,,,,,,,,,,,,,,,,,,,,,,,,,,,,,,,,,,,,,,,,,
,,650739048d93f13a5f6b200b,2024-01-06_24h50.17.424,kallum_motion_pilot,2023.2.3,MacIntel,62.5,650739048d93f13a5f6b200b,6598e6a5d84f07970b831e70,6598e9fd0f1f93cb1ab50923,0.018,0.018,0,100,100,161,1,fiveseven,,,,,,,,,,,,,,,,,,,,,,,,,,,,,,,,,,,,,,,,,,,,,,,,,,,,,,,,,,,,,,,,,,,,,,,,,,,,,,,,,,,,,,,,,,,,,,,,,,,,,,,,,,,,,,,,,,,,,,,,,,,,,,,,,,,,,,,
,,650739048d93f13a5f6b200b,2024-01-06_24h50.17.424,kallum_motion_pilot,2023.2.3,MacIntel,62.5,650739048d93f13a5f6b200b,6598e6a5d84f07970b831e70,6598e9fd0f1f93cb1ab50923,0.018,0.018,0,101,101,18,1,twoone,,,,,,,,,,,,,,,,,,,,,,,,,,,,,,,,,,,,,,,,,,,,,,,,,,,,,,,,,,,,,,,,,,,,,,,,,,,,,,,,,,,,,,,,,,,,,,,,,,,,,,,,,,,,,,,,,,,,,,,,,,,,,,,,,,,,,,,
,,650739048d93f13a5f6b200b,2024-01-06_24h50.17.424,kallum_motion_pilot,2023.2.3,MacIntel,62.5,650739048d93f13a5f6b200b,6598e6a5d84f07970b831e70,6598e9fd0f1f93cb1ab50923,0.018,0.018,0,102,102,25,1,onethree,,,,,,,,,,,,,,,,,,,,,,,,,,,,,,,,,,,,,,,,,,,,,,,,,,,,,,,,,,,,,,,,,,,,,,,,,,,,,,,,,,,,,,,,,,,,,,,,,,,,,,,,,,,,,,,,,,,,,,,,,,,,,,,,,,,,,,,
,,650739048d93f13a5f6b200b,2024-01-06_24h50.17.424,kallum_motion_pilot,2023.2.3,MacIntel,62.5,650739048d93f13a5f6b200b,6598e6a5d84f07970b831e70,6598e9fd0f1f93cb1ab50923,0.018,0.018,0,103,103,118,1,eightsix,,,,,,,,,,,,,,,,,,,,,,,,,,,,,,,,,,,,,,,,,,,,,,,,,,,,,,,,,,,,,,,,,,,,,,,,,,,,,,,,,,,,,,,,,,,,,,,,,,,,,,,,,,,,,,,,,,,,,,,,,,,,,,,,,,,,,,,
,,650739048d93f13a5f6b200b,2024-01-06_24h50.17.424,kallum_motion_pilot,2023.2.3,MacIntel,62.5,650739048d93f13a5f6b200b,6598e6a5d84f07970b831e70,6598e9fd0f1f93cb1ab50923,0.018,0.019,0,104,104,142,1,eightsix,,,,,,,,,,,,,,,,,,,,,,,,,,,,,,,,,,,,,,,,,,,,,,,,,,,,,,,,,,,,,,,,,,,,,,,,,,,,,,,,,,,,,,,,,,,,,,,,,,,,,,,,,,,,,,,,,,,,,,,,,,,,,,,,,,,,,,,
,,650739048d93f13a5f6b200b,2024-01-06_24h50.17.424,kallum_motion_pilot,2023.2.3,MacIntel,62.5,650739048d93f13a5f6b200b,6598e6a5d84f07970b831e70,6598e9fd0f1f93cb1ab50923,0.019,0.019,0,105,105,103,1,eightseven,,,,,,,,,,,,,,,,,,,,,,,,,,,,,,,,,,,,,,,,,,,,,,,,,,,,,,,,,,,,,,,,,,,,,,,,,,,,,,,,,,,,,,,,,,,,,,,,,,,,,,,,,,,,,,,,,,,,,,,,,,,,,,,,,,,,,,,
,,650739048d93f13a5f6b200b,2024-01-06_24h50.17.424,kallum_motion_pilot,2023.2.3,MacIntel,62.5,650739048d93f13a5f6b200b,6598e6a5d84f07970b831e70,6598e9fd0f1f93cb1ab50923,0.019,0.019,0,106,106,131,1,sixeight,,,,,,,,,,,,,,,,,,,,,,,,,,,,,,,,,,,,,,,,,,,,,,,,,,,,,,,,,,,,,,,,,,,,,,,,,,,,,,,,,,,,,,,,,,,,,,,,,,,,,,,,,,,,,,,,,,,,,,,,,,,,,,,,,,,,,,,
,,650739048d93f13a5f6b200b,2024-01-06_24h50.17.424,kallum_motion_pilot,2023.2.3,MacIntel,62.5,650739048d93f13a5f6b200b,6598e6a5d84f07970b831e70,6598e9fd0f1f93cb1ab50923,0.019,0.019,0,107,107,108,1,sevenfive,,,,,,,,,,,,,,,,,,,,,,,,,,,,,,,,,,,,,,,,,,,,,,,,,,,,,,,,,,,,,,,,,,,,,,,,,,,,,,,,,,,,,,,,,,,,,,,,,,,,,,,,,,,,,,,,,,,,,,,,,,,,,,,,,,,,,,,
,,650739048d93f13a5f6b200b,2024-01-06_24h50.17.424,kallum_motion_pilot,2023.2.3,MacIntel,62.5,650739048d93f13a5f6b200b,6598e6a5d84f07970b831e70,6598e9fd0f1f93cb1ab50923,0.019,0.019,0,108,108,121,1,fiveseven,,,,,,,,,,,,,,,,,,,,,,,,,,,,,,,,,,,,,,,,,,,,,,,,,,,,,,,,,,,,,,,,,,,,,,,,,,,,,,,,,,,,,,,,,,,,,,,,,,,,,,,,,,,,,,,,,,,,,,,,,,,,,,,,,,,,,,,
,,650739048d93f13a5f6b200b,2024-01-06_24h50.17.424,kallum_motion_pilot,2023.2.3,MacIntel,62.5,650739048d93f13a5f6b200b,6598e6a5d84f07970b831e70,6598e9fd0f1f93cb1ab50923,0.019,0.019,0,109,109,129,1,fiveseven,,,,,,,,,,,,,,,,,,,,,,,,,,,,,,,,,,,,,,,,,,,,,,,,,,,,,,,,,,,,,,,,,,,,,,,,,,,,,,,,,,,,,,,,,,,,,,,,,,,,,,,,,,,,,,,,,,,,,,,,,,,,,,,,,,,,,,,
,,650739048d93f13a5f6b200b,2024-01-06_24h50.17.424,kallum_motion_pilot,2023.2.3,MacIntel,62.5,650739048d93f13a5f6b200b,6598e6a5d84f07970b831e70,6598e9fd0f1f93cb1ab50923,0.019,0.019,0,110,110,104,1,fivesix,,,,,,,,,,,,,,,,,,,,,,,,,,,,,,,,,,,,,,,,,,,,,,,,,,,,,,,,,,,,,,,,,,,,,,,,,,,,,,,,,,,,,,,,,,,,,,,,,,,,,,,,,,,,,,,,,,,,,,,,,,,,,,,,,,,,,,,
,,650739048d93f13a5f6b200b,2024-01-06_24h50.17.424,kallum_motion_pilot,2023.2.3,MacIntel,62.5,650739048d93f13a5f6b200b,6598e6a5d84f07970b831e70,6598e9fd0f1f93cb1ab50923,0.019,0.019,0,111,111,12,1,threeone,,,,,,,,,,,,,,,,,,,,,,,,,,,,,,,,,,,,,,,,,,,,,,,,,,,,,,,,,,,,,,,,,,,,,,,,,,,,,,,,,,,,,,,,,,,,,,,,,,,,,,,,,,,,,,,,,,,,,,,,,,,,,,,,,,,,,,,
,,650739048d93f13a5f6b200b,2024-01-06_24h50.17.424,kallum_motion_pilot,2023.2.3,MacIntel,62.5,650739048d93f13a5f6b200b,6598e6a5d84f07970b831e70,6598e9fd0f1f93cb1ab50923,0.019,0.019,0,112,112,43,1,twofour,,,,,,,,,,,,,,,,,,,,,,,,,,,,,,,,,,,,,,,,,,,,,,,,,,,,,,,,,,,,,,,,,,,,,,,,,,,,,,,,,,,,,,,,,,,,,,,,,,,,,,,,,,,,,,,,,,,,,,,,,,,,,,,,,,,,,,,
,,650739048d93f13a5f6b200b,2024-01-06_24h50.17.424,kallum_motion_pilot,2023.2.3,MacIntel,62.5,650739048d93f13a5f6b200b,6598e6a5d84f07970b831e70,6598e9fd0f1f93cb1ab50923,0.019,0.019,0,113,113,49,1,onethree,,,,,,,,,,,,,,,,,,,,,,,,,,,,,,,,,,,,,,,,,,,,,,,,,,,,,,,,,,,,,,,,,,,,,,,,,,,,,,,,,,,,,,,,,,,,,,,,,,,,,,,,,,,,,,,,,,,,,,,,,,,,,,,,,,,,,,,
,,650739048d93f13a5f6b200b,2024-01-06_24h50.17.424,kallum_motion_pilot,2023.2.3,MacIntel,62.5,650739048d93f13a5f6b200b,6598e6a5d84f07970b831e70,6598e9fd0f1f93cb1ab50923,0.019,0.019,0,114,114,102,1,eightsix,,,,,,,,,,,,,,,,,,,,,,,,,,,,,,,,,,,,,,,,,,,,,,,,,,,,,,,,,,,,,,,,,,,,,,,,,,,,,,,,,,,,,,,,,,,,,,,,,,,,,,,,,,,,,,,,,,,,,,,,,,,,,,,,,,,,,,,
,,650739048d93f13a5f6b200b,2024-01-06_24h50.17.424,kallum_motion_pilot,2023.2.3,MacIntel,62.5,650739048d93f13a5f6b200b,6598e6a5d84f07970b831e70,6598e9fd0f1f93cb1ab50923,0.019,0.019,0,115,115,35,1,twofour,,,,,,,,,,,,,,,,,,,,,,,,,,,,,,,,,,,,,,,,,,,,,,,,,,,,,,,,,,,,,,,,,,,,,,,,,,,,,,,,,,,,,,,,,,,,,,,,,,,,,,,,,,,,,,,,,,,,,,,,,,,,,,,,,,,,,,,
,,650739048d93f13a5f6b200b,2024-01-06_24h50.17.424,kallum_motion_pilot,2023.2.3,MacIntel,62.5,650739048d93f13a5f6b200b,6598e6a5d84f07970b831e70,6598e9fd0f1f93cb1ab50923,0.019,0.019,0,116,116,150,1,eightsix,,,,,,,,,,,,,,,,,,,,,,,,,,,,,,,,,,,,,,,,,,,,,,,,,,,,,,,,,,,,,,,,,,,,,,,,,,,,,,,,,,,,,,,,,,,,,,,,,,,,,,,,,,,,,,,,,,,,,,,,,,,,,,,,,,,,,,,
,,650739048d93f13a5f6b200b,2024-01-06_24h50.17.424,kallum_motion_pilot,2023.2.3,MacIntel,62.5,650739048d93f13a5f6b200b,6598e6a5d84f07970b831e70,6598e9fd0f1f93cb1ab50923,0.019,0.019,0,117,117,22,1,fourtwo,,,,,,,,,,,,,,,,,,,,,,,,,,,,,,,,,,,,,,,,,,,,,,,,,,,,,,,,,,,,,,,,,,,,,,,,,,,,,,,,,,,,,,,,,,,,,,,,,,,,,,,,,,,,,,,,,,,,,,,,,,,,,,,,,,,,,,,
,,650739048d93f13a5f6b200b,2024-01-06_24h50.17.424,kallum_motion_pilot,2023.2.3,MacIntel,62.5,650739048d93f13a5f6b200b,6598e6a5d84f07970b831e70,6598e9fd0f1f93cb1ab50923,0.019,0.019,0,118,118,82,1,sixfive,,,,,,,,,,,,,,,,,,,,,,,,,,,,,,,,,,,,,,,,,,,,,,,,,,,,,,,,,,,,,,,,,,,,,,,,,,,,,,,,,,,,,,,,,,,,,,,,,,,,,,,,,,,,,,,,,,,,,,,,,,,,,,,,,,,,,,,
,,650739048d93f13a5f6b200b,2024-01-06_24h50.17.424,kallum_motion_pilot,2023.2.3,MacIntel,62.5,650739048d93f13a5f6b200b,6598e6a5d84f07970b831e70,6598e9fd0f1f93cb1ab50923,0.019,0.019,0,119,119,91,1,sixeight,,,,,,,,,,,,,,,,,,,,,,,,,,,,,,,,,,,,,,,,,,,,,,,,,,,,,,,,,,,,,,,,,,,,,,,,,,,,,,,,,,,,,,,,,,,,,,,,,,,,,,,,,,,,,,,,,,,,,,,,,,,,,,,,,,,,,,,
,,650739048d93f13a5f6b200b,2024-01-06_24h50.17.424,kallum_motion_pilot,2023.2.3,MacIntel,62.5,650739048d93f13a5f6b200b,6598e6a5d84f07970b831e70,6598e9fd0f1f93cb1ab50923,0.019,0.019,0,120,120,114,1,sixfive,,,,,,,,,,,,,,,,,,,,,,,,,,,,,,,,,,,,,,,,,,,,,,,,,,,,,,,,,,,,,,,,,,,,,,,,,,,,,,,,,,,,,,,,,,,,,,,,,,,,,,,,,,,,,,,,,,,,,,,,,,,,,,,,,,,,,,,
,,650739048d93f13a5f6b200b,2024-01-06_24h50.17.424,kallum_motion_pilot,2023.2.3,MacIntel,62.5,650739048d93f13a5f6b200b,6598e6a5d84f07970b831e70,6598e9fd0f1f93cb1ab50923,0.019,0.019,0,121,121,90,1,sixfive,,,,,,,,,,,,,,,,,,,,,,,,,,,,,,,,,,,,,,,,,,,,,,,,,,,,,,,,,,,,,,,,,,,,,,,,,,,,,,,,,,,,,,,,,,,,,,,,,,,,,,,,,,,,,,,,,,,,,,,,,,,,,,,,,,,,,,,
,,650739048d93f13a5f6b200b,2024-01-06_24h50.17.424,kallum_motion_pilot,2023.2.3,MacIntel,62.5,650739048d93f13a5f6b200b,6598e6a5d84f07970b831e70,6598e9fd0f1f93cb1ab50923,0.019,0.019,0,122,122,89,1,fiveseven,,,,,,,,,,,,,,,,,,,,,,,,,,,,,,,,,,,,,,,,,,,,,,,,,,,,,,,,,,,,,,,,,,,,,,,,,,,,,,,,,,,,,,,,,,,,,,,,,,,,,,,,,,,,,,,,,,,,,,,,,,,,,,,,,,,,,,,
,,650739048d93f13a5f6b200b,2024-01-06_24h50.17.424,kallum_motion_pilot,2023.2.3,MacIntel,62.5,650739048d93f13a5f6b200b,6598e6a5d84f07970b831e70,6598e9fd0f1f93cb1ab50923,0.019,0.019,0,123,123,8,1,onetwo,,,,,,,,,,,,,,,,,,,,,,,,,,,,,,,,,,,,,,,,,,,,,,,,,,,,,,,,,,,,,,,,,,,,,,,,,,,,,,,,,,,,,,,,,,,,,,,,,,,,,,,,,,,,,,,,,,,,,,,,,,,,,,,,,,,,,,,
,,650739048d93f13a5f6b200b,2024-01-06_24h50.17.424,kallum_motion_pilot,2023.2.3,MacIntel,62.5,650739048d93f13a5f6b200b,6598e6a5d84f07970b831e70,6598e9fd0f1f93cb1ab50923,0.019,0.019,0,124,124,34,1,twoone,,,,,,,,,,,,,,,,,,,,,,,,,,,,,,,,,,,,,,,,,,,,,,,,,,,,,,,,,,,,,,,,,,,,,,,,,,,,,,,,,,,,,,,,,,,,,,,,,,,,,,,,,,,,,,,,,,,,,,,,,,,,,,,,,,,,,,,
,,650739048d93f13a5f6b200b,2024-01-06_24h50.17.424,kallum_motion_pilot,2023.2.3,MacIntel,62.5,650739048d93f13a5f6b200b,6598e6a5d84f07970b831e70,6598e9fd0f1f93cb1ab50923,0.019,0.019,0,125,125,122,1,sixfive,,,,,,,,,,,,,,,,,,,,,,,,,,,,,,,,,,,,,,,,,,,,,,,,,,,,,,,,,,,,,,,,,,,,,,,,,,,,,,,,,,,,,,,,,,,,,,,,,,,,,,,,,,,,,,,,,,,,,,,,,,,,,,,,,,,,,,,
,,650739048d93f13a5f6b200b,2024-01-06_24h50.17.424,kallum_motion_pilot,2023.2.3,MacIntel,62.5,650739048d93f13a5f6b200b,6598e6a5d84f07970b831e70,6598e9fd0f1f93cb1ab50923,0.019,0.019,0,126,126,10,1,twoone,,,,,,,,,,,,,,,,,,,,,,,,,,,,,,,,,,,,,,,,,,,,,,,,,,,,,,,,,,,,,,,,,,,,,,,,,,,,,,,,,,,,,,,,,,,,,,,,,,,,,,,,,,,,,,,,,,,,,,,,,,,,,,,,,,,,,,,
,,650739048d93f13a5f6b200b,2024-01-06_24h50.17.424,kallum_motion_pilot,2023.2.3,MacIntel,62.5,650739048d93f13a5f6b200b,6598e6a5d84f07970b831e70,6598e9fd0f1f93cb1ab50923,0.019,0.019,0,127,127,113,1,fiveseven,,,,,,,,,,,,,,,,,,,,,,,,,,,,,,,,,,,,,,,,,,,,,,,,,,,,,,,,,,,,,,,,,,,,,,,,,,,,,,,,,,,,,,,,,,,,,,,,,,,,,,,,,,,,,,,,,,,,,,,,,,,,,,,,,,,,,,,
,,650739048d93f13a5f6b200b,2024-01-06_24h50.17.424,kallum_motion_pilot,2023.2.3,MacIntel,62.5,650739048d93f13a5f6b200b,6598e6a5d84f07970b831e70,6598e9fd0f1f93cb1ab50923,0.019,0.019,0,128,128,61,1,threefour,,,,,,,,,,,,,,,,,,,,,,,,,,,,,,,,,,,,,,,,,,,,,,,,,,,,,,,,,,,,,,,,,,,,,,,,,,,,,,,,,,,,,,,,,,,,,,,,,,,,,,,,,,,,,,,,,,,,,,,,,,,,,,,,,,,,,,,
,,650739048d93f13a5f6b200b,2024-01-06_24h50.17.424,kallum_motion_pilot,2023.2.3,MacIntel,62.5,650739048d93f13a5f6b200b,6598e6a5d84f07970b831e70,6598e9fd0f1f93cb1ab50923,0.019,0.019,0,129,129,45,1,threefour,,,,,,,,,,,,,,,,,,,,,,,,,,,,,,,,,,,,,,,,,,,,,,,,,,,,,,,,,,,,,,,,,,,,,,,,,,,,,,,,,,,,,,,,,,,,,,,,,,,,,,,,,,,,,,,,,,,,,,,,,,,,,,,,,,,,,,,
,,650739048d93f13a5f6b200b,2024-01-06_24h50.17.424,kallum_motion_pilot,2023.2.3,MacIntel,62.5,650739048d93f13a5f6b200b,6598e6a5d84f07970b831e70,6598e9fd0f1f93cb1ab50923,0.019,0.019,0,130,130,127,1,eightseven,,,,,,,,,,,,,,,,,,,,,,,,,,,,,,,,,,,,,,,,,,,,,,,,,,,,,,,,,,,,,,,,,,,,,,,,,,,,,,,,,,,,,,,,,,,,,,,,,,,,,,,,,,,,,,,,,,,,,,,,,,,,,,,,,,,,,,,
,,650739048d93f13a5f6b200b,2024-01-06_24h50.17.424,kallum_motion_pilot,2023.2.3,MacIntel,62.5,650739048d93f13a5f6b200b,6598e6a5d84f07970b831e70,6598e9fd0f1f93cb1ab50923,0.019,0.019,0,131,131,101,1,seveneight,,,,,,,,,,,,,,,,,,,,,,,,,,,,,,,,,,,,,,,,,,,,,,,,,,,,,,,,,,,,,,,,,,,,,,,,,,,,,,,,,,,,,,,,,,,,,,,,,,,,,,,,,,,,,,,,,,,,,,,,,,,,,,,,,,,,,,,
,,650739048d93f13a5f6b200b,2024-01-06_24h50.17.424,kallum_motion_pilot,2023.2.3,MacIntel,62.5,650739048d93f13a5f6b200b,6598e6a5d84f07970b831e70,6598e9fd0f1f93cb1ab50923,0.019,0.019,0,132,132,24,1,onetwo,,,,,,,,,,,,,,,,,,,,,,,,,,,,,,,,,,,,,,,,,,,,,,,,,,,,,,,,,,,,,,,,,,,,,,,,,,,,,,,,,,,,,,,,,,,,,,,,,,,,,,,,,,,,,,,,,,,,,,,,,,,,,,,,,,,,,,,
,,650739048d93f13a5f6b200b,2024-01-06_24h50.17.424,kallum_motion_pilot,2023.2.3,MacIntel,62.5,650739048d93f13a5f6b200b,6598e6a5d84f07970b831e70,6598e9fd0f1f93cb1ab50923,0.019,0.019,0,133,133,134,1,eightsix,,,,,,,,,,,,,,,,,,,,,,,,,,,,,,,,,,,,,,,,,,,,,,,,,,,,,,,,,,,,,,,,,,,,,,,,,,,,,,,,,,,,,,,,,,,,,,,,,,,,,,,,,,,,,,,,,,,,,,,,,,,,,,,,,,,,,,,
,,650739048d93f13a5f6b200b,2024-01-06_24h50.17.424,kallum_motion_pilot,2023.2.3,MacIntel,62.5,650739048d93f13a5f6b200b,6598e6a5d84f07970b831e70,6598e9fd0f1f93cb1ab50923,0.019,0.019,0,134,134,64,1,onetwo,,,,,,,,,,,,,,,,,,,,,,,,,,,,,,,,,,,,,,,,,,,,,,,,,,,,,,,,,,,,,,,,,,,,,,,,,,,,,,,,,,,,,,,,,,,,,,,,,,,,,,,,,,,,,,,,,,,,,,,,,,,,,,,,,,,,,,,
,,650739048d93f13a5f6b200b,2024-01-06_24h50.17.424,kallum_motion_pilot,2023.2.3,MacIntel,62.5,650739048d93f13a5f6b200b,6598e6a5d84f07970b831e70,6598e9fd0f1f93cb1ab50923,0.019,0.02,0,135,135,126,1,eightsix,,,,,,,,,,,,,,,,,,,,,,,,,,,,,,,,,,,,,,,,,,,,,,,,,,,,,,,,,,,,,,,,,,,,,,,,,,,,,,,,,,,,,,,,,,,,,,,,,,,,,,,,,,,,,,,,,,,,,,,,,,,,,,,,,,,,,,,
,,650739048d93f13a5f6b200b,2024-01-06_24h50.17.424,kallum_motion_pilot,2023.2.3,MacIntel,62.5,650739048d93f13a5f6b200b,6598e6a5d84f07970b831e70,6598e9fd0f1f93cb1ab50923,0.02,0.02,0,136,136,109,1,seveneight,,,,,,,,,,,,,,,,,,,,,,,,,,,,,,,,,,,,,,,,,,,,,,,,,,,,,,,,,,,,,,,,,,,,,,,,,,,,,,,,,,,,,,,,,,,,,,,,,,,,,,,,,,,,,,,,,,,,,,,,,,,,,,,,,,,,,,,
,,650739048d93f13a5f6b200b,2024-01-06_24h50.17.424,kallum_motion_pilot,2023.2.3,MacIntel,62.5,650739048d93f13a5f6b200b,6598e6a5d84f07970b831e70,6598e9fd0f1f93cb1ab50923,0.02,0.02,0,137,137,42,1,twoone,,,,,,,,,,,,,,,,,,,,,,,,,,,,,,,,,,,,,,,,,,,,,,,,,,,,,,,,,,,,,,,,,,,,,,,,,,,,,,,,,,,,,,,,,,,,,,,,,,,,,,,,,,,,,,,,,,,,,,,,,,,,,,,,,,,,,,,
,,650739048d93f13a5f6b200b,2024-01-06_24h50.17.424,kallum_motion_pilot,2023.2.3,MacIntel,62.5,650739048d93f13a5f6b200b,6598e6a5d84f07970b831e70,6598e9fd0f1f93cb1ab50923,0.02,0.02,0,138,138,39,1,fourthree,,,,,,,,,,,,,,,,,,,,,,,,,,,,,,,,,,,,,,,,,,,,,,,,,,,,,,,,,,,,,,,,,,,,,,,,,,,,,,,,,,,,,,,,,,,,,,,,,,,,,,,,,,,,,,,,,,,,,,,,,,,,,,,,,,,,,,,
,,650739048d93f13a5f6b200b,2024-01-06_24h50.17.424,kallum_motion_pilot,2023.2.3,MacIntel,62.5,650739048d93f13a5f6b200b,6598e6a5d84f07970b831e70,6598e9fd0f1f93cb1ab50923,0.02,0.02,0,139,139,95,1,eightseven,,,,,,,,,,,,,,,,,,,,,,,,,,,,,,,,,,,,,,,,,,,,,,,,,,,,,,,,,,,,,,,,,,,,,,,,,,,,,,,,,,,,,,,,,,,,,,,,,,,,,,,,,,,,,,,,,,,,,,,,,,,,,,,,,,,,,,,
,,650739048d93f13a5f6b200b,2024-01-06_24h50.17.424,kallum_motion_pilot,2023.2.3,MacIntel,62.5,650739048d93f13a5f6b200b,6598e6a5d84f07970b831e70,6598e9fd0f1f93cb1ab50923,0.02,0.02,0,140,140,153,1,fiveseven,,,,,,,,,,,,,,,,,,,,,,,,,,,,,,,,,,,,,,,,,,,,,,,,,,,,,,,,,,,,,,,,,,,,,,,,,,,,,,,,,,,,,,,,,,,,,,,,,,,,,,,,,,,,,,,,,,,,,,,,,,,,,,,,,,,,,,,
,,650739048d93f13a5f6b200b,2024-01-06_24h50.17.424,kallum_motion_pilot,2023.2.3,MacIntel,62.5,650739048d93f13a5f6b200b,6598e6a5d84f07970b831e70,6598e9fd0f1f93cb1ab50923,0.02,0.02,0,141,141,120,1,fivesix,,,,,,,,,,,,,,,,,,,,,,,,,,,,,,,,,,,,,,,,,,,,,,,,,,,,,,,,,,,,,,,,,,,,,,,,,,,,,,,,,,,,,,,,,,,,,,,,,,,,,,,,,,,,,,,,,,,,,,,,,,,,,,,,,,,,,,,
,,650739048d93f13a5f6b200b,2024-01-06_24h50.17.424,kallum_motion_pilot,2023.2.3,MacIntel,62.5,650739048d93f13a5f6b200b,6598e6a5d84f07970b831e70,6598e9fd0f1f93cb1ab50923,0.02,0.02,0,142,142,7,1,fourthree,,,,,,,,,,,,,,,,,,,,,,,,,,,,,,,,,,,,,,,,,,,,,,,,,,,,,,,,,,,,,,,,,,,,,,,,,,,,,,,,,,,,,,,,,,,,,,,,,,,,,,,,,,,,,,,,,,,,,,,,,,,,,,,,,,,,,,,
,,650739048d93f13a5f6b200b,2024-01-06_24h50.17.424,kallum_motion_pilot,2023.2.3,MacIntel,62.5,650739048d93f13a5f6b200b,6598e6a5d84f07970b831e70,6598e9fd0f1f93cb1ab50923,0.02,0.02,0,143,143,143,1,eightseven,,,,,,,,,,,,,,,,,,,,,,,,,,,,,,,,,,,,,,,,,,,,,,,,,,,,,,,,,,,,,,,,,,,,,,,,,,,,,,,,,,,,,,,,,,,,,,,,,,,,,,,,,,,,,,,,,,,,,,,,,,,,,,,,,,,,,,,
,,650739048d93f13a5f6b200b,2024-01-06_24h50.17.424,kallum_motion_pilot,2023.2.3,MacIntel,62.5,650739048d93f13a5f6b200b,6598e6a5d84f07970b831e70,6598e9fd0f1f93cb1ab50923,0.02,0.02,0,144,144,1,1,onethree,,,,,,,,,,,,,,,,,,,,,,,,,,,,,,,,,,,,,,,,,,,,,,,,,,,,,,,,,,,,,,,,,,,,,,,,,,,,,,,,,,,,,,,,,,,,,,,,,,,,,,,,,,,,,,,,,,,,,,,,,,,,,,,,,,,,,,,
,,650739048d93f13a5f6b200b,2024-01-06_24h50.17.424,kallum_motion_pilot,2023.2.3,MacIntel,62.5,650739048d93f13a5f6b200b,6598e6a5d84f07970b831e70,6598e9fd0f1f93cb1ab50923,0.02,0.02,0,145,145,0,1,onetwo,,,,,,,,,,,,,,,,,,,,,,,,,,,,,,,,,,,,,,,,,,,,,,,,,,,,,,,,,,,,,,,,,,,,,,,,,,,,,,,,,,,,,,,,,,,,,,,,,,,,,,,,,,,,,,,,,,,,,,,,,,,,,,,,,,,,,,,
,,650739048d93f13a5f6b200b,2024-01-06_24h50.17.424,kallum_motion_pilot,2023.2.3,MacIntel,62.5,650739048d93f13a5f6b200b,6598e6a5d84f07970b831e70,6598e9fd0f1f93cb1ab50923,0.02,0.02,0,146,146,66,1,twoone,,,,,,,,,,,,,,,,,,,,,,,,,,,,,,,,,,,,,,,,,,,,,,,,,,,,,,,,,,,,,,,,,,,,,,,,,,,,,,,,,,,,,,,,,,,,,,,,,,,,,,,,,,,,,,,,,,,,,,,,,,,,,,,,,,,,,,,
,,650739048d93f13a5f6b200b,2024-01-06_24h50.17.424,kallum_motion_pilot,2023.2.3,MacIntel,62.5,650739048d93f13a5f6b200b,6598e6a5d84f07970b831e70,6598e9fd0f1f93cb1ab50923,0.021,0.021,0,147,147,20,1,threeone,,,,,,,,,,,,,,,,,,,,,,,,,,,,,,,,,,,,,,,,,,,,,,,,,,,,,,,,,,,,,,,,,,,,,,,,,,,,,,,,,,,,,,,,,,,,,,,,,,,,,,,,,,,,,,,,,,,,,,,,,,,,,,,,,,,,,,,
,,650739048d93f13a5f6b200b,2024-01-06_24h50.17.424,kallum_motion_pilot,2023.2.3,MacIntel,62.5,650739048d93f13a5f6b200b,6598e6a5d84f07970b831e70,6598e9fd0f1f93cb1ab50923,0.021,0.021,0,148,148,50,1,twoone,,,,,,,,,,,,,,,,,,,,,,,,,,,,,,,,,,,,,,,,,,,,,,,,,,,,,,,,,,,,,,,,,,,,,,,,,,,,,,,,,,,,,,,,,,,,,,,,,,,,,,,,,,,,,,,,,,,,,,,,,,,,,,,,,,,,,,,
,,650739048d93f13a5f6b200b,2024-01-06_24h50.17.424,kallum_motion_pilot,2023.2.3,MacIntel,62.5,650739048d93f13a5f6b200b,6598e6a5d84f07970b831e70,6598e9fd0f1f93cb1ab50923,0.021,0.021,0,149,149,144,1,fivesix,,,,,,,,,,,,,,,,,,,,,,,,,,,,,,,,,,,,,,,,,,,,,,,,,,,,,,,,,,,,,,,,,,,,,,,,,,,,,,,,,,,,,,,,,,,,,,,,,,,,,,,,,,,,,,,,,,,,,,,,,,,,,,,,,,,,,,,
,,650739048d93f13a5f6b200b,2024-01-06_24h50.17.424,kallum_motion_pilot,2023.2.3,MacIntel,62.5,650739048d93f13a5f6b200b,6598e6a5d84f07970b831e70,6598e9fd0f1f93cb1ab50923,0.021,0.021,0,150,150,51,1,twofour,,,,,,,,,,,,,,,,,,,,,,,,,,,,,,,,,,,,,,,,,,,,,,,,,,,,,,,,,,,,,,,,,,,,,,,,,,,,,,,,,,,,,,,,,,,,,,,,,,,,,,,,,,,,,,,,,,,,,,,,,,,,,,,,,,,,,,,
,,650739048d93f13a5f6b200b,2024-01-06_24h50.17.424,kallum_motion_pilot,2023.2.3,MacIntel,62.5,650739048d93f13a5f6b200b,6598e6a5d84f07970b831e70,6598e9fd0f1f93cb1ab50923,0.021,0.021,0,151,151,132,1,sevenfive,,,,,,,,,,,,,,,,,,,,,,,,,,,,,,,,,,,,,,,,,,,,,,,,,,,,,,,,,,,,,,,,,,,,,,,,,,,,,,,,,,,,,,,,,,,,,,,,,,,,,,,,,,,,,,,,,,,,,,,,,,,,,,,,,,,,,,,
,,650739048d93f13a5f6b200b,2024-01-06_24h50.17.424,kallum_motion_pilot,2023.2.3,MacIntel,62.5,650739048d93f13a5f6b200b,6598e6a5d84f07970b831e70,6598e9fd0f1f93cb1ab50923,0.021,0.021,0,152,152,88,1,fivesix,,,,,,,,,,,,,,,,,,,,,,,,,,,,,,,,,,,,,,,,,,,,,,,,,,,,,,,,,,,,,,,,,,,,,,,,,,,,,,,,,,,,,,,,,,,,,,,,,,,,,,,,,,,,,,,,,,,,,,,,,,,,,,,,,,,,,,,
,,650739048d93f13a5f6b200b,2024-01-06_24h50.17.424,kallum_motion_pilot,2023.2.3,MacIntel,62.5,650739048d93f13a5f6b200b,6598e6a5d84f07970b831e70,6598e9fd0f1f93cb1ab50923,0.021,0.021,0,153,153,23,1,fourthree,,,,,,,,,,,,,,,,,,,,,,,,,,,,,,,,,,,,,,,,,,,,,,,,,,,,,,,,,,,,,,,,,,,,,,,,,,,,,,,,,,,,,,,,,,,,,,,,,,,,,,,,,,,,,,,,,,,,,,,,,,,,,,,,,,,,,,,
,,650739048d93f13a5f6b200b,2024-01-06_24h50.17.424,kallum_motion_pilot,2023.2.3,MacIntel,62.5,650739048d93f13a5f6b200b,6598e6a5d84f07970b831e70,6598e9fd0f1f93cb1ab50923,0.021,0.021,0,154,154,77,1,threefour,,,,,,,,,,,,,,,,,,,,,,,,,,,,,,,,,,,,,,,,,,,,,,,,,,,,,,,,,,,,,,,,,,,,,,,,,,,,,,,,,,,,,,,,,,,,,,,,,,,,,,,,,,,,,,,,,,,,,,,,,,,,,,,,,,,,,,,
,,650739048d93f13a5f6b200b,2024-01-06_24h50.17.424,kallum_motion_pilot,2023.2.3,MacIntel,62.5,650739048d93f13a5f6b200b,6598e6a5d84f07970b831e70,6598e9fd0f1f93cb1ab50923,0.021,0.021,0,155,155,96,1,fivesix,,,,,,,,,,,,,,,,,,,,,,,,,,,,,,,,,,,,,,,,,,,,,,,,,,,,,,,,,,,,,,,,,,,,,,,,,,,,,,,,,,,,,,,,,,,,,,,,,,,,,,,,,,,,,,,,,,,,,,,,,,,,,,,,,,,,,,,
,,650739048d93f13a5f6b200b,2024-01-06_24h50.17.424,kallum_motion_pilot,2023.2.3,MacIntel,62.5,650739048d93f13a5f6b200b,6598e6a5d84f07970b831e70,6598e9fd0f1f93cb1ab50923,0.021,0.021,0,156,156,37,1,threefour,,,,,,,,,,,,,,,,,,,,,,,,,,,,,,,,,,,,,,,,,,,,,,,,,,,,,,,,,,,,,,,,,,,,,,,,,,,,,,,,,,,,,,,,,,,,,,,,,,,,,,,,,,,,,,,,,,,,,,,,,,,,,,,,,,,,,,,
,,650739048d93f13a5f6b200b,2024-01-06_24h50.17.424,kallum_motion_pilot,2023.2.3,MacIntel,62.5,650739048d93f13a5f6b200b,6598e6a5d84f07970b831e70,6598e9fd0f1f93cb1ab50923,0.021,0.021,0,157,157,85,1,seveneight,,,,,,,,,,,,,,,,,,,,,,,,,,,,,,,,,,,,,,,,,,,,,,,,,,,,,,,,,,,,,,,,,,,,,,,,,,,,,,,,,,,,,,,,,,,,,,,,,,,,,,,,,,,,,,,,,,,,,,,,,,,,,,,,,,,,,,,
,,650739048d93f13a5f6b200b,2024-01-06_24h50.17.424,kallum_motion_pilot,2023.2.3,MacIntel,62.5,650739048d93f13a5f6b200b,6598e6a5d84f07970b831e70,6598e9fd0f1f93cb1ab50923,0.021,0.021,0,158,158,135,1,eightseven,,,,,,,,,,,,,,,,,,,,,,,,,,,,,,,,,,,,,,,,,,,,,,,,,,,,,,,,,,,,,,,,,,,,,,,,,,,,,,,,,,,,,,,,,,,,,,,,,,,,,,,,,,,,,,,,,,,,,,,,,,,,,,,,,,,,,,,
,,650739048d93f13a5f6b200b,2024-01-06_24h50.17.424,kallum_motion_pilot,2023.2.3,MacIntel,62.5,650739048d93f13a5f6b200b,6598e6a5d84f07970b831e70,6598e9fd0f1f93cb1ab50923,0.021,0.021,0,159,159,125,1,seveneight,,,,,,,,,,,,,,,,,,,,,,,,,,,,,,,,,,,,,,,,,,,,,,,,,,,,,,,,,,,,,,,,,,,,,,,,,,,,,,,,,,,,,,,,,,,,,,,,,,,,,,,,,,,,,,,,,,,,,,,,,,,,,,,,,,,,,,,
,,650739048d93f13a5f6b200b,2024-01-06_24h50.17.424,kallum_motion_pilot,2023.2.3,MacIntel,62.5,650739048d93f13a5f6b200b,6598e6a5d84f07970b831e70,6598e9fd0f1f93cb1ab50923,0.021,0.021,0,160,160,11,1,twofour,,,,,,,,,,,,,,,,,,,,,,,,,,,,,,,,,,,,,,,,,,,,,,,,,,,,,,,,,,,,,,,,,,,,,,,,,,,,,,,,,,,,,,,,,,,,,,,,,,,,,,,,,,,,,,,,,,,,,,,,,,,,,,,,,,,,,,,
,,650739048d93f13a5f6b200b,2024-01-06_24h50.17.424,kallum_motion_pilot,2023.2.3,MacIntel,62.5,650739048d93f13a5f6b200b,6598e6a5d84f07970b831e70,6598e9fd0f1f93cb1ab50923,0.021,0.021,0,161,161,16,1,onetwo,,,,,,,,,,,,,,,,,,,,,,,,,,,,,,,,,,,,,,,,,,,,,,,,,,,,,,,,,,,,,,,,,,,,,,,,,,,,,,,,,,,,,,,,,,,,,,,,,,,,,,,,,,,,,,,,,,,,,,,,,,,,,,,,,,,,,,,
,,650739048d93f13a5f6b200b,2024-01-06_24h50.17.424,kallum_motion_pilot,2023.2.3,MacIntel,62.5,650739048d93f13a5f6b200b,6598e6a5d84f07970b831e70,6598e9fd0f1f93cb1ab50923,0.021,0.021,1,0,162,24,1,onetwo,,,,,,,,,,,,,,,,,,,,,,,,,,,,,,,,,,,,,,,,,,,,,,,,,,,,,,,,,,,,,,,,,,,,,,,,,,,,,,,,,,,,,,,,,,,,,,,,,,,,,,,,,,,,,,,,,,,,,,,,,,,,,,,,,,,,,,,
,,650739048d93f13a5f6b200b,2024-01-06_24h50.17.424,kallum_motion_pilot,2023.2.3,MacIntel,62.5,650739048d93f13a5f6b200b,6598e6a5d84f07970b831e70,6598e9fd0f1f93cb1ab50923,0.021,0.022,1,1,163,54,1,fourtwo,,,,,,,,,,,,,,,,,,,,,,,,,,,,,,,,,,,,,,,,,,,,,,,,,,,,,,,,,,,,,,,,,,,,,,,,,,,,,,,,,,,,,,,,,,,,,,,,,,,,,,,,,,,,,,,,,,,,,,,,,,,,,,,,,,,,,,,
,,650739048d93f13a5f6b200b,2024-01-06_24h50.17.424,kallum_motion_pilot,2023.2.3,MacIntel,62.5,650739048d93f13a5f6b200b,6598e6a5d84f07970b831e70,6598e9fd0f1f93cb1ab50923,0.022,0.022,1,2,164,114,1,sixfive,,,,,,,,,,,,,,,,,,,,,,,,,,,,,,,,,,,,,,,,,,,,,,,,,,,,,,,,,,,,,,,,,,,,,,,,,,,,,,,,,,,,,,,,,,,,,,,,,,,,,,,,,,,,,,,,,,,,,,,,,,,,,,,,,,,,,,,
,,650739048d93f13a5f6b200b,2024-01-06_24h50.17.424,kallum_motion_pilot,2023.2.3,MacIntel,62.5,650739048d93f13a5f6b200b,6598e6a5d84f07970b831e70,6598e9fd0f1f93cb1ab50923,0.022,0.022,1,3,165,97,1,fiveseven,,,,,,,,,,,,,,,,,,,,,,,,,,,,,,,,,,,,,,,,,,,,,,,,,,,,,,,,,,,,,,,,,,,,,,,,,,,,,,,,,,,,,,,,,,,,,,,,,,,,,,,,,,,,,,,,,,,,,,,,,,,,,,,,,,,,,,,
,,650739048d93f13a5f6b200b,2024-01-06_24h50.17.424,kallum_motion_pilot,2023.2.3,MacIntel,62.5,650739048d93f13a5f6b200b,6598e6a5d84f07970b831e70,6598e9fd0f1f93cb1ab50923,0.022,0.022,1,4,166,139,1,sixeight,,,,,,,,,,,,,,,,,,,,,,,,,,,,,,,,,,,,,,,,,,,,,,,,,,,,,,,,,,,,,,,,,,,,,,,,,,,,,,,,,,,,,,,,,,,,,,,,,,,,,,,,,,,,,,,,,,,,,,,,,,,,,,,,,,,,,,,
,,650739048d93f13a5f6b200b,2024-01-06_24h50.17.424,kallum_motion_pilot,2023.2.3,MacIntel,62.5,650739048d93f13a5f6b200b,6598e6a5d84f07970b831e70,6598e9fd0f1f93cb1ab50923,0.022,0.022,1,5,167,28,1,threeone,,,,,,,,,,,,,,,,,,,,,,,,,,,,,,,,,,,,,,,,,,,,,,,,,,,,,,,,,,,,,,,,,,,,,,,,,,,,,,,,,,,,,,,,,,,,,,,,,,,,,,,,,,,,,,,,,,,,,,,,,,,,,,,,,,,,,,,
,,650739048d93f13a5f6b200b,2024-01-06_24h50.17.424,kallum_motion_pilot,2023.2.3,MacIntel,62.5,650739048d93f13a5f6b200b,6598e6a5d84f07970b831e70,6598e9fd0f1f93cb1ab50923,0.022,0.022,1,6,168,78,1,fourtwo,,,,,,,,,,,,,,,,,,,,,,,,,,,,,,,,,,,,,,,,,,,,,,,,,,,,,,,,,,,,,,,,,,,,,,,,,,,,,,,,,,,,,,,,,,,,,,,,,,,,,,,,,,,,,,,,,,,,,,,,,,,,,,,,,,,,,,,
,,650739048d93f13a5f6b200b,2024-01-06_24h50.17.424,kallum_motion_pilot,2023.2.3,MacIntel,62.5,650739048d93f13a5f6b200b,6598e6a5d84f07970b831e70,6598e9fd0f1f93cb1ab50923,0.022,0.022,1,7,169,15,1,fourthree,,,,,,,,,,,,,,,,,,,,,,,,,,,,,,,,,,,,,,,,,,,,,,,,,,,,,,,,,,,,,,,,,,,,,,,,,,,,,,,,,,,,,,,,,,,,,,,,,,,,,,,,,,,,,,,,,,,,,,,,,,,,,,,,,,,,,,,
,,650739048d93f13a5f6b200b,2024-01-06_24h50.17.424,kallum_motion_pilot,2023.2.3,MacIntel,62.5,650739048d93f13a5f6b200b,6598e6a5d84f07970b831e70,6598e9fd0f1f93cb1ab50923,0.022,0.022,1,8,170,13,1,threefour,,,,,,,,,,,,,,,,,,,,,,,,,,,,,,,,,,,,,,,,,,,,,,,,,,,,,,,,,,,,,,,,,,,,,,,,,,,,,,,,,,,,,,,,,,,,,,,,,,,,,,,,,,,,,,,,,,,,,,,,,,,,,,,,,,,,,,,
,,650739048d93f13a5f6b200b,2024-01-06_24h50.17.424,kallum_motion_pilot,2023.2.3,MacIntel,62.5,650739048d93f13a5f6b200b,6598e6a5d84f07970b831e70,6598e9fd0f1f93cb1ab50923,0.022,0.022,1,9,171,25,1,onethree,,,,,,,,,,,,,,,,,,,,,,,,,,,,,,,,,,,,,,,,,,,,,,,,,,,,,,,,,,,,,,,,,,,,,,,,,,,,,,,,,,,,,,,,,,,,,,,,,,,,,,,,,,,,,,,,,,,,,,,,,,,,,,,,,,,,,,,
,,650739048d93f13a5f6b200b,2024-01-06_24h50.17.424,kallum_motion_pilot,2023.2.3,MacIntel,62.5,650739048d93f13a5f6b200b,6598e6a5d84f07970b831e70,6598e9fd0f1f93cb1ab50923,0.022,0.022,1,10,172,19,1,twofour,,,,,,,,,,,,,,,,,,,,,,,,,,,,,,,,,,,,,,,,,,,,,,,,,,,,,,,,,,,,,,,,,,,,,,,,,,,,,,,,,,,,,,,,,,,,,,,,,,,,,,,,,,,,,,,,,,,,,,,,,,,,,,,,,,,,,,,
,,650739048d93f13a5f6b200b,2024-01-06_24h50.17.424,kallum_motion_pilot,2023.2.3,MacIntel,62.5,650739048d93f13a5f6b200b,6598e6a5d84f07970b831e70,6598e9fd0f1f93cb1ab50923,0.022,0.022,1,11,173,77,1,threefour,,,,,,,,,,,,,,,,,,,,,,,,,,,,,,,,,,,,,,,,,,,,,,,,,,,,,,,,,,,,,,,,,,,,,,,,,,,,,,,,,,,,,,,,,,,,,,,,,,,,,,,,,,,,,,,,,,,,,,,,,,,,,,,,,,,,,,,
,,650739048d93f13a5f6b200b,2024-01-06_24h50.17.424,kallum_motion_pilot,2023.2.3,MacIntel,62.5,650739048d93f13a5f6b200b,6598e6a5d84f07970b831e70,6598e9fd0f1f93cb1ab50923,0.022,0.022,1,12,174,71,1,fourthree,,,,,,,,,,,,,,,,,,,,,,,,,,,,,,,,,,,,,,,,,,,,,,,,,,,,,,,,,,,,,,,,,,,,,,,,,,,,,,,,,,,,,,,,,,,,,,,,,,,,,,,,,,,,,,,,,,,,,,,,,,,,,,,,,,,,,,,
,,650739048d93f13a5f6b200b,2024-01-06_24h50.17.424,kallum_motion_pilot,2023.2.3,MacIntel,62.5,650739048d93f13a5f6b200b,6598e6a5d84f07970b831e70,6598e9fd0f1f93cb1ab50923,0.022,0.022,1,13,175,120,1,fivesix,,,,,,,,,,,,,,,,,,,,,,,,,,,,,,,,,,,,,,,,,,,,,,,,,,,,,,,,,,,,,,,,,,,,,,,,,,,,,,,,,,,,,,,,,,,,,,,,,,,,,,,,,,,,,,,,,,,,,,,,,,,,,,,,,,,,,,,
,,650739048d93f13a5f6b200b,2024-01-06_24h50.17.424,kallum_motion_pilot,2023.2.3,MacIntel,62.5,650739048d93f13a5f6b200b,6598e6a5d84f07970b831e70,6598e9fd0f1f93cb1ab50923,0.022,0.022,1,14,176,132,1,sevenfive,,,,,,,,,,,,,,,,,,,,,,,,,,,,,,,,,,,,,,,,,,,,,,,,,,,,,,,,,,,,,,,,,,,,,,,,,,,,,,,,,,,,,,,,,,,,,,,,,,,,,,,,,,,,,,,,,,,,,,,,,,,,,,,,,,,,,,,
,,650739048d93f13a5f6b200b,2024-01-06_24h50.17.424,kallum_motion_pilot,2023.2.3,MacIntel,62.5,650739048d93f13a5f6b200b,6598e6a5d84f07970b831e70,6598e9fd0f1f93cb1ab50923,0.022,0.022,1,15,177,109,1,seveneight,,,,,,,,,,,,,,,,,,,,,,,,,,,,,,,,,,,,,,,,,,,,,,,,,,,,,,,,,,,,,,,,,,,,,,,,,,,,,,,,,,,,,,,,,,,,,,,,,,,,,,,,,,,,,,,,,,,,,,,,,,,,,,,,,,,,,,,
,,650739048d93f13a5f6b200b,2024-01-06_24h50.17.424,kallum_motion_pilot,2023.2.3,MacIntel,62.5,650739048d93f13a5f6b200b,6598e6a5d84f07970b831e70,6598e9fd0f1f93cb1ab50923,0.022,0.022,1,16,178,156,1,sevenfive,,,,,,,,,,,,,,,,,,,,,,,,,,,,,,,,,,,,,,,,,,,,,,,,,,,,,,,,,,,,,,,,,,,,,,,,,,,,,,,,,,,,,,,,,,,,,,,,,,,,,,,,,,,,,,,,,,,,,,,,,,,,,,,,,,,,,,,
,,650739048d93f13a5f6b200b,2024-01-06_24h50.17.424,kallum_motion_pilot,2023.2.3,MacIntel,62.5,650739048d93f13a5f6b200b,6598e6a5d84f07970b831e70,6598e9fd0f1f93cb1ab50923,0.022,0.022,1,17,179,59,1,twofour,,,,,,,,,,,,,,,,,,,,,,,,,,,,,,,,,,,,,,,,,,,,,,,,,,,,,,,,,,,,,,,,,,,,,,,,,,,,,,,,,,,,,,,,,,,,,,,,,,,,,,,,,,,,,,,,,,,,,,,,,,,,,,,,,,,,,,,
,,650739048d93f13a5f6b200b,2024-01-06_24h50.17.424,kallum_motion_pilot,2023.2.3,MacIntel,62.5,650739048d93f13a5f6b200b,6598e6a5d84f07970b831e70,6598e9fd0f1f93cb1ab50923,0.022,0.023,1,18,180,131,1,sixeight,,,,,,,,,,,,,,,,,,,,,,,,,,,,,,,,,,,,,,,,,,,,,,,,,,,,,,,,,,,,,,,,,,,,,,,,,,,,,,,,,,,,,,,,,,,,,,,,,,,,,,,,,,,,,,,,,,,,,,,,,,,,,,,,,,,,,,,
,,650739048d93f13a5f6b200b,2024-01-06_24h50.17.424,kallum_motion_pilot,2023.2.3,MacIntel,62.5,650739048d93f13a5f6b200b,6598e6a5d84f07970b831e70,6598e9fd0f1f93cb1ab50923,0.023,0.023,1,19,181,144,1,fivesix,,,,,,,,,,,,,,,,,,,,,,,,,,,,,,,,,,,,,,,,,,,,,,,,,,,,,,,,,,,,,,,,,,,,,,,,,,,,,,,,,,,,,,,,,,,,,,,,,,,,,,,,,,,,,,,,,,,,,,,,,,,,,,,,,,,,,,,
,,650739048d93f13a5f6b200b,2024-01-06_24h50.17.424,kallum_motion_pilot,2023.2.3,MacIntel,62.5,650739048d93f13a5f6b200b,6598e6a5d84f07970b831e70,6598e9fd0f1f93cb1ab50923,0.023,0.023,1,20,182,26,1,twoone,,,,,,,,,,,,,,,,,,,,,,,,,,,,,,,,,,,,,,,,,,,,,,,,,,,,,,,,,,,,,,,,,,,,,,,,,,,,,,,,,,,,,,,,,,,,,,,,,,,,,,,,,,,,,,,,,,,,,,,,,,,,,,,,,,,,,,,
,,650739048d93f13a5f6b200b,2024-01-06_24h50.17.424,kallum_motion_pilot,2023.2.3,MacIntel,62.5,650739048d93f13a5f6b200b,6598e6a5d84f07970b831e70,6598e9fd0f1f93cb1ab50923,0.023,0.023,1,21,183,85,1,seveneight,,,,,,,,,,,,,,,,,,,,,,,,,,,,,,,,,,,,,,,,,,,,,,,,,,,,,,,,,,,,,,,,,,,,,,,,,,,,,,,,,,,,,,,,,,,,,,,,,,,,,,,,,,,,,,,,,,,,,,,,,,,,,,,,,,,,,,,
,,650739048d93f13a5f6b200b,2024-01-06_24h50.17.424,kallum_motion_pilot,2023.2.3,MacIntel,62.5,650739048d93f13a5f6b200b,6598e6a5d84f07970b831e70,6598e9fd0f1f93cb1ab50923,0.023,0.023,1,22,184,160,1,fivesix,,,,,,,,,,,,,,,,,,,,,,,,,,,,,,,,,,,,,,,,,,,,,,,,,,,,,,,,,,,,,,,,,,,,,,,,,,,,,,,,,,,,,,,,,,,,,,,,,,,,,,,,,,,,,,,,,,,,,,,,,,,,,,,,,,,,,,,
,,650739048d93f13a5f6b200b,2024-01-06_24h50.17.424,kallum_motion_pilot,2023.2.3,MacIntel,62.5,650739048d93f13a5f6b200b,6598e6a5d84f07970b831e70,6598e9fd0f1f93cb1ab50923,0.023,0.023,1,23,185,124,1,sevenfive,,,,,,,,,,,,,,,,,,,,,,,,,,,,,,,,,,,,,,,,,,,,,,,,,,,,,,,,,,,,,,,,,,,,,,,,,,,,,,,,,,,,,,,,,,,,,,,,,,,,,,,,,,,,,,,,,,,,,,,,,,,,,,,,,,,,,,,
,,650739048d93f13a5f6b200b,2024-01-06_24h50.17.424,kallum_motion_pilot,2023.2.3,MacIntel,62.5,650739048d93f13a5f6b200b,6598e6a5d84f07970b831e70,6598e9fd0f1f93cb1ab50923,0.023,0.023,1,24,186,146,1,sixfive,,,,,,,,,,,,,,,,,,,,,,,,,,,,,,,,,,,,,,,,,,,,,,,,,,,,,,,,,,,,,,,,,,,,,,,,,,,,,,,,,,,,,,,,,,,,,,,,,,,,,,,,,,,,,,,,,,,,,,,,,,,,,,,,,,,,,,,
,,650739048d93f13a5f6b200b,2024-01-06_24h50.17.424,kallum_motion_pilot,2023.2.3,MacIntel,62.5,650739048d93f13a5f6b200b,6598e6a5d84f07970b831e70,6598e9fd0f1f93cb1ab50923,0.023,0.023,1,25,187,83,1,sixeight,,,,,,,,,,,,,,,,,,,,,,,,,,,,,,,,,,,,,,,,,,,,,,,,,,,,,,,,,,,,,,,,,,,,,,,,,,,,,,,,,,,,,,,,,,,,,,,,,,,,,,,,,,,,,,,,,,,,,,,,,,,,,,,,,,,,,,,
,,650739048d93f13a5f6b200b,2024-01-06_24h50.17.424,kallum_motion_pilot,2023.2.3,MacIntel,62.5,650739048d93f13a5f6b200b,6598e6a5d84f07970b831e70,6598e9fd0f1f93cb1ab50923,0.023,0.023,1,26,188,7,1,fourthree,,,,,,,,,,,,,,,,,,,,,,,,,,,,,,,,,,,,,,,,,,,,,,,,,,,,,,,,,,,,,,,,,,,,,,,,,,,,,,,,,,,,,,,,,,,,,,,,,,,,,,,,,,,,,,,,,,,,,,,,,,,,,,,,,,,,,,,
,,650739048d93f13a5f6b200b,2024-01-06_24h50.17.424,kallum_motion_pilot,2023.2.3,MacIntel,62.5,650739048d93f13a5f6b200b,6598e6a5d84f07970b831e70,6598e9fd0f1f93cb1ab50923,0.023,0.023,1,27,189,18,1,twoone,,,,,,,,,,,,,,,,,,,,,,,,,,,,,,,,,,,,,,,,,,,,,,,,,,,,,,,,,,,,,,,,,,,,,,,,,,,,,,,,,,,,,,,,,,,,,,,,,,,,,,,,,,,,,,,,,,,,,,,,,,,,,,,,,,,,,,,
,,650739048d93f13a5f6b200b,2024-01-06_24h50.17.424,kallum_motion_pilot,2023.2.3,MacIntel,62.5,650739048d93f13a5f6b200b,6598e6a5d84f07970b831e70,6598e9fd0f1f93cb1ab50923,0.023,0.023,1,28,190,55,1,fourthree,,,,,,,,,,,,,,,,,,,,,,,,,,,,,,,,,,,,,,,,,,,,,,,,,,,,,,,,,,,,,,,,,,,,,,,,,,,,,,,,,,,,,,,,,,,,,,,,,,,,,,,,,,,,,,,,,,,,,,,,,,,,,,,,,,,,,,,
,,650739048d93f13a5f6b200b,2024-01-06_24h50.17.424,kallum_motion_pilot,2023.2.3,MacIntel,62.5,650739048d93f13a5f6b200b,6598e6a5d84f07970b831e70,6598e9fd0f1f93cb1ab50923,0.023,0.023,1,29,191,107,1,sixeight,,,,,,,,,,,,,,,,,,,,,,,,,,,,,,,,,,,,,,,,,,,,,,,,,,,,,,,,,,,,,,,,,,,,,,,,,,,,,,,,,,,,,,,,,,,,,,,,,,,,,,,,,,,,,,,,,,,,,,,,,,,,,,,,,,,,,,,
,,650739048d93f13a5f6b200b,2024-01-06_24h50.17.424,kallum_motion_pilot,2023.2.3,MacIntel,62.5,650739048d93f13a5f6b200b,6598e6a5d84f07970b831e70,6598e9fd0f1f93cb1ab50923,0.023,0.023,1,30,192,112,1,fivesix,,,,,,,,,,,,,,,,,,,,,,,,,,,,,,,,,,,,,,,,,,,,,,,,,,,,,,,,,,,,,,,,,,,,,,,,,,,,,,,,,,,,,,,,,,,,,,,,,,,,,,,,,,,,,,,,,,,,,,,,,,,,,,,,,,,,,,,
,,650739048d93f13a5f6b200b,2024-01-06_24h50.17.424,kallum_motion_pilot,2023.2.3,MacIntel,62.5,650739048d93f13a5f6b200b,6598e6a5d84f07970b831e70,6598e9fd0f1f93cb1ab50923,0.023,0.023,1,31,193,108,1,sevenfive,,,,,,,,,,,,,,,,,,,,,,,,,,,,,,,,,,,,,,,,,,,,,,,,,,,,,,,,,,,,,,,,,,,,,,,,,,,,,,,,,,,,,,,,,,,,,,,,,,,,,,,,,,,,,,,,,,,,,,,,,,,,,,,,,,,,,,,
,,650739048d93f13a5f6b200b,2024-01-06_24h50.17.424,kallum_motion_pilot,2023.2.3,MacIntel,62.5,650739048d93f13a5f6b200b,6598e6a5d84f07970b831e70,6598e9fd0f1f93cb1ab50923,0.023,0.023,1,32,194,14,1,fourtwo,,,,,,,,,,,,,,,,,,,,,,,,,,,,,,,,,,,,,,,,,,,,,,,,,,,,,,,,,,,,,,,,,,,,,,,,,,,,,,,,,,,,,,,,,,,,,,,,,,,,,,,,,,,,,,,,,,,,,,,,,,,,,,,,,,,,,,,
,,650739048d93f13a5f6b200b,2024-01-06_24h50.17.424,kallum_motion_pilot,2023.2.3,MacIntel,62.5,650739048d93f13a5f6b200b,6598e6a5d84f07970b831e70,6598e9fd0f1f93cb1ab50923,0.023,0.024,1,33,195,149,1,seveneight,,,,,,,,,,,,,,,,,,,,,,,,,,,,,,,,,,,,,,,,,,,,,,,,,,,,,,,,,,,,,,,,,,,,,,,,,,,,,,,,,,,,,,,,,,,,,,,,,,,,,,,,,,,,,,,,,,,,,,,,,,,,,,,,,,,,,,,
,,650739048d93f13a5f6b200b,2024-01-06_24h50.17.424,kallum_motion_pilot,2023.2.3,MacIntel,62.5,650739048d93f13a5f6b200b,6598e6a5d84f07970b831e70,6598e9fd0f1f93cb1ab50923,0.024,0.024,1,34,196,76,1,threeone,,,,,,,,,,,,,,,,,,,,,,,,,,,,,,,,,,,,,,,,,,,,,,,,,,,,,,,,,,,,,,,,,,,,,,,,,,,,,,,,,,,,,,,,,,,,,,,,,,,,,,,,,,,,,,,,,,,,,,,,,,,,,,,,,,,,,,,
,,650739048d93f13a5f6b200b,2024-01-06_24h50.17.424,kallum_motion_pilot,2023.2.3,MacIntel,62.5,650739048d93f13a5f6b200b,6598e6a5d84f07970b831e70,6598e9fd0f1f93cb1ab50923,0.024,0.024,1,35,197,157,1,seveneight,,,,,,,,,,,,,,,,,,,,,,,,,,,,,,,,,,,,,,,,,,,,,,,,,,,,,,,,,,,,,,,,,,,,,,,,,,,,,,,,,,,,,,,,,,,,,,,,,,,,,,,,,,,,,,,,,,,,,,,,,,,,,,,,,,,,,,,
,,650739048d93f13a5f6b200b,2024-01-06_24h50.17.424,kallum_motion_pilot,2023.2.3,MacIntel,62.5,650739048d93f13a5f6b200b,6598e6a5d84f07970b831e70,6598e9fd0f1f93cb1ab50923,0.025,0.025,1,36,198,58,1,twoone,,,,,,,,,,,,,,,,,,,,,,,,,,,,,,,,,,,,,,,,,,,,,,,,,,,,,,,,,,,,,,,,,,,,,,,,,,,,,,,,,,,,,,,,,,,,,,,,,,,,,,,,,,,,,,,,,,,,,,,,,,,,,,,,,,,,,,,
,,650739048d93f13a5f6b200b,2024-01-06_24h50.17.424,kallum_motion_pilot,2023.2.3,MacIntel,62.5,650739048d93f13a5f6b200b,6598e6a5d84f07970b831e70,6598e9fd0f1f93cb1ab50923,0.025,0.025,1,37,199,10,1,twoone,,,,,,,,,,,,,,,,,,,,,,,,,,,,,,,,,,,,,,,,,,,,,,,,,,,,,,,,,,,,,,,,,,,,,,,,,,,,,,,,,,,,,,,,,,,,,,,,,,,,,,,,,,,,,,,,,,,,,,,,,,,,,,,,,,,,,,,
,,650739048d93f13a5f6b200b,2024-01-06_24h50.17.424,kallum_motion_pilot,2023.2.3,MacIntel,62.5,650739048d93f13a5f6b200b,6598e6a5d84f07970b831e70,6598e9fd0f1f93cb1ab50923,0.025,0.025,1,38,200,123,1,sixeight,,,,,,,,,,,,,,,,,,,,,,,,,,,,,,,,,,,,,,,,,,,,,,,,,,,,,,,,,,,,,,,,,,,,,,,,,,,,,,,,,,,,,,,,,,,,,,,,,,,,,,,,,,,,,,,,,,,,,,,,,,,,,,,,,,,,,,,
,,650739048d93f13a5f6b200b,2024-01-06_24h50.17.424,kallum_motion_pilot,2023.2.3,MacIntel,62.5,650739048d93f13a5f6b200b,6598e6a5d84f07970b831e70,6598e9fd0f1f93cb1ab50923,0.025,0.025,1,39,201,90,1,sixfive,,,,,,,,,,,,,,,,,,,,,,,,,,,,,,,,,,,,,,,,,,,,,,,,,,,,,,,,,,,,,,,,,,,,,,,,,,,,,,,,,,,,,,,,,,,,,,,,,,,,,,,,,,,,,,,,,,,,,,,,,,,,,,,,,,,,,,,
,,650739048d93f13a5f6b200b,2024-01-06_24h50.17.424,kallum_motion_pilot,2023.2.3,MacIntel,62.5,650739048d93f13a5f6b200b,6598e6a5d84f07970b831e70,6598e9fd0f1f93cb1ab50923,0.025,0.025,1,40,202,122,1,sixfive,,,,,,,,,,,,,,,,,,,,,,,,,,,,,,,,,,,,,,,,,,,,,,,,,,,,,,,,,,,,,,,,,,,,,,,,,,,,,,,,,,,,,,,,,,,,,,,,,,,,,,,,,,,,,,,,,,,,,,,,,,,,,,,,,,,,,,,
,,650739048d93f13a5f6b200b,2024-01-06_24h50.17.424,kallum_motion_pilot,2023.2.3,MacIntel,62.5,650739048d93f13a5f6b200b,6598e6a5d84f07970b831e70,6598e9fd0f1f93cb1ab50923,0.025,0.025,1,41,203,75,1,twofour,,,,,,,,,,,,,,,,,,,,,,,,,,,,,,,,,,,,,,,,,,,,,,,,,,,,,,,,,,,,,,,,,,,,,,,,,,,,,,,,,,,,,,,,,,,,,,,,,,,,,,,,,,,,,,,,,,,,,,,,,,,,,,,,,,,,,,,
,,650739048d93f13a5f6b200b,2024-01-06_24h50.17.424,kallum_motion_pilot,2023.2.3,MacIntel,62.5,650739048d93f13a5f6b200b,6598e6a5d84f07970b831e70,6598e9fd0f1f93cb1ab50923,0.025,0.025,1,42,204,102,1,eightsix,,,,,,,,,,,,,,,,,,,,,,,,,,,,,,,,,,,,,,,,,,,,,,,,,,,,,,,,,,,,,,,,,,,,,,,,,,,,,,,,,,,,,,,,,,,,,,,,,,,,,,,,,,,,,,,,,,,,,,,,,,,,,,,,,,,,,,,
,,650739048d93f13a5f6b200b,2024-01-06_24h50.17.424,kallum_motion_pilot,2023.2.3,MacIntel,62.5,650739048d93f13a5f6b200b,6598e6a5d84f07970b831e70,6598e9fd0f1f93cb1ab50923,0.025,0.025,1,43,205,126,1,eightsix,,,,,,,,,,,,,,,,,,,,,,,,,,,,,,,,,,,,,,,,,,,,,,,,,,,,,,,,,,,,,,,,,,,,,,,,,,,,,,,,,,,,,,,,,,,,,,,,,,,,,,,,,,,,,,,,,,,,,,,,,,,,,,,,,,,,,,,
,,650739048d93f13a5f6b200b,2024-01-06_24h50.17.424,kallum_motion_pilot,2023.2.3,MacIntel,62.5,650739048d93f13a5f6b200b,6598e6a5d84f07970b831e70,6598e9fd0f1f93cb1ab50923,0.025,0.025,1,44,206,33,1,onethree,,,,,,,,,,,,,,,,,,,,,,,,,,,,,,,,,,,,,,,,,,,,,,,,,,,,,,,,,,,,,,,,,,,,,,,,,,,,,,,,,,,,,,,,,,,,,,,,,,,,,,,,,,,,,,,,,,,,,,,,,,,,,,,,,,,,,,,
,,650739048d93f13a5f6b200b,2024-01-06_24h50.17.424,kallum_motion_pilot,2023.2.3,MacIntel,62.5,650739048d93f13a5f6b200b,6598e6a5d84f07970b831e70,6598e9fd0f1f93cb1ab50923,0.025,0.025,1,45,207,147,1,sixeight,,,,,,,,,,,,,,,,,,,,,,,,,,,,,,,,,,,,,,,,,,,,,,,,,,,,,,,,,,,,,,,,,,,,,,,,,,,,,,,,,,,,,,,,,,,,,,,,,,,,,,,,,,,,,,,,,,,,,,,,,,,,,,,,,,,,,,,
,,650739048d93f13a5f6b200b,2024-01-06_24h50.17.424,kallum_motion_pilot,2023.2.3,MacIntel,62.5,650739048d93f13a5f6b200b,6598e6a5d84f07970b831e70,6598e9fd0f1f93cb1ab50923,0.025,0.025,1,46,208,118,1,eightsix,,,,,,,,,,,,,,,,,,,,,,,,,,,,,,,,,,,,,,,,,,,,,,,,,,,,,,,,,,,,,,,,,,,,,,,,,,,,,,,,,,,,,,,,,,,,,,,,,,,,,,,,,,,,,,,,,,,,,,,,,,,,,,,,,,,,,,,
,,650739048d93f13a5f6b200b,2024-01-06_24h50.17.424,kallum_motion_pilot,2023.2.3,MacIntel,62.5,650739048d93f13a5f6b200b,6598e6a5d84f07970b831e70,6598e9fd0f1f93cb1ab50923,0.025,0.025,1,47,209,140,1,sevenfive,,,,,,,,,,,,,,,,,,,,,,,,,,,,,,,,,,,,,,,,,,,,,,,,,,,,,,,,,,,,,,,,,,,,,,,,,,,,,,,,,,,,,,,,,,,,,,,,,,,,,,,,,,,,,,,,,,,,,,,,,,,,,,,,,,,,,,,
,,650739048d93f13a5f6b200b,2024-01-06_24h50.17.424,kallum_motion_pilot,2023.2.3,MacIntel,62.5,650739048d93f13a5f6b200b,6598e6a5d84f07970b831e70,6598e9fd0f1f93cb1ab50923,0.025,0.025,1,48,210,68,1,threeone,,,,,,,,,,,,,,,,,,,,,,,,,,,,,,,,,,,,,,,,,,,,,,,,,,,,,,,,,,,,,,,,,,,,,,,,,,,,,,,,,,,,,,,,,,,,,,,,,,,,,,,,,,,,,,,,,,,,,,,,,,,,,,,,,,,,,,,
,,650739048d93f13a5f6b200b,2024-01-06_24h50.17.424,kallum_motion_pilot,2023.2.3,MacIntel,62.5,650739048d93f13a5f6b200b,6598e6a5d84f07970b831e70,6598e9fd0f1f93cb1ab50923,0.025,0.025,1,49,211,119,1,eightseven,,,,,,,,,,,,,,,,,,,,,,,,,,,,,,,,,,,,,,,,,,,,,,,,,,,,,,,,,,,,,,,,,,,,,,,,,,,,,,,,,,,,,,,,,,,,,,,,,,,,,,,,,,,,,,,,,,,,,,,,,,,,,,,,,,,,,,,
,,650739048d93f13a5f6b200b,2024-01-06_24h50.17.424,kallum_motion_pilot,2023.2.3,MacIntel,62.5,650739048d93f13a5f6b200b,6598e6a5d84f07970b831e70,6598e9fd0f1f93cb1ab50923,0.025,0.025,1,50,212,27,1,twofour,,,,,,,,,,,,,,,,,,,,,,,,,,,,,,,,,,,,,,,,,,,,,,,,,,,,,,,,,,,,,,,,,,,,,,,,,,,,,,,,,,,,,,,,,,,,,,,,,,,,,,,,,,,,,,,,,,,,,,,,,,,,,,,,,,,,,,,
,,650739048d93f13a5f6b200b,2024-01-06_24h50.17.424,kallum_motion_pilot,2023.2.3,MacIntel,62.5,650739048d93f13a5f6b200b,6598e6a5d84f07970b831e70,6598e9fd0f1f93cb1ab50923,0.025,0.025,1,51,213,89,1,fiveseven,,,,,,,,,,,,,,,,,,,,,,,,,,,,,,,,,,,,,,,,,,,,,,,,,,,,,,,,,,,,,,,,,,,,,,,,,,,,,,,,,,,,,,,,,,,,,,,,,,,,,,,,,,,,,,,,,,,,,,,,,,,,,,,,,,,,,,,
,,650739048d93f13a5f6b200b,2024-01-06_24h50.17.424,kallum_motion_pilot,2023.2.3,MacIntel,62.5,650739048d93f13a5f6b200b,6598e6a5d84f07970b831e70,6598e9fd0f1f93cb1ab50923,0.025,0.025,1,52,214,110,1,eightsix,,,,,,,,,,,,,,,,,,,,,,,,,,,,,,,,,,,,,,,,,,,,,,,,,,,,,,,,,,,,,,,,,,,,,,,,,,,,,,,,,,,,,,,,,,,,,,,,,,,,,,,,,,,,,,,,,,,,,,,,,,,,,,,,,,,,,,,
,,650739048d93f13a5f6b200b,2024-01-06_24h50.17.424,kallum_motion_pilot,2023.2.3,MacIntel,62.5,650739048d93f13a5f6b200b,6598e6a5d84f07970b831e70,6598e9fd0f1f93cb1ab50923,0.025,0.025,1,53,215,48,1,onetwo,,,,,,,,,,,,,,,,,,,,,,,,,,,,,,,,,,,,,,,,,,,,,,,,,,,,,,,,,,,,,,,,,,,,,,,,,,,,,,,,,,,,,,,,,,,,,,,,,,,,,,,,,,,,,,,,,,,,,,,,,,,,,,,,,,,,,,,
,,650739048d93f13a5f6b200b,2024-01-06_24h50.17.424,kallum_motion_pilot,2023.2.3,MacIntel,62.5,650739048d93f13a5f6b200b,6598e6a5d84f07970b831e70,6598e9fd0f1f93cb1ab50923,0.025,0.025,1,54,216,159,1,eightseven,,,,,,,,,,,,,,,,,,,,,,,,,,,,,,,,,,,,,,,,,,,,,,,,,,,,,,,,,,,,,,,,,,,,,,,,,,,,,,,,,,,,,,,,,,,,,,,,,,,,,,,,,,,,,,,,,,,,,,,,,,,,,,,,,,,,,,,
,,650739048d93f13a5f6b200b,2024-01-06_24h50.17.424,kallum_motion_pilot,2023.2.3,MacIntel,62.5,650739048d93f13a5f6b200b,6598e6a5d84f07970b831e70,6598e9fd0f1f93cb1ab50923,0.025,0.025,1,55,217,31,1,fourthree,,,,,,,,,,,,,,,,,,,,,,,,,,,,,,,,,,,,,,,,,,,,,,,,,,,,,,,,,,,,,,,,,,,,,,,,,,,,,,,,,,,,,,,,,,,,,,,,,,,,,,,,,,,,,,,,,,,,,,,,,,,,,,,,,,,,,,,
,,650739048d93f13a5f6b200b,2024-01-06_24h50.17.424,kallum_motion_pilot,2023.2.3,MacIntel,62.5,650739048d93f13a5f6b200b,6598e6a5d84f07970b831e70,6598e9fd0f1f93cb1ab50923,0.025,0.025,1,56,218,115,1,sixeight,,,,,,,,,,,,,,,,,,,,,,,,,,,,,,,,,,,,,,,,,,,,,,,,,,,,,,,,,,,,,,,,,,,,,,,,,,,,,,,,,,,,,,,,,,,,,,,,,,,,,,,,,,,,,,,,,,,,,,,,,,,,,,,,,,,,,,,
,,650739048d93f13a5f6b200b,2024-01-06_24h50.17.424,kallum_motion_pilot,2023.2.3,MacIntel,62.5,650739048d93f13a5f6b200b,6598e6a5d84f07970b831e70,6598e9fd0f1f93cb1ab50923,0.025,0.025,1,57,219,92,1,sevenfive,,,,,,,,,,,,,,,,,,,,,,,,,,,,,,,,,,,,,,,,,,,,,,,,,,,,,,,,,,,,,,,,,,,,,,,,,,,,,,,,,,,,,,,,,,,,,,,,,,,,,,,,,,,,,,,,,,,,,,,,,,,,,,,,,,,,,,,
,,650739048d93f13a5f6b200b,2024-01-06_24h50.17.424,kallum_motion_pilot,2023.2.3,MacIntel,62.5,650739048d93f13a5f6b200b,6598e6a5d84f07970b831e70,6598e9fd0f1f93cb1ab50923,0.026,0.026,1,58,220,67,1,twofour,,,,,,,,,,,,,,,,,,,,,,,,,,,,,,,,,,,,,,,,,,,,,,,,,,,,,,,,,,,,,,,,,,,,,,,,,,,,,,,,,,,,,,,,,,,,,,,,,,,,,,,,,,,,,,,,,,,,,,,,,,,,,,,,,,,,,,,
,,650739048d93f13a5f6b200b,2024-01-06_24h50.17.424,kallum_motion_pilot,2023.2.3,MacIntel,62.5,650739048d93f13a5f6b200b,6598e6a5d84f07970b831e70,6598e9fd0f1f93cb1ab50923,0.026,0.026,1,59,221,40,1,onetwo,,,,,,,,,,,,,,,,,,,,,,,,,,,,,,,,,,,,,,,,,,,,,,,,,,,,,,,,,,,,,,,,,,,,,,,,,,,,,,,,,,,,,,,,,,,,,,,,,,,,,,,,,,,,,,,,,,,,,,,,,,,,,,,,,,,,,,,
,,650739048d93f13a5f6b200b,2024-01-06_24h50.17.424,kallum_motion_pilot,2023.2.3,MacIntel,62.5,650739048d93f13a5f6b200b,6598e6a5d84f07970b831e70,6598e9fd0f1f93cb1ab50923,0.026,0.026,1,60,222,1,1,onethree,,,,,,,,,,,,,,,,,,,,,,,,,,,,,,,,,,,,,,,,,,,,,,,,,,,,,,,,,,,,,,,,,,,,,,,,,,,,,,,,,,,,,,,,,,,,,,,,,,,,,,,,,,,,,,,,,,,,,,,,,,,,,,,,,,,,,,,
,,650739048d93f13a5f6b200b,2024-01-06_24h50.17.424,kallum_motion_pilot,2023.2.3,MacIntel,62.5,650739048d93f13a5f6b200b,6598e6a5d84f07970b831e70,6598e9fd0f1f93cb1ab50923,0.026,0.026,1,61,223,39,1,fourthree,,,,,,,,,,,,,,,,,,,,,,,,,,,,,,,,,,,,,,,,,,,,,,,,,,,,,,,,,,,,,,,,,,,,,,,,,,,,,,,,,,,,,,,,,,,,,,,,,,,,,,,,,,,,,,,,,,,,,,,,,,,,,,,,,,,,,,,
,,650739048d93f13a5f6b200b,2024-01-06_24h50.17.424,kallum_motion_pilot,2023.2.3,MacIntel,62.5,650739048d93f13a5f6b200b,6598e6a5d84f07970b831e70,6598e9fd0f1f93cb1ab50923,0.026,0.026,1,62,224,158,1,eightsix,,,,,,,,,,,,,,,,,,,,,,,,,,,,,,,,,,,,,,,,,,,,,,,,,,,,,,,,,,,,,,,,,,,,,,,,,,,,,,,,,,,,,,,,,,,,,,,,,,,,,,,,,,,,,,,,,,,,,,,,,,,,,,,,,,,,,,,
,,650739048d93f13a5f6b200b,2024-01-06_24h50.17.424,kallum_motion_pilot,2023.2.3,MacIntel,62.5,650739048d93f13a5f6b200b,6598e6a5d84f07970b831e70,6598e9fd0f1f93cb1ab50923,0.026,0.026,1,63,225,4,1,threeone,,,,,,,,,,,,,,,,,,,,,,,,,,,,,,,,,,,,,,,,,,,,,,,,,,,,,,,,,,,,,,,,,,,,,,,,,,,,,,,,,,,,,,,,,,,,,,,,,,,,,,,,,,,,,,,,,,,,,,,,,,,,,,,,,,,,,,,
,,650739048d93f13a5f6b200b,2024-01-06_24h50.17.424,kallum_motion_pilot,2023.2.3,MacIntel,62.5,650739048d93f13a5f6b200b,6598e6a5d84f07970b831e70,6598e9fd0f1f93cb1ab50923,0.026,0.026,1,64,226,79,1,eightseven,,,,,,,,,,,,,,,,,,,,,,,,,,,,,,,,,,,,,,,,,,,,,,,,,,,,,,,,,,,,,,,,,,,,,,,,,,,,,,,,,,,,,,,,,,,,,,,,,,,,,,,,,,,,,,,,,,,,,,,,,,,,,,,,,,,,,,,
,,650739048d93f13a5f6b200b,2024-01-06_24h50.17.424,kallum_motion_pilot,2023.2.3,MacIntel,62.5,650739048d93f13a5f6b200b,6598e6a5d84f07970b831e70,6598e9fd0f1f93cb1ab50923,0.026,0.026,1,65,227,50,1,twoone,,,,,,,,,,,,,,,,,,,,,,,,,,,,,,,,,,,,,,,,,,,,,,,,,,,,,,,,,,,,,,,,,,,,,,,,,,,,,,,,,,,,,,,,,,,,,,,,,,,,,,,,,,,,,,,,,,,,,,,,,,,,,,,,,,,,,,,
,,650739048d93f13a5f6b200b,2024-01-06_24h50.17.424,kallum_motion_pilot,2023.2.3,MacIntel,62.5,650739048d93f13a5f6b200b,6598e6a5d84f07970b831e70,6598e9fd0f1f93cb1ab50923,0.026,0.026,1,66,228,130,1,sixfive,,,,,,,,,,,,,,,,,,,,,,,,,,,,,,,,,,,,,,,,,,,,,,,,,,,,,,,,,,,,,,,,,,,,,,,,,,,,,,,,,,,,,,,,,,,,,,,,,,,,,,,,,,,,,,,,,,,,,,,,,,,,,,,,,,,,,,,
,,650739048d93f13a5f6b200b,2024-01-06_24h50.17.424,kallum_motion_pilot,2023.2.3,MacIntel,62.5,650739048d93f13a5f6b200b,6598e6a5d84f07970b831e70,6598e9fd0f1f93cb1ab50923,0.026,0.026,1,67,229,0,1,onetwo,,,,,,,,,,,,,,,,,,,,,,,,,,,,,,,,,,,,,,,,,,,,,,,,,,,,,,,,,,,,,,,,,,,,,,,,,,,,,,,,,,,,,,,,,,,,,,,,,,,,,,,,,,,,,,,,,,,,,,,,,,,,,,,,,,,,,,,
,,650739048d93f13a5f6b200b,2024-01-06_24h50.17.424,kallum_motion_pilot,2023.2.3,MacIntel,62.5,650739048d93f13a5f6b200b,6598e6a5d84f07970b831e70,6598e9fd0f1f93cb1ab50923,0.026,0.027,1,68,230,32,1,onetwo,,,,,,,,,,,,,,,,,,,,,,,,,,,,,,,,,,,,,,,,,,,,,,,,,,,,,,,,,,,,,,,,,,,,,,,,,,,,,,,,,,,,,,,,,,,,,,,,,,,,,,,,,,,,,,,,,,,,,,,,,,,,,,,,,,,,,,,
,,650739048d93f13a5f6b200b,2024-01-06_24h50.17.424,kallum_motion_pilot,2023.2.3,MacIntel,62.5,650739048d93f13a5f6b200b,6598e6a5d84f07970b831e70,6598e9fd0f1f93cb1ab50923,0.027,0.027,1,69,231,81,1,fiveseven,,,,,,,,,,,,,,,,,,,,,,,,,,,,,,,,,,,,,,,,,,,,,,,,,,,,,,,,,,,,,,,,,,,,,,,,,,,,,,,,,,,,,,,,,,,,,,,,,,,,,,,,,,,,,,,,,,,,,,,,,,,,,,,,,,,,,,,
,,650739048d93f13a5f6b200b,2024-01-06_24h50.17.424,kallum_motion_pilot,2023.2.3,MacIntel,62.5,650739048d93f13a5f6b200b,6598e6a5d84f07970b831e70,6598e9fd0f1f93cb1ab50923,0.027,0.027,1,70,232,29,1,threefour,,,,,,,,,,,,,,,,,,,,,,,,,,,,,,,,,,,,,,,,,,,,,,,,,,,,,,,,,,,,,,,,,,,,,,,,,,,,,,,,,,,,,,,,,,,,,,,,,,,,,,,,,,,,,,,,,,,,,,,,,,,,,,,,,,,,,,,
,,650739048d93f13a5f6b200b,2024-01-06_24h50.17.424,kallum_motion_pilot,2023.2.3,MacIntel,62.5,650739048d93f13a5f6b200b,6598e6a5d84f07970b831e70,6598e9fd0f1f93cb1ab50923,0.027,0.027,1,71,233,34,1,twoone,,,,,,,,,,,,,,,,,,,,,,,,,,,,,,,,,,,,,,,,,,,,,,,,,,,,,,,,,,,,,,,,,,,,,,,,,,,,,,,,,,,,,,,,,,,,,,,,,,,,,,,,,,,,,,,,,,,,,,,,,,,,,,,,,,,,,,,
,,650739048d93f13a5f6b200b,2024-01-06_24h50.17.424,kallum_motion_pilot,2023.2.3,MacIntel,62.5,650739048d93f13a5f6b200b,6598e6a5d84f07970b831e70,6598e9fd0f1f93cb1ab50923,0.027,0.027,1,72,234,101,1,seveneight,,,,,,,,,,,,,,,,,,,,,,,,,,,,,,,,,,,,,,,,,,,,,,,,,,,,,,,,,,,,,,,,,,,,,,,,,,,,,,,,,,,,,,,,,,,,,,,,,,,,,,,,,,,,,,,,,,,,,,,,,,,,,,,,,,,,,,,
,,650739048d93f13a5f6b200b,2024-01-06_24h50.17.424,kallum_motion_pilot,2023.2.3,MacIntel,62.5,650739048d93f13a5f6b200b,6598e6a5d84f07970b831e70,6598e9fd0f1f93cb1ab50923,0.027,0.027,1,73,235,105,1,fiveseven,,,,,,,,,,,,,,,,,,,,,,,,,,,,,,,,,,,,,,,,,,,,,,,,,,,,,,,,,,,,,,,,,,,,,,,,,,,,,,,,,,,,,,,,,,,,,,,,,,,,,,,,,,,,,,,,,,,,,,,,,,,,,,,,,,,,,,,
,,650739048d93f13a5f6b200b,2024-01-06_24h50.17.424,kallum_motion_pilot,2023.2.3,MacIntel,62.5,650739048d93f13a5f6b200b,6598e6a5d84f07970b831e70,6598e9fd0f1f93cb1ab50923,0.027,0.027,1,74,236,100,1,sevenfive,,,,,,,,,,,,,,,,,,,,,,,,,,,,,,,,,,,,,,,,,,,,,,,,,,,,,,,,,,,,,,,,,,,,,,,,,,,,,,,,,,,,,,,,,,,,,,,,,,,,,,,,,,,,,,,,,,,,,,,,,,,,,,,,,,,,,,,
,,650739048d93f13a5f6b200b,2024-01-06_24h50.17.424,kallum_motion_pilot,2023.2.3,MacIntel,62.5,650739048d93f13a5f6b200b,6598e6a5d84f07970b831e70,6598e9fd0f1f93cb1ab50923,0.027,0.027,1,75,237,150,1,eightsix,,,,,,,,,,,,,,,,,,,,,,,,,,,,,,,,,,,,,,,,,,,,,,,,,,,,,,,,,,,,,,,,,,,,,,,,,,,,,,,,,,,,,,,,,,,,,,,,,,,,,,,,,,,,,,,,,,,,,,,,,,,,,,,,,,,,,,,
,,650739048d93f13a5f6b200b,2024-01-06_24h50.17.424,kallum_motion_pilot,2023.2.3,MacIntel,62.5,650739048d93f13a5f6b200b,6598e6a5d84f07970b831e70,6598e9fd0f1f93cb1ab50923,0.027,0.027,1,76,238,22,1,fourtwo,,,,,,,,,,,,,,,,,,,,,,,,,,,,,,,,,,,,,,,,,,,,,,,,,,,,,,,,,,,,,,,,,,,,,,,,,,,,,,,,,,,,,,,,,,,,,,,,,,,,,,,,,,,,,,,,,,,,,,,,,,,,,,,,,,,,,,,
,,650739048d93f13a5f6b200b,2024-01-06_24h50.17.424,kallum_motion_pilot,2023.2.3,MacIntel,62.5,650739048d93f13a5f6b200b,6598e6a5d84f07970b831e70,6598e9fd0f1f93cb1ab50923,0.027,0.027,1,77,239,103,1,eightseven,,,,,,,,,,,,,,,,,,,,,,,,,,,,,,,,,,,,,,,,,,,,,,,,,,,,,,,,,,,,,,,,,,,,,,,,,,,,,,,,,,,,,,,,,,,,,,,,,,,,,,,,,,,,,,,,,,,,,,,,,,,,,,,,,,,,,,,
,,650739048d93f13a5f6b200b,2024-01-06_24h50.17.424,kallum_motion_pilot,2023.2.3,MacIntel,62.5,650739048d93f13a5f6b200b,6598e6a5d84f07970b831e70,6598e9fd0f1f93cb1ab50923,0.027,0.027,1,78,240,11,1,twofour,,,,,,,,,,,,,,,,,,,,,,,,,,,,,,,,,,,,,,,,,,,,,,,,,,,,,,,,,,,,,,,,,,,,,,,,,,,,,,,,,,,,,,,,,,,,,,,,,,,,,,,,,,,,,,,,,,,,,,,,,,,,,,,,,,,,,,,
,,650739048d93f13a5f6b200b,2024-01-06_24h50.17.424,kallum_motion_pilot,2023.2.3,MacIntel,62.5,650739048d93f13a5f6b200b,6598e6a5d84f07970b831e70,6598e9fd0f1f93cb1ab50923,0.027,0.027,1,79,241,143,1,eightseven,,,,,,,,,,,,,,,,,,,,,,,,,,,,,,,,,,,,,,,,,,,,,,,,,,,,,,,,,,,,,,,,,,,,,,,,,,,,,,,,,,,,,,,,,,,,,,,,,,,,,,,,,,,,,,,,,,,,,,,,,,,,,,,,,,,,,,,
,,650739048d93f13a5f6b200b,2024-01-06_24h50.17.424,kallum_motion_pilot,2023.2.3,MacIntel,62.5,650739048d93f13a5f6b200b,6598e6a5d84f07970b831e70,6598e9fd0f1f93cb1ab50923,0.027,0.027,1,80,242,151,1,eightseven,,,,,,,,,,,,,,,,,,,,,,,,,,,,,,,,,,,,,,,,,,,,,,,,,,,,,,,,,,,,,,,,,,,,,,,,,,,,,,,,,,,,,,,,,,,,,,,,,,,,,,,,,,,,,,,,,,,,,,,,,,,,,,,,,,,,,,,
,,650739048d93f13a5f6b200b,2024-01-06_24h50.17.424,kallum_motion_pilot,2023.2.3,MacIntel,62.5,650739048d93f13a5f6b200b,6598e6a5d84f07970b831e70,6598e9fd0f1f93cb1ab50923,0.027,0.027,1,81,243,35,1,twofour,,,,,,,,,,,,,,,,,,,,,,,,,,,,,,,,,,,,,,,,,,,,,,,,,,,,,,,,,,,,,,,,,,,,,,,,,,,,,,,,,,,,,,,,,,,,,,,,,,,,,,,,,,,,,,,,,,,,,,,,,,,,,,,,,,,,,,,
,,650739048d93f13a5f6b200b,2024-01-06_24h50.17.424,kallum_motion_pilot,2023.2.3,MacIntel,62.5,650739048d93f13a5f6b200b,6598e6a5d84f07970b831e70,6598e9fd0f1f93cb1ab50923,0.028,0.028,1,82,244,63,1,fourthree,,,,,,,,,,,,,,,,,,,,,,,,,,,,,,,,,,,,,,,,,,,,,,,,,,,,,,,,,,,,,,,,,,,,,,,,,,,,,,,,,,,,,,,,,,,,,,,,,,,,,,,,,,,,,,,,,,,,,,,,,,,,,,,,,,,,,,,
,,650739048d93f13a5f6b200b,2024-01-06_24h50.17.424,kallum_motion_pilot,2023.2.3,MacIntel,62.5,650739048d93f13a5f6b200b,6598e6a5d84f07970b831e70,6598e9fd0f1f93cb1ab50923,0.028,0.028,1,83,245,129,1,fiveseven,,,,,,,,,,,,,,,,,,,,,,,,,,,,,,,,,,,,,,,,,,,,,,,,,,,,,,,,,,,,,,,,,,,,,,,,,,,,,,,,,,,,,,,,,,,,,,,,,,,,,,,,,,,,,,,,,,,,,,,,,,,,,,,,,,,,,,,
,,650739048d93f13a5f6b200b,2024-01-06_24h50.17.424,kallum_motion_pilot,2023.2.3,MacIntel,62.5,650739048d93f13a5f6b200b,6598e6a5d84f07970b831e70,6598e9fd0f1f93cb1ab50923,0.028,0.028,1,84,246,94,1,eightsix,,,,,,,,,,,,,,,,,,,,,,,,,,,,,,,,,,,,,,,,,,,,,,,,,,,,,,,,,,,,,,,,,,,,,,,,,,,,,,,,,,,,,,,,,,,,,,,,,,,,,,,,,,,,,,,,,,,,,,,,,,,,,,,,,,,,,,,
,,650739048d93f13a5f6b200b,2024-01-06_24h50.17.424,kallum_motion_pilot,2023.2.3,MacIntel,62.5,650739048d93f13a5f6b200b,6598e6a5d84f07970b831e70,6598e9fd0f1f93cb1ab50923,0.028,0.028,1,85,247,93,1,seveneight,,,,,,,,,,,,,,,,,,,,,,,,,,,,,,,,,,,,,,,,,,,,,,,,,,,,,,,,,,,,,,,,,,,,,,,,,,,,,,,,,,,,,,,,,,,,,,,,,,,,,,,,,,,,,,,,,,,,,,,,,,,,,,,,,,,,,,,
,,650739048d93f13a5f6b200b,2024-01-06_24h50.17.424,kallum_motion_pilot,2023.2.3,MacIntel,62.5,650739048d93f13a5f6b200b,6598e6a5d84f07970b831e70,6598e9fd0f1f93cb1ab50923,0.028,0.028,1,86,248,44,1,threeone,,,,,,,,,,,,,,,,,,,,,,,,,,,,,,,,,,,,,,,,,,,,,,,,,,,,,,,,,,,,,,,,,,,,,,,,,,,,,,,,,,,,,,,,,,,,,,,,,,,,,,,,,,,,,,,,,,,,,,,,,,,,,,,,,,,,,,,
,,650739048d93f13a5f6b200b,2024-01-06_24h50.17.424,kallum_motion_pilot,2023.2.3,MacIntel,62.5,650739048d93f13a5f6b200b,6598e6a5d84f07970b831e70,6598e9fd0f1f93cb1ab50923,0.028,0.028,1,87,249,86,1,eightsix,,,,,,,,,,,,,,,,,,,,,,,,,,,,,,,,,,,,,,,,,,,,,,,,,,,,,,,,,,,,,,,,,,,,,,,,,,,,,,,,,,,,,,,,,,,,,,,,,,,,,,,,,,,,,,,,,,,,,,,,,,,,,,,,,,,,,,,
,,650739048d93f13a5f6b200b,2024-01-06_24h50.17.424,kallum_motion_pilot,2023.2.3,MacIntel,62.5,650739048d93f13a5f6b200b,6598e6a5d84f07970b831e70,6598e9fd0f1f93cb1ab50923,0.028,0.028,1,88,250,161,1,fiveseven,,,,,,,,,,,,,,,,,,,,,,,,,,,,,,,,,,,,,,,,,,,,,,,,,,,,,,,,,,,,,,,,,,,,,,,,,,,,,,,,,,,,,,,,,,,,,,,,,,,,,,,,,,,,,,,,,,,,,,,,,,,,,,,,,,,,,,,
,,650739048d93f13a5f6b200b,2024-01-06_24h50.17.424,kallum_motion_pilot,2023.2.3,MacIntel,62.5,650739048d93f13a5f6b200b,6598e6a5d84f07970b831e70,6598e9fd0f1f93cb1ab50923,0.028,0.028,1,89,251,134,1,eightsix,,,,,,,,,,,,,,,,,,,,,,,,,,,,,,,,,,,,,,,,,,,,,,,,,,,,,,,,,,,,,,,,,,,,,,,,,,,,,,,,,,,,,,,,,,,,,,,,,,,,,,,,,,,,,,,,,,,,,,,,,,,,,,,,,,,,,,,
,,650739048d93f13a5f6b200b,2024-01-06_24h50.17.424,kallum_motion_pilot,2023.2.3,MacIntel,62.5,650739048d93f13a5f6b200b,6598e6a5d84f07970b831e70,6598e9fd0f1f93cb1ab50923,0.028,0.028,1,90,252,6,1,fourtwo,,,,,,,,,,,,,,,,,,,,,,,,,,,,,,,,,,,,,,,,,,,,,,,,,,,,,,,,,,,,,,,,,,,,,,,,,,,,,,,,,,,,,,,,,,,,,,,,,,,,,,,,,,,,,,,,,,,,,,,,,,,,,,,,,,,,,,,
,,650739048d93f13a5f6b200b,2024-01-06_24h50.17.424,kallum_motion_pilot,2023.2.3,MacIntel,62.5,650739048d93f13a5f6b200b,6598e6a5d84f07970b831e70,6598e9fd0f1f93cb1ab50923,0.028,0.028,1,91,253,99,1,sixeight,,,,,,,,,,,,,,,,,,,,,,,,,,,,,,,,,,,,,,,,,,,,,,,,,,,,,,,,,,,,,,,,,,,,,,,,,,,,,,,,,,,,,,,,,,,,,,,,,,,,,,,,,,,,,,,,,,,,,,,,,,,,,,,,,,,,,,,
,,650739048d93f13a5f6b200b,2024-01-06_24h50.17.424,kallum_motion_pilot,2023.2.3,MacIntel,62.5,650739048d93f13a5f6b200b,6598e6a5d84f07970b831e70,6598e9fd0f1f93cb1ab50923,0.028,0.028,1,92,254,113,1,fiveseven,,,,,,,,,,,,,,,,,,,,,,,,,,,,,,,,,,,,,,,,,,,,,,,,,,,,,,,,,,,,,,,,,,,,,,,,,,,,,,,,,,,,,,,,,,,,,,,,,,,,,,,,,,,,,,,,,,,,,,,,,,,,,,,,,,,,,,,
,,650739048d93f13a5f6b200b,2024-01-06_24h50.17.424,kallum_motion_pilot,2023.2.3,MacIntel,62.5,650739048d93f13a5f6b200b,6598e6a5d84f07970b831e70,6598e9fd0f1f93cb1ab50923,0.028,0.028,1,93,255,16,1,onetwo,,,,,,,,,,,,,,,,,,,,,,,,,,,,,,,,,,,,,,,,,,,,,,,,,,,,,,,,,,,,,,,,,,,,,,,,,,,,,,,,,,,,,,,,,,,,,,,,,,,,,,,,,,,,,,,,,,,,,,,,,,,,,,,,,,,,,,,
,,650739048d93f13a5f6b200b,2024-01-06_24h50.17.424,kallum_motion_pilot,2023.2.3,MacIntel,62.5,650739048d93f13a5f6b200b,6598e6a5d84f07970b831e70,6598e9fd0f1f93cb1ab50923,0.028,0.028,1,94,256,135,1,eightseven,,,,,,,,,,,,,,,,,,,,,,,,,,,,,,,,,,,,,,,,,,,,,,,,,,,,,,,,,,,,,,,,,,,,,,,,,,,,,,,,,,,,,,,,,,,,,,,,,,,,,,,,,,,,,,,,,,,,,,,,,,,,,,,,,,,,,,,
,,650739048d93f13a5f6b200b,2024-01-06_24h50.17.424,kallum_motion_pilot,2023.2.3,MacIntel,62.5,650739048d93f13a5f6b200b,6598e6a5d84f07970b831e70,6598e9fd0f1f93cb1ab50923,0.028,0.028,1,95,257,3,1,twofour,,,,,,,,,,,,,,,,,,,,,,,,,,,,,,,,,,,,,,,,,,,,,,,,,,,,,,,,,,,,,,,,,,,,,,,,,,,,,,,,,,,,,,,,,,,,,,,,,,,,,,,,,,,,,,,,,,,,,,,,,,,,,,,,,,,,,,,
,,650739048d93f13a5f6b200b,2024-01-06_24h50.17.424,kallum_motion_pilot,2023.2.3,MacIntel,62.5,650739048d93f13a5f6b200b,6598e6a5d84f07970b831e70,6598e9fd0f1f93cb1ab50923,0.029,0.029,1,96,258,91,1,sixeight,,,,,,,,,,,,,,,,,,,,,,,,,,,,,,,,,,,,,,,,,,,,,,,,,,,,,,,,,,,,,,,,,,,,,,,,,,,,,,,,,,,,,,,,,,,,,,,,,,,,,,,,,,,,,,,,,,,,,,,,,,,,,,,,,,,,,,,
,,650739048d93f13a5f6b200b,2024-01-06_24h50.17.424,kallum_motion_pilot,2023.2.3,MacIntel,62.5,650739048d93f13a5f6b200b,6598e6a5d84f07970b831e70,6598e9fd0f1f93cb1ab50923,0.029,0.029,1,97,259,2,1,twoone,,,,,,,,,,,,,,,,,,,,,,,,,,,,,,,,,,,,,,,,,,,,,,,,,,,,,,,,,,,,,,,,,,,,,,,,,,,,,,,,,,,,,,,,,,,,,,,,,,,,,,,,,,,,,,,,,,,,,,,,,,,,,,,,,,,,,,,
,,650739048d93f13a5f6b200b,2024-01-06_24h50.17.424,kallum_motion_pilot,2023.2.3,MacIntel,62.5,650739048d93f13a5f6b200b,6598e6a5d84f07970b831e70,6598e9fd0f1f93cb1ab50923,0.029,0.029,1,98,260,127,1,eightseven,,,,,,,,,,,,,,,,,,,,,,,,,,,,,,,,,,,,,,,,,,,,,,,,,,,,,,,,,,,,,,,,,,,,,,,,,,,,,,,,,,,,,,,,,,,,,,,,,,,,,,,,,,,,,,,,,,,,,,,,,,,,,,,,,,,,,,,
,,650739048d93f13a5f6b200b,2024-01-06_24h50.17.424,kallum_motion_pilot,2023.2.3,MacIntel,62.5,650739048d93f13a5f6b200b,6598e6a5d84f07970b831e70,6598e9fd0f1f93cb1ab50923,0.029,0.029,1,99,261,17,1,onethree,,,,,,,,,,,,,,,,,,,,,,,,,,,,,,,,,,,,,,,,,,,,,,,,,,,,,,,,,,,,,,,,,,,,,,,,,,,,,,,,,,,,,,,,,,,,,,,,,,,,,,,,,,,,,,,,,,,,,,,,,,,,,,,,,,,,,,,
,,650739048d93f13a5f6b200b,2024-01-06_24h50.17.424,kallum_motion_pilot,2023.2.3,MacIntel,62.5,650739048d93f13a5f6b200b,6598e6a5d84f07970b831e70,6598e9fd0f1f93cb1ab50923,0.029,0.029,1,100,262,80,1,fivesix,,,,,,,,,,,,,,,,,,,,,,,,,,,,,,,,,,,,,,,,,,,,,,,,,,,,,,,,,,,,,,,,,,,,,,,,,,,,,,,,,,,,,,,,,,,,,,,,,,,,,,,,,,,,,,,,,,,,,,,,,,,,,,,,,,,,,,,
,,650739048d93f13a5f6b200b,2024-01-06_24h50.17.424,kallum_motion_pilot,2023.2.3,MacIntel,62.5,650739048d93f13a5f6b200b,6598e6a5d84f07970b831e70,6598e9fd0f1f93cb1ab50923,0.029,0.029,1,101,263,64,1,onetwo,,,,,,,,,,,,,,,,,,,,,,,,,,,,,,,,,,,,,,,,,,,,,,,,,,,,,,,,,,,,,,,,,,,,,,,,,,,,,,,,,,,,,,,,,,,,,,,,,,,,,,,,,,,,,,,,,,,,,,,,,,,,,,,,,,,,,,,
,,650739048d93f13a5f6b200b,2024-01-06_24h50.17.424,kallum_motion_pilot,2023.2.3,MacIntel,62.5,650739048d93f13a5f6b200b,6598e6a5d84f07970b831e70,6598e9fd0f1f93cb1ab50923,0.029,0.029,1,102,264,41,1,onethree,,,,,,,,,,,,,,,,,,,,,,,,,,,,,,,,,,,,,,,,,,,,,,,,,,,,,,,,,,,,,,,,,,,,,,,,,,,,,,,,,,,,,,,,,,,,,,,,,,,,,,,,,,,,,,,,,,,,,,,,,,,,,,,,,,,,,,,
,,650739048d93f13a5f6b200b,2024-01-06_24h50.17.424,kallum_motion_pilot,2023.2.3,MacIntel,62.5,650739048d93f13a5f6b200b,6598e6a5d84f07970b831e70,6598e9fd0f1f93cb1ab50923,0.029,0.029,1,103,265,20,1,threeone,,,,,,,,,,,,,,,,,,,,,,,,,,,,,,,,,,,,,,,,,,,,,,,,,,,,,,,,,,,,,,,,,,,,,,,,,,,,,,,,,,,,,,,,,,,,,,,,,,,,,,,,,,,,,,,,,,,,,,,,,,,,,,,,,,,,,,,
,,650739048d93f13a5f6b200b,2024-01-06_24h50.17.424,kallum_motion_pilot,2023.2.3,MacIntel,62.5,650739048d93f13a5f6b200b,6598e6a5d84f07970b831e70,6598e9fd0f1f93cb1ab50923,0.029,0.029,1,104,266,46,1,fourtwo,,,,,,,,,,,,,,,,,,,,,,,,,,,,,,,,,,,,,,,,,,,,,,,,,,,,,,,,,,,,,,,,,,,,,,,,,,,,,,,,,,,,,,,,,,,,,,,,,,,,,,,,,,,,,,,,,,,,,,,,,,,,,,,,,,,,,,,
,,650739048d93f13a5f6b200b,2024-01-06_24h50.17.424,kallum_motion_pilot,2023.2.3,MacIntel,62.5,650739048d93f13a5f6b200b,6598e6a5d84f07970b831e70,6598e9fd0f1f93cb1ab50923,0.029,0.029,1,105,267,66,1,twoone,,,,,,,,,,,,,,,,,,,,,,,,,,,,,,,,,,,,,,,,,,,,,,,,,,,,,,,,,,,,,,,,,,,,,,,,,,,,,,,,,,,,,,,,,,,,,,,,,,,,,,,,,,,,,,,,,,,,,,,,,,,,,,,,,,,,,,,
,,650739048d93f13a5f6b200b,2024-01-06_24h50.17.424,kallum_motion_pilot,2023.2.3,MacIntel,62.5,650739048d93f13a5f6b200b,6598e6a5d84f07970b831e70,6598e9fd0f1f93cb1ab50923,0.029,0.029,1,106,268,21,1,threefour,,,,,,,,,,,,,,,,,,,,,,,,,,,,,,,,,,,,,,,,,,,,,,,,,,,,,,,,,,,,,,,,,,,,,,,,,,,,,,,,,,,,,,,,,,,,,,,,,,,,,,,,,,,,,,,,,,,,,,,,,,,,,,,,,,,,,,,
,,650739048d93f13a5f6b200b,2024-01-06_24h50.17.424,kallum_motion_pilot,2023.2.3,MacIntel,62.5,650739048d93f13a5f6b200b,6598e6a5d84f07970b831e70,6598e9fd0f1f93cb1ab50923,0.029,0.029,1,107,269,116,1,sevenfive,,,,,,,,,,,,,,,,,,,,,,,,,,,,,,,,,,,,,,,,,,,,,,,,,,,,,,,,,,,,,,,,,,,,,,,,,,,,,,,,,,,,,,,,,,,,,,,,,,,,,,,,,,,,,,,,,,,,,,,,,,,,,,,,,,,,,,,
,,650739048d93f13a5f6b200b,2024-01-06_24h50.17.424,kallum_motion_pilot,2023.2.3,MacIntel,62.5,650739048d93f13a5f6b200b,6598e6a5d84f07970b831e70,6598e9fd0f1f93cb1ab50923,0.03,0.03,1,108,270,142,1,eightsix,,,,,,,,,,,,,,,,,,,,,,,,,,,,,,,,,,,,,,,,,,,,,,,,,,,,,,,,,,,,,,,,,,,,,,,,,,,,,,,,,,,,,,,,,,,,,,,,,,,,,,,,,,,,,,,,,,,,,,,,,,,,,,,,,,,,,,,
,,650739048d93f13a5f6b200b,2024-01-06_24h50.17.424,kallum_motion_pilot,2023.2.3,MacIntel,62.5,650739048d93f13a5f6b200b,6598e6a5d84f07970b831e70,6598e9fd0f1f93cb1ab50923,0.03,0.03,1,109,271,106,1,sixfive,,,,,,,,,,,,,,,,,,,,,,,,,,,,,,,,,,,,,,,,,,,,,,,,,,,,,,,,,,,,,,,,,,,,,,,,,,,,,,,,,,,,,,,,,,,,,,,,,,,,,,,,,,,,,,,,,,,,,,,,,,,,,,,,,,,,,,,
,,650739048d93f13a5f6b200b,2024-01-06_24h50.17.424,kallum_motion_pilot,2023.2.3,MacIntel,62.5,650739048d93f13a5f6b200b,6598e6a5d84f07970b831e70,6598e9fd0f1f93cb1ab50923,0.03,0.03,1,110,272,137,1,fiveseven,,,,,,,,,,,,,,,,,,,,,,,,,,,,,,,,,,,,,,,,,,,,,,,,,,,,,,,,,,,,,,,,,,,,,,,,,,,,,,,,,,,,,,,,,,,,,,,,,,,,,,,,,,,,,,,,,,,,,,,,,,,,,,,,,,,,,,,
,,650739048d93f13a5f6b200b,2024-01-06_24h50.17.424,kallum_motion_pilot,2023.2.3,MacIntel,62.5,650739048d93f13a5f6b200b,6598e6a5d84f07970b831e70,6598e9fd0f1f93cb1ab50923,0.03,0.03,1,111,273,30,1,fourtwo,,,,,,,,,,,,,,,,,,,,,,,,,,,,,,,,,,,,,,,,,,,,,,,,,,,,,,,,,,,,,,,,,,,,,,,,,,,,,,,,,,,,,,,,,,,,,,,,,,,,,,,,,,,,,,,,,,,,,,,,,,,,,,,,,,,,,,,
,,650739048d93f13a5f6b200b,2024-01-06_24h50.17.424,kallum_motion_pilot,2023.2.3,MacIntel,62.5,650739048d93f13a5f6b200b,6598e6a5d84f07970b831e70,6598e9fd0f1f93cb1ab50923,0.03,0.03,1,112,274,36,1,threeone,,,,,,,,,,,,,,,,,,,,,,,,,,,,,,,,,,,,,,,,,,,,,,,,,,,,,,,,,,,,,,,,,,,,,,,,,,,,,,,,,,,,,,,,,,,,,,,,,,,,,,,,,,,,,,,,,,,,,,,,,,,,,,,,,,,,,,,
,,650739048d93f13a5f6b200b,2024-01-06_24h50.17.424,kallum_motion_pilot,2023.2.3,MacIntel,62.5,650739048d93f13a5f6b200b,6598e6a5d84f07970b831e70,6598e9fd0f1f93cb1ab50923,0.03,0.03,1,113,275,104,1,fivesix,,,,,,,,,,,,,,,,,,,,,,,,,,,,,,,,,,,,,,,,,,,,,,,,,,,,,,,,,,,,,,,,,,,,,,,,,,,,,,,,,,,,,,,,,,,,,,,,,,,,,,,,,,,,,,,,,,,,,,,,,,,,,,,,,,,,,,,
,,650739048d93f13a5f6b200b,2024-01-06_24h50.17.424,kallum_motion_pilot,2023.2.3,MacIntel,62.5,650739048d93f13a5f6b200b,6598e6a5d84f07970b831e70,6598e9fd0f1f93cb1ab50923,0.03,0.03,1,114,276,56,1,onetwo,,,,,,,,,,,,,,,,,,,,,,,,,,,,,,,,,,,,,,,,,,,,,,,,,,,,,,,,,,,,,,,,,,,,,,,,,,,,,,,,,,,,,,,,,,,,,,,,,,,,,,,,,,,,,,,,,,,,,,,,,,,,,,,,,,,,,,,
,,650739048d93f13a5f6b200b,2024-01-06_24h50.17.424,kallum_motion_pilot,2023.2.3,MacIntel,62.5,650739048d93f13a5f6b200b,6598e6a5d84f07970b831e70,6598e9fd0f1f93cb1ab50923,0.03,0.031,1,115,277,141,1,seveneight,,,,,,,,,,,,,,,,,,,,,,,,,,,,,,,,,,,,,,,,,,,,,,,,,,,,,,,,,,,,,,,,,,,,,,,,,,,,,,,,,,,,,,,,,,,,,,,,,,,,,,,,,,,,,,,,,,,,,,,,,,,,,,,,,,,,,,,
,,650739048d93f13a5f6b200b,2024-01-06_24h50.17.424,kallum_motion_pilot,2023.2.3,MacIntel,62.5,650739048d93f13a5f6b200b,6598e6a5d84f07970b831e70,6598e9fd0f1f93cb1ab50923,0.031,0.031,1,116,278,37,1,threefour,,,,,,,,,,,,,,,,,,,,,,,,,,,,,,,,,,,,,,,,,,,,,,,,,,,,,,,,,,,,,,,,,,,,,,,,,,,,,,,,,,,,,,,,,,,,,,,,,,,,,,,,,,,,,,,,,,,,,,,,,,,,,,,,,,,,,,,
,,650739048d93f13a5f6b200b,2024-01-06_24h50.17.424,kallum_motion_pilot,2023.2.3,MacIntel,62.5,650739048d93f13a5f6b200b,6598e6a5d84f07970b831e70,6598e9fd0f1f93cb1ab50923,0.031,0.031,1,117,279,47,1,fourthree,,,,,,,,,,,,,,,,,,,,,,,,,,,,,,,,,,,,,,,,,,,,,,,,,,,,,,,,,,,,,,,,,,,,,,,,,,,,,,,,,,,,,,,,,,,,,,,,,,,,,,,,,,,,,,,,,,,,,,,,,,,,,,,,,,,,,,,
,,650739048d93f13a5f6b200b,2024-01-06_24h50.17.424,kallum_motion_pilot,2023.2.3,MacIntel,62.5,650739048d93f13a5f6b200b,6598e6a5d84f07970b831e70,6598e9fd0f1f93cb1ab50923,0.031,0.031,1,118,280,43,1,twofour,,,,,,,,,,,,,,,,,,,,,,,,,,,,,,,,,,,,,,,,,,,,,,,,,,,,,,,,,,,,,,,,,,,,,,,,,,,,,,,,,,,,,,,,,,,,,,,,,,,,,,,,,,,,,,,,,,,,,,,,,,,,,,,,,,,,,,,
,,650739048d93f13a5f6b200b,2024-01-06_24h50.17.424,kallum_motion_pilot,2023.2.3,MacIntel,62.5,650739048d93f13a5f6b200b,6598e6a5d84f07970b831e70,6598e9fd0f1f93cb1ab50923,0.031,0.031,1,119,281,155,1,sixeight,,,,,,,,,,,,,,,,,,,,,,,,,,,,,,,,,,,,,,,,,,,,,,,,,,,,,,,,,,,,,,,,,,,,,,,,,,,,,,,,,,,,,,,,,,,,,,,,,,,,,,,,,,,,,,,,,,,,,,,,,,,,,,,,,,,,,,,
,,650739048d93f13a5f6b200b,2024-01-06_24h50.17.424,kallum_motion_pilot,2023.2.3,MacIntel,62.5,650739048d93f13a5f6b200b,6598e6a5d84f07970b831e70,6598e9fd0f1f93cb1ab50923,0.031,0.031,1,120,282,52,1,threeone,,,,,,,,,,,,,,,,,,,,,,,,,,,,,,,,,,,,,,,,,,,,,,,,,,,,,,,,,,,,,,,,,,,,,,,,,,,,,,,,,,,,,,,,,,,,,,,,,,,,,,,,,,,,,,,,,,,,,,,,,,,,,,,,,,,,,,,
,,650739048d93f13a5f6b200b,2024-01-06_24h50.17.424,kallum_motion_pilot,2023.2.3,MacIntel,62.5,650739048d93f13a5f6b200b,6598e6a5d84f07970b831e70,6598e9fd0f1f93cb1ab50923,0.031,0.031,1,121,283,84,1,sevenfive,,,,,,,,,,,,,,,,,,,,,,,,,,,,,,,,,,,,,,,,,,,,,,,,,,,,,,,,,,,,,,,,,,,,,,,,,,,,,,,,,,,,,,,,,,,,,,,,,,,,,,,,,,,,,,,,,,,,,,,,,,,,,,,,,,,,,,,
,,650739048d93f13a5f6b200b,2024-01-06_24h50.17.424,kallum_motion_pilot,2023.2.3,MacIntel,62.5,650739048d93f13a5f6b200b,6598e6a5d84f07970b831e70,6598e9fd0f1f93cb1ab50923,0.031,0.031,1,122,284,153,1,fiveseven,,,,,,,,,,,,,,,,,,,,,,,,,,,,,,,,,,,,,,,,,,,,,,,,,,,,,,,,,,,,,,,,,,,,,,,,,,,,,,,,,,,,,,,,,,,,,,,,,,,,,,,,,,,,,,,,,,,,,,,,,,,,,,,,,,,,,,,
