startup.started,startup.stopped,Prolific ID*,date,expName,psychopyVersion,OS,frameRate,PROLIFIC_PID,STUDY_ID,SESSION_ID,stimpositions.started,stimpositions.stopped,hardcoded_stimulus_positions.thisRepN,hardcoded_stimulus_positions.thisTrialN,hardcoded_stimulus_positions.thisN,hardcoded_stimulus_positions.thisIndex,hardcoded_stimulus_positions.ran,StimulusPos,stimorientation.started,stimorientation.stopped,prac_stimorientation_import_loop.thisRepN,prac_stimorientation_import_loop.thisTrialN,prac_stimorientation_import_loop.thisN,prac_stimorientation_import_loop.thisIndex,prac_stimorientation_import_loop.ran,Stimorientation,welcome_instr.started,welcome_instr.stopped,key_resp.keys,key_resp.rt,key_resp.duration,response_steppedout_1.started,response_steppedout_1.stopped,key_resp_20.keys,key_resp_20.rt,key_resp_20.duration,response_steppedout_2.started,response_steppedout_2.stopped,key_resp_19.keys,key_resp_19.rt,key_resp_19.duration,stim_response_instr.started,stim_response_instr.stopped,key_resp_15.keys,key_resp_15.rt,key_resp_15.duration,direction_instr_2.started,direction_instr_2.stopped,key_resp_9.keys,key_resp_9.rt,key_resp_9.duration,instr_prac.started,instr_prac.stopped,key_resp_10.keys,key_resp_10.rt,key_resp_10.duration,Stim1_display_prac.started,Stim1_display_prac.stopped,Ecc,Circle1_ori,Circle2_ori,response_prac.started,similarity,response_time,response_prac.stopped,mouse_5.x,mouse_5.y,mouse_5.leftButton,mouse_5.midButton,mouse_5.rightButton,mouse_5.clicked_name,responseprac_feedback.started,responseprac_feedback.stopped,summary2_prac.started,summary2_prac.stopped,mouse_6.x,mouse_6.y,mouse_6.leftButton,mouse_6.midButton,mouse_6.rightButton,mouse_6.clicked_name,duringprac.thisRepN,duringprac.thisTrialN,duringprac.thisN,duringprac.thisIndex,duringprac.ran,begin.started,begin.stopped,key_resp_22.keys,key_resp_22.rt,key_resp_22.duration,Stim1_display.started,Stim1_display.stopped,circle1_ori,circle2_ori,blank.started,blank.stopped,response.started,response.stopped,mouse.x,mouse.y,mouse.leftButton,mouse.midButton,mouse.rightButton,mouse.clicked_name,response_2.started,response_2.stopped,mouse_2.x,mouse_2.y,mouse_2.leftButton,mouse_2.midButton,mouse_2.rightButton,mouse_2.clicked_name,special_trial.started,special_trial.stopped,catch_1.started,catch_1.stopped,mouse_3.x,mouse_3.y,mouse_3.leftButton,mouse_3.midButton,mouse_3.rightButton,catchresponse,catchnumber,response_time_catch,Catch,response_sum.started,response_sum.stopped,mouse_11.x,mouse_11.y,mouse_11.leftButton,mouse_11.midButton,mouse_11.rightButton,main_trial.thisRepN,main_trial.thisTrialN,main_trial.thisN,main_trial.thisIndex,main_trial.ran,Orientationtrialno,xcircle1_ori,xcircle2_ori,flip_presentation_sequence_for_double_pass.started,flip_presentation_sequence_for_double_pass.stopped,double_pass.thisRepN,double_pass.thisTrialN,double_pass.thisN,double_pass.thisIndex,double_pass.ran,goodbye.started,goodbye.stopped,key_resp_3.keys,key_resp_3.rt,key_resp_3.duration
0.004,0.004,5eeb0671d85b5123bafe06b6,2024-01-06_05h39.00.605,kallum_motion_pilot,2023.2.3,Win32,59.95203837,5eeb0671d85b5123bafe06b6,6598e6a5d84f07970b831e70,6598e71268c318d68a1f775c,,,,,,,,,,,,,,,,,,,,,,,,,,,,,,,,,,,,,,,,,,,,,,,,,,,,,,,,,,,,,,,,,,,,,,,,,,,,,,,,,,,,,,,,,,,,,,,,,,,,,,,,,,,,,,,,,,,,,,,,,,,,,,,,,,,,,,,,,,,,,,,
,,5eeb0671d85b5123bafe06b6,2024-01-06_05h39.00.605,kallum_motion_pilot,2023.2.3,Win32,59.95203837,5eeb0671d85b5123bafe06b6,6598e6a5d84f07970b831e70,6598e71268c318d68a1f775c,0.071,0.071,0,0,0,148,1,sevenfive,,,,,,,,,,,,,,,,,,,,,,,,,,,,,,,,,,,,,,,,,,,,,,,,,,,,,,,,,,,,,,,,,,,,,,,,,,,,,,,,,,,,,,,,,,,,,,,,,,,,,,,,,,,,,,,,,,,,,,,,,,,,,,,,,,,,,,,
,,5eeb0671d85b5123bafe06b6,2024-01-06_05h39.00.605,kallum_motion_pilot,2023.2.3,Win32,59.95203837,5eeb0671d85b5123bafe06b6,6598e6a5d84f07970b831e70,6598e71268c318d68a1f775c,0.072,0.072,0,1,1,13,1,threefour,,,,,,,,,,,,,,,,,,,,,,,,,,,,,,,,,,,,,,,,,,,,,,,,,,,,,,,,,,,,,,,,,,,,,,,,,,,,,,,,,,,,,,,,,,,,,,,,,,,,,,,,,,,,,,,,,,,,,,,,,,,,,,,,,,,,,,,
,,5eeb0671d85b5123bafe06b6,2024-01-06_05h39.00.605,kallum_motion_pilot,2023.2.3,Win32,59.95203837,5eeb0671d85b5123bafe06b6,6598e6a5d84f07970b831e70,6598e71268c318d68a1f775c,0.072,0.072,0,2,2,74,1,twoone,,,,,,,,,,,,,,,,,,,,,,,,,,,,,,,,,,,,,,,,,,,,,,,,,,,,,,,,,,,,,,,,,,,,,,,,,,,,,,,,,,,,,,,,,,,,,,,,,,,,,,,,,,,,,,,,,,,,,,,,,,,,,,,,,,,,,,,
,,5eeb0671d85b5123bafe06b6,2024-01-06_05h39.00.605,kallum_motion_pilot,2023.2.3,Win32,59.95203837,5eeb0671d85b5123bafe06b6,6598e6a5d84f07970b831e70,6598e71268c318d68a1f775c,0.073,0.073,0,3,3,55,1,fourthree,,,,,,,,,,,,,,,,,,,,,,,,,,,,,,,,,,,,,,,,,,,,,,,,,,,,,,,,,,,,,,,,,,,,,,,,,,,,,,,,,,,,,,,,,,,,,,,,,,,,,,,,,,,,,,,,,,,,,,,,,,,,,,,,,,,,,,,
,,5eeb0671d85b5123bafe06b6,2024-01-06_05h39.00.605,kallum_motion_pilot,2023.2.3,Win32,59.95203837,5eeb0671d85b5123bafe06b6,6598e6a5d84f07970b831e70,6598e71268c318d68a1f775c,0.073,0.073,0,4,4,129,1,fiveseven,,,,,,,,,,,,,,,,,,,,,,,,,,,,,,,,,,,,,,,,,,,,,,,,,,,,,,,,,,,,,,,,,,,,,,,,,,,,,,,,,,,,,,,,,,,,,,,,,,,,,,,,,,,,,,,,,,,,,,,,,,,,,,,,,,,,,,,
,,5eeb0671d85b5123bafe06b6,2024-01-06_05h39.00.605,kallum_motion_pilot,2023.2.3,Win32,59.95203837,5eeb0671d85b5123bafe06b6,6598e6a5d84f07970b831e70,6598e71268c318d68a1f775c,0.074,0.074,0,5,5,159,1,eightseven,,,,,,,,,,,,,,,,,,,,,,,,,,,,,,,,,,,,,,,,,,,,,,,,,,,,,,,,,,,,,,,,,,,,,,,,,,,,,,,,,,,,,,,,,,,,,,,,,,,,,,,,,,,,,,,,,,,,,,,,,,,,,,,,,,,,,,,
,,5eeb0671d85b5123bafe06b6,2024-01-06_05h39.00.605,kallum_motion_pilot,2023.2.3,Win32,59.95203837,5eeb0671d85b5123bafe06b6,6598e6a5d84f07970b831e70,6598e71268c318d68a1f775c,0.074,0.074,0,6,6,32,1,onetwo,,,,,,,,,,,,,,,,,,,,,,,,,,,,,,,,,,,,,,,,,,,,,,,,,,,,,,,,,,,,,,,,,,,,,,,,,,,,,,,,,,,,,,,,,,,,,,,,,,,,,,,,,,,,,,,,,,,,,,,,,,,,,,,,,,,,,,,
,,5eeb0671d85b5123bafe06b6,2024-01-06_05h39.00.605,kallum_motion_pilot,2023.2.3,Win32,59.95203837,5eeb0671d85b5123bafe06b6,6598e6a5d84f07970b831e70,6598e71268c318d68a1f775c,0.074,0.074,0,7,7,19,1,twofour,,,,,,,,,,,,,,,,,,,,,,,,,,,,,,,,,,,,,,,,,,,,,,,,,,,,,,,,,,,,,,,,,,,,,,,,,,,,,,,,,,,,,,,,,,,,,,,,,,,,,,,,,,,,,,,,,,,,,,,,,,,,,,,,,,,,,,,
,,5eeb0671d85b5123bafe06b6,2024-01-06_05h39.00.605,kallum_motion_pilot,2023.2.3,Win32,59.95203837,5eeb0671d85b5123bafe06b6,6598e6a5d84f07970b831e70,6598e71268c318d68a1f775c,0.074,0.075,0,8,8,120,1,fivesix,,,,,,,,,,,,,,,,,,,,,,,,,,,,,,,,,,,,,,,,,,,,,,,,,,,,,,,,,,,,,,,,,,,,,,,,,,,,,,,,,,,,,,,,,,,,,,,,,,,,,,,,,,,,,,,,,,,,,,,,,,,,,,,,,,,,,,,
,,5eeb0671d85b5123bafe06b6,2024-01-06_05h39.00.605,kallum_motion_pilot,2023.2.3,Win32,59.95203837,5eeb0671d85b5123bafe06b6,6598e6a5d84f07970b831e70,6598e71268c318d68a1f775c,0.075,0.075,0,9,9,81,1,fiveseven,,,,,,,,,,,,,,,,,,,,,,,,,,,,,,,,,,,,,,,,,,,,,,,,,,,,,,,,,,,,,,,,,,,,,,,,,,,,,,,,,,,,,,,,,,,,,,,,,,,,,,,,,,,,,,,,,,,,,,,,,,,,,,,,,,,,,,,
,,5eeb0671d85b5123bafe06b6,2024-01-06_05h39.00.605,kallum_motion_pilot,2023.2.3,Win32,59.95203837,5eeb0671d85b5123bafe06b6,6598e6a5d84f07970b831e70,6598e71268c318d68a1f775c,0.075,0.075,0,10,10,41,1,onethree,,,,,,,,,,,,,,,,,,,,,,,,,,,,,,,,,,,,,,,,,,,,,,,,,,,,,,,,,,,,,,,,,,,,,,,,,,,,,,,,,,,,,,,,,,,,,,,,,,,,,,,,,,,,,,,,,,,,,,,,,,,,,,,,,,,,,,,
,,5eeb0671d85b5123bafe06b6,2024-01-06_05h39.00.605,kallum_motion_pilot,2023.2.3,Win32,59.95203837,5eeb0671d85b5123bafe06b6,6598e6a5d84f07970b831e70,6598e71268c318d68a1f775c,0.075,0.075,0,11,11,135,1,eightseven,,,,,,,,,,,,,,,,,,,,,,,,,,,,,,,,,,,,,,,,,,,,,,,,,,,,,,,,,,,,,,,,,,,,,,,,,,,,,,,,,,,,,,,,,,,,,,,,,,,,,,,,,,,,,,,,,,,,,,,,,,,,,,,,,,,,,,,
,,5eeb0671d85b5123bafe06b6,2024-01-06_05h39.00.605,kallum_motion_pilot,2023.2.3,Win32,59.95203837,5eeb0671d85b5123bafe06b6,6598e6a5d84f07970b831e70,6598e71268c318d68a1f775c,0.075,0.075,0,12,12,16,1,onetwo,,,,,,,,,,,,,,,,,,,,,,,,,,,,,,,,,,,,,,,,,,,,,,,,,,,,,,,,,,,,,,,,,,,,,,,,,,,,,,,,,,,,,,,,,,,,,,,,,,,,,,,,,,,,,,,,,,,,,,,,,,,,,,,,,,,,,,,
,,5eeb0671d85b5123bafe06b6,2024-01-06_05h39.00.605,kallum_motion_pilot,2023.2.3,Win32,59.95203837,5eeb0671d85b5123bafe06b6,6598e6a5d84f07970b831e70,6598e71268c318d68a1f775c,0.075,0.075,0,13,13,105,1,fiveseven,,,,,,,,,,,,,,,,,,,,,,,,,,,,,,,,,,,,,,,,,,,,,,,,,,,,,,,,,,,,,,,,,,,,,,,,,,,,,,,,,,,,,,,,,,,,,,,,,,,,,,,,,,,,,,,,,,,,,,,,,,,,,,,,,,,,,,,
,,5eeb0671d85b5123bafe06b6,2024-01-06_05h39.00.605,kallum_motion_pilot,2023.2.3,Win32,59.95203837,5eeb0671d85b5123bafe06b6,6598e6a5d84f07970b831e70,6598e71268c318d68a1f775c,0.075,0.075,0,14,14,29,1,threefour,,,,,,,,,,,,,,,,,,,,,,,,,,,,,,,,,,,,,,,,,,,,,,,,,,,,,,,,,,,,,,,,,,,,,,,,,,,,,,,,,,,,,,,,,,,,,,,,,,,,,,,,,,,,,,,,,,,,,,,,,,,,,,,,,,,,,,,
,,5eeb0671d85b5123bafe06b6,2024-01-06_05h39.00.605,kallum_motion_pilot,2023.2.3,Win32,59.95203837,5eeb0671d85b5123bafe06b6,6598e6a5d84f07970b831e70,6598e71268c318d68a1f775c,0.075,0.075,0,15,15,69,1,threefour,,,,,,,,,,,,,,,,,,,,,,,,,,,,,,,,,,,,,,,,,,,,,,,,,,,,,,,,,,,,,,,,,,,,,,,,,,,,,,,,,,,,,,,,,,,,,,,,,,,,,,,,,,,,,,,,,,,,,,,,,,,,,,,,,,,,,,,
,,5eeb0671d85b5123bafe06b6,2024-01-06_05h39.00.605,kallum_motion_pilot,2023.2.3,Win32,59.95203837,5eeb0671d85b5123bafe06b6,6598e6a5d84f07970b831e70,6598e71268c318d68a1f775c,0.075,0.075,0,16,16,112,1,fivesix,,,,,,,,,,,,,,,,,,,,,,,,,,,,,,,,,,,,,,,,,,,,,,,,,,,,,,,,,,,,,,,,,,,,,,,,,,,,,,,,,,,,,,,,,,,,,,,,,,,,,,,,,,,,,,,,,,,,,,,,,,,,,,,,,,,,,,,
,,5eeb0671d85b5123bafe06b6,2024-01-06_05h39.00.605,kallum_motion_pilot,2023.2.3,Win32,59.95203837,5eeb0671d85b5123bafe06b6,6598e6a5d84f07970b831e70,6598e71268c318d68a1f775c,0.076,0.076,0,17,17,113,1,fiveseven,,,,,,,,,,,,,,,,,,,,,,,,,,,,,,,,,,,,,,,,,,,,,,,,,,,,,,,,,,,,,,,,,,,,,,,,,,,,,,,,,,,,,,,,,,,,,,,,,,,,,,,,,,,,,,,,,,,,,,,,,,,,,,,,,,,,,,,
,,5eeb0671d85b5123bafe06b6,2024-01-06_05h39.00.605,kallum_motion_pilot,2023.2.3,Win32,59.95203837,5eeb0671d85b5123bafe06b6,6598e6a5d84f07970b831e70,6598e71268c318d68a1f775c,0.076,0.076,0,18,18,100,1,sevenfive,,,,,,,,,,,,,,,,,,,,,,,,,,,,,,,,,,,,,,,,,,,,,,,,,,,,,,,,,,,,,,,,,,,,,,,,,,,,,,,,,,,,,,,,,,,,,,,,,,,,,,,,,,,,,,,,,,,,,,,,,,,,,,,,,,,,,,,
,,5eeb0671d85b5123bafe06b6,2024-01-06_05h39.00.605,kallum_motion_pilot,2023.2.3,Win32,59.95203837,5eeb0671d85b5123bafe06b6,6598e6a5d84f07970b831e70,6598e71268c318d68a1f775c,0.076,0.076,0,19,19,104,1,fivesix,,,,,,,,,,,,,,,,,,,,,,,,,,,,,,,,,,,,,,,,,,,,,,,,,,,,,,,,,,,,,,,,,,,,,,,,,,,,,,,,,,,,,,,,,,,,,,,,,,,,,,,,,,,,,,,,,,,,,,,,,,,,,,,,,,,,,,,
,,5eeb0671d85b5123bafe06b6,2024-01-06_05h39.00.605,kallum_motion_pilot,2023.2.3,Win32,59.95203837,5eeb0671d85b5123bafe06b6,6598e6a5d84f07970b831e70,6598e71268c318d68a1f775c,0.076,0.076,0,20,20,154,1,sixfive,,,,,,,,,,,,,,,,,,,,,,,,,,,,,,,,,,,,,,,,,,,,,,,,,,,,,,,,,,,,,,,,,,,,,,,,,,,,,,,,,,,,,,,,,,,,,,,,,,,,,,,,,,,,,,,,,,,,,,,,,,,,,,,,,,,,,,,
,,5eeb0671d85b5123bafe06b6,2024-01-06_05h39.00.605,kallum_motion_pilot,2023.2.3,Win32,59.95203837,5eeb0671d85b5123bafe06b6,6598e6a5d84f07970b831e70,6598e71268c318d68a1f775c,0.076,0.076,0,21,21,121,1,fiveseven,,,,,,,,,,,,,,,,,,,,,,,,,,,,,,,,,,,,,,,,,,,,,,,,,,,,,,,,,,,,,,,,,,,,,,,,,,,,,,,,,,,,,,,,,,,,,,,,,,,,,,,,,,,,,,,,,,,,,,,,,,,,,,,,,,,,,,,
,,5eeb0671d85b5123bafe06b6,2024-01-06_05h39.00.605,kallum_motion_pilot,2023.2.3,Win32,59.95203837,5eeb0671d85b5123bafe06b6,6598e6a5d84f07970b831e70,6598e71268c318d68a1f775c,0.076,0.076,0,22,22,62,1,fourtwo,,,,,,,,,,,,,,,,,,,,,,,,,,,,,,,,,,,,,,,,,,,,,,,,,,,,,,,,,,,,,,,,,,,,,,,,,,,,,,,,,,,,,,,,,,,,,,,,,,,,,,,,,,,,,,,,,,,,,,,,,,,,,,,,,,,,,,,
,,5eeb0671d85b5123bafe06b6,2024-01-06_05h39.00.605,kallum_motion_pilot,2023.2.3,Win32,59.95203837,5eeb0671d85b5123bafe06b6,6598e6a5d84f07970b831e70,6598e71268c318d68a1f775c,0.077,0.077,0,23,23,94,1,eightsix,,,,,,,,,,,,,,,,,,,,,,,,,,,,,,,,,,,,,,,,,,,,,,,,,,,,,,,,,,,,,,,,,,,,,,,,,,,,,,,,,,,,,,,,,,,,,,,,,,,,,,,,,,,,,,,,,,,,,,,,,,,,,,,,,,,,,,,
,,5eeb0671d85b5123bafe06b6,2024-01-06_05h39.00.605,kallum_motion_pilot,2023.2.3,Win32,59.95203837,5eeb0671d85b5123bafe06b6,6598e6a5d84f07970b831e70,6598e71268c318d68a1f775c,0.077,0.077,0,24,24,139,1,sixeight,,,,,,,,,,,,,,,,,,,,,,,,,,,,,,,,,,,,,,,,,,,,,,,,,,,,,,,,,,,,,,,,,,,,,,,,,,,,,,,,,,,,,,,,,,,,,,,,,,,,,,,,,,,,,,,,,,,,,,,,,,,,,,,,,,,,,,,
,,5eeb0671d85b5123bafe06b6,2024-01-06_05h39.00.605,kallum_motion_pilot,2023.2.3,Win32,59.95203837,5eeb0671d85b5123bafe06b6,6598e6a5d84f07970b831e70,6598e71268c318d68a1f775c,0.077,0.077,0,25,25,110,1,eightsix,,,,,,,,,,,,,,,,,,,,,,,,,,,,,,,,,,,,,,,,,,,,,,,,,,,,,,,,,,,,,,,,,,,,,,,,,,,,,,,,,,,,,,,,,,,,,,,,,,,,,,,,,,,,,,,,,,,,,,,,,,,,,,,,,,,,,,,
,,5eeb0671d85b5123bafe06b6,2024-01-06_05h39.00.605,kallum_motion_pilot,2023.2.3,Win32,59.95203837,5eeb0671d85b5123bafe06b6,6598e6a5d84f07970b831e70,6598e71268c318d68a1f775c,0.077,0.077,0,26,26,20,1,threeone,,,,,,,,,,,,,,,,,,,,,,,,,,,,,,,,,,,,,,,,,,,,,,,,,,,,,,,,,,,,,,,,,,,,,,,,,,,,,,,,,,,,,,,,,,,,,,,,,,,,,,,,,,,,,,,,,,,,,,,,,,,,,,,,,,,,,,,
,,5eeb0671d85b5123bafe06b6,2024-01-06_05h39.00.605,kallum_motion_pilot,2023.2.3,Win32,59.95203837,5eeb0671d85b5123bafe06b6,6598e6a5d84f07970b831e70,6598e71268c318d68a1f775c,0.078,0.078,0,27,27,35,1,twofour,,,,,,,,,,,,,,,,,,,,,,,,,,,,,,,,,,,,,,,,,,,,,,,,,,,,,,,,,,,,,,,,,,,,,,,,,,,,,,,,,,,,,,,,,,,,,,,,,,,,,,,,,,,,,,,,,,,,,,,,,,,,,,,,,,,,,,,
,,5eeb0671d85b5123bafe06b6,2024-01-06_05h39.00.605,kallum_motion_pilot,2023.2.3,Win32,59.95203837,5eeb0671d85b5123bafe06b6,6598e6a5d84f07970b831e70,6598e71268c318d68a1f775c,0.078,0.078,0,28,28,109,1,seveneight,,,,,,,,,,,,,,,,,,,,,,,,,,,,,,,,,,,,,,,,,,,,,,,,,,,,,,,,,,,,,,,,,,,,,,,,,,,,,,,,,,,,,,,,,,,,,,,,,,,,,,,,,,,,,,,,,,,,,,,,,,,,,,,,,,,,,,,
,,5eeb0671d85b5123bafe06b6,2024-01-06_05h39.00.605,kallum_motion_pilot,2023.2.3,Win32,59.95203837,5eeb0671d85b5123bafe06b6,6598e6a5d84f07970b831e70,6598e71268c318d68a1f775c,0.078,0.078,0,29,29,22,1,fourtwo,,,,,,,,,,,,,,,,,,,,,,,,,,,,,,,,,,,,,,,,,,,,,,,,,,,,,,,,,,,,,,,,,,,,,,,,,,,,,,,,,,,,,,,,,,,,,,,,,,,,,,,,,,,,,,,,,,,,,,,,,,,,,,,,,,,,,,,
,,5eeb0671d85b5123bafe06b6,2024-01-06_05h39.00.605,kallum_motion_pilot,2023.2.3,Win32,59.95203837,5eeb0671d85b5123bafe06b6,6598e6a5d84f07970b831e70,6598e71268c318d68a1f775c,0.078,0.078,0,30,30,122,1,sixfive,,,,,,,,,,,,,,,,,,,,,,,,,,,,,,,,,,,,,,,,,,,,,,,,,,,,,,,,,,,,,,,,,,,,,,,,,,,,,,,,,,,,,,,,,,,,,,,,,,,,,,,,,,,,,,,,,,,,,,,,,,,,,,,,,,,,,,,
,,5eeb0671d85b5123bafe06b6,2024-01-06_05h39.00.605,kallum_motion_pilot,2023.2.3,Win32,59.95203837,5eeb0671d85b5123bafe06b6,6598e6a5d84f07970b831e70,6598e71268c318d68a1f775c,0.078,0.078,0,31,31,23,1,fourthree,,,,,,,,,,,,,,,,,,,,,,,,,,,,,,,,,,,,,,,,,,,,,,,,,,,,,,,,,,,,,,,,,,,,,,,,,,,,,,,,,,,,,,,,,,,,,,,,,,,,,,,,,,,,,,,,,,,,,,,,,,,,,,,,,,,,,,,
,,5eeb0671d85b5123bafe06b6,2024-01-06_05h39.00.605,kallum_motion_pilot,2023.2.3,Win32,59.95203837,5eeb0671d85b5123bafe06b6,6598e6a5d84f07970b831e70,6598e71268c318d68a1f775c,0.078,0.078,0,32,32,68,1,threeone,,,,,,,,,,,,,,,,,,,,,,,,,,,,,,,,,,,,,,,,,,,,,,,,,,,,,,,,,,,,,,,,,,,,,,,,,,,,,,,,,,,,,,,,,,,,,,,,,,,,,,,,,,,,,,,,,,,,,,,,,,,,,,,,,,,,,,,
,,5eeb0671d85b5123bafe06b6,2024-01-06_05h39.00.605,kallum_motion_pilot,2023.2.3,Win32,59.95203837,5eeb0671d85b5123bafe06b6,6598e6a5d84f07970b831e70,6598e71268c318d68a1f775c,0.078,0.078,0,33,33,101,1,seveneight,,,,,,,,,,,,,,,,,,,,,,,,,,,,,,,,,,,,,,,,,,,,,,,,,,,,,,,,,,,,,,,,,,,,,,,,,,,,,,,,,,,,,,,,,,,,,,,,,,,,,,,,,,,,,,,,,,,,,,,,,,,,,,,,,,,,,,,
,,5eeb0671d85b5123bafe06b6,2024-01-06_05h39.00.605,kallum_motion_pilot,2023.2.3,Win32,59.95203837,5eeb0671d85b5123bafe06b6,6598e6a5d84f07970b831e70,6598e71268c318d68a1f775c,0.079,0.079,0,34,34,157,1,seveneight,,,,,,,,,,,,,,,,,,,,,,,,,,,,,,,,,,,,,,,,,,,,,,,,,,,,,,,,,,,,,,,,,,,,,,,,,,,,,,,,,,,,,,,,,,,,,,,,,,,,,,,,,,,,,,,,,,,,,,,,,,,,,,,,,,,,,,,
,,5eeb0671d85b5123bafe06b6,2024-01-06_05h39.00.605,kallum_motion_pilot,2023.2.3,Win32,59.95203837,5eeb0671d85b5123bafe06b6,6598e6a5d84f07970b831e70,6598e71268c318d68a1f775c,0.079,0.079,0,35,35,116,1,sevenfive,,,,,,,,,,,,,,,,,,,,,,,,,,,,,,,,,,,,,,,,,,,,,,,,,,,,,,,,,,,,,,,,,,,,,,,,,,,,,,,,,,,,,,,,,,,,,,,,,,,,,,,,,,,,,,,,,,,,,,,,,,,,,,,,,,,,,,,
,,5eeb0671d85b5123bafe06b6,2024-01-06_05h39.00.605,kallum_motion_pilot,2023.2.3,Win32,59.95203837,5eeb0671d85b5123bafe06b6,6598e6a5d84f07970b831e70,6598e71268c318d68a1f775c,0.079,0.079,0,36,36,75,1,twofour,,,,,,,,,,,,,,,,,,,,,,,,,,,,,,,,,,,,,,,,,,,,,,,,,,,,,,,,,,,,,,,,,,,,,,,,,,,,,,,,,,,,,,,,,,,,,,,,,,,,,,,,,,,,,,,,,,,,,,,,,,,,,,,,,,,,,,,
,,5eeb0671d85b5123bafe06b6,2024-01-06_05h39.00.605,kallum_motion_pilot,2023.2.3,Win32,59.95203837,5eeb0671d85b5123bafe06b6,6598e6a5d84f07970b831e70,6598e71268c318d68a1f775c,0.079,0.079,0,37,37,40,1,onetwo,,,,,,,,,,,,,,,,,,,,,,,,,,,,,,,,,,,,,,,,,,,,,,,,,,,,,,,,,,,,,,,,,,,,,,,,,,,,,,,,,,,,,,,,,,,,,,,,,,,,,,,,,,,,,,,,,,,,,,,,,,,,,,,,,,,,,,,
,,5eeb0671d85b5123bafe06b6,2024-01-06_05h39.00.605,kallum_motion_pilot,2023.2.3,Win32,59.95203837,5eeb0671d85b5123bafe06b6,6598e6a5d84f07970b831e70,6598e71268c318d68a1f775c,0.079,0.079,0,38,38,92,1,sevenfive,,,,,,,,,,,,,,,,,,,,,,,,,,,,,,,,,,,,,,,,,,,,,,,,,,,,,,,,,,,,,,,,,,,,,,,,,,,,,,,,,,,,,,,,,,,,,,,,,,,,,,,,,,,,,,,,,,,,,,,,,,,,,,,,,,,,,,,
,,5eeb0671d85b5123bafe06b6,2024-01-06_05h39.00.605,kallum_motion_pilot,2023.2.3,Win32,59.95203837,5eeb0671d85b5123bafe06b6,6598e6a5d84f07970b831e70,6598e71268c318d68a1f775c,0.079,0.079,0,39,39,31,1,fourthree,,,,,,,,,,,,,,,,,,,,,,,,,,,,,,,,,,,,,,,,,,,,,,,,,,,,,,,,,,,,,,,,,,,,,,,,,,,,,,,,,,,,,,,,,,,,,,,,,,,,,,,,,,,,,,,,,,,,,,,,,,,,,,,,,,,,,,,
,,5eeb0671d85b5123bafe06b6,2024-01-06_05h39.00.605,kallum_motion_pilot,2023.2.3,Win32,59.95203837,5eeb0671d85b5123bafe06b6,6598e6a5d84f07970b831e70,6598e71268c318d68a1f775c,0.079,0.079,0,40,40,126,1,eightsix,,,,,,,,,,,,,,,,,,,,,,,,,,,,,,,,,,,,,,,,,,,,,,,,,,,,,,,,,,,,,,,,,,,,,,,,,,,,,,,,,,,,,,,,,,,,,,,,,,,,,,,,,,,,,,,,,,,,,,,,,,,,,,,,,,,,,,,
,,5eeb0671d85b5123bafe06b6,2024-01-06_05h39.00.605,kallum_motion_pilot,2023.2.3,Win32,59.95203837,5eeb0671d85b5123bafe06b6,6598e6a5d84f07970b831e70,6598e71268c318d68a1f775c,0.079,0.079,0,41,41,17,1,onethree,,,,,,,,,,,,,,,,,,,,,,,,,,,,,,,,,,,,,,,,,,,,,,,,,,,,,,,,,,,,,,,,,,,,,,,,,,,,,,,,,,,,,,,,,,,,,,,,,,,,,,,,,,,,,,,,,,,,,,,,,,,,,,,,,,,,,,,
,,5eeb0671d85b5123bafe06b6,2024-01-06_05h39.00.605,kallum_motion_pilot,2023.2.3,Win32,59.95203837,5eeb0671d85b5123bafe06b6,6598e6a5d84f07970b831e70,6598e71268c318d68a1f775c,0.08,0.08,0,42,42,145,1,fiveseven,,,,,,,,,,,,,,,,,,,,,,,,,,,,,,,,,,,,,,,,,,,,,,,,,,,,,,,,,,,,,,,,,,,,,,,,,,,,,,,,,,,,,,,,,,,,,,,,,,,,,,,,,,,,,,,,,,,,,,,,,,,,,,,,,,,,,,,
,,5eeb0671d85b5123bafe06b6,2024-01-06_05h39.00.605,kallum_motion_pilot,2023.2.3,Win32,59.95203837,5eeb0671d85b5123bafe06b6,6598e6a5d84f07970b831e70,6598e71268c318d68a1f775c,0.08,0.08,0,43,43,7,1,fourthree,,,,,,,,,,,,,,,,,,,,,,,,,,,,,,,,,,,,,,,,,,,,,,,,,,,,,,,,,,,,,,,,,,,,,,,,,,,,,,,,,,,,,,,,,,,,,,,,,,,,,,,,,,,,,,,,,,,,,,,,,,,,,,,,,,,,,,,
,,5eeb0671d85b5123bafe06b6,2024-01-06_05h39.00.605,kallum_motion_pilot,2023.2.3,Win32,59.95203837,5eeb0671d85b5123bafe06b6,6598e6a5d84f07970b831e70,6598e71268c318d68a1f775c,0.08,0.08,0,44,44,124,1,sevenfive,,,,,,,,,,,,,,,,,,,,,,,,,,,,,,,,,,,,,,,,,,,,,,,,,,,,,,,,,,,,,,,,,,,,,,,,,,,,,,,,,,,,,,,,,,,,,,,,,,,,,,,,,,,,,,,,,,,,,,,,,,,,,,,,,,,,,,,
,,5eeb0671d85b5123bafe06b6,2024-01-06_05h39.00.605,kallum_motion_pilot,2023.2.3,Win32,59.95203837,5eeb0671d85b5123bafe06b6,6598e6a5d84f07970b831e70,6598e71268c318d68a1f775c,0.08,0.08,0,45,45,99,1,sixeight,,,,,,,,,,,,,,,,,,,,,,,,,,,,,,,,,,,,,,,,,,,,,,,,,,,,,,,,,,,,,,,,,,,,,,,,,,,,,,,,,,,,,,,,,,,,,,,,,,,,,,,,,,,,,,,,,,,,,,,,,,,,,,,,,,,,,,,
,,5eeb0671d85b5123bafe06b6,2024-01-06_05h39.00.605,kallum_motion_pilot,2023.2.3,Win32,59.95203837,5eeb0671d85b5123bafe06b6,6598e6a5d84f07970b831e70,6598e71268c318d68a1f775c,0.08,0.08,0,46,46,107,1,sixeight,,,,,,,,,,,,,,,,,,,,,,,,,,,,,,,,,,,,,,,,,,,,,,,,,,,,,,,,,,,,,,,,,,,,,,,,,,,,,,,,,,,,,,,,,,,,,,,,,,,,,,,,,,,,,,,,,,,,,,,,,,,,,,,,,,,,,,,
,,5eeb0671d85b5123bafe06b6,2024-01-06_05h39.00.605,kallum_motion_pilot,2023.2.3,Win32,59.95203837,5eeb0671d85b5123bafe06b6,6598e6a5d84f07970b831e70,6598e71268c318d68a1f775c,0.08,0.08,0,47,47,67,1,twofour,,,,,,,,,,,,,,,,,,,,,,,,,,,,,,,,,,,,,,,,,,,,,,,,,,,,,,,,,,,,,,,,,,,,,,,,,,,,,,,,,,,,,,,,,,,,,,,,,,,,,,,,,,,,,,,,,,,,,,,,,,,,,,,,,,,,,,,
,,5eeb0671d85b5123bafe06b6,2024-01-06_05h39.00.605,kallum_motion_pilot,2023.2.3,Win32,59.95203837,5eeb0671d85b5123bafe06b6,6598e6a5d84f07970b831e70,6598e71268c318d68a1f775c,0.08,0.081,0,48,48,78,1,fourtwo,,,,,,,,,,,,,,,,,,,,,,,,,,,,,,,,,,,,,,,,,,,,,,,,,,,,,,,,,,,,,,,,,,,,,,,,,,,,,,,,,,,,,,,,,,,,,,,,,,,,,,,,,,,,,,,,,,,,,,,,,,,,,,,,,,,,,,,
,,5eeb0671d85b5123bafe06b6,2024-01-06_05h39.00.605,kallum_motion_pilot,2023.2.3,Win32,59.95203837,5eeb0671d85b5123bafe06b6,6598e6a5d84f07970b831e70,6598e71268c318d68a1f775c,0.081,0.081,0,49,49,149,1,seveneight,,,,,,,,,,,,,,,,,,,,,,,,,,,,,,,,,,,,,,,,,,,,,,,,,,,,,,,,,,,,,,,,,,,,,,,,,,,,,,,,,,,,,,,,,,,,,,,,,,,,,,,,,,,,,,,,,,,,,,,,,,,,,,,,,,,,,,,
,,5eeb0671d85b5123bafe06b6,2024-01-06_05h39.00.605,kallum_motion_pilot,2023.2.3,Win32,59.95203837,5eeb0671d85b5123bafe06b6,6598e6a5d84f07970b831e70,6598e71268c318d68a1f775c,0.082,0.082,0,50,50,91,1,sixeight,,,,,,,,,,,,,,,,,,,,,,,,,,,,,,,,,,,,,,,,,,,,,,,,,,,,,,,,,,,,,,,,,,,,,,,,,,,,,,,,,,,,,,,,,,,,,,,,,,,,,,,,,,,,,,,,,,,,,,,,,,,,,,,,,,,,,,,
,,5eeb0671d85b5123bafe06b6,2024-01-06_05h39.00.605,kallum_motion_pilot,2023.2.3,Win32,59.95203837,5eeb0671d85b5123bafe06b6,6598e6a5d84f07970b831e70,6598e71268c318d68a1f775c,0.082,0.083,0,51,51,127,1,eightseven,,,,,,,,,,,,,,,,,,,,,,,,,,,,,,,,,,,,,,,,,,,,,,,,,,,,,,,,,,,,,,,,,,,,,,,,,,,,,,,,,,,,,,,,,,,,,,,,,,,,,,,,,,,,,,,,,,,,,,,,,,,,,,,,,,,,,,,
,,5eeb0671d85b5123bafe06b6,2024-01-06_05h39.00.605,kallum_motion_pilot,2023.2.3,Win32,59.95203837,5eeb0671d85b5123bafe06b6,6598e6a5d84f07970b831e70,6598e71268c318d68a1f775c,0.083,0.083,0,52,52,89,1,fiveseven,,,,,,,,,,,,,,,,,,,,,,,,,,,,,,,,,,,,,,,,,,,,,,,,,,,,,,,,,,,,,,,,,,,,,,,,,,,,,,,,,,,,,,,,,,,,,,,,,,,,,,,,,,,,,,,,,,,,,,,,,,,,,,,,,,,,,,,
,,5eeb0671d85b5123bafe06b6,2024-01-06_05h39.00.605,kallum_motion_pilot,2023.2.3,Win32,59.95203837,5eeb0671d85b5123bafe06b6,6598e6a5d84f07970b831e70,6598e71268c318d68a1f775c,0.084,0.084,0,53,53,146,1,sixfive,,,,,,,,,,,,,,,,,,,,,,,,,,,,,,,,,,,,,,,,,,,,,,,,,,,,,,,,,,,,,,,,,,,,,,,,,,,,,,,,,,,,,,,,,,,,,,,,,,,,,,,,,,,,,,,,,,,,,,,,,,,,,,,,,,,,,,,
,,5eeb0671d85b5123bafe06b6,2024-01-06_05h39.00.605,kallum_motion_pilot,2023.2.3,Win32,59.95203837,5eeb0671d85b5123bafe06b6,6598e6a5d84f07970b831e70,6598e71268c318d68a1f775c,0.085,0.085,0,54,54,96,1,fivesix,,,,,,,,,,,,,,,,,,,,,,,,,,,,,,,,,,,,,,,,,,,,,,,,,,,,,,,,,,,,,,,,,,,,,,,,,,,,,,,,,,,,,,,,,,,,,,,,,,,,,,,,,,,,,,,,,,,,,,,,,,,,,,,,,,,,,,,
,,5eeb0671d85b5123bafe06b6,2024-01-06_05h39.00.605,kallum_motion_pilot,2023.2.3,Win32,59.95203837,5eeb0671d85b5123bafe06b6,6598e6a5d84f07970b831e70,6598e71268c318d68a1f775c,0.085,0.085,0,55,55,82,1,sixfive,,,,,,,,,,,,,,,,,,,,,,,,,,,,,,,,,,,,,,,,,,,,,,,,,,,,,,,,,,,,,,,,,,,,,,,,,,,,,,,,,,,,,,,,,,,,,,,,,,,,,,,,,,,,,,,,,,,,,,,,,,,,,,,,,,,,,,,
,,5eeb0671d85b5123bafe06b6,2024-01-06_05h39.00.605,kallum_motion_pilot,2023.2.3,Win32,59.95203837,5eeb0671d85b5123bafe06b6,6598e6a5d84f07970b831e70,6598e71268c318d68a1f775c,0.086,0.086,0,56,56,133,1,seveneight,,,,,,,,,,,,,,,,,,,,,,,,,,,,,,,,,,,,,,,,,,,,,,,,,,,,,,,,,,,,,,,,,,,,,,,,,,,,,,,,,,,,,,,,,,,,,,,,,,,,,,,,,,,,,,,,,,,,,,,,,,,,,,,,,,,,,,,
,,5eeb0671d85b5123bafe06b6,2024-01-06_05h39.00.605,kallum_motion_pilot,2023.2.3,Win32,59.95203837,5eeb0671d85b5123bafe06b6,6598e6a5d84f07970b831e70,6598e71268c318d68a1f775c,0.086,0.086,0,57,57,18,1,twoone,,,,,,,,,,,,,,,,,,,,,,,,,,,,,,,,,,,,,,,,,,,,,,,,,,,,,,,,,,,,,,,,,,,,,,,,,,,,,,,,,,,,,,,,,,,,,,,,,,,,,,,,,,,,,,,,,,,,,,,,,,,,,,,,,,,,,,,
,,5eeb0671d85b5123bafe06b6,2024-01-06_05h39.00.605,kallum_motion_pilot,2023.2.3,Win32,59.95203837,5eeb0671d85b5123bafe06b6,6598e6a5d84f07970b831e70,6598e71268c318d68a1f775c,0.086,0.086,0,58,58,24,1,onetwo,,,,,,,,,,,,,,,,,,,,,,,,,,,,,,,,,,,,,,,,,,,,,,,,,,,,,,,,,,,,,,,,,,,,,,,,,,,,,,,,,,,,,,,,,,,,,,,,,,,,,,,,,,,,,,,,,,,,,,,,,,,,,,,,,,,,,,,
,,5eeb0671d85b5123bafe06b6,2024-01-06_05h39.00.605,kallum_motion_pilot,2023.2.3,Win32,59.95203837,5eeb0671d85b5123bafe06b6,6598e6a5d84f07970b831e70,6598e71268c318d68a1f775c,0.086,0.086,0,59,59,152,1,fivesix,,,,,,,,,,,,,,,,,,,,,,,,,,,,,,,,,,,,,,,,,,,,,,,,,,,,,,,,,,,,,,,,,,,,,,,,,,,,,,,,,,,,,,,,,,,,,,,,,,,,,,,,,,,,,,,,,,,,,,,,,,,,,,,,,,,,,,,
,,5eeb0671d85b5123bafe06b6,2024-01-06_05h39.00.605,kallum_motion_pilot,2023.2.3,Win32,59.95203837,5eeb0671d85b5123bafe06b6,6598e6a5d84f07970b831e70,6598e71268c318d68a1f775c,0.086,0.086,0,60,60,88,1,fivesix,,,,,,,,,,,,,,,,,,,,,,,,,,,,,,,,,,,,,,,,,,,,,,,,,,,,,,,,,,,,,,,,,,,,,,,,,,,,,,,,,,,,,,,,,,,,,,,,,,,,,,,,,,,,,,,,,,,,,,,,,,,,,,,,,,,,,,,
,,5eeb0671d85b5123bafe06b6,2024-01-06_05h39.00.605,kallum_motion_pilot,2023.2.3,Win32,59.95203837,5eeb0671d85b5123bafe06b6,6598e6a5d84f07970b831e70,6598e71268c318d68a1f775c,0.086,0.086,0,61,61,72,1,onetwo,,,,,,,,,,,,,,,,,,,,,,,,,,,,,,,,,,,,,,,,,,,,,,,,,,,,,,,,,,,,,,,,,,,,,,,,,,,,,,,,,,,,,,,,,,,,,,,,,,,,,,,,,,,,,,,,,,,,,,,,,,,,,,,,,,,,,,,
,,5eeb0671d85b5123bafe06b6,2024-01-06_05h39.00.605,kallum_motion_pilot,2023.2.3,Win32,59.95203837,5eeb0671d85b5123bafe06b6,6598e6a5d84f07970b831e70,6598e71268c318d68a1f775c,0.086,0.086,0,62,62,66,1,twoone,,,,,,,,,,,,,,,,,,,,,,,,,,,,,,,,,,,,,,,,,,,,,,,,,,,,,,,,,,,,,,,,,,,,,,,,,,,,,,,,,,,,,,,,,,,,,,,,,,,,,,,,,,,,,,,,,,,,,,,,,,,,,,,,,,,,,,,
,,5eeb0671d85b5123bafe06b6,2024-01-06_05h39.00.605,kallum_motion_pilot,2023.2.3,Win32,59.95203837,5eeb0671d85b5123bafe06b6,6598e6a5d84f07970b831e70,6598e71268c318d68a1f775c,0.087,0.087,0,63,63,90,1,sixfive,,,,,,,,,,,,,,,,,,,,,,,,,,,,,,,,,,,,,,,,,,,,,,,,,,,,,,,,,,,,,,,,,,,,,,,,,,,,,,,,,,,,,,,,,,,,,,,,,,,,,,,,,,,,,,,,,,,,,,,,,,,,,,,,,,,,,,,
,,5eeb0671d85b5123bafe06b6,2024-01-06_05h39.00.605,kallum_motion_pilot,2023.2.3,Win32,59.95203837,5eeb0671d85b5123bafe06b6,6598e6a5d84f07970b831e70,6598e71268c318d68a1f775c,0.087,0.087,0,64,64,160,1,fivesix,,,,,,,,,,,,,,,,,,,,,,,,,,,,,,,,,,,,,,,,,,,,,,,,,,,,,,,,,,,,,,,,,,,,,,,,,,,,,,,,,,,,,,,,,,,,,,,,,,,,,,,,,,,,,,,,,,,,,,,,,,,,,,,,,,,,,,,
,,5eeb0671d85b5123bafe06b6,2024-01-06_05h39.00.605,kallum_motion_pilot,2023.2.3,Win32,59.95203837,5eeb0671d85b5123bafe06b6,6598e6a5d84f07970b831e70,6598e71268c318d68a1f775c,0.087,0.087,0,65,65,102,1,eightsix,,,,,,,,,,,,,,,,,,,,,,,,,,,,,,,,,,,,,,,,,,,,,,,,,,,,,,,,,,,,,,,,,,,,,,,,,,,,,,,,,,,,,,,,,,,,,,,,,,,,,,,,,,,,,,,,,,,,,,,,,,,,,,,,,,,,,,,
,,5eeb0671d85b5123bafe06b6,2024-01-06_05h39.00.605,kallum_motion_pilot,2023.2.3,Win32,59.95203837,5eeb0671d85b5123bafe06b6,6598e6a5d84f07970b831e70,6598e71268c318d68a1f775c,0.087,0.087,0,66,66,54,1,fourtwo,,,,,,,,,,,,,,,,,,,,,,,,,,,,,,,,,,,,,,,,,,,,,,,,,,,,,,,,,,,,,,,,,,,,,,,,,,,,,,,,,,,,,,,,,,,,,,,,,,,,,,,,,,,,,,,,,,,,,,,,,,,,,,,,,,,,,,,
,,5eeb0671d85b5123bafe06b6,2024-01-06_05h39.00.605,kallum_motion_pilot,2023.2.3,Win32,59.95203837,5eeb0671d85b5123bafe06b6,6598e6a5d84f07970b831e70,6598e71268c318d68a1f775c,0.087,0.087,0,67,67,85,1,seveneight,,,,,,,,,,,,,,,,,,,,,,,,,,,,,,,,,,,,,,,,,,,,,,,,,,,,,,,,,,,,,,,,,,,,,,,,,,,,,,,,,,,,,,,,,,,,,,,,,,,,,,,,,,,,,,,,,,,,,,,,,,,,,,,,,,,,,,,
,,5eeb0671d85b5123bafe06b6,2024-01-06_05h39.00.605,kallum_motion_pilot,2023.2.3,Win32,59.95203837,5eeb0671d85b5123bafe06b6,6598e6a5d84f07970b831e70,6598e71268c318d68a1f775c,0.087,0.087,0,68,68,141,1,seveneight,,,,,,,,,,,,,,,,,,,,,,,,,,,,,,,,,,,,,,,,,,,,,,,,,,,,,,,,,,,,,,,,,,,,,,,,,,,,,,,,,,,,,,,,,,,,,,,,,,,,,,,,,,,,,,,,,,,,,,,,,,,,,,,,,,,,,,,
,,5eeb0671d85b5123bafe06b6,2024-01-06_05h39.00.605,kallum_motion_pilot,2023.2.3,Win32,59.95203837,5eeb0671d85b5123bafe06b6,6598e6a5d84f07970b831e70,6598e71268c318d68a1f775c,0.087,0.087,0,69,69,115,1,sixeight,,,,,,,,,,,,,,,,,,,,,,,,,,,,,,,,,,,,,,,,,,,,,,,,,,,,,,,,,,,,,,,,,,,,,,,,,,,,,,,,,,,,,,,,,,,,,,,,,,,,,,,,,,,,,,,,,,,,,,,,,,,,,,,,,,,,,,,
,,5eeb0671d85b5123bafe06b6,2024-01-06_05h39.00.605,kallum_motion_pilot,2023.2.3,Win32,59.95203837,5eeb0671d85b5123bafe06b6,6598e6a5d84f07970b831e70,6598e71268c318d68a1f775c,0.088,0.088,0,70,70,106,1,sixfive,,,,,,,,,,,,,,,,,,,,,,,,,,,,,,,,,,,,,,,,,,,,,,,,,,,,,,,,,,,,,,,,,,,,,,,,,,,,,,,,,,,,,,,,,,,,,,,,,,,,,,,,,,,,,,,,,,,,,,,,,,,,,,,,,,,,,,,
,,5eeb0671d85b5123bafe06b6,2024-01-06_05h39.00.605,kallum_motion_pilot,2023.2.3,Win32,59.95203837,5eeb0671d85b5123bafe06b6,6598e6a5d84f07970b831e70,6598e71268c318d68a1f775c,0.088,0.088,0,71,71,136,1,fivesix,,,,,,,,,,,,,,,,,,,,,,,,,,,,,,,,,,,,,,,,,,,,,,,,,,,,,,,,,,,,,,,,,,,,,,,,,,,,,,,,,,,,,,,,,,,,,,,,,,,,,,,,,,,,,,,,,,,,,,,,,,,,,,,,,,,,,,,
,,5eeb0671d85b5123bafe06b6,2024-01-06_05h39.00.605,kallum_motion_pilot,2023.2.3,Win32,59.95203837,5eeb0671d85b5123bafe06b6,6598e6a5d84f07970b831e70,6598e71268c318d68a1f775c,0.088,0.088,0,72,72,53,1,threefour,,,,,,,,,,,,,,,,,,,,,,,,,,,,,,,,,,,,,,,,,,,,,,,,,,,,,,,,,,,,,,,,,,,,,,,,,,,,,,,,,,,,,,,,,,,,,,,,,,,,,,,,,,,,,,,,,,,,,,,,,,,,,,,,,,,,,,,
,,5eeb0671d85b5123bafe06b6,2024-01-06_05h39.00.605,kallum_motion_pilot,2023.2.3,Win32,59.95203837,5eeb0671d85b5123bafe06b6,6598e6a5d84f07970b831e70,6598e71268c318d68a1f775c,0.088,0.088,0,73,73,70,1,fourtwo,,,,,,,,,,,,,,,,,,,,,,,,,,,,,,,,,,,,,,,,,,,,,,,,,,,,,,,,,,,,,,,,,,,,,,,,,,,,,,,,,,,,,,,,,,,,,,,,,,,,,,,,,,,,,,,,,,,,,,,,,,,,,,,,,,,,,,,
,,5eeb0671d85b5123bafe06b6,2024-01-06_05h39.00.605,kallum_motion_pilot,2023.2.3,Win32,59.95203837,5eeb0671d85b5123bafe06b6,6598e6a5d84f07970b831e70,6598e71268c318d68a1f775c,0.088,0.088,0,74,74,15,1,fourthree,,,,,,,,,,,,,,,,,,,,,,,,,,,,,,,,,,,,,,,,,,,,,,,,,,,,,,,,,,,,,,,,,,,,,,,,,,,,,,,,,,,,,,,,,,,,,,,,,,,,,,,,,,,,,,,,,,,,,,,,,,,,,,,,,,,,,,,
,,5eeb0671d85b5123bafe06b6,2024-01-06_05h39.00.605,kallum_motion_pilot,2023.2.3,Win32,59.95203837,5eeb0671d85b5123bafe06b6,6598e6a5d84f07970b831e70,6598e71268c318d68a1f775c,0.088,0.089,0,75,75,138,1,sixfive,,,,,,,,,,,,,,,,,,,,,,,,,,,,,,,,,,,,,,,,,,,,,,,,,,,,,,,,,,,,,,,,,,,,,,,,,,,,,,,,,,,,,,,,,,,,,,,,,,,,,,,,,,,,,,,,,,,,,,,,,,,,,,,,,,,,,,,
,,5eeb0671d85b5123bafe06b6,2024-01-06_05h39.00.605,kallum_motion_pilot,2023.2.3,Win32,59.95203837,5eeb0671d85b5123bafe06b6,6598e6a5d84f07970b831e70,6598e71268c318d68a1f775c,0.089,0.089,0,76,76,38,1,fourtwo,,,,,,,,,,,,,,,,,,,,,,,,,,,,,,,,,,,,,,,,,,,,,,,,,,,,,,,,,,,,,,,,,,,,,,,,,,,,,,,,,,,,,,,,,,,,,,,,,,,,,,,,,,,,,,,,,,,,,,,,,,,,,,,,,,,,,,,
,,5eeb0671d85b5123bafe06b6,2024-01-06_05h39.00.605,kallum_motion_pilot,2023.2.3,Win32,59.95203837,5eeb0671d85b5123bafe06b6,6598e6a5d84f07970b831e70,6598e71268c318d68a1f775c,0.089,0.089,0,77,77,108,1,sevenfive,,,,,,,,,,,,,,,,,,,,,,,,,,,,,,,,,,,,,,,,,,,,,,,,,,,,,,,,,,,,,,,,,,,,,,,,,,,,,,,,,,,,,,,,,,,,,,,,,,,,,,,,,,,,,,,,,,,,,,,,,,,,,,,,,,,,,,,
,,5eeb0671d85b5123bafe06b6,2024-01-06_05h39.00.605,kallum_motion_pilot,2023.2.3,Win32,59.95203837,5eeb0671d85b5123bafe06b6,6598e6a5d84f07970b831e70,6598e71268c318d68a1f775c,0.09,0.09,0,78,78,142,1,eightsix,,,,,,,,,,,,,,,,,,,,,,,,,,,,,,,,,,,,,,,,,,,,,,,,,,,,,,,,,,,,,,,,,,,,,,,,,,,,,,,,,,,,,,,,,,,,,,,,,,,,,,,,,,,,,,,,,,,,,,,,,,,,,,,,,,,,,,,
,,5eeb0671d85b5123bafe06b6,2024-01-06_05h39.00.605,kallum_motion_pilot,2023.2.3,Win32,59.95203837,5eeb0671d85b5123bafe06b6,6598e6a5d84f07970b831e70,6598e71268c318d68a1f775c,0.09,0.09,0,79,79,14,1,fourtwo,,,,,,,,,,,,,,,,,,,,,,,,,,,,,,,,,,,,,,,,,,,,,,,,,,,,,,,,,,,,,,,,,,,,,,,,,,,,,,,,,,,,,,,,,,,,,,,,,,,,,,,,,,,,,,,,,,,,,,,,,,,,,,,,,,,,,,,
,,5eeb0671d85b5123bafe06b6,2024-01-06_05h39.00.605,kallum_motion_pilot,2023.2.3,Win32,59.95203837,5eeb0671d85b5123bafe06b6,6598e6a5d84f07970b831e70,6598e71268c318d68a1f775c,0.091,0.091,0,80,80,3,1,twofour,,,,,,,,,,,,,,,,,,,,,,,,,,,,,,,,,,,,,,,,,,,,,,,,,,,,,,,,,,,,,,,,,,,,,,,,,,,,,,,,,,,,,,,,,,,,,,,,,,,,,,,,,,,,,,,,,,,,,,,,,,,,,,,,,,,,,,,
,,5eeb0671d85b5123bafe06b6,2024-01-06_05h39.00.605,kallum_motion_pilot,2023.2.3,Win32,59.95203837,5eeb0671d85b5123bafe06b6,6598e6a5d84f07970b831e70,6598e71268c318d68a1f775c,0.091,0.091,0,81,81,60,1,threeone,,,,,,,,,,,,,,,,,,,,,,,,,,,,,,,,,,,,,,,,,,,,,,,,,,,,,,,,,,,,,,,,,,,,,,,,,,,,,,,,,,,,,,,,,,,,,,,,,,,,,,,,,,,,,,,,,,,,,,,,,,,,,,,,,,,,,,,
,,5eeb0671d85b5123bafe06b6,2024-01-06_05h39.00.605,kallum_motion_pilot,2023.2.3,Win32,59.95203837,5eeb0671d85b5123bafe06b6,6598e6a5d84f07970b831e70,6598e71268c318d68a1f775c,0.091,0.091,0,82,82,153,1,fiveseven,,,,,,,,,,,,,,,,,,,,,,,,,,,,,,,,,,,,,,,,,,,,,,,,,,,,,,,,,,,,,,,,,,,,,,,,,,,,,,,,,,,,,,,,,,,,,,,,,,,,,,,,,,,,,,,,,,,,,,,,,,,,,,,,,,,,,,,
,,5eeb0671d85b5123bafe06b6,2024-01-06_05h39.00.605,kallum_motion_pilot,2023.2.3,Win32,59.95203837,5eeb0671d85b5123bafe06b6,6598e6a5d84f07970b831e70,6598e71268c318d68a1f775c,0.091,0.091,0,83,83,45,1,threefour,,,,,,,,,,,,,,,,,,,,,,,,,,,,,,,,,,,,,,,,,,,,,,,,,,,,,,,,,,,,,,,,,,,,,,,,,,,,,,,,,,,,,,,,,,,,,,,,,,,,,,,,,,,,,,,,,,,,,,,,,,,,,,,,,,,,,,,
,,5eeb0671d85b5123bafe06b6,2024-01-06_05h39.00.605,kallum_motion_pilot,2023.2.3,Win32,59.95203837,5eeb0671d85b5123bafe06b6,6598e6a5d84f07970b831e70,6598e71268c318d68a1f775c,0.091,0.091,0,84,84,63,1,fourthree,,,,,,,,,,,,,,,,,,,,,,,,,,,,,,,,,,,,,,,,,,,,,,,,,,,,,,,,,,,,,,,,,,,,,,,,,,,,,,,,,,,,,,,,,,,,,,,,,,,,,,,,,,,,,,,,,,,,,,,,,,,,,,,,,,,,,,,
,,5eeb0671d85b5123bafe06b6,2024-01-06_05h39.00.605,kallum_motion_pilot,2023.2.3,Win32,59.95203837,5eeb0671d85b5123bafe06b6,6598e6a5d84f07970b831e70,6598e71268c318d68a1f775c,0.091,0.091,0,85,85,64,1,onetwo,,,,,,,,,,,,,,,,,,,,,,,,,,,,,,,,,,,,,,,,,,,,,,,,,,,,,,,,,,,,,,,,,,,,,,,,,,,,,,,,,,,,,,,,,,,,,,,,,,,,,,,,,,,,,,,,,,,,,,,,,,,,,,,,,,,,,,,
,,5eeb0671d85b5123bafe06b6,2024-01-06_05h39.00.605,kallum_motion_pilot,2023.2.3,Win32,59.95203837,5eeb0671d85b5123bafe06b6,6598e6a5d84f07970b831e70,6598e71268c318d68a1f775c,0.092,0.092,0,86,86,71,1,fourthree,,,,,,,,,,,,,,,,,,,,,,,,,,,,,,,,,,,,,,,,,,,,,,,,,,,,,,,,,,,,,,,,,,,,,,,,,,,,,,,,,,,,,,,,,,,,,,,,,,,,,,,,,,,,,,,,,,,,,,,,,,,,,,,,,,,,,,,
,,5eeb0671d85b5123bafe06b6,2024-01-06_05h39.00.605,kallum_motion_pilot,2023.2.3,Win32,59.95203837,5eeb0671d85b5123bafe06b6,6598e6a5d84f07970b831e70,6598e71268c318d68a1f775c,0.092,0.092,0,87,87,12,1,threeone,,,,,,,,,,,,,,,,,,,,,,,,,,,,,,,,,,,,,,,,,,,,,,,,,,,,,,,,,,,,,,,,,,,,,,,,,,,,,,,,,,,,,,,,,,,,,,,,,,,,,,,,,,,,,,,,,,,,,,,,,,,,,,,,,,,,,,,
,,5eeb0671d85b5123bafe06b6,2024-01-06_05h39.00.605,kallum_motion_pilot,2023.2.3,Win32,59.95203837,5eeb0671d85b5123bafe06b6,6598e6a5d84f07970b831e70,6598e71268c318d68a1f775c,0.092,0.092,0,88,88,98,1,sixfive,,,,,,,,,,,,,,,,,,,,,,,,,,,,,,,,,,,,,,,,,,,,,,,,,,,,,,,,,,,,,,,,,,,,,,,,,,,,,,,,,,,,,,,,,,,,,,,,,,,,,,,,,,,,,,,,,,,,,,,,,,,,,,,,,,,,,,,
,,5eeb0671d85b5123bafe06b6,2024-01-06_05h39.00.605,kallum_motion_pilot,2023.2.3,Win32,59.95203837,5eeb0671d85b5123bafe06b6,6598e6a5d84f07970b831e70,6598e71268c318d68a1f775c,0.092,0.092,0,89,89,118,1,eightsix,,,,,,,,,,,,,,,,,,,,,,,,,,,,,,,,,,,,,,,,,,,,,,,,,,,,,,,,,,,,,,,,,,,,,,,,,,,,,,,,,,,,,,,,,,,,,,,,,,,,,,,,,,,,,,,,,,,,,,,,,,,,,,,,,,,,,,,
,,5eeb0671d85b5123bafe06b6,2024-01-06_05h39.00.605,kallum_motion_pilot,2023.2.3,Win32,59.95203837,5eeb0671d85b5123bafe06b6,6598e6a5d84f07970b831e70,6598e71268c318d68a1f775c,0.092,0.092,0,90,90,0,1,onetwo,,,,,,,,,,,,,,,,,,,,,,,,,,,,,,,,,,,,,,,,,,,,,,,,,,,,,,,,,,,,,,,,,,,,,,,,,,,,,,,,,,,,,,,,,,,,,,,,,,,,,,,,,,,,,,,,,,,,,,,,,,,,,,,,,,,,,,,
,,5eeb0671d85b5123bafe06b6,2024-01-06_05h39.00.605,kallum_motion_pilot,2023.2.3,Win32,59.95203837,5eeb0671d85b5123bafe06b6,6598e6a5d84f07970b831e70,6598e71268c318d68a1f775c,0.093,0.093,0,91,91,83,1,sixeight,,,,,,,,,,,,,,,,,,,,,,,,,,,,,,,,,,,,,,,,,,,,,,,,,,,,,,,,,,,,,,,,,,,,,,,,,,,,,,,,,,,,,,,,,,,,,,,,,,,,,,,,,,,,,,,,,,,,,,,,,,,,,,,,,,,,,,,
,,5eeb0671d85b5123bafe06b6,2024-01-06_05h39.00.605,kallum_motion_pilot,2023.2.3,Win32,59.95203837,5eeb0671d85b5123bafe06b6,6598e6a5d84f07970b831e70,6598e71268c318d68a1f775c,0.093,0.093,0,92,92,8,1,onetwo,,,,,,,,,,,,,,,,,,,,,,,,,,,,,,,,,,,,,,,,,,,,,,,,,,,,,,,,,,,,,,,,,,,,,,,,,,,,,,,,,,,,,,,,,,,,,,,,,,,,,,,,,,,,,,,,,,,,,,,,,,,,,,,,,,,,,,,
,,5eeb0671d85b5123bafe06b6,2024-01-06_05h39.00.605,kallum_motion_pilot,2023.2.3,Win32,59.95203837,5eeb0671d85b5123bafe06b6,6598e6a5d84f07970b831e70,6598e71268c318d68a1f775c,0.093,0.093,0,93,93,34,1,twoone,,,,,,,,,,,,,,,,,,,,,,,,,,,,,,,,,,,,,,,,,,,,,,,,,,,,,,,,,,,,,,,,,,,,,,,,,,,,,,,,,,,,,,,,,,,,,,,,,,,,,,,,,,,,,,,,,,,,,,,,,,,,,,,,,,,,,,,
,,5eeb0671d85b5123bafe06b6,2024-01-06_05h39.00.605,kallum_motion_pilot,2023.2.3,Win32,59.95203837,5eeb0671d85b5123bafe06b6,6598e6a5d84f07970b831e70,6598e71268c318d68a1f775c,0.093,0.093,0,94,94,144,1,fivesix,,,,,,,,,,,,,,,,,,,,,,,,,,,,,,,,,,,,,,,,,,,,,,,,,,,,,,,,,,,,,,,,,,,,,,,,,,,,,,,,,,,,,,,,,,,,,,,,,,,,,,,,,,,,,,,,,,,,,,,,,,,,,,,,,,,,,,,
,,5eeb0671d85b5123bafe06b6,2024-01-06_05h39.00.605,kallum_motion_pilot,2023.2.3,Win32,59.95203837,5eeb0671d85b5123bafe06b6,6598e6a5d84f07970b831e70,6598e71268c318d68a1f775c,0.094,0.094,0,95,95,86,1,eightsix,,,,,,,,,,,,,,,,,,,,,,,,,,,,,,,,,,,,,,,,,,,,,,,,,,,,,,,,,,,,,,,,,,,,,,,,,,,,,,,,,,,,,,,,,,,,,,,,,,,,,,,,,,,,,,,,,,,,,,,,,,,,,,,,,,,,,,,
,,5eeb0671d85b5123bafe06b6,2024-01-06_05h39.00.605,kallum_motion_pilot,2023.2.3,Win32,59.95203837,5eeb0671d85b5123bafe06b6,6598e6a5d84f07970b831e70,6598e71268c318d68a1f775c,0.094,0.094,0,96,96,150,1,eightsix,,,,,,,,,,,,,,,,,,,,,,,,,,,,,,,,,,,,,,,,,,,,,,,,,,,,,,,,,,,,,,,,,,,,,,,,,,,,,,,,,,,,,,,,,,,,,,,,,,,,,,,,,,,,,,,,,,,,,,,,,,,,,,,,,,,,,,,
,,5eeb0671d85b5123bafe06b6,2024-01-06_05h39.00.605,kallum_motion_pilot,2023.2.3,Win32,59.95203837,5eeb0671d85b5123bafe06b6,6598e6a5d84f07970b831e70,6598e71268c318d68a1f775c,0.094,0.094,0,97,97,103,1,eightseven,,,,,,,,,,,,,,,,,,,,,,,,,,,,,,,,,,,,,,,,,,,,,,,,,,,,,,,,,,,,,,,,,,,,,,,,,,,,,,,,,,,,,,,,,,,,,,,,,,,,,,,,,,,,,,,,,,,,,,,,,,,,,,,,,,,,,,,
,,5eeb0671d85b5123bafe06b6,2024-01-06_05h39.00.605,kallum_motion_pilot,2023.2.3,Win32,59.95203837,5eeb0671d85b5123bafe06b6,6598e6a5d84f07970b831e70,6598e71268c318d68a1f775c,0.094,0.094,0,98,98,147,1,sixeight,,,,,,,,,,,,,,,,,,,,,,,,,,,,,,,,,,,,,,,,,,,,,,,,,,,,,,,,,,,,,,,,,,,,,,,,,,,,,,,,,,,,,,,,,,,,,,,,,,,,,,,,,,,,,,,,,,,,,,,,,,,,,,,,,,,,,,,
,,5eeb0671d85b5123bafe06b6,2024-01-06_05h39.00.605,kallum_motion_pilot,2023.2.3,Win32,59.95203837,5eeb0671d85b5123bafe06b6,6598e6a5d84f07970b831e70,6598e71268c318d68a1f775c,0.094,0.094,0,99,99,80,1,fivesix,,,,,,,,,,,,,,,,,,,,,,,,,,,,,,,,,,,,,,,,,,,,,,,,,,,,,,,,,,,,,,,,,,,,,,,,,,,,,,,,,,,,,,,,,,,,,,,,,,,,,,,,,,,,,,,,,,,,,,,,,,,,,,,,,,,,,,,
,,5eeb0671d85b5123bafe06b6,2024-01-06_05h39.00.605,kallum_motion_pilot,2023.2.3,Win32,59.95203837,5eeb0671d85b5123bafe06b6,6598e6a5d84f07970b831e70,6598e71268c318d68a1f775c,0.094,0.094,0,100,100,151,1,eightseven,,,,,,,,,,,,,,,,,,,,,,,,,,,,,,,,,,,,,,,,,,,,,,,,,,,,,,,,,,,,,,,,,,,,,,,,,,,,,,,,,,,,,,,,,,,,,,,,,,,,,,,,,,,,,,,,,,,,,,,,,,,,,,,,,,,,,,,
,,5eeb0671d85b5123bafe06b6,2024-01-06_05h39.00.605,kallum_motion_pilot,2023.2.3,Win32,59.95203837,5eeb0671d85b5123bafe06b6,6598e6a5d84f07970b831e70,6598e71268c318d68a1f775c,0.094,0.094,0,101,101,155,1,sixeight,,,,,,,,,,,,,,,,,,,,,,,,,,,,,,,,,,,,,,,,,,,,,,,,,,,,,,,,,,,,,,,,,,,,,,,,,,,,,,,,,,,,,,,,,,,,,,,,,,,,,,,,,,,,,,,,,,,,,,,,,,,,,,,,,,,,,,,
,,5eeb0671d85b5123bafe06b6,2024-01-06_05h39.00.605,kallum_motion_pilot,2023.2.3,Win32,59.95203837,5eeb0671d85b5123bafe06b6,6598e6a5d84f07970b831e70,6598e71268c318d68a1f775c,0.095,0.095,0,102,102,65,1,onethree,,,,,,,,,,,,,,,,,,,,,,,,,,,,,,,,,,,,,,,,,,,,,,,,,,,,,,,,,,,,,,,,,,,,,,,,,,,,,,,,,,,,,,,,,,,,,,,,,,,,,,,,,,,,,,,,,,,,,,,,,,,,,,,,,,,,,,,
,,5eeb0671d85b5123bafe06b6,2024-01-06_05h39.00.605,kallum_motion_pilot,2023.2.3,Win32,59.95203837,5eeb0671d85b5123bafe06b6,6598e6a5d84f07970b831e70,6598e71268c318d68a1f775c,0.095,0.095,0,103,103,2,1,twoone,,,,,,,,,,,,,,,,,,,,,,,,,,,,,,,,,,,,,,,,,,,,,,,,,,,,,,,,,,,,,,,,,,,,,,,,,,,,,,,,,,,,,,,,,,,,,,,,,,,,,,,,,,,,,,,,,,,,,,,,,,,,,,,,,,,,,,,
,,5eeb0671d85b5123bafe06b6,2024-01-06_05h39.00.605,kallum_motion_pilot,2023.2.3,Win32,59.95203837,5eeb0671d85b5123bafe06b6,6598e6a5d84f07970b831e70,6598e71268c318d68a1f775c,0.095,0.095,0,104,104,134,1,eightsix,,,,,,,,,,,,,,,,,,,,,,,,,,,,,,,,,,,,,,,,,,,,,,,,,,,,,,,,,,,,,,,,,,,,,,,,,,,,,,,,,,,,,,,,,,,,,,,,,,,,,,,,,,,,,,,,,,,,,,,,,,,,,,,,,,,,,,,
,,5eeb0671d85b5123bafe06b6,2024-01-06_05h39.00.605,kallum_motion_pilot,2023.2.3,Win32,59.95203837,5eeb0671d85b5123bafe06b6,6598e6a5d84f07970b831e70,6598e71268c318d68a1f775c,0.095,0.095,0,105,105,58,1,twoone,,,,,,,,,,,,,,,,,,,,,,,,,,,,,,,,,,,,,,,,,,,,,,,,,,,,,,,,,,,,,,,,,,,,,,,,,,,,,,,,,,,,,,,,,,,,,,,,,,,,,,,,,,,,,,,,,,,,,,,,,,,,,,,,,,,,,,,
,,5eeb0671d85b5123bafe06b6,2024-01-06_05h39.00.605,kallum_motion_pilot,2023.2.3,Win32,59.95203837,5eeb0671d85b5123bafe06b6,6598e6a5d84f07970b831e70,6598e71268c318d68a1f775c,0.095,0.095,0,106,106,84,1,sevenfive,,,,,,,,,,,,,,,,,,,,,,,,,,,,,,,,,,,,,,,,,,,,,,,,,,,,,,,,,,,,,,,,,,,,,,,,,,,,,,,,,,,,,,,,,,,,,,,,,,,,,,,,,,,,,,,,,,,,,,,,,,,,,,,,,,,,,,,
,,5eeb0671d85b5123bafe06b6,2024-01-06_05h39.00.605,kallum_motion_pilot,2023.2.3,Win32,59.95203837,5eeb0671d85b5123bafe06b6,6598e6a5d84f07970b831e70,6598e71268c318d68a1f775c,0.095,0.095,0,107,107,87,1,eightseven,,,,,,,,,,,,,,,,,,,,,,,,,,,,,,,,,,,,,,,,,,,,,,,,,,,,,,,,,,,,,,,,,,,,,,,,,,,,,,,,,,,,,,,,,,,,,,,,,,,,,,,,,,,,,,,,,,,,,,,,,,,,,,,,,,,,,,,
,,5eeb0671d85b5123bafe06b6,2024-01-06_05h39.00.605,kallum_motion_pilot,2023.2.3,Win32,59.95203837,5eeb0671d85b5123bafe06b6,6598e6a5d84f07970b831e70,6598e71268c318d68a1f775c,0.095,0.095,0,108,108,111,1,eightseven,,,,,,,,,,,,,,,,,,,,,,,,,,,,,,,,,,,,,,,,,,,,,,,,,,,,,,,,,,,,,,,,,,,,,,,,,,,,,,,,,,,,,,,,,,,,,,,,,,,,,,,,,,,,,,,,,,,,,,,,,,,,,,,,,,,,,,,
,,5eeb0671d85b5123bafe06b6,2024-01-06_05h39.00.605,kallum_motion_pilot,2023.2.3,Win32,59.95203837,5eeb0671d85b5123bafe06b6,6598e6a5d84f07970b831e70,6598e71268c318d68a1f775c,0.095,0.095,0,109,109,140,1,sevenfive,,,,,,,,,,,,,,,,,,,,,,,,,,,,,,,,,,,,,,,,,,,,,,,,,,,,,,,,,,,,,,,,,,,,,,,,,,,,,,,,,,,,,,,,,,,,,,,,,,,,,,,,,,,,,,,,,,,,,,,,,,,,,,,,,,,,,,,
,,5eeb0671d85b5123bafe06b6,2024-01-06_05h39.00.605,kallum_motion_pilot,2023.2.3,Win32,59.95203837,5eeb0671d85b5123bafe06b6,6598e6a5d84f07970b831e70,6598e71268c318d68a1f775c,0.095,0.095,0,110,110,119,1,eightseven,,,,,,,,,,,,,,,,,,,,,,,,,,,,,,,,,,,,,,,,,,,,,,,,,,,,,,,,,,,,,,,,,,,,,,,,,,,,,,,,,,,,,,,,,,,,,,,,,,,,,,,,,,,,,,,,,,,,,,,,,,,,,,,,,,,,,,,
,,5eeb0671d85b5123bafe06b6,2024-01-06_05h39.00.605,kallum_motion_pilot,2023.2.3,Win32,59.95203837,5eeb0671d85b5123bafe06b6,6598e6a5d84f07970b831e70,6598e71268c318d68a1f775c,0.096,0.096,0,111,111,1,1,onethree,,,,,,,,,,,,,,,,,,,,,,,,,,,,,,,,,,,,,,,,,,,,,,,,,,,,,,,,,,,,,,,,,,,,,,,,,,,,,,,,,,,,,,,,,,,,,,,,,,,,,,,,,,,,,,,,,,,,,,,,,,,,,,,,,,,,,,,
,,5eeb0671d85b5123bafe06b6,2024-01-06_05h39.00.605,kallum_motion_pilot,2023.2.3,Win32,59.95203837,5eeb0671d85b5123bafe06b6,6598e6a5d84f07970b831e70,6598e71268c318d68a1f775c,0.096,0.096,0,112,112,131,1,sixeight,,,,,,,,,,,,,,,,,,,,,,,,,,,,,,,,,,,,,,,,,,,,,,,,,,,,,,,,,,,,,,,,,,,,,,,,,,,,,,,,,,,,,,,,,,,,,,,,,,,,,,,,,,,,,,,,,,,,,,,,,,,,,,,,,,,,,,,
,,5eeb0671d85b5123bafe06b6,2024-01-06_05h39.00.605,kallum_motion_pilot,2023.2.3,Win32,59.95203837,5eeb0671d85b5123bafe06b6,6598e6a5d84f07970b831e70,6598e71268c318d68a1f775c,0.096,0.096,0,113,113,6,1,fourtwo,,,,,,,,,,,,,,,,,,,,,,,,,,,,,,,,,,,,,,,,,,,,,,,,,,,,,,,,,,,,,,,,,,,,,,,,,,,,,,,,,,,,,,,,,,,,,,,,,,,,,,,,,,,,,,,,,,,,,,,,,,,,,,,,,,,,,,,
,,5eeb0671d85b5123bafe06b6,2024-01-06_05h39.00.605,kallum_motion_pilot,2023.2.3,Win32,59.95203837,5eeb0671d85b5123bafe06b6,6598e6a5d84f07970b831e70,6598e71268c318d68a1f775c,0.096,0.096,0,114,114,44,1,threeone,,,,,,,,,,,,,,,,,,,,,,,,,,,,,,,,,,,,,,,,,,,,,,,,,,,,,,,,,,,,,,,,,,,,,,,,,,,,,,,,,,,,,,,,,,,,,,,,,,,,,,,,,,,,,,,,,,,,,,,,,,,,,,,,,,,,,,,
,,5eeb0671d85b5123bafe06b6,2024-01-06_05h39.00.605,kallum_motion_pilot,2023.2.3,Win32,59.95203837,5eeb0671d85b5123bafe06b6,6598e6a5d84f07970b831e70,6598e71268c318d68a1f775c,0.096,0.096,0,115,115,28,1,threeone,,,,,,,,,,,,,,,,,,,,,,,,,,,,,,,,,,,,,,,,,,,,,,,,,,,,,,,,,,,,,,,,,,,,,,,,,,,,,,,,,,,,,,,,,,,,,,,,,,,,,,,,,,,,,,,,,,,,,,,,,,,,,,,,,,,,,,,
,,5eeb0671d85b5123bafe06b6,2024-01-06_05h39.00.605,kallum_motion_pilot,2023.2.3,Win32,59.95203837,5eeb0671d85b5123bafe06b6,6598e6a5d84f07970b831e70,6598e71268c318d68a1f775c,0.096,0.096,0,116,116,4,1,threeone,,,,,,,,,,,,,,,,,,,,,,,,,,,,,,,,,,,,,,,,,,,,,,,,,,,,,,,,,,,,,,,,,,,,,,,,,,,,,,,,,,,,,,,,,,,,,,,,,,,,,,,,,,,,,,,,,,,,,,,,,,,,,,,,,,,,,,,
,,5eeb0671d85b5123bafe06b6,2024-01-06_05h39.00.605,kallum_motion_pilot,2023.2.3,Win32,59.95203837,5eeb0671d85b5123bafe06b6,6598e6a5d84f07970b831e70,6598e71268c318d68a1f775c,0.096,0.096,0,117,117,30,1,fourtwo,,,,,,,,,,,,,,,,,,,,,,,,,,,,,,,,,,,,,,,,,,,,,,,,,,,,,,,,,,,,,,,,,,,,,,,,,,,,,,,,,,,,,,,,,,,,,,,,,,,,,,,,,,,,,,,,,,,,,,,,,,,,,,,,,,,,,,,
,,5eeb0671d85b5123bafe06b6,2024-01-06_05h39.00.605,kallum_motion_pilot,2023.2.3,Win32,59.95203837,5eeb0671d85b5123bafe06b6,6598e6a5d84f07970b831e70,6598e71268c318d68a1f775c,0.096,0.096,0,118,118,9,1,onethree,,,,,,,,,,,,,,,,,,,,,,,,,,,,,,,,,,,,,,,,,,,,,,,,,,,,,,,,,,,,,,,,,,,,,,,,,,,,,,,,,,,,,,,,,,,,,,,,,,,,,,,,,,,,,,,,,,,,,,,,,,,,,,,,,,,,,,,
,,5eeb0671d85b5123bafe06b6,2024-01-06_05h39.00.605,kallum_motion_pilot,2023.2.3,Win32,59.95203837,5eeb0671d85b5123bafe06b6,6598e6a5d84f07970b831e70,6598e71268c318d68a1f775c,0.096,0.096,0,119,119,57,1,onethree,,,,,,,,,,,,,,,,,,,,,,,,,,,,,,,,,,,,,,,,,,,,,,,,,,,,,,,,,,,,,,,,,,,,,,,,,,,,,,,,,,,,,,,,,,,,,,,,,,,,,,,,,,,,,,,,,,,,,,,,,,,,,,,,,,,,,,,
,,5eeb0671d85b5123bafe06b6,2024-01-06_05h39.00.605,kallum_motion_pilot,2023.2.3,Win32,59.95203837,5eeb0671d85b5123bafe06b6,6598e6a5d84f07970b831e70,6598e71268c318d68a1f775c,0.096,0.096,0,120,120,161,1,fiveseven,,,,,,,,,,,,,,,,,,,,,,,,,,,,,,,,,,,,,,,,,,,,,,,,,,,,,,,,,,,,,,,,,,,,,,,,,,,,,,,,,,,,,,,,,,,,,,,,,,,,,,,,,,,,,,,,,,,,,,,,,,,,,,,,,,,,,,,
,,5eeb0671d85b5123bafe06b6,2024-01-06_05h39.00.605,kallum_motion_pilot,2023.2.3,Win32,59.95203837,5eeb0671d85b5123bafe06b6,6598e6a5d84f07970b831e70,6598e71268c318d68a1f775c,0.097,0.097,0,121,121,130,1,sixfive,,,,,,,,,,,,,,,,,,,,,,,,,,,,,,,,,,,,,,,,,,,,,,,,,,,,,,,,,,,,,,,,,,,,,,,,,,,,,,,,,,,,,,,,,,,,,,,,,,,,,,,,,,,,,,,,,,,,,,,,,,,,,,,,,,,,,,,
,,5eeb0671d85b5123bafe06b6,2024-01-06_05h39.00.605,kallum_motion_pilot,2023.2.3,Win32,59.95203837,5eeb0671d85b5123bafe06b6,6598e6a5d84f07970b831e70,6598e71268c318d68a1f775c,0.097,0.097,0,122,122,33,1,onethree,,,,,,,,,,,,,,,,,,,,,,,,,,,,,,,,,,,,,,,,,,,,,,,,,,,,,,,,,,,,,,,,,,,,,,,,,,,,,,,,,,,,,,,,,,,,,,,,,,,,,,,,,,,,,,,,,,,,,,,,,,,,,,,,,,,,,,,
,,5eeb0671d85b5123bafe06b6,2024-01-06_05h39.00.605,kallum_motion_pilot,2023.2.3,Win32,59.95203837,5eeb0671d85b5123bafe06b6,6598e6a5d84f07970b831e70,6598e71268c318d68a1f775c,0.097,0.097,0,123,123,49,1,onethree,,,,,,,,,,,,,,,,,,,,,,,,,,,,,,,,,,,,,,,,,,,,,,,,,,,,,,,,,,,,,,,,,,,,,,,,,,,,,,,,,,,,,,,,,,,,,,,,,,,,,,,,,,,,,,,,,,,,,,,,,,,,,,,,,,,,,,,
,,5eeb0671d85b5123bafe06b6,2024-01-06_05h39.00.605,kallum_motion_pilot,2023.2.3,Win32,59.95203837,5eeb0671d85b5123bafe06b6,6598e6a5d84f07970b831e70,6598e71268c318d68a1f775c,0.097,0.097,0,124,124,73,1,onethree,,,,,,,,,,,,,,,,,,,,,,,,,,,,,,,,,,,,,,,,,,,,,,,,,,,,,,,,,,,,,,,,,,,,,,,,,,,,,,,,,,,,,,,,,,,,,,,,,,,,,,,,,,,,,,,,,,,,,,,,,,,,,,,,,,,,,,,
,,5eeb0671d85b5123bafe06b6,2024-01-06_05h39.00.605,kallum_motion_pilot,2023.2.3,Win32,59.95203837,5eeb0671d85b5123bafe06b6,6598e6a5d84f07970b831e70,6598e71268c318d68a1f775c,0.097,0.097,0,125,125,37,1,threefour,,,,,,,,,,,,,,,,,,,,,,,,,,,,,,,,,,,,,,,,,,,,,,,,,,,,,,,,,,,,,,,,,,,,,,,,,,,,,,,,,,,,,,,,,,,,,,,,,,,,,,,,,,,,,,,,,,,,,,,,,,,,,,,,,,,,,,,
,,5eeb0671d85b5123bafe06b6,2024-01-06_05h39.00.605,kallum_motion_pilot,2023.2.3,Win32,59.95203837,5eeb0671d85b5123bafe06b6,6598e6a5d84f07970b831e70,6598e71268c318d68a1f775c,0.098,0.098,0,126,126,43,1,twofour,,,,,,,,,,,,,,,,,,,,,,,,,,,,,,,,,,,,,,,,,,,,,,,,,,,,,,,,,,,,,,,,,,,,,,,,,,,,,,,,,,,,,,,,,,,,,,,,,,,,,,,,,,,,,,,,,,,,,,,,,,,,,,,,,,,,,,,
,,5eeb0671d85b5123bafe06b6,2024-01-06_05h39.00.605,kallum_motion_pilot,2023.2.3,Win32,59.95203837,5eeb0671d85b5123bafe06b6,6598e6a5d84f07970b831e70,6598e71268c318d68a1f775c,0.098,0.098,0,127,127,48,1,onetwo,,,,,,,,,,,,,,,,,,,,,,,,,,,,,,,,,,,,,,,,,,,,,,,,,,,,,,,,,,,,,,,,,,,,,,,,,,,,,,,,,,,,,,,,,,,,,,,,,,,,,,,,,,,,,,,,,,,,,,,,,,,,,,,,,,,,,,,
,,5eeb0671d85b5123bafe06b6,2024-01-06_05h39.00.605,kallum_motion_pilot,2023.2.3,Win32,59.95203837,5eeb0671d85b5123bafe06b6,6598e6a5d84f07970b831e70,6598e71268c318d68a1f775c,0.098,0.098,0,128,128,61,1,threefour,,,,,,,,,,,,,,,,,,,,,,,,,,,,,,,,,,,,,,,,,,,,,,,,,,,,,,,,,,,,,,,,,,,,,,,,,,,,,,,,,,,,,,,,,,,,,,,,,,,,,,,,,,,,,,,,,,,,,,,,,,,,,,,,,,,,,,,
,,5eeb0671d85b5123bafe06b6,2024-01-06_05h39.00.605,kallum_motion_pilot,2023.2.3,Win32,59.95203837,5eeb0671d85b5123bafe06b6,6598e6a5d84f07970b831e70,6598e71268c318d68a1f775c,0.098,0.098,0,129,129,123,1,sixeight,,,,,,,,,,,,,,,,,,,,,,,,,,,,,,,,,,,,,,,,,,,,,,,,,,,,,,,,,,,,,,,,,,,,,,,,,,,,,,,,,,,,,,,,,,,,,,,,,,,,,,,,,,,,,,,,,,,,,,,,,,,,,,,,,,,,,,,
,,5eeb0671d85b5123bafe06b6,2024-01-06_05h39.00.605,kallum_motion_pilot,2023.2.3,Win32,59.95203837,5eeb0671d85b5123bafe06b6,6598e6a5d84f07970b831e70,6598e71268c318d68a1f775c,0.098,0.098,0,130,130,46,1,fourtwo,,,,,,,,,,,,,,,,,,,,,,,,,,,,,,,,,,,,,,,,,,,,,,,,,,,,,,,,,,,,,,,,,,,,,,,,,,,,,,,,,,,,,,,,,,,,,,,,,,,,,,,,,,,,,,,,,,,,,,,,,,,,,,,,,,,,,,,
,,5eeb0671d85b5123bafe06b6,2024-01-06_05h39.00.605,kallum_motion_pilot,2023.2.3,Win32,59.95203837,5eeb0671d85b5123bafe06b6,6598e6a5d84f07970b831e70,6598e71268c318d68a1f775c,0.098,0.098,0,131,131,158,1,eightsix,,,,,,,,,,,,,,,,,,,,,,,,,,,,,,,,,,,,,,,,,,,,,,,,,,,,,,,,,,,,,,,,,,,,,,,,,,,,,,,,,,,,,,,,,,,,,,,,,,,,,,,,,,,,,,,,,,,,,,,,,,,,,,,,,,,,,,,
,,5eeb0671d85b5123bafe06b6,2024-01-06_05h39.00.605,kallum_motion_pilot,2023.2.3,Win32,59.95203837,5eeb0671d85b5123bafe06b6,6598e6a5d84f07970b831e70,6598e71268c318d68a1f775c,0.098,0.099,0,132,132,51,1,twofour,,,,,,,,,,,,,,,,,,,,,,,,,,,,,,,,,,,,,,,,,,,,,,,,,,,,,,,,,,,,,,,,,,,,,,,,,,,,,,,,,,,,,,,,,,,,,,,,,,,,,,,,,,,,,,,,,,,,,,,,,,,,,,,,,,,,,,,
,,5eeb0671d85b5123bafe06b6,2024-01-06_05h39.00.605,kallum_motion_pilot,2023.2.3,Win32,59.95203837,5eeb0671d85b5123bafe06b6,6598e6a5d84f07970b831e70,6598e71268c318d68a1f775c,0.099,0.099,0,133,133,42,1,twoone,,,,,,,,,,,,,,,,,,,,,,,,,,,,,,,,,,,,,,,,,,,,,,,,,,,,,,,,,,,,,,,,,,,,,,,,,,,,,,,,,,,,,,,,,,,,,,,,,,,,,,,,,,,,,,,,,,,,,,,,,,,,,,,,,,,,,,,
,,5eeb0671d85b5123bafe06b6,2024-01-06_05h39.00.605,kallum_motion_pilot,2023.2.3,Win32,59.95203837,5eeb0671d85b5123bafe06b6,6598e6a5d84f07970b831e70,6598e71268c318d68a1f775c,0.099,0.1,0,134,134,76,1,threeone,,,,,,,,,,,,,,,,,,,,,,,,,,,,,,,,,,,,,,,,,,,,,,,,,,,,,,,,,,,,,,,,,,,,,,,,,,,,,,,,,,,,,,,,,,,,,,,,,,,,,,,,,,,,,,,,,,,,,,,,,,,,,,,,,,,,,,,
,,5eeb0671d85b5123bafe06b6,2024-01-06_05h39.00.605,kallum_motion_pilot,2023.2.3,Win32,59.95203837,5eeb0671d85b5123bafe06b6,6598e6a5d84f07970b831e70,6598e71268c318d68a1f775c,0.1,0.1,0,135,135,10,1,twoone,,,,,,,,,,,,,,,,,,,,,,,,,,,,,,,,,,,,,,,,,,,,,,,,,,,,,,,,,,,,,,,,,,,,,,,,,,,,,,,,,,,,,,,,,,,,,,,,,,,,,,,,,,,,,,,,,,,,,,,,,,,,,,,,,,,,,,,
,,5eeb0671d85b5123bafe06b6,2024-01-06_05h39.00.605,kallum_motion_pilot,2023.2.3,Win32,59.95203837,5eeb0671d85b5123bafe06b6,6598e6a5d84f07970b831e70,6598e71268c318d68a1f775c,0.101,0.101,0,136,136,25,1,onethree,,,,,,,,,,,,,,,,,,,,,,,,,,,,,,,,,,,,,,,,,,,,,,,,,,,,,,,,,,,,,,,,,,,,,,,,,,,,,,,,,,,,,,,,,,,,,,,,,,,,,,,,,,,,,,,,,,,,,,,,,,,,,,,,,,,,,,,
,,5eeb0671d85b5123bafe06b6,2024-01-06_05h39.00.605,kallum_motion_pilot,2023.2.3,Win32,59.95203837,5eeb0671d85b5123bafe06b6,6598e6a5d84f07970b831e70,6598e71268c318d68a1f775c,0.101,0.102,0,137,137,27,1,twofour,,,,,,,,,,,,,,,,,,,,,,,,,,,,,,,,,,,,,,,,,,,,,,,,,,,,,,,,,,,,,,,,,,,,,,,,,,,,,,,,,,,,,,,,,,,,,,,,,,,,,,,,,,,,,,,,,,,,,,,,,,,,,,,,,,,,,,,
,,5eeb0671d85b5123bafe06b6,2024-01-06_05h39.00.605,kallum_motion_pilot,2023.2.3,Win32,59.95203837,5eeb0671d85b5123bafe06b6,6598e6a5d84f07970b831e70,6598e71268c318d68a1f775c,0.102,0.102,0,138,138,114,1,sixfive,,,,,,,,,,,,,,,,,,,,,,,,,,,,,,,,,,,,,,,,,,,,,,,,,,,,,,,,,,,,,,,,,,,,,,,,,,,,,,,,,,,,,,,,,,,,,,,,,,,,,,,,,,,,,,,,,,,,,,,,,,,,,,,,,,,,,,,
,,5eeb0671d85b5123bafe06b6,2024-01-06_05h39.00.605,kallum_motion_pilot,2023.2.3,Win32,59.95203837,5eeb0671d85b5123bafe06b6,6598e6a5d84f07970b831e70,6598e71268c318d68a1f775c,0.102,0.102,0,139,139,56,1,onetwo,,,,,,,,,,,,,,,,,,,,,,,,,,,,,,,,,,,,,,,,,,,,,,,,,,,,,,,,,,,,,,,,,,,,,,,,,,,,,,,,,,,,,,,,,,,,,,,,,,,,,,,,,,,,,,,,,,,,,,,,,,,,,,,,,,,,,,,
,,5eeb0671d85b5123bafe06b6,2024-01-06_05h39.00.605,kallum_motion_pilot,2023.2.3,Win32,59.95203837,5eeb0671d85b5123bafe06b6,6598e6a5d84f07970b831e70,6598e71268c318d68a1f775c,0.102,0.102,0,140,140,77,1,threefour,,,,,,,,,,,,,,,,,,,,,,,,,,,,,,,,,,,,,,,,,,,,,,,,,,,,,,,,,,,,,,,,,,,,,,,,,,,,,,,,,,,,,,,,,,,,,,,,,,,,,,,,,,,,,,,,,,,,,,,,,,,,,,,,,,,,,,,
,,5eeb0671d85b5123bafe06b6,2024-01-06_05h39.00.605,kallum_motion_pilot,2023.2.3,Win32,59.95203837,5eeb0671d85b5123bafe06b6,6598e6a5d84f07970b831e70,6598e71268c318d68a1f775c,0.103,0.103,0,141,141,143,1,eightseven,,,,,,,,,,,,,,,,,,,,,,,,,,,,,,,,,,,,,,,,,,,,,,,,,,,,,,,,,,,,,,,,,,,,,,,,,,,,,,,,,,,,,,,,,,,,,,,,,,,,,,,,,,,,,,,,,,,,,,,,,,,,,,,,,,,,,,,
,,5eeb0671d85b5123bafe06b6,2024-01-06_05h39.00.605,kallum_motion_pilot,2023.2.3,Win32,59.95203837,5eeb0671d85b5123bafe06b6,6598e6a5d84f07970b831e70,6598e71268c318d68a1f775c,0.103,0.103,0,142,142,39,1,fourthree,,,,,,,,,,,,,,,,,,,,,,,,,,,,,,,,,,,,,,,,,,,,,,,,,,,,,,,,,,,,,,,,,,,,,,,,,,,,,,,,,,,,,,,,,,,,,,,,,,,,,,,,,,,,,,,,,,,,,,,,,,,,,,,,,,,,,,,
,,5eeb0671d85b5123bafe06b6,2024-01-06_05h39.00.605,kallum_motion_pilot,2023.2.3,Win32,59.95203837,5eeb0671d85b5123bafe06b6,6598e6a5d84f07970b831e70,6598e71268c318d68a1f775c,0.103,0.103,0,143,143,11,1,twofour,,,,,,,,,,,,,,,,,,,,,,,,,,,,,,,,,,,,,,,,,,,,,,,,,,,,,,,,,,,,,,,,,,,,,,,,,,,,,,,,,,,,,,,,,,,,,,,,,,,,,,,,,,,,,,,,,,,,,,,,,,,,,,,,,,,,,,,
,,5eeb0671d85b5123bafe06b6,2024-01-06_05h39.00.605,kallum_motion_pilot,2023.2.3,Win32,59.95203837,5eeb0671d85b5123bafe06b6,6598e6a5d84f07970b831e70,6598e71268c318d68a1f775c,0.103,0.103,0,144,144,5,1,threefour,,,,,,,,,,,,,,,,,,,,,,,,,,,,,,,,,,,,,,,,,,,,,,,,,,,,,,,,,,,,,,,,,,,,,,,,,,,,,,,,,,,,,,,,,,,,,,,,,,,,,,,,,,,,,,,,,,,,,,,,,,,,,,,,,,,,,,,
,,5eeb0671d85b5123bafe06b6,2024-01-06_05h39.00.605,kallum_motion_pilot,2023.2.3,Win32,59.95203837,5eeb0671d85b5123bafe06b6,6598e6a5d84f07970b831e70,6598e71268c318d68a1f775c,0.103,0.103,0,145,145,156,1,sevenfive,,,,,,,,,,,,,,,,,,,,,,,,,,,,,,,,,,,,,,,,,,,,,,,,,,,,,,,,,,,,,,,,,,,,,,,,,,,,,,,,,,,,,,,,,,,,,,,,,,,,,,,,,,,,,,,,,,,,,,,,,,,,,,,,,,,,,,,
,,5eeb0671d85b5123bafe06b6,2024-01-06_05h39.00.605,kallum_motion_pilot,2023.2.3,Win32,59.95203837,5eeb0671d85b5123bafe06b6,6598e6a5d84f07970b831e70,6598e71268c318d68a1f775c,0.103,0.103,0,146,146,47,1,fourthree,,,,,,,,,,,,,,,,,,,,,,,,,,,,,,,,,,,,,,,,,,,,,,,,,,,,,,,,,,,,,,,,,,,,,,,,,,,,,,,,,,,,,,,,,,,,,,,,,,,,,,,,,,,,,,,,,,,,,,,,,,,,,,,,,,,,,,,
,,5eeb0671d85b5123bafe06b6,2024-01-06_05h39.00.605,kallum_motion_pilot,2023.2.3,Win32,59.95203837,5eeb0671d85b5123bafe06b6,6598e6a5d84f07970b831e70,6598e71268c318d68a1f775c,0.103,0.103,0,147,147,79,1,eightseven,,,,,,,,,,,,,,,,,,,,,,,,,,,,,,,,,,,,,,,,,,,,,,,,,,,,,,,,,,,,,,,,,,,,,,,,,,,,,,,,,,,,,,,,,,,,,,,,,,,,,,,,,,,,,,,,,,,,,,,,,,,,,,,,,,,,,,,
,,5eeb0671d85b5123bafe06b6,2024-01-06_05h39.00.605,kallum_motion_pilot,2023.2.3,Win32,59.95203837,5eeb0671d85b5123bafe06b6,6598e6a5d84f07970b831e70,6598e71268c318d68a1f775c,0.104,0.104,0,148,148,93,1,seveneight,,,,,,,,,,,,,,,,,,,,,,,,,,,,,,,,,,,,,,,,,,,,,,,,,,,,,,,,,,,,,,,,,,,,,,,,,,,,,,,,,,,,,,,,,,,,,,,,,,,,,,,,,,,,,,,,,,,,,,,,,,,,,,,,,,,,,,,
,,5eeb0671d85b5123bafe06b6,2024-01-06_05h39.00.605,kallum_motion_pilot,2023.2.3,Win32,59.95203837,5eeb0671d85b5123bafe06b6,6598e6a5d84f07970b831e70,6598e71268c318d68a1f775c,0.104,0.104,0,149,149,26,1,twoone,,,,,,,,,,,,,,,,,,,,,,,,,,,,,,,,,,,,,,,,,,,,,,,,,,,,,,,,,,,,,,,,,,,,,,,,,,,,,,,,,,,,,,,,,,,,,,,,,,,,,,,,,,,,,,,,,,,,,,,,,,,,,,,,,,,,,,,
,,5eeb0671d85b5123bafe06b6,2024-01-06_05h39.00.605,kallum_motion_pilot,2023.2.3,Win32,59.95203837,5eeb0671d85b5123bafe06b6,6598e6a5d84f07970b831e70,6598e71268c318d68a1f775c,0.104,0.104,0,150,150,125,1,seveneight,,,,,,,,,,,,,,,,,,,,,,,,,,,,,,,,,,,,,,,,,,,,,,,,,,,,,,,,,,,,,,,,,,,,,,,,,,,,,,,,,,,,,,,,,,,,,,,,,,,,,,,,,,,,,,,,,,,,,,,,,,,,,,,,,,,,,,,
,,5eeb0671d85b5123bafe06b6,2024-01-06_05h39.00.605,kallum_motion_pilot,2023.2.3,Win32,59.95203837,5eeb0671d85b5123bafe06b6,6598e6a5d84f07970b831e70,6598e71268c318d68a1f775c,0.104,0.104,0,151,151,117,1,seveneight,,,,,,,,,,,,,,,,,,,,,,,,,,,,,,,,,,,,,,,,,,,,,,,,,,,,,,,,,,,,,,,,,,,,,,,,,,,,,,,,,,,,,,,,,,,,,,,,,,,,,,,,,,,,,,,,,,,,,,,,,,,,,,,,,,,,,,,
,,5eeb0671d85b5123bafe06b6,2024-01-06_05h39.00.605,kallum_motion_pilot,2023.2.3,Win32,59.95203837,5eeb0671d85b5123bafe06b6,6598e6a5d84f07970b831e70,6598e71268c318d68a1f775c,0.104,0.104,0,152,152,137,1,fiveseven,,,,,,,,,,,,,,,,,,,,,,,,,,,,,,,,,,,,,,,,,,,,,,,,,,,,,,,,,,,,,,,,,,,,,,,,,,,,,,,,,,,,,,,,,,,,,,,,,,,,,,,,,,,,,,,,,,,,,,,,,,,,,,,,,,,,,,,
,,5eeb0671d85b5123bafe06b6,2024-01-06_05h39.00.605,kallum_motion_pilot,2023.2.3,Win32,59.95203837,5eeb0671d85b5123bafe06b6,6598e6a5d84f07970b831e70,6598e71268c318d68a1f775c,0.104,0.104,0,153,153,36,1,threeone,,,,,,,,,,,,,,,,,,,,,,,,,,,,,,,,,,,,,,,,,,,,,,,,,,,,,,,,,,,,,,,,,,,,,,,,,,,,,,,,,,,,,,,,,,,,,,,,,,,,,,,,,,,,,,,,,,,,,,,,,,,,,,,,,,,,,,,
,,5eeb0671d85b5123bafe06b6,2024-01-06_05h39.00.605,kallum_motion_pilot,2023.2.3,Win32,59.95203837,5eeb0671d85b5123bafe06b6,6598e6a5d84f07970b831e70,6598e71268c318d68a1f775c,0.104,0.104,0,154,154,128,1,fivesix,,,,,,,,,,,,,,,,,,,,,,,,,,,,,,,,,,,,,,,,,,,,,,,,,,,,,,,,,,,,,,,,,,,,,,,,,,,,,,,,,,,,,,,,,,,,,,,,,,,,,,,,,,,,,,,,,,,,,,,,,,,,,,,,,,,,,,,
,,5eeb0671d85b5123bafe06b6,2024-01-06_05h39.00.605,kallum_motion_pilot,2023.2.3,Win32,59.95203837,5eeb0671d85b5123bafe06b6,6598e6a5d84f07970b831e70,6598e71268c318d68a1f775c,0.104,0.104,0,155,155,132,1,sevenfive,,,,,,,,,,,,,,,,,,,,,,,,,,,,,,,,,,,,,,,,,,,,,,,,,,,,,,,,,,,,,,,,,,,,,,,,,,,,,,,,,,,,,,,,,,,,,,,,,,,,,,,,,,,,,,,,,,,,,,,,,,,,,,,,,,,,,,,
,,5eeb0671d85b5123bafe06b6,2024-01-06_05h39.00.605,kallum_motion_pilot,2023.2.3,Win32,59.95203837,5eeb0671d85b5123bafe06b6,6598e6a5d84f07970b831e70,6598e71268c318d68a1f775c,0.104,0.105,0,156,156,95,1,eightseven,,,,,,,,,,,,,,,,,,,,,,,,,,,,,,,,,,,,,,,,,,,,,,,,,,,,,,,,,,,,,,,,,,,,,,,,,,,,,,,,,,,,,,,,,,,,,,,,,,,,,,,,,,,,,,,,,,,,,,,,,,,,,,,,,,,,,,,
,,5eeb0671d85b5123bafe06b6,2024-01-06_05h39.00.605,kallum_motion_pilot,2023.2.3,Win32,59.95203837,5eeb0671d85b5123bafe06b6,6598e6a5d84f07970b831e70,6598e71268c318d68a1f775c,0.105,0.105,0,157,157,52,1,threeone,,,,,,,,,,,,,,,,,,,,,,,,,,,,,,,,,,,,,,,,,,,,,,,,,,,,,,,,,,,,,,,,,,,,,,,,,,,,,,,,,,,,,,,,,,,,,,,,,,,,,,,,,,,,,,,,,,,,,,,,,,,,,,,,,,,,,,,
,,5eeb0671d85b5123bafe06b6,2024-01-06_05h39.00.605,kallum_motion_pilot,2023.2.3,Win32,59.95203837,5eeb0671d85b5123bafe06b6,6598e6a5d84f07970b831e70,6598e71268c318d68a1f775c,0.105,0.105,0,158,158,59,1,twofour,,,,,,,,,,,,,,,,,,,,,,,,,,,,,,,,,,,,,,,,,,,,,,,,,,,,,,,,,,,,,,,,,,,,,,,,,,,,,,,,,,,,,,,,,,,,,,,,,,,,,,,,,,,,,,,,,,,,,,,,,,,,,,,,,,,,,,,
,,5eeb0671d85b5123bafe06b6,2024-01-06_05h39.00.605,kallum_motion_pilot,2023.2.3,Win32,59.95203837,5eeb0671d85b5123bafe06b6,6598e6a5d84f07970b831e70,6598e71268c318d68a1f775c,0.105,0.105,0,159,159,21,1,threefour,,,,,,,,,,,,,,,,,,,,,,,,,,,,,,,,,,,,,,,,,,,,,,,,,,,,,,,,,,,,,,,,,,,,,,,,,,,,,,,,,,,,,,,,,,,,,,,,,,,,,,,,,,,,,,,,,,,,,,,,,,,,,,,,,,,,,,,
,,5eeb0671d85b5123bafe06b6,2024-01-06_05h39.00.605,kallum_motion_pilot,2023.2.3,Win32,59.95203837,5eeb0671d85b5123bafe06b6,6598e6a5d84f07970b831e70,6598e71268c318d68a1f775c,0.105,0.105,0,160,160,97,1,fiveseven,,,,,,,,,,,,,,,,,,,,,,,,,,,,,,,,,,,,,,,,,,,,,,,,,,,,,,,,,,,,,,,,,,,,,,,,,,,,,,,,,,,,,,,,,,,,,,,,,,,,,,,,,,,,,,,,,,,,,,,,,,,,,,,,,,,,,,,
,,5eeb0671d85b5123bafe06b6,2024-01-06_05h39.00.605,kallum_motion_pilot,2023.2.3,Win32,59.95203837,5eeb0671d85b5123bafe06b6,6598e6a5d84f07970b831e70,6598e71268c318d68a1f775c,0.105,0.105,0,161,161,50,1,twoone,,,,,,,,,,,,,,,,,,,,,,,,,,,,,,,,,,,,,,,,,,,,,,,,,,,,,,,,,,,,,,,,,,,,,,,,,,,,,,,,,,,,,,,,,,,,,,,,,,,,,,,,,,,,,,,,,,,,,,,,,,,,,,,,,,,,,,,
,,5eeb0671d85b5123bafe06b6,2024-01-06_05h39.00.605,kallum_motion_pilot,2023.2.3,Win32,59.95203837,5eeb0671d85b5123bafe06b6,6598e6a5d84f07970b831e70,6598e71268c318d68a1f775c,0.105,0.105,1,0,162,151,1,eightseven,,,,,,,,,,,,,,,,,,,,,,,,,,,,,,,,,,,,,,,,,,,,,,,,,,,,,,,,,,,,,,,,,,,,,,,,,,,,,,,,,,,,,,,,,,,,,,,,,,,,,,,,,,,,,,,,,,,,,,,,,,,,,,,,,,,,,,,
,,5eeb0671d85b5123bafe06b6,2024-01-06_05h39.00.605,kallum_motion_pilot,2023.2.3,Win32,59.95203837,5eeb0671d85b5123bafe06b6,6598e6a5d84f07970b831e70,6598e71268c318d68a1f775c,0.105,0.105,1,1,163,50,1,twoone,,,,,,,,,,,,,,,,,,,,,,,,,,,,,,,,,,,,,,,,,,,,,,,,,,,,,,,,,,,,,,,,,,,,,,,,,,,,,,,,,,,,,,,,,,,,,,,,,,,,,,,,,,,,,,,,,,,,,,,,,,,,,,,,,,,,,,,
,,5eeb0671d85b5123bafe06b6,2024-01-06_05h39.00.605,kallum_motion_pilot,2023.2.3,Win32,59.95203837,5eeb0671d85b5123bafe06b6,6598e6a5d84f07970b831e70,6598e71268c318d68a1f775c,0.106,0.106,1,2,164,139,1,sixeight,,,,,,,,,,,,,,,,,,,,,,,,,,,,,,,,,,,,,,,,,,,,,,,,,,,,,,,,,,,,,,,,,,,,,,,,,,,,,,,,,,,,,,,,,,,,,,,,,,,,,,,,,,,,,,,,,,,,,,,,,,,,,,,,,,,,,,,
,,5eeb0671d85b5123bafe06b6,2024-01-06_05h39.00.605,kallum_motion_pilot,2023.2.3,Win32,59.95203837,5eeb0671d85b5123bafe06b6,6598e6a5d84f07970b831e70,6598e71268c318d68a1f775c,0.106,0.106,1,3,165,17,1,onethree,,,,,,,,,,,,,,,,,,,,,,,,,,,,,,,,,,,,,,,,,,,,,,,,,,,,,,,,,,,,,,,,,,,,,,,,,,,,,,,,,,,,,,,,,,,,,,,,,,,,,,,,,,,,,,,,,,,,,,,,,,,,,,,,,,,,,,,
,,5eeb0671d85b5123bafe06b6,2024-01-06_05h39.00.605,kallum_motion_pilot,2023.2.3,Win32,59.95203837,5eeb0671d85b5123bafe06b6,6598e6a5d84f07970b831e70,6598e71268c318d68a1f775c,0.106,0.106,1,4,166,6,1,fourtwo,,,,,,,,,,,,,,,,,,,,,,,,,,,,,,,,,,,,,,,,,,,,,,,,,,,,,,,,,,,,,,,,,,,,,,,,,,,,,,,,,,,,,,,,,,,,,,,,,,,,,,,,,,,,,,,,,,,,,,,,,,,,,,,,,,,,,,,
,,5eeb0671d85b5123bafe06b6,2024-01-06_05h39.00.605,kallum_motion_pilot,2023.2.3,Win32,59.95203837,5eeb0671d85b5123bafe06b6,6598e6a5d84f07970b831e70,6598e71268c318d68a1f775c,0.106,0.106,1,5,167,26,1,twoone,,,,,,,,,,,,,,,,,,,,,,,,,,,,,,,,,,,,,,,,,,,,,,,,,,,,,,,,,,,,,,,,,,,,,,,,,,,,,,,,,,,,,,,,,,,,,,,,,,,,,,,,,,,,,,,,,,,,,,,,,,,,,,,,,,,,,,,
,,5eeb0671d85b5123bafe06b6,2024-01-06_05h39.00.605,kallum_motion_pilot,2023.2.3,Win32,59.95203837,5eeb0671d85b5123bafe06b6,6598e6a5d84f07970b831e70,6598e71268c318d68a1f775c,0.106,0.106,1,6,168,69,1,threefour,,,,,,,,,,,,,,,,,,,,,,,,,,,,,,,,,,,,,,,,,,,,,,,,,,,,,,,,,,,,,,,,,,,,,,,,,,,,,,,,,,,,,,,,,,,,,,,,,,,,,,,,,,,,,,,,,,,,,,,,,,,,,,,,,,,,,,,
,,5eeb0671d85b5123bafe06b6,2024-01-06_05h39.00.605,kallum_motion_pilot,2023.2.3,Win32,59.95203837,5eeb0671d85b5123bafe06b6,6598e6a5d84f07970b831e70,6598e71268c318d68a1f775c,0.106,0.106,1,7,169,111,1,eightseven,,,,,,,,,,,,,,,,,,,,,,,,,,,,,,,,,,,,,,,,,,,,,,,,,,,,,,,,,,,,,,,,,,,,,,,,,,,,,,,,,,,,,,,,,,,,,,,,,,,,,,,,,,,,,,,,,,,,,,,,,,,,,,,,,,,,,,,
,,5eeb0671d85b5123bafe06b6,2024-01-06_05h39.00.605,kallum_motion_pilot,2023.2.3,Win32,59.95203837,5eeb0671d85b5123bafe06b6,6598e6a5d84f07970b831e70,6598e71268c318d68a1f775c,0.106,0.106,1,8,170,90,1,sixfive,,,,,,,,,,,,,,,,,,,,,,,,,,,,,,,,,,,,,,,,,,,,,,,,,,,,,,,,,,,,,,,,,,,,,,,,,,,,,,,,,,,,,,,,,,,,,,,,,,,,,,,,,,,,,,,,,,,,,,,,,,,,,,,,,,,,,,,
,,5eeb0671d85b5123bafe06b6,2024-01-06_05h39.00.605,kallum_motion_pilot,2023.2.3,Win32,59.95203837,5eeb0671d85b5123bafe06b6,6598e6a5d84f07970b831e70,6598e71268c318d68a1f775c,0.107,0.107,1,9,171,128,1,fivesix,,,,,,,,,,,,,,,,,,,,,,,,,,,,,,,,,,,,,,,,,,,,,,,,,,,,,,,,,,,,,,,,,,,,,,,,,,,,,,,,,,,,,,,,,,,,,,,,,,,,,,,,,,,,,,,,,,,,,,,,,,,,,,,,,,,,,,,
,,5eeb0671d85b5123bafe06b6,2024-01-06_05h39.00.605,kallum_motion_pilot,2023.2.3,Win32,59.95203837,5eeb0671d85b5123bafe06b6,6598e6a5d84f07970b831e70,6598e71268c318d68a1f775c,0.107,0.107,1,10,172,13,1,threefour,,,,,,,,,,,,,,,,,,,,,,,,,,,,,,,,,,,,,,,,,,,,,,,,,,,,,,,,,,,,,,,,,,,,,,,,,,,,,,,,,,,,,,,,,,,,,,,,,,,,,,,,,,,,,,,,,,,,,,,,,,,,,,,,,,,,,,,
,,5eeb0671d85b5123bafe06b6,2024-01-06_05h39.00.605,kallum_motion_pilot,2023.2.3,Win32,59.95203837,5eeb0671d85b5123bafe06b6,6598e6a5d84f07970b831e70,6598e71268c318d68a1f775c,0.107,0.107,1,11,173,21,1,threefour,,,,,,,,,,,,,,,,,,,,,,,,,,,,,,,,,,,,,,,,,,,,,,,,,,,,,,,,,,,,,,,,,,,,,,,,,,,,,,,,,,,,,,,,,,,,,,,,,,,,,,,,,,,,,,,,,,,,,,,,,,,,,,,,,,,,,,,
,,5eeb0671d85b5123bafe06b6,2024-01-06_05h39.00.605,kallum_motion_pilot,2023.2.3,Win32,59.95203837,5eeb0671d85b5123bafe06b6,6598e6a5d84f07970b831e70,6598e71268c318d68a1f775c,0.107,0.107,1,12,174,96,1,fivesix,,,,,,,,,,,,,,,,,,,,,,,,,,,,,,,,,,,,,,,,,,,,,,,,,,,,,,,,,,,,,,,,,,,,,,,,,,,,,,,,,,,,,,,,,,,,,,,,,,,,,,,,,,,,,,,,,,,,,,,,,,,,,,,,,,,,,,,
,,5eeb0671d85b5123bafe06b6,2024-01-06_05h39.00.605,kallum_motion_pilot,2023.2.3,Win32,59.95203837,5eeb0671d85b5123bafe06b6,6598e6a5d84f07970b831e70,6598e71268c318d68a1f775c,0.107,0.107,1,13,175,68,1,threeone,,,,,,,,,,,,,,,,,,,,,,,,,,,,,,,,,,,,,,,,,,,,,,,,,,,,,,,,,,,,,,,,,,,,,,,,,,,,,,,,,,,,,,,,,,,,,,,,,,,,,,,,,,,,,,,,,,,,,,,,,,,,,,,,,,,,,,,
,,5eeb0671d85b5123bafe06b6,2024-01-06_05h39.00.605,kallum_motion_pilot,2023.2.3,Win32,59.95203837,5eeb0671d85b5123bafe06b6,6598e6a5d84f07970b831e70,6598e71268c318d68a1f775c,0.107,0.107,1,14,176,33,1,onethree,,,,,,,,,,,,,,,,,,,,,,,,,,,,,,,,,,,,,,,,,,,,,,,,,,,,,,,,,,,,,,,,,,,,,,,,,,,,,,,,,,,,,,,,,,,,,,,,,,,,,,,,,,,,,,,,,,,,,,,,,,,,,,,,,,,,,,,
,,5eeb0671d85b5123bafe06b6,2024-01-06_05h39.00.605,kallum_motion_pilot,2023.2.3,Win32,59.95203837,5eeb0671d85b5123bafe06b6,6598e6a5d84f07970b831e70,6598e71268c318d68a1f775c,0.108,0.108,1,15,177,87,1,eightseven,,,,,,,,,,,,,,,,,,,,,,,,,,,,,,,,,,,,,,,,,,,,,,,,,,,,,,,,,,,,,,,,,,,,,,,,,,,,,,,,,,,,,,,,,,,,,,,,,,,,,,,,,,,,,,,,,,,,,,,,,,,,,,,,,,,,,,,
,,5eeb0671d85b5123bafe06b6,2024-01-06_05h39.00.605,kallum_motion_pilot,2023.2.3,Win32,59.95203837,5eeb0671d85b5123bafe06b6,6598e6a5d84f07970b831e70,6598e71268c318d68a1f775c,0.108,0.108,1,16,178,95,1,eightseven,,,,,,,,,,,,,,,,,,,,,,,,,,,,,,,,,,,,,,,,,,,,,,,,,,,,,,,,,,,,,,,,,,,,,,,,,,,,,,,,,,,,,,,,,,,,,,,,,,,,,,,,,,,,,,,,,,,,,,,,,,,,,,,,,,,,,,,
,,5eeb0671d85b5123bafe06b6,2024-01-06_05h39.00.605,kallum_motion_pilot,2023.2.3,Win32,59.95203837,5eeb0671d85b5123bafe06b6,6598e6a5d84f07970b831e70,6598e71268c318d68a1f775c,0.108,0.108,1,17,179,147,1,sixeight,,,,,,,,,,,,,,,,,,,,,,,,,,,,,,,,,,,,,,,,,,,,,,,,,,,,,,,,,,,,,,,,,,,,,,,,,,,,,,,,,,,,,,,,,,,,,,,,,,,,,,,,,,,,,,,,,,,,,,,,,,,,,,,,,,,,,,,
,,5eeb0671d85b5123bafe06b6,2024-01-06_05h39.00.605,kallum_motion_pilot,2023.2.3,Win32,59.95203837,5eeb0671d85b5123bafe06b6,6598e6a5d84f07970b831e70,6598e71268c318d68a1f775c,0.108,0.108,1,18,180,1,1,onethree,,,,,,,,,,,,,,,,,,,,,,,,,,,,,,,,,,,,,,,,,,,,,,,,,,,,,,,,,,,,,,,,,,,,,,,,,,,,,,,,,,,,,,,,,,,,,,,,,,,,,,,,,,,,,,,,,,,,,,,,,,,,,,,,,,,,,,,
,,5eeb0671d85b5123bafe06b6,2024-01-06_05h39.00.605,kallum_motion_pilot,2023.2.3,Win32,59.95203837,5eeb0671d85b5123bafe06b6,6598e6a5d84f07970b831e70,6598e71268c318d68a1f775c,0.108,0.108,1,19,181,129,1,fiveseven,,,,,,,,,,,,,,,,,,,,,,,,,,,,,,,,,,,,,,,,,,,,,,,,,,,,,,,,,,,,,,,,,,,,,,,,,,,,,,,,,,,,,,,,,,,,,,,,,,,,,,,,,,,,,,,,,,,,,,,,,,,,,,,,,,,,,,,
,,5eeb0671d85b5123bafe06b6,2024-01-06_05h39.00.605,kallum_motion_pilot,2023.2.3,Win32,59.95203837,5eeb0671d85b5123bafe06b6,6598e6a5d84f07970b831e70,6598e71268c318d68a1f775c,0.108,0.108,1,20,182,52,1,threeone,,,,,,,,,,,,,,,,,,,,,,,,,,,,,,,,,,,,,,,,,,,,,,,,,,,,,,,,,,,,,,,,,,,,,,,,,,,,,,,,,,,,,,,,,,,,,,,,,,,,,,,,,,,,,,,,,,,,,,,,,,,,,,,,,,,,,,,
,,5eeb0671d85b5123bafe06b6,2024-01-06_05h39.00.605,kallum_motion_pilot,2023.2.3,Win32,59.95203837,5eeb0671d85b5123bafe06b6,6598e6a5d84f07970b831e70,6598e71268c318d68a1f775c,0.108,0.108,1,21,183,116,1,sevenfive,,,,,,,,,,,,,,,,,,,,,,,,,,,,,,,,,,,,,,,,,,,,,,,,,,,,,,,,,,,,,,,,,,,,,,,,,,,,,,,,,,,,,,,,,,,,,,,,,,,,,,,,,,,,,,,,,,,,,,,,,,,,,,,,,,,,,,,
,,5eeb0671d85b5123bafe06b6,2024-01-06_05h39.00.605,kallum_motion_pilot,2023.2.3,Win32,59.95203837,5eeb0671d85b5123bafe06b6,6598e6a5d84f07970b831e70,6598e71268c318d68a1f775c,0.108,0.109,1,22,184,135,1,eightseven,,,,,,,,,,,,,,,,,,,,,,,,,,,,,,,,,,,,,,,,,,,,,,,,,,,,,,,,,,,,,,,,,,,,,,,,,,,,,,,,,,,,,,,,,,,,,,,,,,,,,,,,,,,,,,,,,,,,,,,,,,,,,,,,,,,,,,,
,,5eeb0671d85b5123bafe06b6,2024-01-06_05h39.00.605,kallum_motion_pilot,2023.2.3,Win32,59.95203837,5eeb0671d85b5123bafe06b6,6598e6a5d84f07970b831e70,6598e71268c318d68a1f775c,0.109,0.109,1,23,185,148,1,sevenfive,,,,,,,,,,,,,,,,,,,,,,,,,,,,,,,,,,,,,,,,,,,,,,,,,,,,,,,,,,,,,,,,,,,,,,,,,,,,,,,,,,,,,,,,,,,,,,,,,,,,,,,,,,,,,,,,,,,,,,,,,,,,,,,,,,,,,,,
,,5eeb0671d85b5123bafe06b6,2024-01-06_05h39.00.605,kallum_motion_pilot,2023.2.3,Win32,59.95203837,5eeb0671d85b5123bafe06b6,6598e6a5d84f07970b831e70,6598e71268c318d68a1f775c,0.109,0.109,1,24,186,152,1,fivesix,,,,,,,,,,,,,,,,,,,,,,,,,,,,,,,,,,,,,,,,,,,,,,,,,,,,,,,,,,,,,,,,,,,,,,,,,,,,,,,,,,,,,,,,,,,,,,,,,,,,,,,,,,,,,,,,,,,,,,,,,,,,,,,,,,,,,,,
,,5eeb0671d85b5123bafe06b6,2024-01-06_05h39.00.605,kallum_motion_pilot,2023.2.3,Win32,59.95203837,5eeb0671d85b5123bafe06b6,6598e6a5d84f07970b831e70,6598e71268c318d68a1f775c,0.109,0.109,1,25,187,117,1,seveneight,,,,,,,,,,,,,,,,,,,,,,,,,,,,,,,,,,,,,,,,,,,,,,,,,,,,,,,,,,,,,,,,,,,,,,,,,,,,,,,,,,,,,,,,,,,,,,,,,,,,,,,,,,,,,,,,,,,,,,,,,,,,,,,,,,,,,,,
,,5eeb0671d85b5123bafe06b6,2024-01-06_05h39.00.605,kallum_motion_pilot,2023.2.3,Win32,59.95203837,5eeb0671d85b5123bafe06b6,6598e6a5d84f07970b831e70,6598e71268c318d68a1f775c,0.109,0.109,1,26,188,37,1,threefour,,,,,,,,,,,,,,,,,,,,,,,,,,,,,,,,,,,,,,,,,,,,,,,,,,,,,,,,,,,,,,,,,,,,,,,,,,,,,,,,,,,,,,,,,,,,,,,,,,,,,,,,,,,,,,,,,,,,,,,,,,,,,,,,,,,,,,,
,,5eeb0671d85b5123bafe06b6,2024-01-06_05h39.00.605,kallum_motion_pilot,2023.2.3,Win32,59.95203837,5eeb0671d85b5123bafe06b6,6598e6a5d84f07970b831e70,6598e71268c318d68a1f775c,0.109,0.109,1,27,189,159,1,eightseven,,,,,,,,,,,,,,,,,,,,,,,,,,,,,,,,,,,,,,,,,,,,,,,,,,,,,,,,,,,,,,,,,,,,,,,,,,,,,,,,,,,,,,,,,,,,,,,,,,,,,,,,,,,,,,,,,,,,,,,,,,,,,,,,,,,,,,,
,,5eeb0671d85b5123bafe06b6,2024-01-06_05h39.00.605,kallum_motion_pilot,2023.2.3,Win32,59.95203837,5eeb0671d85b5123bafe06b6,6598e6a5d84f07970b831e70,6598e71268c318d68a1f775c,0.109,0.109,1,28,190,102,1,eightsix,,,,,,,,,,,,,,,,,,,,,,,,,,,,,,,,,,,,,,,,,,,,,,,,,,,,,,,,,,,,,,,,,,,,,,,,,,,,,,,,,,,,,,,,,,,,,,,,,,,,,,,,,,,,,,,,,,,,,,,,,,,,,,,,,,,,,,,
,,5eeb0671d85b5123bafe06b6,2024-01-06_05h39.00.605,kallum_motion_pilot,2023.2.3,Win32,59.95203837,5eeb0671d85b5123bafe06b6,6598e6a5d84f07970b831e70,6598e71268c318d68a1f775c,0.109,0.109,1,29,191,150,1,eightsix,,,,,,,,,,,,,,,,,,,,,,,,,,,,,,,,,,,,,,,,,,,,,,,,,,,,,,,,,,,,,,,,,,,,,,,,,,,,,,,,,,,,,,,,,,,,,,,,,,,,,,,,,,,,,,,,,,,,,,,,,,,,,,,,,,,,,,,
,,5eeb0671d85b5123bafe06b6,2024-01-06_05h39.00.605,kallum_motion_pilot,2023.2.3,Win32,59.95203837,5eeb0671d85b5123bafe06b6,6598e6a5d84f07970b831e70,6598e71268c318d68a1f775c,0.109,0.11,1,30,192,18,1,twoone,,,,,,,,,,,,,,,,,,,,,,,,,,,,,,,,,,,,,,,,,,,,,,,,,,,,,,,,,,,,,,,,,,,,,,,,,,,,,,,,,,,,,,,,,,,,,,,,,,,,,,,,,,,,,,,,,,,,,,,,,,,,,,,,,,,,,,,
,,5eeb0671d85b5123bafe06b6,2024-01-06_05h39.00.605,kallum_motion_pilot,2023.2.3,Win32,59.95203837,5eeb0671d85b5123bafe06b6,6598e6a5d84f07970b831e70,6598e71268c318d68a1f775c,0.11,0.11,1,31,193,114,1,sixfive,,,,,,,,,,,,,,,,,,,,,,,,,,,,,,,,,,,,,,,,,,,,,,,,,,,,,,,,,,,,,,,,,,,,,,,,,,,,,,,,,,,,,,,,,,,,,,,,,,,,,,,,,,,,,,,,,,,,,,,,,,,,,,,,,,,,,,,
,,5eeb0671d85b5123bafe06b6,2024-01-06_05h39.00.605,kallum_motion_pilot,2023.2.3,Win32,59.95203837,5eeb0671d85b5123bafe06b6,6598e6a5d84f07970b831e70,6598e71268c318d68a1f775c,0.11,0.11,1,32,194,74,1,twoone,,,,,,,,,,,,,,,,,,,,,,,,,,,,,,,,,,,,,,,,,,,,,,,,,,,,,,,,,,,,,,,,,,,,,,,,,,,,,,,,,,,,,,,,,,,,,,,,,,,,,,,,,,,,,,,,,,,,,,,,,,,,,,,,,,,,,,,
,,5eeb0671d85b5123bafe06b6,2024-01-06_05h39.00.605,kallum_motion_pilot,2023.2.3,Win32,59.95203837,5eeb0671d85b5123bafe06b6,6598e6a5d84f07970b831e70,6598e71268c318d68a1f775c,0.11,0.11,1,33,195,110,1,eightsix,,,,,,,,,,,,,,,,,,,,,,,,,,,,,,,,,,,,,,,,,,,,,,,,,,,,,,,,,,,,,,,,,,,,,,,,,,,,,,,,,,,,,,,,,,,,,,,,,,,,,,,,,,,,,,,,,,,,,,,,,,,,,,,,,,,,,,,
,,5eeb0671d85b5123bafe06b6,2024-01-06_05h39.00.605,kallum_motion_pilot,2023.2.3,Win32,59.95203837,5eeb0671d85b5123bafe06b6,6598e6a5d84f07970b831e70,6598e71268c318d68a1f775c,0.11,0.11,1,34,196,119,1,eightseven,,,,,,,,,,,,,,,,,,,,,,,,,,,,,,,,,,,,,,,,,,,,,,,,,,,,,,,,,,,,,,,,,,,,,,,,,,,,,,,,,,,,,,,,,,,,,,,,,,,,,,,,,,,,,,,,,,,,,,,,,,,,,,,,,,,,,,,
,,5eeb0671d85b5123bafe06b6,2024-01-06_05h39.00.605,kallum_motion_pilot,2023.2.3,Win32,59.95203837,5eeb0671d85b5123bafe06b6,6598e6a5d84f07970b831e70,6598e71268c318d68a1f775c,0.113,0.113,1,35,197,123,1,sixeight,,,,,,,,,,,,,,,,,,,,,,,,,,,,,,,,,,,,,,,,,,,,,,,,,,,,,,,,,,,,,,,,,,,,,,,,,,,,,,,,,,,,,,,,,,,,,,,,,,,,,,,,,,,,,,,,,,,,,,,,,,,,,,,,,,,,,,,
,,5eeb0671d85b5123bafe06b6,2024-01-06_05h39.00.605,kallum_motion_pilot,2023.2.3,Win32,59.95203837,5eeb0671d85b5123bafe06b6,6598e6a5d84f07970b831e70,6598e71268c318d68a1f775c,0.113,0.113,1,36,198,23,1,fourthree,,,,,,,,,,,,,,,,,,,,,,,,,,,,,,,,,,,,,,,,,,,,,,,,,,,,,,,,,,,,,,,,,,,,,,,,,,,,,,,,,,,,,,,,,,,,,,,,,,,,,,,,,,,,,,,,,,,,,,,,,,,,,,,,,,,,,,,
,,5eeb0671d85b5123bafe06b6,2024-01-06_05h39.00.605,kallum_motion_pilot,2023.2.3,Win32,59.95203837,5eeb0671d85b5123bafe06b6,6598e6a5d84f07970b831e70,6598e71268c318d68a1f775c,0.113,0.113,1,37,199,47,1,fourthree,,,,,,,,,,,,,,,,,,,,,,,,,,,,,,,,,,,,,,,,,,,,,,,,,,,,,,,,,,,,,,,,,,,,,,,,,,,,,,,,,,,,,,,,,,,,,,,,,,,,,,,,,,,,,,,,,,,,,,,,,,,,,,,,,,,,,,,
,,5eeb0671d85b5123bafe06b6,2024-01-06_05h39.00.605,kallum_motion_pilot,2023.2.3,Win32,59.95203837,5eeb0671d85b5123bafe06b6,6598e6a5d84f07970b831e70,6598e71268c318d68a1f775c,0.113,0.113,1,38,200,160,1,fivesix,,,,,,,,,,,,,,,,,,,,,,,,,,,,,,,,,,,,,,,,,,,,,,,,,,,,,,,,,,,,,,,,,,,,,,,,,,,,,,,,,,,,,,,,,,,,,,,,,,,,,,,,,,,,,,,,,,,,,,,,,,,,,,,,,,,,,,,
,,5eeb0671d85b5123bafe06b6,2024-01-06_05h39.00.605,kallum_motion_pilot,2023.2.3,Win32,59.95203837,5eeb0671d85b5123bafe06b6,6598e6a5d84f07970b831e70,6598e71268c318d68a1f775c,0.113,0.113,1,39,201,9,1,onethree,,,,,,,,,,,,,,,,,,,,,,,,,,,,,,,,,,,,,,,,,,,,,,,,,,,,,,,,,,,,,,,,,,,,,,,,,,,,,,,,,,,,,,,,,,,,,,,,,,,,,,,,,,,,,,,,,,,,,,,,,,,,,,,,,,,,,,,
,,5eeb0671d85b5123bafe06b6,2024-01-06_05h39.00.605,kallum_motion_pilot,2023.2.3,Win32,59.95203837,5eeb0671d85b5123bafe06b6,6598e6a5d84f07970b831e70,6598e71268c318d68a1f775c,0.114,0.114,1,40,202,31,1,fourthree,,,,,,,,,,,,,,,,,,,,,,,,,,,,,,,,,,,,,,,,,,,,,,,,,,,,,,,,,,,,,,,,,,,,,,,,,,,,,,,,,,,,,,,,,,,,,,,,,,,,,,,,,,,,,,,,,,,,,,,,,,,,,,,,,,,,,,,
,,5eeb0671d85b5123bafe06b6,2024-01-06_05h39.00.605,kallum_motion_pilot,2023.2.3,Win32,59.95203837,5eeb0671d85b5123bafe06b6,6598e6a5d84f07970b831e70,6598e71268c318d68a1f775c,0.114,0.114,1,41,203,84,1,sevenfive,,,,,,,,,,,,,,,,,,,,,,,,,,,,,,,,,,,,,,,,,,,,,,,,,,,,,,,,,,,,,,,,,,,,,,,,,,,,,,,,,,,,,,,,,,,,,,,,,,,,,,,,,,,,,,,,,,,,,,,,,,,,,,,,,,,,,,,
,,5eeb0671d85b5123bafe06b6,2024-01-06_05h39.00.605,kallum_motion_pilot,2023.2.3,Win32,59.95203837,5eeb0671d85b5123bafe06b6,6598e6a5d84f07970b831e70,6598e71268c318d68a1f775c,0.114,0.114,1,42,204,104,1,fivesix,,,,,,,,,,,,,,,,,,,,,,,,,,,,,,,,,,,,,,,,,,,,,,,,,,,,,,,,,,,,,,,,,,,,,,,,,,,,,,,,,,,,,,,,,,,,,,,,,,,,,,,,,,,,,,,,,,,,,,,,,,,,,,,,,,,,,,,
,,5eeb0671d85b5123bafe06b6,2024-01-06_05h39.00.605,kallum_motion_pilot,2023.2.3,Win32,59.95203837,5eeb0671d85b5123bafe06b6,6598e6a5d84f07970b831e70,6598e71268c318d68a1f775c,0.114,0.114,1,43,205,55,1,fourthree,,,,,,,,,,,,,,,,,,,,,,,,,,,,,,,,,,,,,,,,,,,,,,,,,,,,,,,,,,,,,,,,,,,,,,,,,,,,,,,,,,,,,,,,,,,,,,,,,,,,,,,,,,,,,,,,,,,,,,,,,,,,,,,,,,,,,,,
,,5eeb0671d85b5123bafe06b6,2024-01-06_05h39.00.605,kallum_motion_pilot,2023.2.3,Win32,59.95203837,5eeb0671d85b5123bafe06b6,6598e6a5d84f07970b831e70,6598e71268c318d68a1f775c,0.115,0.115,1,44,206,29,1,threefour,,,,,,,,,,,,,,,,,,,,,,,,,,,,,,,,,,,,,,,,,,,,,,,,,,,,,,,,,,,,,,,,,,,,,,,,,,,,,,,,,,,,,,,,,,,,,,,,,,,,,,,,,,,,,,,,,,,,,,,,,,,,,,,,,,,,,,,
,,5eeb0671d85b5123bafe06b6,2024-01-06_05h39.00.605,kallum_motion_pilot,2023.2.3,Win32,59.95203837,5eeb0671d85b5123bafe06b6,6598e6a5d84f07970b831e70,6598e71268c318d68a1f775c,0.115,0.115,1,45,207,27,1,twofour,,,,,,,,,,,,,,,,,,,,,,,,,,,,,,,,,,,,,,,,,,,,,,,,,,,,,,,,,,,,,,,,,,,,,,,,,,,,,,,,,,,,,,,,,,,,,,,,,,,,,,,,,,,,,,,,,,,,,,,,,,,,,,,,,,,,,,,
,,5eeb0671d85b5123bafe06b6,2024-01-06_05h39.00.605,kallum_motion_pilot,2023.2.3,Win32,59.95203837,5eeb0671d85b5123bafe06b6,6598e6a5d84f07970b831e70,6598e71268c318d68a1f775c,0.115,0.115,1,46,208,92,1,sevenfive,,,,,,,,,,,,,,,,,,,,,,,,,,,,,,,,,,,,,,,,,,,,,,,,,,,,,,,,,,,,,,,,,,,,,,,,,,,,,,,,,,,,,,,,,,,,,,,,,,,,,,,,,,,,,,,,,,,,,,,,,,,,,,,,,,,,,,,
,,5eeb0671d85b5123bafe06b6,2024-01-06_05h39.00.605,kallum_motion_pilot,2023.2.3,Win32,59.95203837,5eeb0671d85b5123bafe06b6,6598e6a5d84f07970b831e70,6598e71268c318d68a1f775c,0.116,0.116,1,47,209,80,1,fivesix,,,,,,,,,,,,,,,,,,,,,,,,,,,,,,,,,,,,,,,,,,,,,,,,,,,,,,,,,,,,,,,,,,,,,,,,,,,,,,,,,,,,,,,,,,,,,,,,,,,,,,,,,,,,,,,,,,,,,,,,,,,,,,,,,,,,,,,
,,5eeb0671d85b5123bafe06b6,2024-01-06_05h39.00.605,kallum_motion_pilot,2023.2.3,Win32,59.95203837,5eeb0671d85b5123bafe06b6,6598e6a5d84f07970b831e70,6598e71268c318d68a1f775c,0.116,0.116,1,48,210,143,1,eightseven,,,,,,,,,,,,,,,,,,,,,,,,,,,,,,,,,,,,,,,,,,,,,,,,,,,,,,,,,,,,,,,,,,,,,,,,,,,,,,,,,,,,,,,,,,,,,,,,,,,,,,,,,,,,,,,,,,,,,,,,,,,,,,,,,,,,,,,
,,5eeb0671d85b5123bafe06b6,2024-01-06_05h39.00.605,kallum_motion_pilot,2023.2.3,Win32,59.95203837,5eeb0671d85b5123bafe06b6,6598e6a5d84f07970b831e70,6598e71268c318d68a1f775c,0.116,0.116,1,49,211,113,1,fiveseven,,,,,,,,,,,,,,,,,,,,,,,,,,,,,,,,,,,,,,,,,,,,,,,,,,,,,,,,,,,,,,,,,,,,,,,,,,,,,,,,,,,,,,,,,,,,,,,,,,,,,,,,,,,,,,,,,,,,,,,,,,,,,,,,,,,,,,,
,,5eeb0671d85b5123bafe06b6,2024-01-06_05h39.00.605,kallum_motion_pilot,2023.2.3,Win32,59.95203837,5eeb0671d85b5123bafe06b6,6598e6a5d84f07970b831e70,6598e71268c318d68a1f775c,0.117,0.117,1,50,212,0,1,onetwo,,,,,,,,,,,,,,,,,,,,,,,,,,,,,,,,,,,,,,,,,,,,,,,,,,,,,,,,,,,,,,,,,,,,,,,,,,,,,,,,,,,,,,,,,,,,,,,,,,,,,,,,,,,,,,,,,,,,,,,,,,,,,,,,,,,,,,,
,,5eeb0671d85b5123bafe06b6,2024-01-06_05h39.00.605,kallum_motion_pilot,2023.2.3,Win32,59.95203837,5eeb0671d85b5123bafe06b6,6598e6a5d84f07970b831e70,6598e71268c318d68a1f775c,0.117,0.117,1,51,213,132,1,sevenfive,,,,,,,,,,,,,,,,,,,,,,,,,,,,,,,,,,,,,,,,,,,,,,,,,,,,,,,,,,,,,,,,,,,,,,,,,,,,,,,,,,,,,,,,,,,,,,,,,,,,,,,,,,,,,,,,,,,,,,,,,,,,,,,,,,,,,,,
,,5eeb0671d85b5123bafe06b6,2024-01-06_05h39.00.605,kallum_motion_pilot,2023.2.3,Win32,59.95203837,5eeb0671d85b5123bafe06b6,6598e6a5d84f07970b831e70,6598e71268c318d68a1f775c,0.117,0.117,1,52,214,42,1,twoone,,,,,,,,,,,,,,,,,,,,,,,,,,,,,,,,,,,,,,,,,,,,,,,,,,,,,,,,,,,,,,,,,,,,,,,,,,,,,,,,,,,,,,,,,,,,,,,,,,,,,,,,,,,,,,,,,,,,,,,,,,,,,,,,,,,,,,,
,,5eeb0671d85b5123bafe06b6,2024-01-06_05h39.00.605,kallum_motion_pilot,2023.2.3,Win32,59.95203837,5eeb0671d85b5123bafe06b6,6598e6a5d84f07970b831e70,6598e71268c318d68a1f775c,0.117,0.117,1,53,215,70,1,fourtwo,,,,,,,,,,,,,,,,,,,,,,,,,,,,,,,,,,,,,,,,,,,,,,,,,,,,,,,,,,,,,,,,,,,,,,,,,,,,,,,,,,,,,,,,,,,,,,,,,,,,,,,,,,,,,,,,,,,,,,,,,,,,,,,,,,,,,,,
,,5eeb0671d85b5123bafe06b6,2024-01-06_05h39.00.605,kallum_motion_pilot,2023.2.3,Win32,59.95203837,5eeb0671d85b5123bafe06b6,6598e6a5d84f07970b831e70,6598e71268c318d68a1f775c,0.117,0.117,1,54,216,48,1,onetwo,,,,,,,,,,,,,,,,,,,,,,,,,,,,,,,,,,,,,,,,,,,,,,,,,,,,,,,,,,,,,,,,,,,,,,,,,,,,,,,,,,,,,,,,,,,,,,,,,,,,,,,,,,,,,,,,,,,,,,,,,,,,,,,,,,,,,,,
,,5eeb0671d85b5123bafe06b6,2024-01-06_05h39.00.605,kallum_motion_pilot,2023.2.3,Win32,59.95203837,5eeb0671d85b5123bafe06b6,6598e6a5d84f07970b831e70,6598e71268c318d68a1f775c,0.117,0.118,1,55,217,112,1,fivesix,,,,,,,,,,,,,,,,,,,,,,,,,,,,,,,,,,,,,,,,,,,,,,,,,,,,,,,,,,,,,,,,,,,,,,,,,,,,,,,,,,,,,,,,,,,,,,,,,,,,,,,,,,,,,,,,,,,,,,,,,,,,,,,,,,,,,,,
,,5eeb0671d85b5123bafe06b6,2024-01-06_05h39.00.605,kallum_motion_pilot,2023.2.3,Win32,59.95203837,5eeb0671d85b5123bafe06b6,6598e6a5d84f07970b831e70,6598e71268c318d68a1f775c,0.118,0.118,1,56,218,86,1,eightsix,,,,,,,,,,,,,,,,,,,,,,,,,,,,,,,,,,,,,,,,,,,,,,,,,,,,,,,,,,,,,,,,,,,,,,,,,,,,,,,,,,,,,,,,,,,,,,,,,,,,,,,,,,,,,,,,,,,,,,,,,,,,,,,,,,,,,,,
,,5eeb0671d85b5123bafe06b6,2024-01-06_05h39.00.605,kallum_motion_pilot,2023.2.3,Win32,59.95203837,5eeb0671d85b5123bafe06b6,6598e6a5d84f07970b831e70,6598e71268c318d68a1f775c,0.118,0.118,1,57,219,85,1,seveneight,,,,,,,,,,,,,,,,,,,,,,,,,,,,,,,,,,,,,,,,,,,,,,,,,,,,,,,,,,,,,,,,,,,,,,,,,,,,,,,,,,,,,,,,,,,,,,,,,,,,,,,,,,,,,,,,,,,,,,,,,,,,,,,,,,,,,,,
,,5eeb0671d85b5123bafe06b6,2024-01-06_05h39.00.605,kallum_motion_pilot,2023.2.3,Win32,59.95203837,5eeb0671d85b5123bafe06b6,6598e6a5d84f07970b831e70,6598e71268c318d68a1f775c,0.119,0.119,1,58,220,38,1,fourtwo,,,,,,,,,,,,,,,,,,,,,,,,,,,,,,,,,,,,,,,,,,,,,,,,,,,,,,,,,,,,,,,,,,,,,,,,,,,,,,,,,,,,,,,,,,,,,,,,,,,,,,,,,,,,,,,,,,,,,,,,,,,,,,,,,,,,,,,
,,5eeb0671d85b5123bafe06b6,2024-01-06_05h39.00.605,kallum_motion_pilot,2023.2.3,Win32,59.95203837,5eeb0671d85b5123bafe06b6,6598e6a5d84f07970b831e70,6598e71268c318d68a1f775c,0.119,0.119,1,59,221,16,1,onetwo,,,,,,,,,,,,,,,,,,,,,,,,,,,,,,,,,,,,,,,,,,,,,,,,,,,,,,,,,,,,,,,,,,,,,,,,,,,,,,,,,,,,,,,,,,,,,,,,,,,,,,,,,,,,,,,,,,,,,,,,,,,,,,,,,,,,,,,
,,5eeb0671d85b5123bafe06b6,2024-01-06_05h39.00.605,kallum_motion_pilot,2023.2.3,Win32,59.95203837,5eeb0671d85b5123bafe06b6,6598e6a5d84f07970b831e70,6598e71268c318d68a1f775c,0.119,0.119,1,60,222,63,1,fourthree,,,,,,,,,,,,,,,,,,,,,,,,,,,,,,,,,,,,,,,,,,,,,,,,,,,,,,,,,,,,,,,,,,,,,,,,,,,,,,,,,,,,,,,,,,,,,,,,,,,,,,,,,,,,,,,,,,,,,,,,,,,,,,,,,,,,,,,
,,5eeb0671d85b5123bafe06b6,2024-01-06_05h39.00.605,kallum_motion_pilot,2023.2.3,Win32,59.95203837,5eeb0671d85b5123bafe06b6,6598e6a5d84f07970b831e70,6598e71268c318d68a1f775c,0.119,0.119,1,61,223,71,1,fourthree,,,,,,,,,,,,,,,,,,,,,,,,,,,,,,,,,,,,,,,,,,,,,,,,,,,,,,,,,,,,,,,,,,,,,,,,,,,,,,,,,,,,,,,,,,,,,,,,,,,,,,,,,,,,,,,,,,,,,,,,,,,,,,,,,,,,,,,
,,5eeb0671d85b5123bafe06b6,2024-01-06_05h39.00.605,kallum_motion_pilot,2023.2.3,Win32,59.95203837,5eeb0671d85b5123bafe06b6,6598e6a5d84f07970b831e70,6598e71268c318d68a1f775c,0.119,0.119,1,62,224,88,1,fivesix,,,,,,,,,,,,,,,,,,,,,,,,,,,,,,,,,,,,,,,,,,,,,,,,,,,,,,,,,,,,,,,,,,,,,,,,,,,,,,,,,,,,,,,,,,,,,,,,,,,,,,,,,,,,,,,,,,,,,,,,,,,,,,,,,,,,,,,
,,5eeb0671d85b5123bafe06b6,2024-01-06_05h39.00.605,kallum_motion_pilot,2023.2.3,Win32,59.95203837,5eeb0671d85b5123bafe06b6,6598e6a5d84f07970b831e70,6598e71268c318d68a1f775c,0.119,0.119,1,63,225,61,1,threefour,,,,,,,,,,,,,,,,,,,,,,,,,,,,,,,,,,,,,,,,,,,,,,,,,,,,,,,,,,,,,,,,,,,,,,,,,,,,,,,,,,,,,,,,,,,,,,,,,,,,,,,,,,,,,,,,,,,,,,,,,,,,,,,,,,,,,,,
,,5eeb0671d85b5123bafe06b6,2024-01-06_05h39.00.605,kallum_motion_pilot,2023.2.3,Win32,59.95203837,5eeb0671d85b5123bafe06b6,6598e6a5d84f07970b831e70,6598e71268c318d68a1f775c,0.119,0.119,1,64,226,44,1,threeone,,,,,,,,,,,,,,,,,,,,,,,,,,,,,,,,,,,,,,,,,,,,,,,,,,,,,,,,,,,,,,,,,,,,,,,,,,,,,,,,,,,,,,,,,,,,,,,,,,,,,,,,,,,,,,,,,,,,,,,,,,,,,,,,,,,,,,,
,,5eeb0671d85b5123bafe06b6,2024-01-06_05h39.00.605,kallum_motion_pilot,2023.2.3,Win32,59.95203837,5eeb0671d85b5123bafe06b6,6598e6a5d84f07970b831e70,6598e71268c318d68a1f775c,0.12,0.12,1,65,227,25,1,onethree,,,,,,,,,,,,,,,,,,,,,,,,,,,,,,,,,,,,,,,,,,,,,,,,,,,,,,,,,,,,,,,,,,,,,,,,,,,,,,,,,,,,,,,,,,,,,,,,,,,,,,,,,,,,,,,,,,,,,,,,,,,,,,,,,,,,,,,
,,5eeb0671d85b5123bafe06b6,2024-01-06_05h39.00.605,kallum_motion_pilot,2023.2.3,Win32,59.95203837,5eeb0671d85b5123bafe06b6,6598e6a5d84f07970b831e70,6598e71268c318d68a1f775c,0.12,0.12,1,66,228,105,1,fiveseven,,,,,,,,,,,,,,,,,,,,,,,,,,,,,,,,,,,,,,,,,,,,,,,,,,,,,,,,,,,,,,,,,,,,,,,,,,,,,,,,,,,,,,,,,,,,,,,,,,,,,,,,,,,,,,,,,,,,,,,,,,,,,,,,,,,,,,,
,,5eeb0671d85b5123bafe06b6,2024-01-06_05h39.00.605,kallum_motion_pilot,2023.2.3,Win32,59.95203837,5eeb0671d85b5123bafe06b6,6598e6a5d84f07970b831e70,6598e71268c318d68a1f775c,0.12,0.12,1,67,229,81,1,fiveseven,,,,,,,,,,,,,,,,,,,,,,,,,,,,,,,,,,,,,,,,,,,,,,,,,,,,,,,,,,,,,,,,,,,,,,,,,,,,,,,,,,,,,,,,,,,,,,,,,,,,,,,,,,,,,,,,,,,,,,,,,,,,,,,,,,,,,,,
,,5eeb0671d85b5123bafe06b6,2024-01-06_05h39.00.605,kallum_motion_pilot,2023.2.3,Win32,59.95203837,5eeb0671d85b5123bafe06b6,6598e6a5d84f07970b831e70,6598e71268c318d68a1f775c,0.12,0.12,1,68,230,109,1,seveneight,,,,,,,,,,,,,,,,,,,,,,,,,,,,,,,,,,,,,,,,,,,,,,,,,,,,,,,,,,,,,,,,,,,,,,,,,,,,,,,,,,,,,,,,,,,,,,,,,,,,,,,,,,,,,,,,,,,,,,,,,,,,,,,,,,,,,,,
,,5eeb0671d85b5123bafe06b6,2024-01-06_05h39.00.605,kallum_motion_pilot,2023.2.3,Win32,59.95203837,5eeb0671d85b5123bafe06b6,6598e6a5d84f07970b831e70,6598e71268c318d68a1f775c,0.12,0.12,1,69,231,138,1,sixfive,,,,,,,,,,,,,,,,,,,,,,,,,,,,,,,,,,,,,,,,,,,,,,,,,,,,,,,,,,,,,,,,,,,,,,,,,,,,,,,,,,,,,,,,,,,,,,,,,,,,,,,,,,,,,,,,,,,,,,,,,,,,,,,,,,,,,,,
,,5eeb0671d85b5123bafe06b6,2024-01-06_05h39.00.605,kallum_motion_pilot,2023.2.3,Win32,59.95203837,5eeb0671d85b5123bafe06b6,6598e6a5d84f07970b831e70,6598e71268c318d68a1f775c,0.12,0.12,1,70,232,51,1,twofour,,,,,,,,,,,,,,,,,,,,,,,,,,,,,,,,,,,,,,,,,,,,,,,,,,,,,,,,,,,,,,,,,,,,,,,,,,,,,,,,,,,,,,,,,,,,,,,,,,,,,,,,,,,,,,,,,,,,,,,,,,,,,,,,,,,,,,,
,,5eeb0671d85b5123bafe06b6,2024-01-06_05h39.00.605,kallum_motion_pilot,2023.2.3,Win32,59.95203837,5eeb0671d85b5123bafe06b6,6598e6a5d84f07970b831e70,6598e71268c318d68a1f775c,0.12,0.12,1,71,233,99,1,sixeight,,,,,,,,,,,,,,,,,,,,,,,,,,,,,,,,,,,,,,,,,,,,,,,,,,,,,,,,,,,,,,,,,,,,,,,,,,,,,,,,,,,,,,,,,,,,,,,,,,,,,,,,,,,,,,,,,,,,,,,,,,,,,,,,,,,,,,,
,,5eeb0671d85b5123bafe06b6,2024-01-06_05h39.00.605,kallum_motion_pilot,2023.2.3,Win32,59.95203837,5eeb0671d85b5123bafe06b6,6598e6a5d84f07970b831e70,6598e71268c318d68a1f775c,0.12,0.12,1,72,234,120,1,fivesix,,,,,,,,,,,,,,,,,,,,,,,,,,,,,,,,,,,,,,,,,,,,,,,,,,,,,,,,,,,,,,,,,,,,,,,,,,,,,,,,,,,,,,,,,,,,,,,,,,,,,,,,,,,,,,,,,,,,,,,,,,,,,,,,,,,,,,,
,,5eeb0671d85b5123bafe06b6,2024-01-06_05h39.00.605,kallum_motion_pilot,2023.2.3,Win32,59.95203837,5eeb0671d85b5123bafe06b6,6598e6a5d84f07970b831e70,6598e71268c318d68a1f775c,0.121,0.121,1,73,235,146,1,sixfive,,,,,,,,,,,,,,,,,,,,,,,,,,,,,,,,,,,,,,,,,,,,,,,,,,,,,,,,,,,,,,,,,,,,,,,,,,,,,,,,,,,,,,,,,,,,,,,,,,,,,,,,,,,,,,,,,,,,,,,,,,,,,,,,,,,,,,,
,,5eeb0671d85b5123bafe06b6,2024-01-06_05h39.00.605,kallum_motion_pilot,2023.2.3,Win32,59.95203837,5eeb0671d85b5123bafe06b6,6598e6a5d84f07970b831e70,6598e71268c318d68a1f775c,0.121,0.121,1,74,236,122,1,sixfive,,,,,,,,,,,,,,,,,,,,,,,,,,,,,,,,,,,,,,,,,,,,,,,,,,,,,,,,,,,,,,,,,,,,,,,,,,,,,,,,,,,,,,,,,,,,,,,,,,,,,,,,,,,,,,,,,,,,,,,,,,,,,,,,,,,,,,,
,,5eeb0671d85b5123bafe06b6,2024-01-06_05h39.00.605,kallum_motion_pilot,2023.2.3,Win32,59.95203837,5eeb0671d85b5123bafe06b6,6598e6a5d84f07970b831e70,6598e71268c318d68a1f775c,0.121,0.121,1,75,237,130,1,sixfive,,,,,,,,,,,,,,,,,,,,,,,,,,,,,,,,,,,,,,,,,,,,,,,,,,,,,,,,,,,,,,,,,,,,,,,,,,,,,,,,,,,,,,,,,,,,,,,,,,,,,,,,,,,,,,,,,,,,,,,,,,,,,,,,,,,,,,,
,,5eeb0671d85b5123bafe06b6,2024-01-06_05h39.00.605,kallum_motion_pilot,2023.2.3,Win32,59.95203837,5eeb0671d85b5123bafe06b6,6598e6a5d84f07970b831e70,6598e71268c318d68a1f775c,0.122,0.122,1,76,238,156,1,sevenfive,,,,,,,,,,,,,,,,,,,,,,,,,,,,,,,,,,,,,,,,,,,,,,,,,,,,,,,,,,,,,,,,,,,,,,,,,,,,,,,,,,,,,,,,,,,,,,,,,,,,,,,,,,,,,,,,,,,,,,,,,,,,,,,,,,,,,,,
,,5eeb0671d85b5123bafe06b6,2024-01-06_05h39.00.605,kallum_motion_pilot,2023.2.3,Win32,59.95203837,5eeb0671d85b5123bafe06b6,6598e6a5d84f07970b831e70,6598e71268c318d68a1f775c,0.122,0.122,1,77,239,107,1,sixeight,,,,,,,,,,,,,,,,,,,,,,,,,,,,,,,,,,,,,,,,,,,,,,,,,,,,,,,,,,,,,,,,,,,,,,,,,,,,,,,,,,,,,,,,,,,,,,,,,,,,,,,,,,,,,,,,,,,,,,,,,,,,,,,,,,,,,,,
,,5eeb0671d85b5123bafe06b6,2024-01-06_05h39.00.605,kallum_motion_pilot,2023.2.3,Win32,59.95203837,5eeb0671d85b5123bafe06b6,6598e6a5d84f07970b831e70,6598e71268c318d68a1f775c,0.122,0.122,1,78,240,141,1,seveneight,,,,,,,,,,,,,,,,,,,,,,,,,,,,,,,,,,,,,,,,,,,,,,,,,,,,,,,,,,,,,,,,,,,,,,,,,,,,,,,,,,,,,,,,,,,,,,,,,,,,,,,,,,,,,,,,,,,,,,,,,,,,,,,,,,,,,,,
,,5eeb0671d85b5123bafe06b6,2024-01-06_05h39.00.605,kallum_motion_pilot,2023.2.3,Win32,59.95203837,5eeb0671d85b5123bafe06b6,6598e6a5d84f07970b831e70,6598e71268c318d68a1f775c,0.122,0.122,1,79,241,22,1,fourtwo,,,,,,,,,,,,,,,,,,,,,,,,,,,,,,,,,,,,,,,,,,,,,,,,,,,,,,,,,,,,,,,,,,,,,,,,,,,,,,,,,,,,,,,,,,,,,,,,,,,,,,,,,,,,,,,,,,,,,,,,,,,,,,,,,,,,,,,
,,5eeb0671d85b5123bafe06b6,2024-01-06_05h39.00.605,kallum_motion_pilot,2023.2.3,Win32,59.95203837,5eeb0671d85b5123bafe06b6,6598e6a5d84f07970b831e70,6598e71268c318d68a1f775c,0.123,0.123,1,80,242,10,1,twoone,,,,,,,,,,,,,,,,,,,,,,,,,,,,,,,,,,,,,,,,,,,,,,,,,,,,,,,,,,,,,,,,,,,,,,,,,,,,,,,,,,,,,,,,,,,,,,,,,,,,,,,,,,,,,,,,,,,,,,,,,,,,,,,,,,,,,,,
,,5eeb0671d85b5123bafe06b6,2024-01-06_05h39.00.605,kallum_motion_pilot,2023.2.3,Win32,59.95203837,5eeb0671d85b5123bafe06b6,6598e6a5d84f07970b831e70,6598e71268c318d68a1f775c,0.123,0.123,1,81,243,20,1,threeone,,,,,,,,,,,,,,,,,,,,,,,,,,,,,,,,,,,,,,,,,,,,,,,,,,,,,,,,,,,,,,,,,,,,,,,,,,,,,,,,,,,,,,,,,,,,,,,,,,,,,,,,,,,,,,,,,,,,,,,,,,,,,,,,,,,,,,,
,,5eeb0671d85b5123bafe06b6,2024-01-06_05h39.00.605,kallum_motion_pilot,2023.2.3,Win32,59.95203837,5eeb0671d85b5123bafe06b6,6598e6a5d84f07970b831e70,6598e71268c318d68a1f775c,0.123,0.123,1,82,244,46,1,fourtwo,,,,,,,,,,,,,,,,,,,,,,,,,,,,,,,,,,,,,,,,,,,,,,,,,,,,,,,,,,,,,,,,,,,,,,,,,,,,,,,,,,,,,,,,,,,,,,,,,,,,,,,,,,,,,,,,,,,,,,,,,,,,,,,,,,,,,,,
,,5eeb0671d85b5123bafe06b6,2024-01-06_05h39.00.605,kallum_motion_pilot,2023.2.3,Win32,59.95203837,5eeb0671d85b5123bafe06b6,6598e6a5d84f07970b831e70,6598e71268c318d68a1f775c,0.123,0.123,1,83,245,67,1,twofour,,,,,,,,,,,,,,,,,,,,,,,,,,,,,,,,,,,,,,,,,,,,,,,,,,,,,,,,,,,,,,,,,,,,,,,,,,,,,,,,,,,,,,,,,,,,,,,,,,,,,,,,,,,,,,,,,,,,,,,,,,,,,,,,,,,,,,,
,,5eeb0671d85b5123bafe06b6,2024-01-06_05h39.00.605,kallum_motion_pilot,2023.2.3,Win32,59.95203837,5eeb0671d85b5123bafe06b6,6598e6a5d84f07970b831e70,6598e71268c318d68a1f775c,0.123,0.123,1,84,246,3,1,twofour,,,,,,,,,,,,,,,,,,,,,,,,,,,,,,,,,,,,,,,,,,,,,,,,,,,,,,,,,,,,,,,,,,,,,,,,,,,,,,,,,,,,,,,,,,,,,,,,,,,,,,,,,,,,,,,,,,,,,,,,,,,,,,,,,,,,,,,
,,5eeb0671d85b5123bafe06b6,2024-01-06_05h39.00.605,kallum_motion_pilot,2023.2.3,Win32,59.95203837,5eeb0671d85b5123bafe06b6,6598e6a5d84f07970b831e70,6598e71268c318d68a1f775c,0.123,0.124,1,85,247,145,1,fiveseven,,,,,,,,,,,,,,,,,,,,,,,,,,,,,,,,,,,,,,,,,,,,,,,,,,,,,,,,,,,,,,,,,,,,,,,,,,,,,,,,,,,,,,,,,,,,,,,,,,,,,,,,,,,,,,,,,,,,,,,,,,,,,,,,,,,,,,,
,,5eeb0671d85b5123bafe06b6,2024-01-06_05h39.00.605,kallum_motion_pilot,2023.2.3,Win32,59.95203837,5eeb0671d85b5123bafe06b6,6598e6a5d84f07970b831e70,6598e71268c318d68a1f775c,0.124,0.124,1,86,248,65,1,onethree,,,,,,,,,,,,,,,,,,,,,,,,,,,,,,,,,,,,,,,,,,,,,,,,,,,,,,,,,,,,,,,,,,,,,,,,,,,,,,,,,,,,,,,,,,,,,,,,,,,,,,,,,,,,,,,,,,,,,,,,,,,,,,,,,,,,,,,
,,5eeb0671d85b5123bafe06b6,2024-01-06_05h39.00.605,kallum_motion_pilot,2023.2.3,Win32,59.95203837,5eeb0671d85b5123bafe06b6,6598e6a5d84f07970b831e70,6598e71268c318d68a1f775c,0.124,0.124,1,87,249,66,1,twoone,,,,,,,,,,,,,,,,,,,,,,,,,,,,,,,,,,,,,,,,,,,,,,,,,,,,,,,,,,,,,,,,,,,,,,,,,,,,,,,,,,,,,,,,,,,,,,,,,,,,,,,,,,,,,,,,,,,,,,,,,,,,,,,,,,,,,,,
,,5eeb0671d85b5123bafe06b6,2024-01-06_05h39.00.605,kallum_motion_pilot,2023.2.3,Win32,59.95203837,5eeb0671d85b5123bafe06b6,6598e6a5d84f07970b831e70,6598e71268c318d68a1f775c,0.124,0.124,1,88,250,77,1,threefour,,,,,,,,,,,,,,,,,,,,,,,,,,,,,,,,,,,,,,,,,,,,,,,,,,,,,,,,,,,,,,,,,,,,,,,,,,,,,,,,,,,,,,,,,,,,,,,,,,,,,,,,,,,,,,,,,,,,,,,,,,,,,,,,,,,,,,,
,,5eeb0671d85b5123bafe06b6,2024-01-06_05h39.00.605,kallum_motion_pilot,2023.2.3,Win32,59.95203837,5eeb0671d85b5123bafe06b6,6598e6a5d84f07970b831e70,6598e71268c318d68a1f775c,0.125,0.125,1,89,251,124,1,sevenfive,,,,,,,,,,,,,,,,,,,,,,,,,,,,,,,,,,,,,,,,,,,,,,,,,,,,,,,,,,,,,,,,,,,,,,,,,,,,,,,,,,,,,,,,,,,,,,,,,,,,,,,,,,,,,,,,,,,,,,,,,,,,,,,,,,,,,,,
,,5eeb0671d85b5123bafe06b6,2024-01-06_05h39.00.605,kallum_motion_pilot,2023.2.3,Win32,59.95203837,5eeb0671d85b5123bafe06b6,6598e6a5d84f07970b831e70,6598e71268c318d68a1f775c,0.125,0.125,1,90,252,91,1,sixeight,,,,,,,,,,,,,,,,,,,,,,,,,,,,,,,,,,,,,,,,,,,,,,,,,,,,,,,,,,,,,,,,,,,,,,,,,,,,,,,,,,,,,,,,,,,,,,,,,,,,,,,,,,,,,,,,,,,,,,,,,,,,,,,,,,,,,,,
,,5eeb0671d85b5123bafe06b6,2024-01-06_05h39.00.605,kallum_motion_pilot,2023.2.3,Win32,59.95203837,5eeb0671d85b5123bafe06b6,6598e6a5d84f07970b831e70,6598e71268c318d68a1f775c,0.125,0.125,1,91,253,83,1,sixeight,,,,,,,,,,,,,,,,,,,,,,,,,,,,,,,,,,,,,,,,,,,,,,,,,,,,,,,,,,,,,,,,,,,,,,,,,,,,,,,,,,,,,,,,,,,,,,,,,,,,,,,,,,,,,,,,,,,,,,,,,,,,,,,,,,,,,,,
,,5eeb0671d85b5123bafe06b6,2024-01-06_05h39.00.605,kallum_motion_pilot,2023.2.3,Win32,59.95203837,5eeb0671d85b5123bafe06b6,6598e6a5d84f07970b831e70,6598e71268c318d68a1f775c,0.125,0.125,1,92,254,115,1,sixeight,,,,,,,,,,,,,,,,,,,,,,,,,,,,,,,,,,,,,,,,,,,,,,,,,,,,,,,,,,,,,,,,,,,,,,,,,,,,,,,,,,,,,,,,,,,,,,,,,,,,,,,,,,,,,,,,,,,,,,,,,,,,,,,,,,,,,,,
,,5eeb0671d85b5123bafe06b6,2024-01-06_05h39.00.605,kallum_motion_pilot,2023.2.3,Win32,59.95203837,5eeb0671d85b5123bafe06b6,6598e6a5d84f07970b831e70,6598e71268c318d68a1f775c,0.125,0.125,1,93,255,118,1,eightsix,,,,,,,,,,,,,,,,,,,,,,,,,,,,,,,,,,,,,,,,,,,,,,,,,,,,,,,,,,,,,,,,,,,,,,,,,,,,,,,,,,,,,,,,,,,,,,,,,,,,,,,,,,,,,,,,,,,,,,,,,,,,,,,,,,,,,,,
,,5eeb0671d85b5123bafe06b6,2024-01-06_05h39.00.605,kallum_motion_pilot,2023.2.3,Win32,59.95203837,5eeb0671d85b5123bafe06b6,6598e6a5d84f07970b831e70,6598e71268c318d68a1f775c,0.125,0.125,1,94,256,36,1,threeone,,,,,,,,,,,,,,,,,,,,,,,,,,,,,,,,,,,,,,,,,,,,,,,,,,,,,,,,,,,,,,,,,,,,,,,,,,,,,,,,,,,,,,,,,,,,,,,,,,,,,,,,,,,,,,,,,,,,,,,,,,,,,,,,,,,,,,,
,,5eeb0671d85b5123bafe06b6,2024-01-06_05h39.00.605,kallum_motion_pilot,2023.2.3,Win32,59.95203837,5eeb0671d85b5123bafe06b6,6598e6a5d84f07970b831e70,6598e71268c318d68a1f775c,0.125,0.125,1,95,257,28,1,threeone,,,,,,,,,,,,,,,,,,,,,,,,,,,,,,,,,,,,,,,,,,,,,,,,,,,,,,,,,,,,,,,,,,,,,,,,,,,,,,,,,,,,,,,,,,,,,,,,,,,,,,,,,,,,,,,,,,,,,,,,,,,,,,,,,,,,,,,
,,5eeb0671d85b5123bafe06b6,2024-01-06_05h39.00.605,kallum_motion_pilot,2023.2.3,Win32,59.95203837,5eeb0671d85b5123bafe06b6,6598e6a5d84f07970b831e70,6598e71268c318d68a1f775c,0.125,0.125,1,96,258,8,1,onetwo,,,,,,,,,,,,,,,,,,,,,,,,,,,,,,,,,,,,,,,,,,,,,,,,,,,,,,,,,,,,,,,,,,,,,,,,,,,,,,,,,,,,,,,,,,,,,,,,,,,,,,,,,,,,,,,,,,,,,,,,,,,,,,,,,,,,,,,
,,5eeb0671d85b5123bafe06b6,2024-01-06_05h39.00.605,kallum_motion_pilot,2023.2.3,Win32,59.95203837,5eeb0671d85b5123bafe06b6,6598e6a5d84f07970b831e70,6598e71268c318d68a1f775c,0.125,0.125,1,97,259,57,1,onethree,,,,,,,,,,,,,,,,,,,,,,,,,,,,,,,,,,,,,,,,,,,,,,,,,,,,,,,,,,,,,,,,,,,,,,,,,,,,,,,,,,,,,,,,,,,,,,,,,,,,,,,,,,,,,,,,,,,,,,,,,,,,,,,,,,,,,,,
,,5eeb0671d85b5123bafe06b6,2024-01-06_05h39.00.605,kallum_motion_pilot,2023.2.3,Win32,59.95203837,5eeb0671d85b5123bafe06b6,6598e6a5d84f07970b831e70,6598e71268c318d68a1f775c,0.125,0.125,1,98,260,155,1,sixeight,,,,,,,,,,,,,,,,,,,,,,,,,,,,,,,,,,,,,,,,,,,,,,,,,,,,,,,,,,,,,,,,,,,,,,,,,,,,,,,,,,,,,,,,,,,,,,,,,,,,,,,,,,,,,,,,,,,,,,,,,,,,,,,,,,,,,,,
,,5eeb0671d85b5123bafe06b6,2024-01-06_05h39.00.605,kallum_motion_pilot,2023.2.3,Win32,59.95203837,5eeb0671d85b5123bafe06b6,6598e6a5d84f07970b831e70,6598e71268c318d68a1f775c,0.125,0.125,1,99,261,101,1,seveneight,,,,,,,,,,,,,,,,,,,,,,,,,,,,,,,,,,,,,,,,,,,,,,,,,,,,,,,,,,,,,,,,,,,,,,,,,,,,,,,,,,,,,,,,,,,,,,,,,,,,,,,,,,,,,,,,,,,,,,,,,,,,,,,,,,,,,,,
,,5eeb0671d85b5123bafe06b6,2024-01-06_05h39.00.605,kallum_motion_pilot,2023.2.3,Win32,59.95203837,5eeb0671d85b5123bafe06b6,6598e6a5d84f07970b831e70,6598e71268c318d68a1f775c,0.126,0.126,1,100,262,131,1,sixeight,,,,,,,,,,,,,,,,,,,,,,,,,,,,,,,,,,,,,,,,,,,,,,,,,,,,,,,,,,,,,,,,,,,,,,,,,,,,,,,,,,,,,,,,,,,,,,,,,,,,,,,,,,,,,,,,,,,,,,,,,,,,,,,,,,,,,,,
,,5eeb0671d85b5123bafe06b6,2024-01-06_05h39.00.605,kallum_motion_pilot,2023.2.3,Win32,59.95203837,5eeb0671d85b5123bafe06b6,6598e6a5d84f07970b831e70,6598e71268c318d68a1f775c,0.126,0.126,1,101,263,121,1,fiveseven,,,,,,,,,,,,,,,,,,,,,,,,,,,,,,,,,,,,,,,,,,,,,,,,,,,,,,,,,,,,,,,,,,,,,,,,,,,,,,,,,,,,,,,,,,,,,,,,,,,,,,,,,,,,,,,,,,,,,,,,,,,,,,,,,,,,,,,
,,5eeb0671d85b5123bafe06b6,2024-01-06_05h39.00.605,kallum_motion_pilot,2023.2.3,Win32,59.95203837,5eeb0671d85b5123bafe06b6,6598e6a5d84f07970b831e70,6598e71268c318d68a1f775c,0.126,0.126,1,102,264,154,1,sixfive,,,,,,,,,,,,,,,,,,,,,,,,,,,,,,,,,,,,,,,,,,,,,,,,,,,,,,,,,,,,,,,,,,,,,,,,,,,,,,,,,,,,,,,,,,,,,,,,,,,,,,,,,,,,,,,,,,,,,,,,,,,,,,,,,,,,,,,
,,5eeb0671d85b5123bafe06b6,2024-01-06_05h39.00.605,kallum_motion_pilot,2023.2.3,Win32,59.95203837,5eeb0671d85b5123bafe06b6,6598e6a5d84f07970b831e70,6598e71268c318d68a1f775c,0.126,0.126,1,103,265,12,1,threeone,,,,,,,,,,,,,,,,,,,,,,,,,,,,,,,,,,,,,,,,,,,,,,,,,,,,,,,,,,,,,,,,,,,,,,,,,,,,,,,,,,,,,,,,,,,,,,,,,,,,,,,,,,,,,,,,,,,,,,,,,,,,,,,,,,,,,,,
,,5eeb0671d85b5123bafe06b6,2024-01-06_05h39.00.605,kallum_motion_pilot,2023.2.3,Win32,59.95203837,5eeb0671d85b5123bafe06b6,6598e6a5d84f07970b831e70,6598e71268c318d68a1f775c,0.126,0.126,1,104,266,75,1,twofour,,,,,,,,,,,,,,,,,,,,,,,,,,,,,,,,,,,,,,,,,,,,,,,,,,,,,,,,,,,,,,,,,,,,,,,,,,,,,,,,,,,,,,,,,,,,,,,,,,,,,,,,,,,,,,,,,,,,,,,,,,,,,,,,,,,,,,,
,,5eeb0671d85b5123bafe06b6,2024-01-06_05h39.00.605,kallum_motion_pilot,2023.2.3,Win32,59.95203837,5eeb0671d85b5123bafe06b6,6598e6a5d84f07970b831e70,6598e71268c318d68a1f775c,0.126,0.126,1,105,267,157,1,seveneight,,,,,,,,,,,,,,,,,,,,,,,,,,,,,,,,,,,,,,,,,,,,,,,,,,,,,,,,,,,,,,,,,,,,,,,,,,,,,,,,,,,,,,,,,,,,,,,,,,,,,,,,,,,,,,,,,,,,,,,,,,,,,,,,,,,,,,,
,,5eeb0671d85b5123bafe06b6,2024-01-06_05h39.00.605,kallum_motion_pilot,2023.2.3,Win32,59.95203837,5eeb0671d85b5123bafe06b6,6598e6a5d84f07970b831e70,6598e71268c318d68a1f775c,0.126,0.126,1,106,268,76,1,threeone,,,,,,,,,,,,,,,,,,,,,,,,,,,,,,,,,,,,,,,,,,,,,,,,,,,,,,,,,,,,,,,,,,,,,,,,,,,,,,,,,,,,,,,,,,,,,,,,,,,,,,,,,,,,,,,,,,,,,,,,,,,,,,,,,,,,,,,
,,5eeb0671d85b5123bafe06b6,2024-01-06_05h39.00.605,kallum_motion_pilot,2023.2.3,Win32,59.95203837,5eeb0671d85b5123bafe06b6,6598e6a5d84f07970b831e70,6598e71268c318d68a1f775c,0.127,0.127,1,107,269,72,1,onetwo,,,,,,,,,,,,,,,,,,,,,,,,,,,,,,,,,,,,,,,,,,,,,,,,,,,,,,,,,,,,,,,,,,,,,,,,,,,,,,,,,,,,,,,,,,,,,,,,,,,,,,,,,,,,,,,,,,,,,,,,,,,,,,,,,,,,,,,
,,5eeb0671d85b5123bafe06b6,2024-01-06_05h39.00.605,kallum_motion_pilot,2023.2.3,Win32,59.95203837,5eeb0671d85b5123bafe06b6,6598e6a5d84f07970b831e70,6598e71268c318d68a1f775c,0.127,0.127,1,108,270,134,1,eightsix,,,,,,,,,,,,,,,,,,,,,,,,,,,,,,,,,,,,,,,,,,,,,,,,,,,,,,,,,,,,,,,,,,,,,,,,,,,,,,,,,,,,,,,,,,,,,,,,,,,,,,,,,,,,,,,,,,,,,,,,,,,,,,,,,,,,,,,
,,5eeb0671d85b5123bafe06b6,2024-01-06_05h39.00.605,kallum_motion_pilot,2023.2.3,Win32,59.95203837,5eeb0671d85b5123bafe06b6,6598e6a5d84f07970b831e70,6598e71268c318d68a1f775c,0.127,0.127,1,109,271,73,1,onethree,,,,,,,,,,,,,,,,,,,,,,,,,,,,,,,,,,,,,,,,,,,,,,,,,,,,,,,,,,,,,,,,,,,,,,,,,,,,,,,,,,,,,,,,,,,,,,,,,,,,,,,,,,,,,,,,,,,,,,,,,,,,,,,,,,,,,,,
,,5eeb0671d85b5123bafe06b6,2024-01-06_05h39.00.605,kallum_motion_pilot,2023.2.3,Win32,59.95203837,5eeb0671d85b5123bafe06b6,6598e6a5d84f07970b831e70,6598e71268c318d68a1f775c,0.127,0.127,1,110,272,100,1,sevenfive,,,,,,,,,,,,,,,,,,,,,,,,,,,,,,,,,,,,,,,,,,,,,,,,,,,,,,,,,,,,,,,,,,,,,,,,,,,,,,,,,,,,,,,,,,,,,,,,,,,,,,,,,,,,,,,,,,,,,,,,,,,,,,,,,,,,,,,
,,5eeb0671d85b5123bafe06b6,2024-01-06_05h39.00.605,kallum_motion_pilot,2023.2.3,Win32,59.95203837,5eeb0671d85b5123bafe06b6,6598e6a5d84f07970b831e70,6598e71268c318d68a1f775c,0.127,0.127,1,111,273,39,1,fourthree,,,,,,,,,,,,,,,,,,,,,,,,,,,,,,,,,,,,,,,,,,,,,,,,,,,,,,,,,,,,,,,,,,,,,,,,,,,,,,,,,,,,,,,,,,,,,,,,,,,,,,,,,,,,,,,,,,,,,,,,,,,,,,,,,,,,,,,
,,5eeb0671d85b5123bafe06b6,2024-01-06_05h39.00.605,kallum_motion_pilot,2023.2.3,Win32,59.95203837,5eeb0671d85b5123bafe06b6,6598e6a5d84f07970b831e70,6598e71268c318d68a1f775c,0.127,0.127,1,112,274,58,1,twoone,,,,,,,,,,,,,,,,,,,,,,,,,,,,,,,,,,,,,,,,,,,,,,,,,,,,,,,,,,,,,,,,,,,,,,,,,,,,,,,,,,,,,,,,,,,,,,,,,,,,,,,,,,,,,,,,,,,,,,,,,,,,,,,,,,,,,,,
,,5eeb0671d85b5123bafe06b6,2024-01-06_05h39.00.605,kallum_motion_pilot,2023.2.3,Win32,59.95203837,5eeb0671d85b5123bafe06b6,6598e6a5d84f07970b831e70,6598e71268c318d68a1f775c,0.127,0.127,1,113,275,149,1,seveneight,,,,,,,,,,,,,,,,,,,,,,,,,,,,,,,,,,,,,,,,,,,,,,,,,,,,,,,,,,,,,,,,,,,,,,,,,,,,,,,,,,,,,,,,,,,,,,,,,,,,,,,,,,,,,,,,,,,,,,,,,,,,,,,,,,,,,,,
,,5eeb0671d85b5123bafe06b6,2024-01-06_05h39.00.605,kallum_motion_pilot,2023.2.3,Win32,59.95203837,5eeb0671d85b5123bafe06b6,6598e6a5d84f07970b831e70,6598e71268c318d68a1f775c,0.127,0.127,1,114,276,144,1,fivesix,,,,,,,,,,,,,,,,,,,,,,,,,,,,,,,,,,,,,,,,,,,,,,,,,,,,,,,,,,,,,,,,,,,,,,,,,,,,,,,,,,,,,,,,,,,,,,,,,,,,,,,,,,,,,,,,,,,,,,,,,,,,,,,,,,,,,,,
,,5eeb0671d85b5123bafe06b6,2024-01-06_05h39.00.605,kallum_motion_pilot,2023.2.3,Win32,59.95203837,5eeb0671d85b5123bafe06b6,6598e6a5d84f07970b831e70,6598e71268c318d68a1f775c,0.128,0.128,1,115,277,45,1,threefour,,,,,,,,,,,,,,,,,,,,,,,,,,,,,,,,,,,,,,,,,,,,,,,,,,,,,,,,,,,,,,,,,,,,,,,,,,,,,,,,,,,,,,,,,,,,,,,,,,,,,,,,,,,,,,,,,,,,,,,,,,,,,,,,,,,,,,,
,,5eeb0671d85b5123bafe06b6,2024-01-06_05h39.00.605,kallum_motion_pilot,2023.2.3,Win32,59.95203837,5eeb0671d85b5123bafe06b6,6598e6a5d84f07970b831e70,6598e71268c318d68a1f775c,0.129,0.129,1,116,278,40,1,onetwo,,,,,,,,,,,,,,,,,,,,,,,,,,,,,,,,,,,,,,,,,,,,,,,,,,,,,,,,,,,,,,,,,,,,,,,,,,,,,,,,,,,,,,,,,,,,,,,,,,,,,,,,,,,,,,,,,,,,,,,,,,,,,,,,,,,,,,,
,,5eeb0671d85b5123bafe06b6,2024-01-06_05h39.00.605,kallum_motion_pilot,2023.2.3,Win32,59.95203837,5eeb0671d85b5123bafe06b6,6598e6a5d84f07970b831e70,6598e71268c318d68a1f775c,0.129,0.129,1,117,279,94,1,eightsix,,,,,,,,,,,,,,,,,,,,,,,,,,,,,,,,,,,,,,,,,,,,,,,,,,,,,,,,,,,,,,,,,,,,,,,,,,,,,,,,,,,,,,,,,,,,,,,,,,,,,,,,,,,,,,,,,,,,,,,,,,,,,,,,,,,,,,,
,,5eeb0671d85b5123bafe06b6,2024-01-06_05h39.00.605,kallum_motion_pilot,2023.2.3,Win32,59.95203837,5eeb0671d85b5123bafe06b6,6598e6a5d84f07970b831e70,6598e71268c318d68a1f775c,0.129,0.129,1,118,280,30,1,fourtwo,,,,,,,,,,,,,,,,,,,,,,,,,,,,,,,,,,,,,,,,,,,,,,,,,,,,,,,,,,,,,,,,,,,,,,,,,,,,,,,,,,,,,,,,,,,,,,,,,,,,,,,,,,,,,,,,,,,,,,,,,,,,,,,,,,,,,,,
