startup.started,startup.stopped,Prolific ID*,date,expName,psychopyVersion,OS,frameRate,PROLIFIC_PID,STUDY_ID,SESSION_ID,stimpositions.started,stimpositions.stopped,hardcoded_stimulus_positions.thisRepN,hardcoded_stimulus_positions.thisTrialN,hardcoded_stimulus_positions.thisN,hardcoded_stimulus_positions.thisIndex,hardcoded_stimulus_positions.ran,StimulusPos,stimorientation.started,stimorientation.stopped,prac_stimorientation_import_loop.thisRepN,prac_stimorientation_import_loop.thisTrialN,prac_stimorientation_import_loop.thisN,prac_stimorientation_import_loop.thisIndex,prac_stimorientation_import_loop.ran,Stimorientation,welcome_instr.started,welcome_instr.stopped,key_resp.keys,key_resp.rt,key_resp.duration,response_steppedout_1.started,response_steppedout_1.stopped,key_resp_20.keys,key_resp_20.rt,key_resp_20.duration,response_steppedout_2.started,response_steppedout_2.stopped,key_resp_19.keys,key_resp_19.rt,key_resp_19.duration,stim_response_instr.started,stim_response_instr.stopped,key_resp_15.keys,key_resp_15.rt,key_resp_15.duration,direction_instr_2.started,direction_instr_2.stopped,key_resp_9.keys,key_resp_9.rt,key_resp_9.duration,instr_prac.started,instr_prac.stopped,key_resp_10.keys,key_resp_10.rt,key_resp_10.duration,Stim1_display_prac.started,Stim1_display_prac.stopped,Ecc,Circle1_ori,Circle2_ori,response_prac.started,similarity,response_time,response_prac.stopped,mouse_5.x,mouse_5.y,mouse_5.leftButton,mouse_5.midButton,mouse_5.rightButton,mouse_5.clicked_name,responseprac_feedback.started,responseprac_feedback.stopped,summary2_prac.started,summary2_prac.stopped,mouse_6.x,mouse_6.y,mouse_6.leftButton,mouse_6.midButton,mouse_6.rightButton,mouse_6.clicked_name,duringprac.thisRepN,duringprac.thisTrialN,duringprac.thisN,duringprac.thisIndex,duringprac.ran,begin.started,begin.stopped,key_resp_22.keys,key_resp_22.rt,key_resp_22.duration,Stim1_display.started,Stim1_display.stopped,circle1_ori,circle2_ori,blank.started,blank.stopped,response.started,response.stopped,mouse.x,mouse.y,mouse.leftButton,mouse.midButton,mouse.rightButton,mouse.clicked_name,response_2.started,response_2.stopped,mouse_2.x,mouse_2.y,mouse_2.leftButton,mouse_2.midButton,mouse_2.rightButton,mouse_2.clicked_name,special_trial.started,special_trial.stopped,catch_1.started,catch_1.stopped,mouse_3.x,mouse_3.y,mouse_3.leftButton,mouse_3.midButton,mouse_3.rightButton,catchresponse,catchnumber,response_time_catch,Catch,response_sum.started,response_sum.stopped,mouse_11.x,mouse_11.y,mouse_11.leftButton,mouse_11.midButton,mouse_11.rightButton,main_trial.thisRepN,main_trial.thisTrialN,main_trial.thisN,main_trial.thisIndex,main_trial.ran,Orientationtrialno,xcircle1_ori,xcircle2_ori,flip_presentation_sequence_for_double_pass.started,flip_presentation_sequence_for_double_pass.stopped,double_pass.thisRepN,double_pass.thisTrialN,double_pass.thisN,double_pass.thisIndex,double_pass.ran,goodbye.started,goodbye.stopped,key_resp_3.keys,key_resp_3.rt,key_resp_3.duration
0,0,5b76e19d948cc40001da0e50,2024-01-06_06h39.06.712,kallum_motion_pilot,2023.2.3,Win32,62.5,5b76e19d948cc40001da0e50,6598e6a5d84f07970b831e70,6598e747b14ee5c28bf479d2,,,,,,,,,,,,,,,,,,,,,,,,,,,,,,,,,,,,,,,,,,,,,,,,,,,,,,,,,,,,,,,,,,,,,,,,,,,,,,,,,,,,,,,,,,,,,,,,,,,,,,,,,,,,,,,,,,,,,,,,,,,,,,,,,,,,,,,,,,,,,,,
,,5b76e19d948cc40001da0e50,2024-01-06_06h39.06.712,kallum_motion_pilot,2023.2.3,Win32,62.5,5b76e19d948cc40001da0e50,6598e6a5d84f07970b831e70,6598e747b14ee5c28bf479d2,0.019,0.019,0,0,0,154,1,sixfive,,,,,,,,,,,,,,,,,,,,,,,,,,,,,,,,,,,,,,,,,,,,,,,,,,,,,,,,,,,,,,,,,,,,,,,,,,,,,,,,,,,,,,,,,,,,,,,,,,,,,,,,,,,,,,,,,,,,,,,,,,,,,,,,,,,,,,,
,,5b76e19d948cc40001da0e50,2024-01-06_06h39.06.712,kallum_motion_pilot,2023.2.3,Win32,62.5,5b76e19d948cc40001da0e50,6598e6a5d84f07970b831e70,6598e747b14ee5c28bf479d2,0.019,0.019,0,1,1,37,1,threefour,,,,,,,,,,,,,,,,,,,,,,,,,,,,,,,,,,,,,,,,,,,,,,,,,,,,,,,,,,,,,,,,,,,,,,,,,,,,,,,,,,,,,,,,,,,,,,,,,,,,,,,,,,,,,,,,,,,,,,,,,,,,,,,,,,,,,,,
,,5b76e19d948cc40001da0e50,2024-01-06_06h39.06.712,kallum_motion_pilot,2023.2.3,Win32,62.5,5b76e19d948cc40001da0e50,6598e6a5d84f07970b831e70,6598e747b14ee5c28bf479d2,0.019,0.019,0,2,2,111,1,eightseven,,,,,,,,,,,,,,,,,,,,,,,,,,,,,,,,,,,,,,,,,,,,,,,,,,,,,,,,,,,,,,,,,,,,,,,,,,,,,,,,,,,,,,,,,,,,,,,,,,,,,,,,,,,,,,,,,,,,,,,,,,,,,,,,,,,,,,,
,,5b76e19d948cc40001da0e50,2024-01-06_06h39.06.712,kallum_motion_pilot,2023.2.3,Win32,62.5,5b76e19d948cc40001da0e50,6598e6a5d84f07970b831e70,6598e747b14ee5c28bf479d2,0.019,0.019,0,3,3,139,1,sixeight,,,,,,,,,,,,,,,,,,,,,,,,,,,,,,,,,,,,,,,,,,,,,,,,,,,,,,,,,,,,,,,,,,,,,,,,,,,,,,,,,,,,,,,,,,,,,,,,,,,,,,,,,,,,,,,,,,,,,,,,,,,,,,,,,,,,,,,
,,5b76e19d948cc40001da0e50,2024-01-06_06h39.06.712,kallum_motion_pilot,2023.2.3,Win32,62.5,5b76e19d948cc40001da0e50,6598e6a5d84f07970b831e70,6598e747b14ee5c28bf479d2,0.02,0.02,0,4,4,142,1,eightsix,,,,,,,,,,,,,,,,,,,,,,,,,,,,,,,,,,,,,,,,,,,,,,,,,,,,,,,,,,,,,,,,,,,,,,,,,,,,,,,,,,,,,,,,,,,,,,,,,,,,,,,,,,,,,,,,,,,,,,,,,,,,,,,,,,,,,,,
,,5b76e19d948cc40001da0e50,2024-01-06_06h39.06.712,kallum_motion_pilot,2023.2.3,Win32,62.5,5b76e19d948cc40001da0e50,6598e6a5d84f07970b831e70,6598e747b14ee5c28bf479d2,0.02,0.02,0,5,5,68,1,threeone,,,,,,,,,,,,,,,,,,,,,,,,,,,,,,,,,,,,,,,,,,,,,,,,,,,,,,,,,,,,,,,,,,,,,,,,,,,,,,,,,,,,,,,,,,,,,,,,,,,,,,,,,,,,,,,,,,,,,,,,,,,,,,,,,,,,,,,
,,5b76e19d948cc40001da0e50,2024-01-06_06h39.06.712,kallum_motion_pilot,2023.2.3,Win32,62.5,5b76e19d948cc40001da0e50,6598e6a5d84f07970b831e70,6598e747b14ee5c28bf479d2,0.02,0.02,0,6,6,119,1,eightseven,,,,,,,,,,,,,,,,,,,,,,,,,,,,,,,,,,,,,,,,,,,,,,,,,,,,,,,,,,,,,,,,,,,,,,,,,,,,,,,,,,,,,,,,,,,,,,,,,,,,,,,,,,,,,,,,,,,,,,,,,,,,,,,,,,,,,,,
,,5b76e19d948cc40001da0e50,2024-01-06_06h39.06.712,kallum_motion_pilot,2023.2.3,Win32,62.5,5b76e19d948cc40001da0e50,6598e6a5d84f07970b831e70,6598e747b14ee5c28bf479d2,0.02,0.02,0,7,7,104,1,fivesix,,,,,,,,,,,,,,,,,,,,,,,,,,,,,,,,,,,,,,,,,,,,,,,,,,,,,,,,,,,,,,,,,,,,,,,,,,,,,,,,,,,,,,,,,,,,,,,,,,,,,,,,,,,,,,,,,,,,,,,,,,,,,,,,,,,,,,,
,,5b76e19d948cc40001da0e50,2024-01-06_06h39.06.712,kallum_motion_pilot,2023.2.3,Win32,62.5,5b76e19d948cc40001da0e50,6598e6a5d84f07970b831e70,6598e747b14ee5c28bf479d2,0.02,0.02,0,8,8,10,1,twoone,,,,,,,,,,,,,,,,,,,,,,,,,,,,,,,,,,,,,,,,,,,,,,,,,,,,,,,,,,,,,,,,,,,,,,,,,,,,,,,,,,,,,,,,,,,,,,,,,,,,,,,,,,,,,,,,,,,,,,,,,,,,,,,,,,,,,,,
,,5b76e19d948cc40001da0e50,2024-01-06_06h39.06.712,kallum_motion_pilot,2023.2.3,Win32,62.5,5b76e19d948cc40001da0e50,6598e6a5d84f07970b831e70,6598e747b14ee5c28bf479d2,0.02,0.02,0,9,9,15,1,fourthree,,,,,,,,,,,,,,,,,,,,,,,,,,,,,,,,,,,,,,,,,,,,,,,,,,,,,,,,,,,,,,,,,,,,,,,,,,,,,,,,,,,,,,,,,,,,,,,,,,,,,,,,,,,,,,,,,,,,,,,,,,,,,,,,,,,,,,,
,,5b76e19d948cc40001da0e50,2024-01-06_06h39.06.712,kallum_motion_pilot,2023.2.3,Win32,62.5,5b76e19d948cc40001da0e50,6598e6a5d84f07970b831e70,6598e747b14ee5c28bf479d2,0.02,0.02,0,10,10,116,1,sevenfive,,,,,,,,,,,,,,,,,,,,,,,,,,,,,,,,,,,,,,,,,,,,,,,,,,,,,,,,,,,,,,,,,,,,,,,,,,,,,,,,,,,,,,,,,,,,,,,,,,,,,,,,,,,,,,,,,,,,,,,,,,,,,,,,,,,,,,,
,,5b76e19d948cc40001da0e50,2024-01-06_06h39.06.712,kallum_motion_pilot,2023.2.3,Win32,62.5,5b76e19d948cc40001da0e50,6598e6a5d84f07970b831e70,6598e747b14ee5c28bf479d2,0.021,0.021,0,11,11,161,1,fiveseven,,,,,,,,,,,,,,,,,,,,,,,,,,,,,,,,,,,,,,,,,,,,,,,,,,,,,,,,,,,,,,,,,,,,,,,,,,,,,,,,,,,,,,,,,,,,,,,,,,,,,,,,,,,,,,,,,,,,,,,,,,,,,,,,,,,,,,,
,,5b76e19d948cc40001da0e50,2024-01-06_06h39.06.712,kallum_motion_pilot,2023.2.3,Win32,62.5,5b76e19d948cc40001da0e50,6598e6a5d84f07970b831e70,6598e747b14ee5c28bf479d2,0.021,0.021,0,12,12,81,1,fiveseven,,,,,,,,,,,,,,,,,,,,,,,,,,,,,,,,,,,,,,,,,,,,,,,,,,,,,,,,,,,,,,,,,,,,,,,,,,,,,,,,,,,,,,,,,,,,,,,,,,,,,,,,,,,,,,,,,,,,,,,,,,,,,,,,,,,,,,,
,,5b76e19d948cc40001da0e50,2024-01-06_06h39.06.712,kallum_motion_pilot,2023.2.3,Win32,62.5,5b76e19d948cc40001da0e50,6598e6a5d84f07970b831e70,6598e747b14ee5c28bf479d2,0.021,0.021,0,13,13,79,1,eightseven,,,,,,,,,,,,,,,,,,,,,,,,,,,,,,,,,,,,,,,,,,,,,,,,,,,,,,,,,,,,,,,,,,,,,,,,,,,,,,,,,,,,,,,,,,,,,,,,,,,,,,,,,,,,,,,,,,,,,,,,,,,,,,,,,,,,,,,
,,5b76e19d948cc40001da0e50,2024-01-06_06h39.06.712,kallum_motion_pilot,2023.2.3,Win32,62.5,5b76e19d948cc40001da0e50,6598e6a5d84f07970b831e70,6598e747b14ee5c28bf479d2,0.021,0.021,0,14,14,42,1,twoone,,,,,,,,,,,,,,,,,,,,,,,,,,,,,,,,,,,,,,,,,,,,,,,,,,,,,,,,,,,,,,,,,,,,,,,,,,,,,,,,,,,,,,,,,,,,,,,,,,,,,,,,,,,,,,,,,,,,,,,,,,,,,,,,,,,,,,,
,,5b76e19d948cc40001da0e50,2024-01-06_06h39.06.712,kallum_motion_pilot,2023.2.3,Win32,62.5,5b76e19d948cc40001da0e50,6598e6a5d84f07970b831e70,6598e747b14ee5c28bf479d2,0.021,0.021,0,15,15,28,1,threeone,,,,,,,,,,,,,,,,,,,,,,,,,,,,,,,,,,,,,,,,,,,,,,,,,,,,,,,,,,,,,,,,,,,,,,,,,,,,,,,,,,,,,,,,,,,,,,,,,,,,,,,,,,,,,,,,,,,,,,,,,,,,,,,,,,,,,,,
,,5b76e19d948cc40001da0e50,2024-01-06_06h39.06.712,kallum_motion_pilot,2023.2.3,Win32,62.5,5b76e19d948cc40001da0e50,6598e6a5d84f07970b831e70,6598e747b14ee5c28bf479d2,0.022,0.022,0,16,16,82,1,sixfive,,,,,,,,,,,,,,,,,,,,,,,,,,,,,,,,,,,,,,,,,,,,,,,,,,,,,,,,,,,,,,,,,,,,,,,,,,,,,,,,,,,,,,,,,,,,,,,,,,,,,,,,,,,,,,,,,,,,,,,,,,,,,,,,,,,,,,,
,,5b76e19d948cc40001da0e50,2024-01-06_06h39.06.712,kallum_motion_pilot,2023.2.3,Win32,62.5,5b76e19d948cc40001da0e50,6598e6a5d84f07970b831e70,6598e747b14ee5c28bf479d2,0.023,0.023,0,17,17,125,1,seveneight,,,,,,,,,,,,,,,,,,,,,,,,,,,,,,,,,,,,,,,,,,,,,,,,,,,,,,,,,,,,,,,,,,,,,,,,,,,,,,,,,,,,,,,,,,,,,,,,,,,,,,,,,,,,,,,,,,,,,,,,,,,,,,,,,,,,,,,
,,5b76e19d948cc40001da0e50,2024-01-06_06h39.06.712,kallum_motion_pilot,2023.2.3,Win32,62.5,5b76e19d948cc40001da0e50,6598e6a5d84f07970b831e70,6598e747b14ee5c28bf479d2,0.023,0.023,0,18,18,98,1,sixfive,,,,,,,,,,,,,,,,,,,,,,,,,,,,,,,,,,,,,,,,,,,,,,,,,,,,,,,,,,,,,,,,,,,,,,,,,,,,,,,,,,,,,,,,,,,,,,,,,,,,,,,,,,,,,,,,,,,,,,,,,,,,,,,,,,,,,,,
,,5b76e19d948cc40001da0e50,2024-01-06_06h39.06.712,kallum_motion_pilot,2023.2.3,Win32,62.5,5b76e19d948cc40001da0e50,6598e6a5d84f07970b831e70,6598e747b14ee5c28bf479d2,0.023,0.023,0,19,19,48,1,onetwo,,,,,,,,,,,,,,,,,,,,,,,,,,,,,,,,,,,,,,,,,,,,,,,,,,,,,,,,,,,,,,,,,,,,,,,,,,,,,,,,,,,,,,,,,,,,,,,,,,,,,,,,,,,,,,,,,,,,,,,,,,,,,,,,,,,,,,,
,,5b76e19d948cc40001da0e50,2024-01-06_06h39.06.712,kallum_motion_pilot,2023.2.3,Win32,62.5,5b76e19d948cc40001da0e50,6598e6a5d84f07970b831e70,6598e747b14ee5c28bf479d2,0.023,0.023,0,20,20,123,1,sixeight,,,,,,,,,,,,,,,,,,,,,,,,,,,,,,,,,,,,,,,,,,,,,,,,,,,,,,,,,,,,,,,,,,,,,,,,,,,,,,,,,,,,,,,,,,,,,,,,,,,,,,,,,,,,,,,,,,,,,,,,,,,,,,,,,,,,,,,
,,5b76e19d948cc40001da0e50,2024-01-06_06h39.06.712,kallum_motion_pilot,2023.2.3,Win32,62.5,5b76e19d948cc40001da0e50,6598e6a5d84f07970b831e70,6598e747b14ee5c28bf479d2,0.023,0.023,0,21,21,135,1,eightseven,,,,,,,,,,,,,,,,,,,,,,,,,,,,,,,,,,,,,,,,,,,,,,,,,,,,,,,,,,,,,,,,,,,,,,,,,,,,,,,,,,,,,,,,,,,,,,,,,,,,,,,,,,,,,,,,,,,,,,,,,,,,,,,,,,,,,,,
,,5b76e19d948cc40001da0e50,2024-01-06_06h39.06.712,kallum_motion_pilot,2023.2.3,Win32,62.5,5b76e19d948cc40001da0e50,6598e6a5d84f07970b831e70,6598e747b14ee5c28bf479d2,0.023,0.023,0,22,22,103,1,eightseven,,,,,,,,,,,,,,,,,,,,,,,,,,,,,,,,,,,,,,,,,,,,,,,,,,,,,,,,,,,,,,,,,,,,,,,,,,,,,,,,,,,,,,,,,,,,,,,,,,,,,,,,,,,,,,,,,,,,,,,,,,,,,,,,,,,,,,,
,,5b76e19d948cc40001da0e50,2024-01-06_06h39.06.712,kallum_motion_pilot,2023.2.3,Win32,62.5,5b76e19d948cc40001da0e50,6598e6a5d84f07970b831e70,6598e747b14ee5c28bf479d2,0.023,0.023,0,23,23,107,1,sixeight,,,,,,,,,,,,,,,,,,,,,,,,,,,,,,,,,,,,,,,,,,,,,,,,,,,,,,,,,,,,,,,,,,,,,,,,,,,,,,,,,,,,,,,,,,,,,,,,,,,,,,,,,,,,,,,,,,,,,,,,,,,,,,,,,,,,,,,
,,5b76e19d948cc40001da0e50,2024-01-06_06h39.06.712,kallum_motion_pilot,2023.2.3,Win32,62.5,5b76e19d948cc40001da0e50,6598e6a5d84f07970b831e70,6598e747b14ee5c28bf479d2,0.023,0.024,0,24,24,43,1,twofour,,,,,,,,,,,,,,,,,,,,,,,,,,,,,,,,,,,,,,,,,,,,,,,,,,,,,,,,,,,,,,,,,,,,,,,,,,,,,,,,,,,,,,,,,,,,,,,,,,,,,,,,,,,,,,,,,,,,,,,,,,,,,,,,,,,,,,,
,,5b76e19d948cc40001da0e50,2024-01-06_06h39.06.712,kallum_motion_pilot,2023.2.3,Win32,62.5,5b76e19d948cc40001da0e50,6598e6a5d84f07970b831e70,6598e747b14ee5c28bf479d2,0.024,0.024,0,25,25,57,1,onethree,,,,,,,,,,,,,,,,,,,,,,,,,,,,,,,,,,,,,,,,,,,,,,,,,,,,,,,,,,,,,,,,,,,,,,,,,,,,,,,,,,,,,,,,,,,,,,,,,,,,,,,,,,,,,,,,,,,,,,,,,,,,,,,,,,,,,,,
,,5b76e19d948cc40001da0e50,2024-01-06_06h39.06.712,kallum_motion_pilot,2023.2.3,Win32,62.5,5b76e19d948cc40001da0e50,6598e6a5d84f07970b831e70,6598e747b14ee5c28bf479d2,0.024,0.024,0,26,26,75,1,twofour,,,,,,,,,,,,,,,,,,,,,,,,,,,,,,,,,,,,,,,,,,,,,,,,,,,,,,,,,,,,,,,,,,,,,,,,,,,,,,,,,,,,,,,,,,,,,,,,,,,,,,,,,,,,,,,,,,,,,,,,,,,,,,,,,,,,,,,
,,5b76e19d948cc40001da0e50,2024-01-06_06h39.06.712,kallum_motion_pilot,2023.2.3,Win32,62.5,5b76e19d948cc40001da0e50,6598e6a5d84f07970b831e70,6598e747b14ee5c28bf479d2,0.024,0.024,0,27,27,131,1,sixeight,,,,,,,,,,,,,,,,,,,,,,,,,,,,,,,,,,,,,,,,,,,,,,,,,,,,,,,,,,,,,,,,,,,,,,,,,,,,,,,,,,,,,,,,,,,,,,,,,,,,,,,,,,,,,,,,,,,,,,,,,,,,,,,,,,,,,,,
,,5b76e19d948cc40001da0e50,2024-01-06_06h39.06.712,kallum_motion_pilot,2023.2.3,Win32,62.5,5b76e19d948cc40001da0e50,6598e6a5d84f07970b831e70,6598e747b14ee5c28bf479d2,0.024,0.024,0,28,28,6,1,fourtwo,,,,,,,,,,,,,,,,,,,,,,,,,,,,,,,,,,,,,,,,,,,,,,,,,,,,,,,,,,,,,,,,,,,,,,,,,,,,,,,,,,,,,,,,,,,,,,,,,,,,,,,,,,,,,,,,,,,,,,,,,,,,,,,,,,,,,,,
,,5b76e19d948cc40001da0e50,2024-01-06_06h39.06.712,kallum_motion_pilot,2023.2.3,Win32,62.5,5b76e19d948cc40001da0e50,6598e6a5d84f07970b831e70,6598e747b14ee5c28bf479d2,0.024,0.024,0,29,29,138,1,sixfive,,,,,,,,,,,,,,,,,,,,,,,,,,,,,,,,,,,,,,,,,,,,,,,,,,,,,,,,,,,,,,,,,,,,,,,,,,,,,,,,,,,,,,,,,,,,,,,,,,,,,,,,,,,,,,,,,,,,,,,,,,,,,,,,,,,,,,,
,,5b76e19d948cc40001da0e50,2024-01-06_06h39.06.712,kallum_motion_pilot,2023.2.3,Win32,62.5,5b76e19d948cc40001da0e50,6598e6a5d84f07970b831e70,6598e747b14ee5c28bf479d2,0.024,0.024,0,30,30,5,1,threefour,,,,,,,,,,,,,,,,,,,,,,,,,,,,,,,,,,,,,,,,,,,,,,,,,,,,,,,,,,,,,,,,,,,,,,,,,,,,,,,,,,,,,,,,,,,,,,,,,,,,,,,,,,,,,,,,,,,,,,,,,,,,,,,,,,,,,,,
,,5b76e19d948cc40001da0e50,2024-01-06_06h39.06.712,kallum_motion_pilot,2023.2.3,Win32,62.5,5b76e19d948cc40001da0e50,6598e6a5d84f07970b831e70,6598e747b14ee5c28bf479d2,0.025,0.025,0,31,31,78,1,fourtwo,,,,,,,,,,,,,,,,,,,,,,,,,,,,,,,,,,,,,,,,,,,,,,,,,,,,,,,,,,,,,,,,,,,,,,,,,,,,,,,,,,,,,,,,,,,,,,,,,,,,,,,,,,,,,,,,,,,,,,,,,,,,,,,,,,,,,,,
,,5b76e19d948cc40001da0e50,2024-01-06_06h39.06.712,kallum_motion_pilot,2023.2.3,Win32,62.5,5b76e19d948cc40001da0e50,6598e6a5d84f07970b831e70,6598e747b14ee5c28bf479d2,0.025,0.025,0,32,32,25,1,onethree,,,,,,,,,,,,,,,,,,,,,,,,,,,,,,,,,,,,,,,,,,,,,,,,,,,,,,,,,,,,,,,,,,,,,,,,,,,,,,,,,,,,,,,,,,,,,,,,,,,,,,,,,,,,,,,,,,,,,,,,,,,,,,,,,,,,,,,
,,5b76e19d948cc40001da0e50,2024-01-06_06h39.06.712,kallum_motion_pilot,2023.2.3,Win32,62.5,5b76e19d948cc40001da0e50,6598e6a5d84f07970b831e70,6598e747b14ee5c28bf479d2,0.025,0.025,0,33,33,121,1,fiveseven,,,,,,,,,,,,,,,,,,,,,,,,,,,,,,,,,,,,,,,,,,,,,,,,,,,,,,,,,,,,,,,,,,,,,,,,,,,,,,,,,,,,,,,,,,,,,,,,,,,,,,,,,,,,,,,,,,,,,,,,,,,,,,,,,,,,,,,
,,5b76e19d948cc40001da0e50,2024-01-06_06h39.06.712,kallum_motion_pilot,2023.2.3,Win32,62.5,5b76e19d948cc40001da0e50,6598e6a5d84f07970b831e70,6598e747b14ee5c28bf479d2,0.025,0.025,0,34,34,70,1,fourtwo,,,,,,,,,,,,,,,,,,,,,,,,,,,,,,,,,,,,,,,,,,,,,,,,,,,,,,,,,,,,,,,,,,,,,,,,,,,,,,,,,,,,,,,,,,,,,,,,,,,,,,,,,,,,,,,,,,,,,,,,,,,,,,,,,,,,,,,
,,5b76e19d948cc40001da0e50,2024-01-06_06h39.06.712,kallum_motion_pilot,2023.2.3,Win32,62.5,5b76e19d948cc40001da0e50,6598e6a5d84f07970b831e70,6598e747b14ee5c28bf479d2,0.025,0.025,0,35,35,86,1,eightsix,,,,,,,,,,,,,,,,,,,,,,,,,,,,,,,,,,,,,,,,,,,,,,,,,,,,,,,,,,,,,,,,,,,,,,,,,,,,,,,,,,,,,,,,,,,,,,,,,,,,,,,,,,,,,,,,,,,,,,,,,,,,,,,,,,,,,,,
,,5b76e19d948cc40001da0e50,2024-01-06_06h39.06.712,kallum_motion_pilot,2023.2.3,Win32,62.5,5b76e19d948cc40001da0e50,6598e6a5d84f07970b831e70,6598e747b14ee5c28bf479d2,0.025,0.025,0,36,36,71,1,fourthree,,,,,,,,,,,,,,,,,,,,,,,,,,,,,,,,,,,,,,,,,,,,,,,,,,,,,,,,,,,,,,,,,,,,,,,,,,,,,,,,,,,,,,,,,,,,,,,,,,,,,,,,,,,,,,,,,,,,,,,,,,,,,,,,,,,,,,,
,,5b76e19d948cc40001da0e50,2024-01-06_06h39.06.712,kallum_motion_pilot,2023.2.3,Win32,62.5,5b76e19d948cc40001da0e50,6598e6a5d84f07970b831e70,6598e747b14ee5c28bf479d2,0.025,0.025,0,37,37,66,1,twoone,,,,,,,,,,,,,,,,,,,,,,,,,,,,,,,,,,,,,,,,,,,,,,,,,,,,,,,,,,,,,,,,,,,,,,,,,,,,,,,,,,,,,,,,,,,,,,,,,,,,,,,,,,,,,,,,,,,,,,,,,,,,,,,,,,,,,,,
,,5b76e19d948cc40001da0e50,2024-01-06_06h39.06.712,kallum_motion_pilot,2023.2.3,Win32,62.5,5b76e19d948cc40001da0e50,6598e6a5d84f07970b831e70,6598e747b14ee5c28bf479d2,0.025,0.025,0,38,38,144,1,fivesix,,,,,,,,,,,,,,,,,,,,,,,,,,,,,,,,,,,,,,,,,,,,,,,,,,,,,,,,,,,,,,,,,,,,,,,,,,,,,,,,,,,,,,,,,,,,,,,,,,,,,,,,,,,,,,,,,,,,,,,,,,,,,,,,,,,,,,,
,,5b76e19d948cc40001da0e50,2024-01-06_06h39.06.712,kallum_motion_pilot,2023.2.3,Win32,62.5,5b76e19d948cc40001da0e50,6598e6a5d84f07970b831e70,6598e747b14ee5c28bf479d2,0.025,0.025,0,39,39,97,1,fiveseven,,,,,,,,,,,,,,,,,,,,,,,,,,,,,,,,,,,,,,,,,,,,,,,,,,,,,,,,,,,,,,,,,,,,,,,,,,,,,,,,,,,,,,,,,,,,,,,,,,,,,,,,,,,,,,,,,,,,,,,,,,,,,,,,,,,,,,,
,,5b76e19d948cc40001da0e50,2024-01-06_06h39.06.712,kallum_motion_pilot,2023.2.3,Win32,62.5,5b76e19d948cc40001da0e50,6598e6a5d84f07970b831e70,6598e747b14ee5c28bf479d2,0.025,0.025,0,40,40,127,1,eightseven,,,,,,,,,,,,,,,,,,,,,,,,,,,,,,,,,,,,,,,,,,,,,,,,,,,,,,,,,,,,,,,,,,,,,,,,,,,,,,,,,,,,,,,,,,,,,,,,,,,,,,,,,,,,,,,,,,,,,,,,,,,,,,,,,,,,,,,
,,5b76e19d948cc40001da0e50,2024-01-06_06h39.06.712,kallum_motion_pilot,2023.2.3,Win32,62.5,5b76e19d948cc40001da0e50,6598e6a5d84f07970b831e70,6598e747b14ee5c28bf479d2,0.025,0.025,0,41,41,115,1,sixeight,,,,,,,,,,,,,,,,,,,,,,,,,,,,,,,,,,,,,,,,,,,,,,,,,,,,,,,,,,,,,,,,,,,,,,,,,,,,,,,,,,,,,,,,,,,,,,,,,,,,,,,,,,,,,,,,,,,,,,,,,,,,,,,,,,,,,,,
,,5b76e19d948cc40001da0e50,2024-01-06_06h39.06.712,kallum_motion_pilot,2023.2.3,Win32,62.5,5b76e19d948cc40001da0e50,6598e6a5d84f07970b831e70,6598e747b14ee5c28bf479d2,0.025,0.025,0,42,42,44,1,threeone,,,,,,,,,,,,,,,,,,,,,,,,,,,,,,,,,,,,,,,,,,,,,,,,,,,,,,,,,,,,,,,,,,,,,,,,,,,,,,,,,,,,,,,,,,,,,,,,,,,,,,,,,,,,,,,,,,,,,,,,,,,,,,,,,,,,,,,
,,5b76e19d948cc40001da0e50,2024-01-06_06h39.06.712,kallum_motion_pilot,2023.2.3,Win32,62.5,5b76e19d948cc40001da0e50,6598e6a5d84f07970b831e70,6598e747b14ee5c28bf479d2,0.026,0.026,0,43,43,93,1,seveneight,,,,,,,,,,,,,,,,,,,,,,,,,,,,,,,,,,,,,,,,,,,,,,,,,,,,,,,,,,,,,,,,,,,,,,,,,,,,,,,,,,,,,,,,,,,,,,,,,,,,,,,,,,,,,,,,,,,,,,,,,,,,,,,,,,,,,,,
,,5b76e19d948cc40001da0e50,2024-01-06_06h39.06.712,kallum_motion_pilot,2023.2.3,Win32,62.5,5b76e19d948cc40001da0e50,6598e6a5d84f07970b831e70,6598e747b14ee5c28bf479d2,0.026,0.026,0,44,44,136,1,fivesix,,,,,,,,,,,,,,,,,,,,,,,,,,,,,,,,,,,,,,,,,,,,,,,,,,,,,,,,,,,,,,,,,,,,,,,,,,,,,,,,,,,,,,,,,,,,,,,,,,,,,,,,,,,,,,,,,,,,,,,,,,,,,,,,,,,,,,,
,,5b76e19d948cc40001da0e50,2024-01-06_06h39.06.712,kallum_motion_pilot,2023.2.3,Win32,62.5,5b76e19d948cc40001da0e50,6598e6a5d84f07970b831e70,6598e747b14ee5c28bf479d2,0.026,0.026,0,45,45,151,1,eightseven,,,,,,,,,,,,,,,,,,,,,,,,,,,,,,,,,,,,,,,,,,,,,,,,,,,,,,,,,,,,,,,,,,,,,,,,,,,,,,,,,,,,,,,,,,,,,,,,,,,,,,,,,,,,,,,,,,,,,,,,,,,,,,,,,,,,,,,
,,5b76e19d948cc40001da0e50,2024-01-06_06h39.06.712,kallum_motion_pilot,2023.2.3,Win32,62.5,5b76e19d948cc40001da0e50,6598e6a5d84f07970b831e70,6598e747b14ee5c28bf479d2,0.026,0.026,0,46,46,134,1,eightsix,,,,,,,,,,,,,,,,,,,,,,,,,,,,,,,,,,,,,,,,,,,,,,,,,,,,,,,,,,,,,,,,,,,,,,,,,,,,,,,,,,,,,,,,,,,,,,,,,,,,,,,,,,,,,,,,,,,,,,,,,,,,,,,,,,,,,,,
,,5b76e19d948cc40001da0e50,2024-01-06_06h39.06.712,kallum_motion_pilot,2023.2.3,Win32,62.5,5b76e19d948cc40001da0e50,6598e6a5d84f07970b831e70,6598e747b14ee5c28bf479d2,0.026,0.026,0,47,47,118,1,eightsix,,,,,,,,,,,,,,,,,,,,,,,,,,,,,,,,,,,,,,,,,,,,,,,,,,,,,,,,,,,,,,,,,,,,,,,,,,,,,,,,,,,,,,,,,,,,,,,,,,,,,,,,,,,,,,,,,,,,,,,,,,,,,,,,,,,,,,,
,,5b76e19d948cc40001da0e50,2024-01-06_06h39.06.712,kallum_motion_pilot,2023.2.3,Win32,62.5,5b76e19d948cc40001da0e50,6598e6a5d84f07970b831e70,6598e747b14ee5c28bf479d2,0.026,0.026,0,48,48,156,1,sevenfive,,,,,,,,,,,,,,,,,,,,,,,,,,,,,,,,,,,,,,,,,,,,,,,,,,,,,,,,,,,,,,,,,,,,,,,,,,,,,,,,,,,,,,,,,,,,,,,,,,,,,,,,,,,,,,,,,,,,,,,,,,,,,,,,,,,,,,,
,,5b76e19d948cc40001da0e50,2024-01-06_06h39.06.712,kallum_motion_pilot,2023.2.3,Win32,62.5,5b76e19d948cc40001da0e50,6598e6a5d84f07970b831e70,6598e747b14ee5c28bf479d2,0.026,0.026,0,49,49,65,1,onethree,,,,,,,,,,,,,,,,,,,,,,,,,,,,,,,,,,,,,,,,,,,,,,,,,,,,,,,,,,,,,,,,,,,,,,,,,,,,,,,,,,,,,,,,,,,,,,,,,,,,,,,,,,,,,,,,,,,,,,,,,,,,,,,,,,,,,,,
,,5b76e19d948cc40001da0e50,2024-01-06_06h39.06.712,kallum_motion_pilot,2023.2.3,Win32,62.5,5b76e19d948cc40001da0e50,6598e6a5d84f07970b831e70,6598e747b14ee5c28bf479d2,0.026,0.026,0,50,50,89,1,fiveseven,,,,,,,,,,,,,,,,,,,,,,,,,,,,,,,,,,,,,,,,,,,,,,,,,,,,,,,,,,,,,,,,,,,,,,,,,,,,,,,,,,,,,,,,,,,,,,,,,,,,,,,,,,,,,,,,,,,,,,,,,,,,,,,,,,,,,,,
,,5b76e19d948cc40001da0e50,2024-01-06_06h39.06.712,kallum_motion_pilot,2023.2.3,Win32,62.5,5b76e19d948cc40001da0e50,6598e6a5d84f07970b831e70,6598e747b14ee5c28bf479d2,0.026,0.026,0,51,51,152,1,fivesix,,,,,,,,,,,,,,,,,,,,,,,,,,,,,,,,,,,,,,,,,,,,,,,,,,,,,,,,,,,,,,,,,,,,,,,,,,,,,,,,,,,,,,,,,,,,,,,,,,,,,,,,,,,,,,,,,,,,,,,,,,,,,,,,,,,,,,,
,,5b76e19d948cc40001da0e50,2024-01-06_06h39.06.712,kallum_motion_pilot,2023.2.3,Win32,62.5,5b76e19d948cc40001da0e50,6598e6a5d84f07970b831e70,6598e747b14ee5c28bf479d2,0.026,0.026,0,52,52,140,1,sevenfive,,,,,,,,,,,,,,,,,,,,,,,,,,,,,,,,,,,,,,,,,,,,,,,,,,,,,,,,,,,,,,,,,,,,,,,,,,,,,,,,,,,,,,,,,,,,,,,,,,,,,,,,,,,,,,,,,,,,,,,,,,,,,,,,,,,,,,,
,,5b76e19d948cc40001da0e50,2024-01-06_06h39.06.712,kallum_motion_pilot,2023.2.3,Win32,62.5,5b76e19d948cc40001da0e50,6598e6a5d84f07970b831e70,6598e747b14ee5c28bf479d2,0.026,0.026,0,53,53,67,1,twofour,,,,,,,,,,,,,,,,,,,,,,,,,,,,,,,,,,,,,,,,,,,,,,,,,,,,,,,,,,,,,,,,,,,,,,,,,,,,,,,,,,,,,,,,,,,,,,,,,,,,,,,,,,,,,,,,,,,,,,,,,,,,,,,,,,,,,,,
,,5b76e19d948cc40001da0e50,2024-01-06_06h39.06.712,kallum_motion_pilot,2023.2.3,Win32,62.5,5b76e19d948cc40001da0e50,6598e6a5d84f07970b831e70,6598e747b14ee5c28bf479d2,0.026,0.027,0,54,54,76,1,threeone,,,,,,,,,,,,,,,,,,,,,,,,,,,,,,,,,,,,,,,,,,,,,,,,,,,,,,,,,,,,,,,,,,,,,,,,,,,,,,,,,,,,,,,,,,,,,,,,,,,,,,,,,,,,,,,,,,,,,,,,,,,,,,,,,,,,,,,
,,5b76e19d948cc40001da0e50,2024-01-06_06h39.06.712,kallum_motion_pilot,2023.2.3,Win32,62.5,5b76e19d948cc40001da0e50,6598e6a5d84f07970b831e70,6598e747b14ee5c28bf479d2,0.027,0.027,0,55,55,16,1,onetwo,,,,,,,,,,,,,,,,,,,,,,,,,,,,,,,,,,,,,,,,,,,,,,,,,,,,,,,,,,,,,,,,,,,,,,,,,,,,,,,,,,,,,,,,,,,,,,,,,,,,,,,,,,,,,,,,,,,,,,,,,,,,,,,,,,,,,,,
,,5b76e19d948cc40001da0e50,2024-01-06_06h39.06.712,kallum_motion_pilot,2023.2.3,Win32,62.5,5b76e19d948cc40001da0e50,6598e6a5d84f07970b831e70,6598e747b14ee5c28bf479d2,0.028,0.028,0,56,56,145,1,fiveseven,,,,,,,,,,,,,,,,,,,,,,,,,,,,,,,,,,,,,,,,,,,,,,,,,,,,,,,,,,,,,,,,,,,,,,,,,,,,,,,,,,,,,,,,,,,,,,,,,,,,,,,,,,,,,,,,,,,,,,,,,,,,,,,,,,,,,,,
,,5b76e19d948cc40001da0e50,2024-01-06_06h39.06.712,kallum_motion_pilot,2023.2.3,Win32,62.5,5b76e19d948cc40001da0e50,6598e6a5d84f07970b831e70,6598e747b14ee5c28bf479d2,0.028,0.028,0,57,57,124,1,sevenfive,,,,,,,,,,,,,,,,,,,,,,,,,,,,,,,,,,,,,,,,,,,,,,,,,,,,,,,,,,,,,,,,,,,,,,,,,,,,,,,,,,,,,,,,,,,,,,,,,,,,,,,,,,,,,,,,,,,,,,,,,,,,,,,,,,,,,,,
,,5b76e19d948cc40001da0e50,2024-01-06_06h39.06.712,kallum_motion_pilot,2023.2.3,Win32,62.5,5b76e19d948cc40001da0e50,6598e6a5d84f07970b831e70,6598e747b14ee5c28bf479d2,0.028,0.028,0,58,58,96,1,fivesix,,,,,,,,,,,,,,,,,,,,,,,,,,,,,,,,,,,,,,,,,,,,,,,,,,,,,,,,,,,,,,,,,,,,,,,,,,,,,,,,,,,,,,,,,,,,,,,,,,,,,,,,,,,,,,,,,,,,,,,,,,,,,,,,,,,,,,,
,,5b76e19d948cc40001da0e50,2024-01-06_06h39.06.712,kallum_motion_pilot,2023.2.3,Win32,62.5,5b76e19d948cc40001da0e50,6598e6a5d84f07970b831e70,6598e747b14ee5c28bf479d2,0.028,0.028,0,59,59,53,1,threefour,,,,,,,,,,,,,,,,,,,,,,,,,,,,,,,,,,,,,,,,,,,,,,,,,,,,,,,,,,,,,,,,,,,,,,,,,,,,,,,,,,,,,,,,,,,,,,,,,,,,,,,,,,,,,,,,,,,,,,,,,,,,,,,,,,,,,,,
,,5b76e19d948cc40001da0e50,2024-01-06_06h39.06.712,kallum_motion_pilot,2023.2.3,Win32,62.5,5b76e19d948cc40001da0e50,6598e6a5d84f07970b831e70,6598e747b14ee5c28bf479d2,0.028,0.028,0,60,60,22,1,fourtwo,,,,,,,,,,,,,,,,,,,,,,,,,,,,,,,,,,,,,,,,,,,,,,,,,,,,,,,,,,,,,,,,,,,,,,,,,,,,,,,,,,,,,,,,,,,,,,,,,,,,,,,,,,,,,,,,,,,,,,,,,,,,,,,,,,,,,,,
,,5b76e19d948cc40001da0e50,2024-01-06_06h39.06.712,kallum_motion_pilot,2023.2.3,Win32,62.5,5b76e19d948cc40001da0e50,6598e6a5d84f07970b831e70,6598e747b14ee5c28bf479d2,0.028,0.028,0,61,61,0,1,onetwo,,,,,,,,,,,,,,,,,,,,,,,,,,,,,,,,,,,,,,,,,,,,,,,,,,,,,,,,,,,,,,,,,,,,,,,,,,,,,,,,,,,,,,,,,,,,,,,,,,,,,,,,,,,,,,,,,,,,,,,,,,,,,,,,,,,,,,,
,,5b76e19d948cc40001da0e50,2024-01-06_06h39.06.712,kallum_motion_pilot,2023.2.3,Win32,62.5,5b76e19d948cc40001da0e50,6598e6a5d84f07970b831e70,6598e747b14ee5c28bf479d2,0.028,0.028,0,62,62,12,1,threeone,,,,,,,,,,,,,,,,,,,,,,,,,,,,,,,,,,,,,,,,,,,,,,,,,,,,,,,,,,,,,,,,,,,,,,,,,,,,,,,,,,,,,,,,,,,,,,,,,,,,,,,,,,,,,,,,,,,,,,,,,,,,,,,,,,,,,,,
,,5b76e19d948cc40001da0e50,2024-01-06_06h39.06.712,kallum_motion_pilot,2023.2.3,Win32,62.5,5b76e19d948cc40001da0e50,6598e6a5d84f07970b831e70,6598e747b14ee5c28bf479d2,0.028,0.028,0,63,63,64,1,onetwo,,,,,,,,,,,,,,,,,,,,,,,,,,,,,,,,,,,,,,,,,,,,,,,,,,,,,,,,,,,,,,,,,,,,,,,,,,,,,,,,,,,,,,,,,,,,,,,,,,,,,,,,,,,,,,,,,,,,,,,,,,,,,,,,,,,,,,,
,,5b76e19d948cc40001da0e50,2024-01-06_06h39.06.712,kallum_motion_pilot,2023.2.3,Win32,62.5,5b76e19d948cc40001da0e50,6598e6a5d84f07970b831e70,6598e747b14ee5c28bf479d2,0.029,0.029,0,64,64,101,1,seveneight,,,,,,,,,,,,,,,,,,,,,,,,,,,,,,,,,,,,,,,,,,,,,,,,,,,,,,,,,,,,,,,,,,,,,,,,,,,,,,,,,,,,,,,,,,,,,,,,,,,,,,,,,,,,,,,,,,,,,,,,,,,,,,,,,,,,,,,
,,5b76e19d948cc40001da0e50,2024-01-06_06h39.06.712,kallum_motion_pilot,2023.2.3,Win32,62.5,5b76e19d948cc40001da0e50,6598e6a5d84f07970b831e70,6598e747b14ee5c28bf479d2,0.029,0.029,0,65,65,8,1,onetwo,,,,,,,,,,,,,,,,,,,,,,,,,,,,,,,,,,,,,,,,,,,,,,,,,,,,,,,,,,,,,,,,,,,,,,,,,,,,,,,,,,,,,,,,,,,,,,,,,,,,,,,,,,,,,,,,,,,,,,,,,,,,,,,,,,,,,,,
,,5b76e19d948cc40001da0e50,2024-01-06_06h39.06.712,kallum_motion_pilot,2023.2.3,Win32,62.5,5b76e19d948cc40001da0e50,6598e6a5d84f07970b831e70,6598e747b14ee5c28bf479d2,0.029,0.029,0,66,66,120,1,fivesix,,,,,,,,,,,,,,,,,,,,,,,,,,,,,,,,,,,,,,,,,,,,,,,,,,,,,,,,,,,,,,,,,,,,,,,,,,,,,,,,,,,,,,,,,,,,,,,,,,,,,,,,,,,,,,,,,,,,,,,,,,,,,,,,,,,,,,,
,,5b76e19d948cc40001da0e50,2024-01-06_06h39.06.712,kallum_motion_pilot,2023.2.3,Win32,62.5,5b76e19d948cc40001da0e50,6598e6a5d84f07970b831e70,6598e747b14ee5c28bf479d2,0.029,0.029,0,67,67,49,1,onethree,,,,,,,,,,,,,,,,,,,,,,,,,,,,,,,,,,,,,,,,,,,,,,,,,,,,,,,,,,,,,,,,,,,,,,,,,,,,,,,,,,,,,,,,,,,,,,,,,,,,,,,,,,,,,,,,,,,,,,,,,,,,,,,,,,,,,,,
,,5b76e19d948cc40001da0e50,2024-01-06_06h39.06.712,kallum_motion_pilot,2023.2.3,Win32,62.5,5b76e19d948cc40001da0e50,6598e6a5d84f07970b831e70,6598e747b14ee5c28bf479d2,0.029,0.029,0,68,68,7,1,fourthree,,,,,,,,,,,,,,,,,,,,,,,,,,,,,,,,,,,,,,,,,,,,,,,,,,,,,,,,,,,,,,,,,,,,,,,,,,,,,,,,,,,,,,,,,,,,,,,,,,,,,,,,,,,,,,,,,,,,,,,,,,,,,,,,,,,,,,,
,,5b76e19d948cc40001da0e50,2024-01-06_06h39.06.712,kallum_motion_pilot,2023.2.3,Win32,62.5,5b76e19d948cc40001da0e50,6598e6a5d84f07970b831e70,6598e747b14ee5c28bf479d2,0.029,0.029,0,69,69,38,1,fourtwo,,,,,,,,,,,,,,,,,,,,,,,,,,,,,,,,,,,,,,,,,,,,,,,,,,,,,,,,,,,,,,,,,,,,,,,,,,,,,,,,,,,,,,,,,,,,,,,,,,,,,,,,,,,,,,,,,,,,,,,,,,,,,,,,,,,,,,,
,,5b76e19d948cc40001da0e50,2024-01-06_06h39.06.712,kallum_motion_pilot,2023.2.3,Win32,62.5,5b76e19d948cc40001da0e50,6598e6a5d84f07970b831e70,6598e747b14ee5c28bf479d2,0.029,0.029,0,70,70,31,1,fourthree,,,,,,,,,,,,,,,,,,,,,,,,,,,,,,,,,,,,,,,,,,,,,,,,,,,,,,,,,,,,,,,,,,,,,,,,,,,,,,,,,,,,,,,,,,,,,,,,,,,,,,,,,,,,,,,,,,,,,,,,,,,,,,,,,,,,,,,
,,5b76e19d948cc40001da0e50,2024-01-06_06h39.06.712,kallum_motion_pilot,2023.2.3,Win32,62.5,5b76e19d948cc40001da0e50,6598e6a5d84f07970b831e70,6598e747b14ee5c28bf479d2,0.029,0.029,0,71,71,126,1,eightsix,,,,,,,,,,,,,,,,,,,,,,,,,,,,,,,,,,,,,,,,,,,,,,,,,,,,,,,,,,,,,,,,,,,,,,,,,,,,,,,,,,,,,,,,,,,,,,,,,,,,,,,,,,,,,,,,,,,,,,,,,,,,,,,,,,,,,,,
,,5b76e19d948cc40001da0e50,2024-01-06_06h39.06.712,kallum_motion_pilot,2023.2.3,Win32,62.5,5b76e19d948cc40001da0e50,6598e6a5d84f07970b831e70,6598e747b14ee5c28bf479d2,0.029,0.029,0,72,72,21,1,threefour,,,,,,,,,,,,,,,,,,,,,,,,,,,,,,,,,,,,,,,,,,,,,,,,,,,,,,,,,,,,,,,,,,,,,,,,,,,,,,,,,,,,,,,,,,,,,,,,,,,,,,,,,,,,,,,,,,,,,,,,,,,,,,,,,,,,,,,
,,5b76e19d948cc40001da0e50,2024-01-06_06h39.06.712,kallum_motion_pilot,2023.2.3,Win32,62.5,5b76e19d948cc40001da0e50,6598e6a5d84f07970b831e70,6598e747b14ee5c28bf479d2,0.029,0.029,0,73,73,62,1,fourtwo,,,,,,,,,,,,,,,,,,,,,,,,,,,,,,,,,,,,,,,,,,,,,,,,,,,,,,,,,,,,,,,,,,,,,,,,,,,,,,,,,,,,,,,,,,,,,,,,,,,,,,,,,,,,,,,,,,,,,,,,,,,,,,,,,,,,,,,
,,5b76e19d948cc40001da0e50,2024-01-06_06h39.06.712,kallum_motion_pilot,2023.2.3,Win32,62.5,5b76e19d948cc40001da0e50,6598e6a5d84f07970b831e70,6598e747b14ee5c28bf479d2,0.029,0.029,0,74,74,143,1,eightseven,,,,,,,,,,,,,,,,,,,,,,,,,,,,,,,,,,,,,,,,,,,,,,,,,,,,,,,,,,,,,,,,,,,,,,,,,,,,,,,,,,,,,,,,,,,,,,,,,,,,,,,,,,,,,,,,,,,,,,,,,,,,,,,,,,,,,,,
,,5b76e19d948cc40001da0e50,2024-01-06_06h39.06.712,kallum_motion_pilot,2023.2.3,Win32,62.5,5b76e19d948cc40001da0e50,6598e6a5d84f07970b831e70,6598e747b14ee5c28bf479d2,0.029,0.029,0,75,75,153,1,fiveseven,,,,,,,,,,,,,,,,,,,,,,,,,,,,,,,,,,,,,,,,,,,,,,,,,,,,,,,,,,,,,,,,,,,,,,,,,,,,,,,,,,,,,,,,,,,,,,,,,,,,,,,,,,,,,,,,,,,,,,,,,,,,,,,,,,,,,,,
,,5b76e19d948cc40001da0e50,2024-01-06_06h39.06.712,kallum_motion_pilot,2023.2.3,Win32,62.5,5b76e19d948cc40001da0e50,6598e6a5d84f07970b831e70,6598e747b14ee5c28bf479d2,0.029,0.029,0,76,76,83,1,sixeight,,,,,,,,,,,,,,,,,,,,,,,,,,,,,,,,,,,,,,,,,,,,,,,,,,,,,,,,,,,,,,,,,,,,,,,,,,,,,,,,,,,,,,,,,,,,,,,,,,,,,,,,,,,,,,,,,,,,,,,,,,,,,,,,,,,,,,,
,,5b76e19d948cc40001da0e50,2024-01-06_06h39.06.712,kallum_motion_pilot,2023.2.3,Win32,62.5,5b76e19d948cc40001da0e50,6598e6a5d84f07970b831e70,6598e747b14ee5c28bf479d2,0.029,0.029,0,77,77,17,1,onethree,,,,,,,,,,,,,,,,,,,,,,,,,,,,,,,,,,,,,,,,,,,,,,,,,,,,,,,,,,,,,,,,,,,,,,,,,,,,,,,,,,,,,,,,,,,,,,,,,,,,,,,,,,,,,,,,,,,,,,,,,,,,,,,,,,,,,,,
,,5b76e19d948cc40001da0e50,2024-01-06_06h39.06.712,kallum_motion_pilot,2023.2.3,Win32,62.5,5b76e19d948cc40001da0e50,6598e6a5d84f07970b831e70,6598e747b14ee5c28bf479d2,0.029,0.029,0,78,78,32,1,onetwo,,,,,,,,,,,,,,,,,,,,,,,,,,,,,,,,,,,,,,,,,,,,,,,,,,,,,,,,,,,,,,,,,,,,,,,,,,,,,,,,,,,,,,,,,,,,,,,,,,,,,,,,,,,,,,,,,,,,,,,,,,,,,,,,,,,,,,,
,,5b76e19d948cc40001da0e50,2024-01-06_06h39.06.712,kallum_motion_pilot,2023.2.3,Win32,62.5,5b76e19d948cc40001da0e50,6598e6a5d84f07970b831e70,6598e747b14ee5c28bf479d2,0.029,0.029,0,79,79,35,1,twofour,,,,,,,,,,,,,,,,,,,,,,,,,,,,,,,,,,,,,,,,,,,,,,,,,,,,,,,,,,,,,,,,,,,,,,,,,,,,,,,,,,,,,,,,,,,,,,,,,,,,,,,,,,,,,,,,,,,,,,,,,,,,,,,,,,,,,,,
,,5b76e19d948cc40001da0e50,2024-01-06_06h39.06.712,kallum_motion_pilot,2023.2.3,Win32,62.5,5b76e19d948cc40001da0e50,6598e6a5d84f07970b831e70,6598e747b14ee5c28bf479d2,0.03,0.03,0,80,80,63,1,fourthree,,,,,,,,,,,,,,,,,,,,,,,,,,,,,,,,,,,,,,,,,,,,,,,,,,,,,,,,,,,,,,,,,,,,,,,,,,,,,,,,,,,,,,,,,,,,,,,,,,,,,,,,,,,,,,,,,,,,,,,,,,,,,,,,,,,,,,,
,,5b76e19d948cc40001da0e50,2024-01-06_06h39.06.712,kallum_motion_pilot,2023.2.3,Win32,62.5,5b76e19d948cc40001da0e50,6598e6a5d84f07970b831e70,6598e747b14ee5c28bf479d2,0.03,0.031,0,81,81,41,1,onethree,,,,,,,,,,,,,,,,,,,,,,,,,,,,,,,,,,,,,,,,,,,,,,,,,,,,,,,,,,,,,,,,,,,,,,,,,,,,,,,,,,,,,,,,,,,,,,,,,,,,,,,,,,,,,,,,,,,,,,,,,,,,,,,,,,,,,,,
,,5b76e19d948cc40001da0e50,2024-01-06_06h39.06.712,kallum_motion_pilot,2023.2.3,Win32,62.5,5b76e19d948cc40001da0e50,6598e6a5d84f07970b831e70,6598e747b14ee5c28bf479d2,0.031,0.031,0,82,82,60,1,threeone,,,,,,,,,,,,,,,,,,,,,,,,,,,,,,,,,,,,,,,,,,,,,,,,,,,,,,,,,,,,,,,,,,,,,,,,,,,,,,,,,,,,,,,,,,,,,,,,,,,,,,,,,,,,,,,,,,,,,,,,,,,,,,,,,,,,,,,
,,5b76e19d948cc40001da0e50,2024-01-06_06h39.06.712,kallum_motion_pilot,2023.2.3,Win32,62.5,5b76e19d948cc40001da0e50,6598e6a5d84f07970b831e70,6598e747b14ee5c28bf479d2,0.031,0.031,0,83,83,87,1,eightseven,,,,,,,,,,,,,,,,,,,,,,,,,,,,,,,,,,,,,,,,,,,,,,,,,,,,,,,,,,,,,,,,,,,,,,,,,,,,,,,,,,,,,,,,,,,,,,,,,,,,,,,,,,,,,,,,,,,,,,,,,,,,,,,,,,,,,,,
,,5b76e19d948cc40001da0e50,2024-01-06_06h39.06.712,kallum_motion_pilot,2023.2.3,Win32,62.5,5b76e19d948cc40001da0e50,6598e6a5d84f07970b831e70,6598e747b14ee5c28bf479d2,0.031,0.031,0,84,84,130,1,sixfive,,,,,,,,,,,,,,,,,,,,,,,,,,,,,,,,,,,,,,,,,,,,,,,,,,,,,,,,,,,,,,,,,,,,,,,,,,,,,,,,,,,,,,,,,,,,,,,,,,,,,,,,,,,,,,,,,,,,,,,,,,,,,,,,,,,,,,,
,,5b76e19d948cc40001da0e50,2024-01-06_06h39.06.712,kallum_motion_pilot,2023.2.3,Win32,62.5,5b76e19d948cc40001da0e50,6598e6a5d84f07970b831e70,6598e747b14ee5c28bf479d2,0.031,0.031,0,85,85,52,1,threeone,,,,,,,,,,,,,,,,,,,,,,,,,,,,,,,,,,,,,,,,,,,,,,,,,,,,,,,,,,,,,,,,,,,,,,,,,,,,,,,,,,,,,,,,,,,,,,,,,,,,,,,,,,,,,,,,,,,,,,,,,,,,,,,,,,,,,,,
,,5b76e19d948cc40001da0e50,2024-01-06_06h39.06.712,kallum_motion_pilot,2023.2.3,Win32,62.5,5b76e19d948cc40001da0e50,6598e6a5d84f07970b831e70,6598e747b14ee5c28bf479d2,0.031,0.031,0,86,86,46,1,fourtwo,,,,,,,,,,,,,,,,,,,,,,,,,,,,,,,,,,,,,,,,,,,,,,,,,,,,,,,,,,,,,,,,,,,,,,,,,,,,,,,,,,,,,,,,,,,,,,,,,,,,,,,,,,,,,,,,,,,,,,,,,,,,,,,,,,,,,,,
,,5b76e19d948cc40001da0e50,2024-01-06_06h39.06.712,kallum_motion_pilot,2023.2.3,Win32,62.5,5b76e19d948cc40001da0e50,6598e6a5d84f07970b831e70,6598e747b14ee5c28bf479d2,0.031,0.031,0,87,87,18,1,twoone,,,,,,,,,,,,,,,,,,,,,,,,,,,,,,,,,,,,,,,,,,,,,,,,,,,,,,,,,,,,,,,,,,,,,,,,,,,,,,,,,,,,,,,,,,,,,,,,,,,,,,,,,,,,,,,,,,,,,,,,,,,,,,,,,,,,,,,
,,5b76e19d948cc40001da0e50,2024-01-06_06h39.06.712,kallum_motion_pilot,2023.2.3,Win32,62.5,5b76e19d948cc40001da0e50,6598e6a5d84f07970b831e70,6598e747b14ee5c28bf479d2,0.031,0.031,0,88,88,155,1,sixeight,,,,,,,,,,,,,,,,,,,,,,,,,,,,,,,,,,,,,,,,,,,,,,,,,,,,,,,,,,,,,,,,,,,,,,,,,,,,,,,,,,,,,,,,,,,,,,,,,,,,,,,,,,,,,,,,,,,,,,,,,,,,,,,,,,,,,,,
,,5b76e19d948cc40001da0e50,2024-01-06_06h39.06.712,kallum_motion_pilot,2023.2.3,Win32,62.5,5b76e19d948cc40001da0e50,6598e6a5d84f07970b831e70,6598e747b14ee5c28bf479d2,0.031,0.031,0,89,89,117,1,seveneight,,,,,,,,,,,,,,,,,,,,,,,,,,,,,,,,,,,,,,,,,,,,,,,,,,,,,,,,,,,,,,,,,,,,,,,,,,,,,,,,,,,,,,,,,,,,,,,,,,,,,,,,,,,,,,,,,,,,,,,,,,,,,,,,,,,,,,,
,,5b76e19d948cc40001da0e50,2024-01-06_06h39.06.712,kallum_motion_pilot,2023.2.3,Win32,62.5,5b76e19d948cc40001da0e50,6598e6a5d84f07970b831e70,6598e747b14ee5c28bf479d2,0.031,0.031,0,90,90,110,1,eightsix,,,,,,,,,,,,,,,,,,,,,,,,,,,,,,,,,,,,,,,,,,,,,,,,,,,,,,,,,,,,,,,,,,,,,,,,,,,,,,,,,,,,,,,,,,,,,,,,,,,,,,,,,,,,,,,,,,,,,,,,,,,,,,,,,,,,,,,
,,5b76e19d948cc40001da0e50,2024-01-06_06h39.06.712,kallum_motion_pilot,2023.2.3,Win32,62.5,5b76e19d948cc40001da0e50,6598e6a5d84f07970b831e70,6598e747b14ee5c28bf479d2,0.031,0.031,0,91,91,113,1,fiveseven,,,,,,,,,,,,,,,,,,,,,,,,,,,,,,,,,,,,,,,,,,,,,,,,,,,,,,,,,,,,,,,,,,,,,,,,,,,,,,,,,,,,,,,,,,,,,,,,,,,,,,,,,,,,,,,,,,,,,,,,,,,,,,,,,,,,,,,
,,5b76e19d948cc40001da0e50,2024-01-06_06h39.06.712,kallum_motion_pilot,2023.2.3,Win32,62.5,5b76e19d948cc40001da0e50,6598e6a5d84f07970b831e70,6598e747b14ee5c28bf479d2,0.031,0.032,0,92,92,19,1,twofour,,,,,,,,,,,,,,,,,,,,,,,,,,,,,,,,,,,,,,,,,,,,,,,,,,,,,,,,,,,,,,,,,,,,,,,,,,,,,,,,,,,,,,,,,,,,,,,,,,,,,,,,,,,,,,,,,,,,,,,,,,,,,,,,,,,,,,,
,,5b76e19d948cc40001da0e50,2024-01-06_06h39.06.712,kallum_motion_pilot,2023.2.3,Win32,62.5,5b76e19d948cc40001da0e50,6598e6a5d84f07970b831e70,6598e747b14ee5c28bf479d2,0.032,0.032,0,93,93,9,1,onethree,,,,,,,,,,,,,,,,,,,,,,,,,,,,,,,,,,,,,,,,,,,,,,,,,,,,,,,,,,,,,,,,,,,,,,,,,,,,,,,,,,,,,,,,,,,,,,,,,,,,,,,,,,,,,,,,,,,,,,,,,,,,,,,,,,,,,,,
,,5b76e19d948cc40001da0e50,2024-01-06_06h39.06.712,kallum_motion_pilot,2023.2.3,Win32,62.5,5b76e19d948cc40001da0e50,6598e6a5d84f07970b831e70,6598e747b14ee5c28bf479d2,0.032,0.032,0,94,94,51,1,twofour,,,,,,,,,,,,,,,,,,,,,,,,,,,,,,,,,,,,,,,,,,,,,,,,,,,,,,,,,,,,,,,,,,,,,,,,,,,,,,,,,,,,,,,,,,,,,,,,,,,,,,,,,,,,,,,,,,,,,,,,,,,,,,,,,,,,,,,
,,5b76e19d948cc40001da0e50,2024-01-06_06h39.06.712,kallum_motion_pilot,2023.2.3,Win32,62.5,5b76e19d948cc40001da0e50,6598e6a5d84f07970b831e70,6598e747b14ee5c28bf479d2,0.032,0.032,0,95,95,128,1,fivesix,,,,,,,,,,,,,,,,,,,,,,,,,,,,,,,,,,,,,,,,,,,,,,,,,,,,,,,,,,,,,,,,,,,,,,,,,,,,,,,,,,,,,,,,,,,,,,,,,,,,,,,,,,,,,,,,,,,,,,,,,,,,,,,,,,,,,,,
,,5b76e19d948cc40001da0e50,2024-01-06_06h39.06.712,kallum_motion_pilot,2023.2.3,Win32,62.5,5b76e19d948cc40001da0e50,6598e6a5d84f07970b831e70,6598e747b14ee5c28bf479d2,0.032,0.032,0,96,96,108,1,sevenfive,,,,,,,,,,,,,,,,,,,,,,,,,,,,,,,,,,,,,,,,,,,,,,,,,,,,,,,,,,,,,,,,,,,,,,,,,,,,,,,,,,,,,,,,,,,,,,,,,,,,,,,,,,,,,,,,,,,,,,,,,,,,,,,,,,,,,,,
,,5b76e19d948cc40001da0e50,2024-01-06_06h39.06.712,kallum_motion_pilot,2023.2.3,Win32,62.5,5b76e19d948cc40001da0e50,6598e6a5d84f07970b831e70,6598e747b14ee5c28bf479d2,0.032,0.032,0,97,97,61,1,threefour,,,,,,,,,,,,,,,,,,,,,,,,,,,,,,,,,,,,,,,,,,,,,,,,,,,,,,,,,,,,,,,,,,,,,,,,,,,,,,,,,,,,,,,,,,,,,,,,,,,,,,,,,,,,,,,,,,,,,,,,,,,,,,,,,,,,,,,
,,5b76e19d948cc40001da0e50,2024-01-06_06h39.06.712,kallum_motion_pilot,2023.2.3,Win32,62.5,5b76e19d948cc40001da0e50,6598e6a5d84f07970b831e70,6598e747b14ee5c28bf479d2,0.032,0.032,0,98,98,99,1,sixeight,,,,,,,,,,,,,,,,,,,,,,,,,,,,,,,,,,,,,,,,,,,,,,,,,,,,,,,,,,,,,,,,,,,,,,,,,,,,,,,,,,,,,,,,,,,,,,,,,,,,,,,,,,,,,,,,,,,,,,,,,,,,,,,,,,,,,,,
,,5b76e19d948cc40001da0e50,2024-01-06_06h39.06.712,kallum_motion_pilot,2023.2.3,Win32,62.5,5b76e19d948cc40001da0e50,6598e6a5d84f07970b831e70,6598e747b14ee5c28bf479d2,0.033,0.033,0,99,99,77,1,threefour,,,,,,,,,,,,,,,,,,,,,,,,,,,,,,,,,,,,,,,,,,,,,,,,,,,,,,,,,,,,,,,,,,,,,,,,,,,,,,,,,,,,,,,,,,,,,,,,,,,,,,,,,,,,,,,,,,,,,,,,,,,,,,,,,,,,,,,
,,5b76e19d948cc40001da0e50,2024-01-06_06h39.06.712,kallum_motion_pilot,2023.2.3,Win32,62.5,5b76e19d948cc40001da0e50,6598e6a5d84f07970b831e70,6598e747b14ee5c28bf479d2,0.033,0.033,0,100,100,150,1,eightsix,,,,,,,,,,,,,,,,,,,,,,,,,,,,,,,,,,,,,,,,,,,,,,,,,,,,,,,,,,,,,,,,,,,,,,,,,,,,,,,,,,,,,,,,,,,,,,,,,,,,,,,,,,,,,,,,,,,,,,,,,,,,,,,,,,,,,,,
,,5b76e19d948cc40001da0e50,2024-01-06_06h39.06.712,kallum_motion_pilot,2023.2.3,Win32,62.5,5b76e19d948cc40001da0e50,6598e6a5d84f07970b831e70,6598e747b14ee5c28bf479d2,0.033,0.033,0,101,101,2,1,twoone,,,,,,,,,,,,,,,,,,,,,,,,,,,,,,,,,,,,,,,,,,,,,,,,,,,,,,,,,,,,,,,,,,,,,,,,,,,,,,,,,,,,,,,,,,,,,,,,,,,,,,,,,,,,,,,,,,,,,,,,,,,,,,,,,,,,,,,
,,5b76e19d948cc40001da0e50,2024-01-06_06h39.06.712,kallum_motion_pilot,2023.2.3,Win32,62.5,5b76e19d948cc40001da0e50,6598e6a5d84f07970b831e70,6598e747b14ee5c28bf479d2,0.033,0.033,0,102,102,112,1,fivesix,,,,,,,,,,,,,,,,,,,,,,,,,,,,,,,,,,,,,,,,,,,,,,,,,,,,,,,,,,,,,,,,,,,,,,,,,,,,,,,,,,,,,,,,,,,,,,,,,,,,,,,,,,,,,,,,,,,,,,,,,,,,,,,,,,,,,,,
,,5b76e19d948cc40001da0e50,2024-01-06_06h39.06.712,kallum_motion_pilot,2023.2.3,Win32,62.5,5b76e19d948cc40001da0e50,6598e6a5d84f07970b831e70,6598e747b14ee5c28bf479d2,0.033,0.033,0,103,103,109,1,seveneight,,,,,,,,,,,,,,,,,,,,,,,,,,,,,,,,,,,,,,,,,,,,,,,,,,,,,,,,,,,,,,,,,,,,,,,,,,,,,,,,,,,,,,,,,,,,,,,,,,,,,,,,,,,,,,,,,,,,,,,,,,,,,,,,,,,,,,,
,,5b76e19d948cc40001da0e50,2024-01-06_06h39.06.712,kallum_motion_pilot,2023.2.3,Win32,62.5,5b76e19d948cc40001da0e50,6598e6a5d84f07970b831e70,6598e747b14ee5c28bf479d2,0.033,0.033,0,104,104,95,1,eightseven,,,,,,,,,,,,,,,,,,,,,,,,,,,,,,,,,,,,,,,,,,,,,,,,,,,,,,,,,,,,,,,,,,,,,,,,,,,,,,,,,,,,,,,,,,,,,,,,,,,,,,,,,,,,,,,,,,,,,,,,,,,,,,,,,,,,,,,
,,5b76e19d948cc40001da0e50,2024-01-06_06h39.06.712,kallum_motion_pilot,2023.2.3,Win32,62.5,5b76e19d948cc40001da0e50,6598e6a5d84f07970b831e70,6598e747b14ee5c28bf479d2,0.033,0.033,0,105,105,55,1,fourthree,,,,,,,,,,,,,,,,,,,,,,,,,,,,,,,,,,,,,,,,,,,,,,,,,,,,,,,,,,,,,,,,,,,,,,,,,,,,,,,,,,,,,,,,,,,,,,,,,,,,,,,,,,,,,,,,,,,,,,,,,,,,,,,,,,,,,,,
,,5b76e19d948cc40001da0e50,2024-01-06_06h39.06.712,kallum_motion_pilot,2023.2.3,Win32,62.5,5b76e19d948cc40001da0e50,6598e6a5d84f07970b831e70,6598e747b14ee5c28bf479d2,0.033,0.033,0,106,106,45,1,threefour,,,,,,,,,,,,,,,,,,,,,,,,,,,,,,,,,,,,,,,,,,,,,,,,,,,,,,,,,,,,,,,,,,,,,,,,,,,,,,,,,,,,,,,,,,,,,,,,,,,,,,,,,,,,,,,,,,,,,,,,,,,,,,,,,,,,,,,
,,5b76e19d948cc40001da0e50,2024-01-06_06h39.06.712,kallum_motion_pilot,2023.2.3,Win32,62.5,5b76e19d948cc40001da0e50,6598e6a5d84f07970b831e70,6598e747b14ee5c28bf479d2,0.033,0.033,0,107,107,4,1,threeone,,,,,,,,,,,,,,,,,,,,,,,,,,,,,,,,,,,,,,,,,,,,,,,,,,,,,,,,,,,,,,,,,,,,,,,,,,,,,,,,,,,,,,,,,,,,,,,,,,,,,,,,,,,,,,,,,,,,,,,,,,,,,,,,,,,,,,,
,,5b76e19d948cc40001da0e50,2024-01-06_06h39.06.712,kallum_motion_pilot,2023.2.3,Win32,62.5,5b76e19d948cc40001da0e50,6598e6a5d84f07970b831e70,6598e747b14ee5c28bf479d2,0.033,0.033,0,108,108,80,1,fivesix,,,,,,,,,,,,,,,,,,,,,,,,,,,,,,,,,,,,,,,,,,,,,,,,,,,,,,,,,,,,,,,,,,,,,,,,,,,,,,,,,,,,,,,,,,,,,,,,,,,,,,,,,,,,,,,,,,,,,,,,,,,,,,,,,,,,,,,
,,5b76e19d948cc40001da0e50,2024-01-06_06h39.06.712,kallum_motion_pilot,2023.2.3,Win32,62.5,5b76e19d948cc40001da0e50,6598e6a5d84f07970b831e70,6598e747b14ee5c28bf479d2,0.034,0.034,0,109,109,106,1,sixfive,,,,,,,,,,,,,,,,,,,,,,,,,,,,,,,,,,,,,,,,,,,,,,,,,,,,,,,,,,,,,,,,,,,,,,,,,,,,,,,,,,,,,,,,,,,,,,,,,,,,,,,,,,,,,,,,,,,,,,,,,,,,,,,,,,,,,,,
,,5b76e19d948cc40001da0e50,2024-01-06_06h39.06.712,kallum_motion_pilot,2023.2.3,Win32,62.5,5b76e19d948cc40001da0e50,6598e6a5d84f07970b831e70,6598e747b14ee5c28bf479d2,0.034,0.034,0,110,110,149,1,seveneight,,,,,,,,,,,,,,,,,,,,,,,,,,,,,,,,,,,,,,,,,,,,,,,,,,,,,,,,,,,,,,,,,,,,,,,,,,,,,,,,,,,,,,,,,,,,,,,,,,,,,,,,,,,,,,,,,,,,,,,,,,,,,,,,,,,,,,,
,,5b76e19d948cc40001da0e50,2024-01-06_06h39.06.712,kallum_motion_pilot,2023.2.3,Win32,62.5,5b76e19d948cc40001da0e50,6598e6a5d84f07970b831e70,6598e747b14ee5c28bf479d2,0.034,0.034,0,111,111,47,1,fourthree,,,,,,,,,,,,,,,,,,,,,,,,,,,,,,,,,,,,,,,,,,,,,,,,,,,,,,,,,,,,,,,,,,,,,,,,,,,,,,,,,,,,,,,,,,,,,,,,,,,,,,,,,,,,,,,,,,,,,,,,,,,,,,,,,,,,,,,
,,5b76e19d948cc40001da0e50,2024-01-06_06h39.06.712,kallum_motion_pilot,2023.2.3,Win32,62.5,5b76e19d948cc40001da0e50,6598e6a5d84f07970b831e70,6598e747b14ee5c28bf479d2,0.034,0.034,0,112,112,3,1,twofour,,,,,,,,,,,,,,,,,,,,,,,,,,,,,,,,,,,,,,,,,,,,,,,,,,,,,,,,,,,,,,,,,,,,,,,,,,,,,,,,,,,,,,,,,,,,,,,,,,,,,,,,,,,,,,,,,,,,,,,,,,,,,,,,,,,,,,,
,,5b76e19d948cc40001da0e50,2024-01-06_06h39.06.712,kallum_motion_pilot,2023.2.3,Win32,62.5,5b76e19d948cc40001da0e50,6598e6a5d84f07970b831e70,6598e747b14ee5c28bf479d2,0.034,0.034,0,113,113,36,1,threeone,,,,,,,,,,,,,,,,,,,,,,,,,,,,,,,,,,,,,,,,,,,,,,,,,,,,,,,,,,,,,,,,,,,,,,,,,,,,,,,,,,,,,,,,,,,,,,,,,,,,,,,,,,,,,,,,,,,,,,,,,,,,,,,,,,,,,,,
,,5b76e19d948cc40001da0e50,2024-01-06_06h39.06.712,kallum_motion_pilot,2023.2.3,Win32,62.5,5b76e19d948cc40001da0e50,6598e6a5d84f07970b831e70,6598e747b14ee5c28bf479d2,0.034,0.035,0,114,114,146,1,sixfive,,,,,,,,,,,,,,,,,,,,,,,,,,,,,,,,,,,,,,,,,,,,,,,,,,,,,,,,,,,,,,,,,,,,,,,,,,,,,,,,,,,,,,,,,,,,,,,,,,,,,,,,,,,,,,,,,,,,,,,,,,,,,,,,,,,,,,,
,,5b76e19d948cc40001da0e50,2024-01-06_06h39.06.712,kallum_motion_pilot,2023.2.3,Win32,62.5,5b76e19d948cc40001da0e50,6598e6a5d84f07970b831e70,6598e747b14ee5c28bf479d2,0.035,0.035,0,115,115,29,1,threefour,,,,,,,,,,,,,,,,,,,,,,,,,,,,,,,,,,,,,,,,,,,,,,,,,,,,,,,,,,,,,,,,,,,,,,,,,,,,,,,,,,,,,,,,,,,,,,,,,,,,,,,,,,,,,,,,,,,,,,,,,,,,,,,,,,,,,,,
,,5b76e19d948cc40001da0e50,2024-01-06_06h39.06.712,kallum_motion_pilot,2023.2.3,Win32,62.5,5b76e19d948cc40001da0e50,6598e6a5d84f07970b831e70,6598e747b14ee5c28bf479d2,0.035,0.035,0,116,116,24,1,onetwo,,,,,,,,,,,,,,,,,,,,,,,,,,,,,,,,,,,,,,,,,,,,,,,,,,,,,,,,,,,,,,,,,,,,,,,,,,,,,,,,,,,,,,,,,,,,,,,,,,,,,,,,,,,,,,,,,,,,,,,,,,,,,,,,,,,,,,,
,,5b76e19d948cc40001da0e50,2024-01-06_06h39.06.712,kallum_motion_pilot,2023.2.3,Win32,62.5,5b76e19d948cc40001da0e50,6598e6a5d84f07970b831e70,6598e747b14ee5c28bf479d2,0.035,0.035,0,117,117,59,1,twofour,,,,,,,,,,,,,,,,,,,,,,,,,,,,,,,,,,,,,,,,,,,,,,,,,,,,,,,,,,,,,,,,,,,,,,,,,,,,,,,,,,,,,,,,,,,,,,,,,,,,,,,,,,,,,,,,,,,,,,,,,,,,,,,,,,,,,,,
,,5b76e19d948cc40001da0e50,2024-01-06_06h39.06.712,kallum_motion_pilot,2023.2.3,Win32,62.5,5b76e19d948cc40001da0e50,6598e6a5d84f07970b831e70,6598e747b14ee5c28bf479d2,0.035,0.035,0,118,118,27,1,twofour,,,,,,,,,,,,,,,,,,,,,,,,,,,,,,,,,,,,,,,,,,,,,,,,,,,,,,,,,,,,,,,,,,,,,,,,,,,,,,,,,,,,,,,,,,,,,,,,,,,,,,,,,,,,,,,,,,,,,,,,,,,,,,,,,,,,,,,
,,5b76e19d948cc40001da0e50,2024-01-06_06h39.06.712,kallum_motion_pilot,2023.2.3,Win32,62.5,5b76e19d948cc40001da0e50,6598e6a5d84f07970b831e70,6598e747b14ee5c28bf479d2,0.035,0.035,0,119,119,114,1,sixfive,,,,,,,,,,,,,,,,,,,,,,,,,,,,,,,,,,,,,,,,,,,,,,,,,,,,,,,,,,,,,,,,,,,,,,,,,,,,,,,,,,,,,,,,,,,,,,,,,,,,,,,,,,,,,,,,,,,,,,,,,,,,,,,,,,,,,,,
,,5b76e19d948cc40001da0e50,2024-01-06_06h39.06.712,kallum_motion_pilot,2023.2.3,Win32,62.5,5b76e19d948cc40001da0e50,6598e6a5d84f07970b831e70,6598e747b14ee5c28bf479d2,0.035,0.035,0,120,120,159,1,eightseven,,,,,,,,,,,,,,,,,,,,,,,,,,,,,,,,,,,,,,,,,,,,,,,,,,,,,,,,,,,,,,,,,,,,,,,,,,,,,,,,,,,,,,,,,,,,,,,,,,,,,,,,,,,,,,,,,,,,,,,,,,,,,,,,,,,,,,,
,,5b76e19d948cc40001da0e50,2024-01-06_06h39.06.712,kallum_motion_pilot,2023.2.3,Win32,62.5,5b76e19d948cc40001da0e50,6598e6a5d84f07970b831e70,6598e747b14ee5c28bf479d2,0.035,0.036,0,121,121,84,1,sevenfive,,,,,,,,,,,,,,,,,,,,,,,,,,,,,,,,,,,,,,,,,,,,,,,,,,,,,,,,,,,,,,,,,,,,,,,,,,,,,,,,,,,,,,,,,,,,,,,,,,,,,,,,,,,,,,,,,,,,,,,,,,,,,,,,,,,,,,,
,,5b76e19d948cc40001da0e50,2024-01-06_06h39.06.712,kallum_motion_pilot,2023.2.3,Win32,62.5,5b76e19d948cc40001da0e50,6598e6a5d84f07970b831e70,6598e747b14ee5c28bf479d2,0.036,0.036,0,122,122,91,1,sixeight,,,,,,,,,,,,,,,,,,,,,,,,,,,,,,,,,,,,,,,,,,,,,,,,,,,,,,,,,,,,,,,,,,,,,,,,,,,,,,,,,,,,,,,,,,,,,,,,,,,,,,,,,,,,,,,,,,,,,,,,,,,,,,,,,,,,,,,
,,5b76e19d948cc40001da0e50,2024-01-06_06h39.06.712,kallum_motion_pilot,2023.2.3,Win32,62.5,5b76e19d948cc40001da0e50,6598e6a5d84f07970b831e70,6598e747b14ee5c28bf479d2,0.036,0.036,0,123,123,147,1,sixeight,,,,,,,,,,,,,,,,,,,,,,,,,,,,,,,,,,,,,,,,,,,,,,,,,,,,,,,,,,,,,,,,,,,,,,,,,,,,,,,,,,,,,,,,,,,,,,,,,,,,,,,,,,,,,,,,,,,,,,,,,,,,,,,,,,,,,,,
,,5b76e19d948cc40001da0e50,2024-01-06_06h39.06.712,kallum_motion_pilot,2023.2.3,Win32,62.5,5b76e19d948cc40001da0e50,6598e6a5d84f07970b831e70,6598e747b14ee5c28bf479d2,0.036,0.036,0,124,124,1,1,onethree,,,,,,,,,,,,,,,,,,,,,,,,,,,,,,,,,,,,,,,,,,,,,,,,,,,,,,,,,,,,,,,,,,,,,,,,,,,,,,,,,,,,,,,,,,,,,,,,,,,,,,,,,,,,,,,,,,,,,,,,,,,,,,,,,,,,,,,
,,5b76e19d948cc40001da0e50,2024-01-06_06h39.06.712,kallum_motion_pilot,2023.2.3,Win32,62.5,5b76e19d948cc40001da0e50,6598e6a5d84f07970b831e70,6598e747b14ee5c28bf479d2,0.037,0.037,0,125,125,141,1,seveneight,,,,,,,,,,,,,,,,,,,,,,,,,,,,,,,,,,,,,,,,,,,,,,,,,,,,,,,,,,,,,,,,,,,,,,,,,,,,,,,,,,,,,,,,,,,,,,,,,,,,,,,,,,,,,,,,,,,,,,,,,,,,,,,,,,,,,,,
,,5b76e19d948cc40001da0e50,2024-01-06_06h39.06.712,kallum_motion_pilot,2023.2.3,Win32,62.5,5b76e19d948cc40001da0e50,6598e6a5d84f07970b831e70,6598e747b14ee5c28bf479d2,0.037,0.037,0,126,126,56,1,onetwo,,,,,,,,,,,,,,,,,,,,,,,,,,,,,,,,,,,,,,,,,,,,,,,,,,,,,,,,,,,,,,,,,,,,,,,,,,,,,,,,,,,,,,,,,,,,,,,,,,,,,,,,,,,,,,,,,,,,,,,,,,,,,,,,,,,,,,,
,,5b76e19d948cc40001da0e50,2024-01-06_06h39.06.712,kallum_motion_pilot,2023.2.3,Win32,62.5,5b76e19d948cc40001da0e50,6598e6a5d84f07970b831e70,6598e747b14ee5c28bf479d2,0.037,0.037,0,127,127,11,1,twofour,,,,,,,,,,,,,,,,,,,,,,,,,,,,,,,,,,,,,,,,,,,,,,,,,,,,,,,,,,,,,,,,,,,,,,,,,,,,,,,,,,,,,,,,,,,,,,,,,,,,,,,,,,,,,,,,,,,,,,,,,,,,,,,,,,,,,,,
,,5b76e19d948cc40001da0e50,2024-01-06_06h39.06.712,kallum_motion_pilot,2023.2.3,Win32,62.5,5b76e19d948cc40001da0e50,6598e6a5d84f07970b831e70,6598e747b14ee5c28bf479d2,0.037,0.037,0,128,128,74,1,twoone,,,,,,,,,,,,,,,,,,,,,,,,,,,,,,,,,,,,,,,,,,,,,,,,,,,,,,,,,,,,,,,,,,,,,,,,,,,,,,,,,,,,,,,,,,,,,,,,,,,,,,,,,,,,,,,,,,,,,,,,,,,,,,,,,,,,,,,
,,5b76e19d948cc40001da0e50,2024-01-06_06h39.06.712,kallum_motion_pilot,2023.2.3,Win32,62.5,5b76e19d948cc40001da0e50,6598e6a5d84f07970b831e70,6598e747b14ee5c28bf479d2,0.037,0.037,0,129,129,26,1,twoone,,,,,,,,,,,,,,,,,,,,,,,,,,,,,,,,,,,,,,,,,,,,,,,,,,,,,,,,,,,,,,,,,,,,,,,,,,,,,,,,,,,,,,,,,,,,,,,,,,,,,,,,,,,,,,,,,,,,,,,,,,,,,,,,,,,,,,,
,,5b76e19d948cc40001da0e50,2024-01-06_06h39.06.712,kallum_motion_pilot,2023.2.3,Win32,62.5,5b76e19d948cc40001da0e50,6598e6a5d84f07970b831e70,6598e747b14ee5c28bf479d2,0.037,0.037,0,130,130,13,1,threefour,,,,,,,,,,,,,,,,,,,,,,,,,,,,,,,,,,,,,,,,,,,,,,,,,,,,,,,,,,,,,,,,,,,,,,,,,,,,,,,,,,,,,,,,,,,,,,,,,,,,,,,,,,,,,,,,,,,,,,,,,,,,,,,,,,,,,,,
,,5b76e19d948cc40001da0e50,2024-01-06_06h39.06.712,kallum_motion_pilot,2023.2.3,Win32,62.5,5b76e19d948cc40001da0e50,6598e6a5d84f07970b831e70,6598e747b14ee5c28bf479d2,0.037,0.037,0,131,131,132,1,sevenfive,,,,,,,,,,,,,,,,,,,,,,,,,,,,,,,,,,,,,,,,,,,,,,,,,,,,,,,,,,,,,,,,,,,,,,,,,,,,,,,,,,,,,,,,,,,,,,,,,,,,,,,,,,,,,,,,,,,,,,,,,,,,,,,,,,,,,,,
,,5b76e19d948cc40001da0e50,2024-01-06_06h39.06.712,kallum_motion_pilot,2023.2.3,Win32,62.5,5b76e19d948cc40001da0e50,6598e6a5d84f07970b831e70,6598e747b14ee5c28bf479d2,0.038,0.038,0,132,132,69,1,threefour,,,,,,,,,,,,,,,,,,,,,,,,,,,,,,,,,,,,,,,,,,,,,,,,,,,,,,,,,,,,,,,,,,,,,,,,,,,,,,,,,,,,,,,,,,,,,,,,,,,,,,,,,,,,,,,,,,,,,,,,,,,,,,,,,,,,,,,
,,5b76e19d948cc40001da0e50,2024-01-06_06h39.06.712,kallum_motion_pilot,2023.2.3,Win32,62.5,5b76e19d948cc40001da0e50,6598e6a5d84f07970b831e70,6598e747b14ee5c28bf479d2,0.038,0.038,0,133,133,23,1,fourthree,,,,,,,,,,,,,,,,,,,,,,,,,,,,,,,,,,,,,,,,,,,,,,,,,,,,,,,,,,,,,,,,,,,,,,,,,,,,,,,,,,,,,,,,,,,,,,,,,,,,,,,,,,,,,,,,,,,,,,,,,,,,,,,,,,,,,,,
,,5b76e19d948cc40001da0e50,2024-01-06_06h39.06.712,kallum_motion_pilot,2023.2.3,Win32,62.5,5b76e19d948cc40001da0e50,6598e6a5d84f07970b831e70,6598e747b14ee5c28bf479d2,0.038,0.038,0,134,134,30,1,fourtwo,,,,,,,,,,,,,,,,,,,,,,,,,,,,,,,,,,,,,,,,,,,,,,,,,,,,,,,,,,,,,,,,,,,,,,,,,,,,,,,,,,,,,,,,,,,,,,,,,,,,,,,,,,,,,,,,,,,,,,,,,,,,,,,,,,,,,,,
,,5b76e19d948cc40001da0e50,2024-01-06_06h39.06.712,kallum_motion_pilot,2023.2.3,Win32,62.5,5b76e19d948cc40001da0e50,6598e6a5d84f07970b831e70,6598e747b14ee5c28bf479d2,0.038,0.038,0,135,135,34,1,twoone,,,,,,,,,,,,,,,,,,,,,,,,,,,,,,,,,,,,,,,,,,,,,,,,,,,,,,,,,,,,,,,,,,,,,,,,,,,,,,,,,,,,,,,,,,,,,,,,,,,,,,,,,,,,,,,,,,,,,,,,,,,,,,,,,,,,,,,
,,5b76e19d948cc40001da0e50,2024-01-06_06h39.06.712,kallum_motion_pilot,2023.2.3,Win32,62.5,5b76e19d948cc40001da0e50,6598e6a5d84f07970b831e70,6598e747b14ee5c28bf479d2,0.038,0.038,0,136,136,160,1,fivesix,,,,,,,,,,,,,,,,,,,,,,,,,,,,,,,,,,,,,,,,,,,,,,,,,,,,,,,,,,,,,,,,,,,,,,,,,,,,,,,,,,,,,,,,,,,,,,,,,,,,,,,,,,,,,,,,,,,,,,,,,,,,,,,,,,,,,,,
,,5b76e19d948cc40001da0e50,2024-01-06_06h39.06.712,kallum_motion_pilot,2023.2.3,Win32,62.5,5b76e19d948cc40001da0e50,6598e6a5d84f07970b831e70,6598e747b14ee5c28bf479d2,0.038,0.038,0,137,137,133,1,seveneight,,,,,,,,,,,,,,,,,,,,,,,,,,,,,,,,,,,,,,,,,,,,,,,,,,,,,,,,,,,,,,,,,,,,,,,,,,,,,,,,,,,,,,,,,,,,,,,,,,,,,,,,,,,,,,,,,,,,,,,,,,,,,,,,,,,,,,,
,,5b76e19d948cc40001da0e50,2024-01-06_06h39.06.712,kallum_motion_pilot,2023.2.3,Win32,62.5,5b76e19d948cc40001da0e50,6598e6a5d84f07970b831e70,6598e747b14ee5c28bf479d2,0.038,0.038,0,138,138,39,1,fourthree,,,,,,,,,,,,,,,,,,,,,,,,,,,,,,,,,,,,,,,,,,,,,,,,,,,,,,,,,,,,,,,,,,,,,,,,,,,,,,,,,,,,,,,,,,,,,,,,,,,,,,,,,,,,,,,,,,,,,,,,,,,,,,,,,,,,,,,
,,5b76e19d948cc40001da0e50,2024-01-06_06h39.06.712,kallum_motion_pilot,2023.2.3,Win32,62.5,5b76e19d948cc40001da0e50,6598e6a5d84f07970b831e70,6598e747b14ee5c28bf479d2,0.038,0.038,0,139,139,58,1,twoone,,,,,,,,,,,,,,,,,,,,,,,,,,,,,,,,,,,,,,,,,,,,,,,,,,,,,,,,,,,,,,,,,,,,,,,,,,,,,,,,,,,,,,,,,,,,,,,,,,,,,,,,,,,,,,,,,,,,,,,,,,,,,,,,,,,,,,,
,,5b76e19d948cc40001da0e50,2024-01-06_06h39.06.712,kallum_motion_pilot,2023.2.3,Win32,62.5,5b76e19d948cc40001da0e50,6598e6a5d84f07970b831e70,6598e747b14ee5c28bf479d2,0.039,0.039,0,140,140,102,1,eightsix,,,,,,,,,,,,,,,,,,,,,,,,,,,,,,,,,,,,,,,,,,,,,,,,,,,,,,,,,,,,,,,,,,,,,,,,,,,,,,,,,,,,,,,,,,,,,,,,,,,,,,,,,,,,,,,,,,,,,,,,,,,,,,,,,,,,,,,
,,5b76e19d948cc40001da0e50,2024-01-06_06h39.06.712,kallum_motion_pilot,2023.2.3,Win32,62.5,5b76e19d948cc40001da0e50,6598e6a5d84f07970b831e70,6598e747b14ee5c28bf479d2,0.039,0.039,0,141,141,157,1,seveneight,,,,,,,,,,,,,,,,,,,,,,,,,,,,,,,,,,,,,,,,,,,,,,,,,,,,,,,,,,,,,,,,,,,,,,,,,,,,,,,,,,,,,,,,,,,,,,,,,,,,,,,,,,,,,,,,,,,,,,,,,,,,,,,,,,,,,,,
,,5b76e19d948cc40001da0e50,2024-01-06_06h39.06.712,kallum_motion_pilot,2023.2.3,Win32,62.5,5b76e19d948cc40001da0e50,6598e6a5d84f07970b831e70,6598e747b14ee5c28bf479d2,0.039,0.039,0,142,142,129,1,fiveseven,,,,,,,,,,,,,,,,,,,,,,,,,,,,,,,,,,,,,,,,,,,,,,,,,,,,,,,,,,,,,,,,,,,,,,,,,,,,,,,,,,,,,,,,,,,,,,,,,,,,,,,,,,,,,,,,,,,,,,,,,,,,,,,,,,,,,,,
,,5b76e19d948cc40001da0e50,2024-01-06_06h39.06.712,kallum_motion_pilot,2023.2.3,Win32,62.5,5b76e19d948cc40001da0e50,6598e6a5d84f07970b831e70,6598e747b14ee5c28bf479d2,0.039,0.039,0,143,143,54,1,fourtwo,,,,,,,,,,,,,,,,,,,,,,,,,,,,,,,,,,,,,,,,,,,,,,,,,,,,,,,,,,,,,,,,,,,,,,,,,,,,,,,,,,,,,,,,,,,,,,,,,,,,,,,,,,,,,,,,,,,,,,,,,,,,,,,,,,,,,,,
,,5b76e19d948cc40001da0e50,2024-01-06_06h39.06.712,kallum_motion_pilot,2023.2.3,Win32,62.5,5b76e19d948cc40001da0e50,6598e6a5d84f07970b831e70,6598e747b14ee5c28bf479d2,0.039,0.039,0,144,144,137,1,fiveseven,,,,,,,,,,,,,,,,,,,,,,,,,,,,,,,,,,,,,,,,,,,,,,,,,,,,,,,,,,,,,,,,,,,,,,,,,,,,,,,,,,,,,,,,,,,,,,,,,,,,,,,,,,,,,,,,,,,,,,,,,,,,,,,,,,,,,,,
,,5b76e19d948cc40001da0e50,2024-01-06_06h39.06.712,kallum_motion_pilot,2023.2.3,Win32,62.5,5b76e19d948cc40001da0e50,6598e6a5d84f07970b831e70,6598e747b14ee5c28bf479d2,0.039,0.039,0,145,145,85,1,seveneight,,,,,,,,,,,,,,,,,,,,,,,,,,,,,,,,,,,,,,,,,,,,,,,,,,,,,,,,,,,,,,,,,,,,,,,,,,,,,,,,,,,,,,,,,,,,,,,,,,,,,,,,,,,,,,,,,,,,,,,,,,,,,,,,,,,,,,,
,,5b76e19d948cc40001da0e50,2024-01-06_06h39.06.712,kallum_motion_pilot,2023.2.3,Win32,62.5,5b76e19d948cc40001da0e50,6598e6a5d84f07970b831e70,6598e747b14ee5c28bf479d2,0.039,0.039,0,146,146,148,1,sevenfive,,,,,,,,,,,,,,,,,,,,,,,,,,,,,,,,,,,,,,,,,,,,,,,,,,,,,,,,,,,,,,,,,,,,,,,,,,,,,,,,,,,,,,,,,,,,,,,,,,,,,,,,,,,,,,,,,,,,,,,,,,,,,,,,,,,,,,,
,,5b76e19d948cc40001da0e50,2024-01-06_06h39.06.712,kallum_motion_pilot,2023.2.3,Win32,62.5,5b76e19d948cc40001da0e50,6598e6a5d84f07970b831e70,6598e747b14ee5c28bf479d2,0.039,0.039,0,147,147,105,1,fiveseven,,,,,,,,,,,,,,,,,,,,,,,,,,,,,,,,,,,,,,,,,,,,,,,,,,,,,,,,,,,,,,,,,,,,,,,,,,,,,,,,,,,,,,,,,,,,,,,,,,,,,,,,,,,,,,,,,,,,,,,,,,,,,,,,,,,,,,,
,,5b76e19d948cc40001da0e50,2024-01-06_06h39.06.712,kallum_motion_pilot,2023.2.3,Win32,62.5,5b76e19d948cc40001da0e50,6598e6a5d84f07970b831e70,6598e747b14ee5c28bf479d2,0.039,0.039,0,148,148,73,1,onethree,,,,,,,,,,,,,,,,,,,,,,,,,,,,,,,,,,,,,,,,,,,,,,,,,,,,,,,,,,,,,,,,,,,,,,,,,,,,,,,,,,,,,,,,,,,,,,,,,,,,,,,,,,,,,,,,,,,,,,,,,,,,,,,,,,,,,,,
,,5b76e19d948cc40001da0e50,2024-01-06_06h39.06.712,kallum_motion_pilot,2023.2.3,Win32,62.5,5b76e19d948cc40001da0e50,6598e6a5d84f07970b831e70,6598e747b14ee5c28bf479d2,0.039,0.039,0,149,149,33,1,onethree,,,,,,,,,,,,,,,,,,,,,,,,,,,,,,,,,,,,,,,,,,,,,,,,,,,,,,,,,,,,,,,,,,,,,,,,,,,,,,,,,,,,,,,,,,,,,,,,,,,,,,,,,,,,,,,,,,,,,,,,,,,,,,,,,,,,,,,
,,5b76e19d948cc40001da0e50,2024-01-06_06h39.06.712,kallum_motion_pilot,2023.2.3,Win32,62.5,5b76e19d948cc40001da0e50,6598e6a5d84f07970b831e70,6598e747b14ee5c28bf479d2,0.04,0.04,0,150,150,14,1,fourtwo,,,,,,,,,,,,,,,,,,,,,,,,,,,,,,,,,,,,,,,,,,,,,,,,,,,,,,,,,,,,,,,,,,,,,,,,,,,,,,,,,,,,,,,,,,,,,,,,,,,,,,,,,,,,,,,,,,,,,,,,,,,,,,,,,,,,,,,
,,5b76e19d948cc40001da0e50,2024-01-06_06h39.06.712,kallum_motion_pilot,2023.2.3,Win32,62.5,5b76e19d948cc40001da0e50,6598e6a5d84f07970b831e70,6598e747b14ee5c28bf479d2,0.04,0.04,0,151,151,50,1,twoone,,,,,,,,,,,,,,,,,,,,,,,,,,,,,,,,,,,,,,,,,,,,,,,,,,,,,,,,,,,,,,,,,,,,,,,,,,,,,,,,,,,,,,,,,,,,,,,,,,,,,,,,,,,,,,,,,,,,,,,,,,,,,,,,,,,,,,,
,,5b76e19d948cc40001da0e50,2024-01-06_06h39.06.712,kallum_motion_pilot,2023.2.3,Win32,62.5,5b76e19d948cc40001da0e50,6598e6a5d84f07970b831e70,6598e747b14ee5c28bf479d2,0.04,0.04,0,152,152,94,1,eightsix,,,,,,,,,,,,,,,,,,,,,,,,,,,,,,,,,,,,,,,,,,,,,,,,,,,,,,,,,,,,,,,,,,,,,,,,,,,,,,,,,,,,,,,,,,,,,,,,,,,,,,,,,,,,,,,,,,,,,,,,,,,,,,,,,,,,,,,
,,5b76e19d948cc40001da0e50,2024-01-06_06h39.06.712,kallum_motion_pilot,2023.2.3,Win32,62.5,5b76e19d948cc40001da0e50,6598e6a5d84f07970b831e70,6598e747b14ee5c28bf479d2,0.04,0.04,0,153,153,88,1,fivesix,,,,,,,,,,,,,,,,,,,,,,,,,,,,,,,,,,,,,,,,,,,,,,,,,,,,,,,,,,,,,,,,,,,,,,,,,,,,,,,,,,,,,,,,,,,,,,,,,,,,,,,,,,,,,,,,,,,,,,,,,,,,,,,,,,,,,,,
,,5b76e19d948cc40001da0e50,2024-01-06_06h39.06.712,kallum_motion_pilot,2023.2.3,Win32,62.5,5b76e19d948cc40001da0e50,6598e6a5d84f07970b831e70,6598e747b14ee5c28bf479d2,0.04,0.04,0,154,154,100,1,sevenfive,,,,,,,,,,,,,,,,,,,,,,,,,,,,,,,,,,,,,,,,,,,,,,,,,,,,,,,,,,,,,,,,,,,,,,,,,,,,,,,,,,,,,,,,,,,,,,,,,,,,,,,,,,,,,,,,,,,,,,,,,,,,,,,,,,,,,,,
,,5b76e19d948cc40001da0e50,2024-01-06_06h39.06.712,kallum_motion_pilot,2023.2.3,Win32,62.5,5b76e19d948cc40001da0e50,6598e6a5d84f07970b831e70,6598e747b14ee5c28bf479d2,0.04,0.04,0,155,155,90,1,sixfive,,,,,,,,,,,,,,,,,,,,,,,,,,,,,,,,,,,,,,,,,,,,,,,,,,,,,,,,,,,,,,,,,,,,,,,,,,,,,,,,,,,,,,,,,,,,,,,,,,,,,,,,,,,,,,,,,,,,,,,,,,,,,,,,,,,,,,,
,,5b76e19d948cc40001da0e50,2024-01-06_06h39.06.712,kallum_motion_pilot,2023.2.3,Win32,62.5,5b76e19d948cc40001da0e50,6598e6a5d84f07970b831e70,6598e747b14ee5c28bf479d2,0.04,0.04,0,156,156,40,1,onetwo,,,,,,,,,,,,,,,,,,,,,,,,,,,,,,,,,,,,,,,,,,,,,,,,,,,,,,,,,,,,,,,,,,,,,,,,,,,,,,,,,,,,,,,,,,,,,,,,,,,,,,,,,,,,,,,,,,,,,,,,,,,,,,,,,,,,,,,
,,5b76e19d948cc40001da0e50,2024-01-06_06h39.06.712,kallum_motion_pilot,2023.2.3,Win32,62.5,5b76e19d948cc40001da0e50,6598e6a5d84f07970b831e70,6598e747b14ee5c28bf479d2,0.04,0.04,0,157,157,72,1,onetwo,,,,,,,,,,,,,,,,,,,,,,,,,,,,,,,,,,,,,,,,,,,,,,,,,,,,,,,,,,,,,,,,,,,,,,,,,,,,,,,,,,,,,,,,,,,,,,,,,,,,,,,,,,,,,,,,,,,,,,,,,,,,,,,,,,,,,,,
,,5b76e19d948cc40001da0e50,2024-01-06_06h39.06.712,kallum_motion_pilot,2023.2.3,Win32,62.5,5b76e19d948cc40001da0e50,6598e6a5d84f07970b831e70,6598e747b14ee5c28bf479d2,0.04,0.041,0,158,158,20,1,threeone,,,,,,,,,,,,,,,,,,,,,,,,,,,,,,,,,,,,,,,,,,,,,,,,,,,,,,,,,,,,,,,,,,,,,,,,,,,,,,,,,,,,,,,,,,,,,,,,,,,,,,,,,,,,,,,,,,,,,,,,,,,,,,,,,,,,,,,
,,5b76e19d948cc40001da0e50,2024-01-06_06h39.06.712,kallum_motion_pilot,2023.2.3,Win32,62.5,5b76e19d948cc40001da0e50,6598e6a5d84f07970b831e70,6598e747b14ee5c28bf479d2,0.041,0.041,0,159,159,122,1,sixfive,,,,,,,,,,,,,,,,,,,,,,,,,,,,,,,,,,,,,,,,,,,,,,,,,,,,,,,,,,,,,,,,,,,,,,,,,,,,,,,,,,,,,,,,,,,,,,,,,,,,,,,,,,,,,,,,,,,,,,,,,,,,,,,,,,,,,,,
,,5b76e19d948cc40001da0e50,2024-01-06_06h39.06.712,kallum_motion_pilot,2023.2.3,Win32,62.5,5b76e19d948cc40001da0e50,6598e6a5d84f07970b831e70,6598e747b14ee5c28bf479d2,0.041,0.041,0,160,160,158,1,eightsix,,,,,,,,,,,,,,,,,,,,,,,,,,,,,,,,,,,,,,,,,,,,,,,,,,,,,,,,,,,,,,,,,,,,,,,,,,,,,,,,,,,,,,,,,,,,,,,,,,,,,,,,,,,,,,,,,,,,,,,,,,,,,,,,,,,,,,,
,,5b76e19d948cc40001da0e50,2024-01-06_06h39.06.712,kallum_motion_pilot,2023.2.3,Win32,62.5,5b76e19d948cc40001da0e50,6598e6a5d84f07970b831e70,6598e747b14ee5c28bf479d2,0.041,0.041,0,161,161,92,1,sevenfive,,,,,,,,,,,,,,,,,,,,,,,,,,,,,,,,,,,,,,,,,,,,,,,,,,,,,,,,,,,,,,,,,,,,,,,,,,,,,,,,,,,,,,,,,,,,,,,,,,,,,,,,,,,,,,,,,,,,,,,,,,,,,,,,,,,,,,,
,,5b76e19d948cc40001da0e50,2024-01-06_06h39.06.712,kallum_motion_pilot,2023.2.3,Win32,62.5,5b76e19d948cc40001da0e50,6598e6a5d84f07970b831e70,6598e747b14ee5c28bf479d2,0.041,0.041,1,0,162,34,1,twoone,,,,,,,,,,,,,,,,,,,,,,,,,,,,,,,,,,,,,,,,,,,,,,,,,,,,,,,,,,,,,,,,,,,,,,,,,,,,,,,,,,,,,,,,,,,,,,,,,,,,,,,,,,,,,,,,,,,,,,,,,,,,,,,,,,,,,,,
,,5b76e19d948cc40001da0e50,2024-01-06_06h39.06.712,kallum_motion_pilot,2023.2.3,Win32,62.5,5b76e19d948cc40001da0e50,6598e6a5d84f07970b831e70,6598e747b14ee5c28bf479d2,0.041,0.041,1,1,163,62,1,fourtwo,,,,,,,,,,,,,,,,,,,,,,,,,,,,,,,,,,,,,,,,,,,,,,,,,,,,,,,,,,,,,,,,,,,,,,,,,,,,,,,,,,,,,,,,,,,,,,,,,,,,,,,,,,,,,,,,,,,,,,,,,,,,,,,,,,,,,,,
,,5b76e19d948cc40001da0e50,2024-01-06_06h39.06.712,kallum_motion_pilot,2023.2.3,Win32,62.5,5b76e19d948cc40001da0e50,6598e6a5d84f07970b831e70,6598e747b14ee5c28bf479d2,0.041,0.041,1,2,164,125,1,seveneight,,,,,,,,,,,,,,,,,,,,,,,,,,,,,,,,,,,,,,,,,,,,,,,,,,,,,,,,,,,,,,,,,,,,,,,,,,,,,,,,,,,,,,,,,,,,,,,,,,,,,,,,,,,,,,,,,,,,,,,,,,,,,,,,,,,,,,,
,,5b76e19d948cc40001da0e50,2024-01-06_06h39.06.712,kallum_motion_pilot,2023.2.3,Win32,62.5,5b76e19d948cc40001da0e50,6598e6a5d84f07970b831e70,6598e747b14ee5c28bf479d2,0.041,0.041,1,3,165,80,1,fivesix,,,,,,,,,,,,,,,,,,,,,,,,,,,,,,,,,,,,,,,,,,,,,,,,,,,,,,,,,,,,,,,,,,,,,,,,,,,,,,,,,,,,,,,,,,,,,,,,,,,,,,,,,,,,,,,,,,,,,,,,,,,,,,,,,,,,,,,
,,5b76e19d948cc40001da0e50,2024-01-06_06h39.06.712,kallum_motion_pilot,2023.2.3,Win32,62.5,5b76e19d948cc40001da0e50,6598e6a5d84f07970b831e70,6598e747b14ee5c28bf479d2,0.043,0.043,1,4,166,129,1,fiveseven,,,,,,,,,,,,,,,,,,,,,,,,,,,,,,,,,,,,,,,,,,,,,,,,,,,,,,,,,,,,,,,,,,,,,,,,,,,,,,,,,,,,,,,,,,,,,,,,,,,,,,,,,,,,,,,,,,,,,,,,,,,,,,,,,,,,,,,
,,5b76e19d948cc40001da0e50,2024-01-06_06h39.06.712,kallum_motion_pilot,2023.2.3,Win32,62.5,5b76e19d948cc40001da0e50,6598e6a5d84f07970b831e70,6598e747b14ee5c28bf479d2,0.043,0.043,1,5,167,112,1,fivesix,,,,,,,,,,,,,,,,,,,,,,,,,,,,,,,,,,,,,,,,,,,,,,,,,,,,,,,,,,,,,,,,,,,,,,,,,,,,,,,,,,,,,,,,,,,,,,,,,,,,,,,,,,,,,,,,,,,,,,,,,,,,,,,,,,,,,,,
,,5b76e19d948cc40001da0e50,2024-01-06_06h39.06.712,kallum_motion_pilot,2023.2.3,Win32,62.5,5b76e19d948cc40001da0e50,6598e6a5d84f07970b831e70,6598e747b14ee5c28bf479d2,0.043,0.043,1,6,168,35,1,twofour,,,,,,,,,,,,,,,,,,,,,,,,,,,,,,,,,,,,,,,,,,,,,,,,,,,,,,,,,,,,,,,,,,,,,,,,,,,,,,,,,,,,,,,,,,,,,,,,,,,,,,,,,,,,,,,,,,,,,,,,,,,,,,,,,,,,,,,
,,5b76e19d948cc40001da0e50,2024-01-06_06h39.06.712,kallum_motion_pilot,2023.2.3,Win32,62.5,5b76e19d948cc40001da0e50,6598e6a5d84f07970b831e70,6598e747b14ee5c28bf479d2,0.043,0.043,1,7,169,101,1,seveneight,,,,,,,,,,,,,,,,,,,,,,,,,,,,,,,,,,,,,,,,,,,,,,,,,,,,,,,,,,,,,,,,,,,,,,,,,,,,,,,,,,,,,,,,,,,,,,,,,,,,,,,,,,,,,,,,,,,,,,,,,,,,,,,,,,,,,,,
,,5b76e19d948cc40001da0e50,2024-01-06_06h39.06.712,kallum_motion_pilot,2023.2.3,Win32,62.5,5b76e19d948cc40001da0e50,6598e6a5d84f07970b831e70,6598e747b14ee5c28bf479d2,0.043,0.043,1,8,170,70,1,fourtwo,,,,,,,,,,,,,,,,,,,,,,,,,,,,,,,,,,,,,,,,,,,,,,,,,,,,,,,,,,,,,,,,,,,,,,,,,,,,,,,,,,,,,,,,,,,,,,,,,,,,,,,,,,,,,,,,,,,,,,,,,,,,,,,,,,,,,,,
,,5b76e19d948cc40001da0e50,2024-01-06_06h39.06.712,kallum_motion_pilot,2023.2.3,Win32,62.5,5b76e19d948cc40001da0e50,6598e6a5d84f07970b831e70,6598e747b14ee5c28bf479d2,0.043,0.043,1,9,171,60,1,threeone,,,,,,,,,,,,,,,,,,,,,,,,,,,,,,,,,,,,,,,,,,,,,,,,,,,,,,,,,,,,,,,,,,,,,,,,,,,,,,,,,,,,,,,,,,,,,,,,,,,,,,,,,,,,,,,,,,,,,,,,,,,,,,,,,,,,,,,
,,5b76e19d948cc40001da0e50,2024-01-06_06h39.06.712,kallum_motion_pilot,2023.2.3,Win32,62.5,5b76e19d948cc40001da0e50,6598e6a5d84f07970b831e70,6598e747b14ee5c28bf479d2,0.044,0.044,1,10,172,64,1,onetwo,,,,,,,,,,,,,,,,,,,,,,,,,,,,,,,,,,,,,,,,,,,,,,,,,,,,,,,,,,,,,,,,,,,,,,,,,,,,,,,,,,,,,,,,,,,,,,,,,,,,,,,,,,,,,,,,,,,,,,,,,,,,,,,,,,,,,,,
,,5b76e19d948cc40001da0e50,2024-01-06_06h39.06.712,kallum_motion_pilot,2023.2.3,Win32,62.5,5b76e19d948cc40001da0e50,6598e6a5d84f07970b831e70,6598e747b14ee5c28bf479d2,0.044,0.044,1,11,173,52,1,threeone,,,,,,,,,,,,,,,,,,,,,,,,,,,,,,,,,,,,,,,,,,,,,,,,,,,,,,,,,,,,,,,,,,,,,,,,,,,,,,,,,,,,,,,,,,,,,,,,,,,,,,,,,,,,,,,,,,,,,,,,,,,,,,,,,,,,,,,
,,5b76e19d948cc40001da0e50,2024-01-06_06h39.06.712,kallum_motion_pilot,2023.2.3,Win32,62.5,5b76e19d948cc40001da0e50,6598e6a5d84f07970b831e70,6598e747b14ee5c28bf479d2,0.044,0.044,1,12,174,41,1,onethree,,,,,,,,,,,,,,,,,,,,,,,,,,,,,,,,,,,,,,,,,,,,,,,,,,,,,,,,,,,,,,,,,,,,,,,,,,,,,,,,,,,,,,,,,,,,,,,,,,,,,,,,,,,,,,,,,,,,,,,,,,,,,,,,,,,,,,,
,,5b76e19d948cc40001da0e50,2024-01-06_06h39.06.712,kallum_motion_pilot,2023.2.3,Win32,62.5,5b76e19d948cc40001da0e50,6598e6a5d84f07970b831e70,6598e747b14ee5c28bf479d2,0.044,0.044,1,13,175,47,1,fourthree,,,,,,,,,,,,,,,,,,,,,,,,,,,,,,,,,,,,,,,,,,,,,,,,,,,,,,,,,,,,,,,,,,,,,,,,,,,,,,,,,,,,,,,,,,,,,,,,,,,,,,,,,,,,,,,,,,,,,,,,,,,,,,,,,,,,,,,
,,5b76e19d948cc40001da0e50,2024-01-06_06h39.06.712,kallum_motion_pilot,2023.2.3,Win32,62.5,5b76e19d948cc40001da0e50,6598e6a5d84f07970b831e70,6598e747b14ee5c28bf479d2,0.045,0.045,1,14,176,155,1,sixeight,,,,,,,,,,,,,,,,,,,,,,,,,,,,,,,,,,,,,,,,,,,,,,,,,,,,,,,,,,,,,,,,,,,,,,,,,,,,,,,,,,,,,,,,,,,,,,,,,,,,,,,,,,,,,,,,,,,,,,,,,,,,,,,,,,,,,,,
,,5b76e19d948cc40001da0e50,2024-01-06_06h39.06.712,kallum_motion_pilot,2023.2.3,Win32,62.5,5b76e19d948cc40001da0e50,6598e6a5d84f07970b831e70,6598e747b14ee5c28bf479d2,0.045,0.045,1,15,177,115,1,sixeight,,,,,,,,,,,,,,,,,,,,,,,,,,,,,,,,,,,,,,,,,,,,,,,,,,,,,,,,,,,,,,,,,,,,,,,,,,,,,,,,,,,,,,,,,,,,,,,,,,,,,,,,,,,,,,,,,,,,,,,,,,,,,,,,,,,,,,,
,,5b76e19d948cc40001da0e50,2024-01-06_06h39.06.712,kallum_motion_pilot,2023.2.3,Win32,62.5,5b76e19d948cc40001da0e50,6598e6a5d84f07970b831e70,6598e747b14ee5c28bf479d2,0.045,0.045,1,16,178,104,1,fivesix,,,,,,,,,,,,,,,,,,,,,,,,,,,,,,,,,,,,,,,,,,,,,,,,,,,,,,,,,,,,,,,,,,,,,,,,,,,,,,,,,,,,,,,,,,,,,,,,,,,,,,,,,,,,,,,,,,,,,,,,,,,,,,,,,,,,,,,
,,5b76e19d948cc40001da0e50,2024-01-06_06h39.06.712,kallum_motion_pilot,2023.2.3,Win32,62.5,5b76e19d948cc40001da0e50,6598e6a5d84f07970b831e70,6598e747b14ee5c28bf479d2,0.046,0.046,1,17,179,81,1,fiveseven,,,,,,,,,,,,,,,,,,,,,,,,,,,,,,,,,,,,,,,,,,,,,,,,,,,,,,,,,,,,,,,,,,,,,,,,,,,,,,,,,,,,,,,,,,,,,,,,,,,,,,,,,,,,,,,,,,,,,,,,,,,,,,,,,,,,,,,
,,5b76e19d948cc40001da0e50,2024-01-06_06h39.06.712,kallum_motion_pilot,2023.2.3,Win32,62.5,5b76e19d948cc40001da0e50,6598e6a5d84f07970b831e70,6598e747b14ee5c28bf479d2,0.047,0.047,1,18,180,105,1,fiveseven,,,,,,,,,,,,,,,,,,,,,,,,,,,,,,,,,,,,,,,,,,,,,,,,,,,,,,,,,,,,,,,,,,,,,,,,,,,,,,,,,,,,,,,,,,,,,,,,,,,,,,,,,,,,,,,,,,,,,,,,,,,,,,,,,,,,,,,
,,5b76e19d948cc40001da0e50,2024-01-06_06h39.06.712,kallum_motion_pilot,2023.2.3,Win32,62.5,5b76e19d948cc40001da0e50,6598e6a5d84f07970b831e70,6598e747b14ee5c28bf479d2,0.047,0.047,1,19,181,38,1,fourtwo,,,,,,,,,,,,,,,,,,,,,,,,,,,,,,,,,,,,,,,,,,,,,,,,,,,,,,,,,,,,,,,,,,,,,,,,,,,,,,,,,,,,,,,,,,,,,,,,,,,,,,,,,,,,,,,,,,,,,,,,,,,,,,,,,,,,,,,
,,5b76e19d948cc40001da0e50,2024-01-06_06h39.06.712,kallum_motion_pilot,2023.2.3,Win32,62.5,5b76e19d948cc40001da0e50,6598e6a5d84f07970b831e70,6598e747b14ee5c28bf479d2,0.047,0.048,1,20,182,79,1,eightseven,,,,,,,,,,,,,,,,,,,,,,,,,,,,,,,,,,,,,,,,,,,,,,,,,,,,,,,,,,,,,,,,,,,,,,,,,,,,,,,,,,,,,,,,,,,,,,,,,,,,,,,,,,,,,,,,,,,,,,,,,,,,,,,,,,,,,,,
,,5b76e19d948cc40001da0e50,2024-01-06_06h39.06.712,kallum_motion_pilot,2023.2.3,Win32,62.5,5b76e19d948cc40001da0e50,6598e6a5d84f07970b831e70,6598e747b14ee5c28bf479d2,0.048,0.048,1,21,183,153,1,fiveseven,,,,,,,,,,,,,,,,,,,,,,,,,,,,,,,,,,,,,,,,,,,,,,,,,,,,,,,,,,,,,,,,,,,,,,,,,,,,,,,,,,,,,,,,,,,,,,,,,,,,,,,,,,,,,,,,,,,,,,,,,,,,,,,,,,,,,,,
,,5b76e19d948cc40001da0e50,2024-01-06_06h39.06.712,kallum_motion_pilot,2023.2.3,Win32,62.5,5b76e19d948cc40001da0e50,6598e6a5d84f07970b831e70,6598e747b14ee5c28bf479d2,0.048,0.048,1,22,184,56,1,onetwo,,,,,,,,,,,,,,,,,,,,,,,,,,,,,,,,,,,,,,,,,,,,,,,,,,,,,,,,,,,,,,,,,,,,,,,,,,,,,,,,,,,,,,,,,,,,,,,,,,,,,,,,,,,,,,,,,,,,,,,,,,,,,,,,,,,,,,,
,,5b76e19d948cc40001da0e50,2024-01-06_06h39.06.712,kallum_motion_pilot,2023.2.3,Win32,62.5,5b76e19d948cc40001da0e50,6598e6a5d84f07970b831e70,6598e747b14ee5c28bf479d2,0.048,0.048,1,23,185,33,1,onethree,,,,,,,,,,,,,,,,,,,,,,,,,,,,,,,,,,,,,,,,,,,,,,,,,,,,,,,,,,,,,,,,,,,,,,,,,,,,,,,,,,,,,,,,,,,,,,,,,,,,,,,,,,,,,,,,,,,,,,,,,,,,,,,,,,,,,,,
,,5b76e19d948cc40001da0e50,2024-01-06_06h39.06.712,kallum_motion_pilot,2023.2.3,Win32,62.5,5b76e19d948cc40001da0e50,6598e6a5d84f07970b831e70,6598e747b14ee5c28bf479d2,0.048,0.048,1,24,186,61,1,threefour,,,,,,,,,,,,,,,,,,,,,,,,,,,,,,,,,,,,,,,,,,,,,,,,,,,,,,,,,,,,,,,,,,,,,,,,,,,,,,,,,,,,,,,,,,,,,,,,,,,,,,,,,,,,,,,,,,,,,,,,,,,,,,,,,,,,,,,
,,5b76e19d948cc40001da0e50,2024-01-06_06h39.06.712,kallum_motion_pilot,2023.2.3,Win32,62.5,5b76e19d948cc40001da0e50,6598e6a5d84f07970b831e70,6598e747b14ee5c28bf479d2,0.048,0.048,1,25,187,157,1,seveneight,,,,,,,,,,,,,,,,,,,,,,,,,,,,,,,,,,,,,,,,,,,,,,,,,,,,,,,,,,,,,,,,,,,,,,,,,,,,,,,,,,,,,,,,,,,,,,,,,,,,,,,,,,,,,,,,,,,,,,,,,,,,,,,,,,,,,,,
,,5b76e19d948cc40001da0e50,2024-01-06_06h39.06.712,kallum_motion_pilot,2023.2.3,Win32,62.5,5b76e19d948cc40001da0e50,6598e6a5d84f07970b831e70,6598e747b14ee5c28bf479d2,0.048,0.048,1,26,188,3,1,twofour,,,,,,,,,,,,,,,,,,,,,,,,,,,,,,,,,,,,,,,,,,,,,,,,,,,,,,,,,,,,,,,,,,,,,,,,,,,,,,,,,,,,,,,,,,,,,,,,,,,,,,,,,,,,,,,,,,,,,,,,,,,,,,,,,,,,,,,
,,5b76e19d948cc40001da0e50,2024-01-06_06h39.06.712,kallum_motion_pilot,2023.2.3,Win32,62.5,5b76e19d948cc40001da0e50,6598e6a5d84f07970b831e70,6598e747b14ee5c28bf479d2,0.048,0.048,1,27,189,43,1,twofour,,,,,,,,,,,,,,,,,,,,,,,,,,,,,,,,,,,,,,,,,,,,,,,,,,,,,,,,,,,,,,,,,,,,,,,,,,,,,,,,,,,,,,,,,,,,,,,,,,,,,,,,,,,,,,,,,,,,,,,,,,,,,,,,,,,,,,,
,,5b76e19d948cc40001da0e50,2024-01-06_06h39.06.712,kallum_motion_pilot,2023.2.3,Win32,62.5,5b76e19d948cc40001da0e50,6598e6a5d84f07970b831e70,6598e747b14ee5c28bf479d2,0.048,0.048,1,28,190,21,1,threefour,,,,,,,,,,,,,,,,,,,,,,,,,,,,,,,,,,,,,,,,,,,,,,,,,,,,,,,,,,,,,,,,,,,,,,,,,,,,,,,,,,,,,,,,,,,,,,,,,,,,,,,,,,,,,,,,,,,,,,,,,,,,,,,,,,,,,,,
,,5b76e19d948cc40001da0e50,2024-01-06_06h39.06.712,kallum_motion_pilot,2023.2.3,Win32,62.5,5b76e19d948cc40001da0e50,6598e6a5d84f07970b831e70,6598e747b14ee5c28bf479d2,0.048,0.048,1,29,191,4,1,threeone,,,,,,,,,,,,,,,,,,,,,,,,,,,,,,,,,,,,,,,,,,,,,,,,,,,,,,,,,,,,,,,,,,,,,,,,,,,,,,,,,,,,,,,,,,,,,,,,,,,,,,,,,,,,,,,,,,,,,,,,,,,,,,,,,,,,,,,
,,5b76e19d948cc40001da0e50,2024-01-06_06h39.06.712,kallum_motion_pilot,2023.2.3,Win32,62.5,5b76e19d948cc40001da0e50,6598e6a5d84f07970b831e70,6598e747b14ee5c28bf479d2,0.049,0.049,1,30,192,53,1,threefour,,,,,,,,,,,,,,,,,,,,,,,,,,,,,,,,,,,,,,,,,,,,,,,,,,,,,,,,,,,,,,,,,,,,,,,,,,,,,,,,,,,,,,,,,,,,,,,,,,,,,,,,,,,,,,,,,,,,,,,,,,,,,,,,,,,,,,,
,,5b76e19d948cc40001da0e50,2024-01-06_06h39.06.712,kallum_motion_pilot,2023.2.3,Win32,62.5,5b76e19d948cc40001da0e50,6598e6a5d84f07970b831e70,6598e747b14ee5c28bf479d2,0.049,0.049,1,31,193,146,1,sixfive,,,,,,,,,,,,,,,,,,,,,,,,,,,,,,,,,,,,,,,,,,,,,,,,,,,,,,,,,,,,,,,,,,,,,,,,,,,,,,,,,,,,,,,,,,,,,,,,,,,,,,,,,,,,,,,,,,,,,,,,,,,,,,,,,,,,,,,
,,5b76e19d948cc40001da0e50,2024-01-06_06h39.06.712,kallum_motion_pilot,2023.2.3,Win32,62.5,5b76e19d948cc40001da0e50,6598e6a5d84f07970b831e70,6598e747b14ee5c28bf479d2,0.049,0.049,1,32,194,109,1,seveneight,,,,,,,,,,,,,,,,,,,,,,,,,,,,,,,,,,,,,,,,,,,,,,,,,,,,,,,,,,,,,,,,,,,,,,,,,,,,,,,,,,,,,,,,,,,,,,,,,,,,,,,,,,,,,,,,,,,,,,,,,,,,,,,,,,,,,,,
,,5b76e19d948cc40001da0e50,2024-01-06_06h39.06.712,kallum_motion_pilot,2023.2.3,Win32,62.5,5b76e19d948cc40001da0e50,6598e6a5d84f07970b831e70,6598e747b14ee5c28bf479d2,0.049,0.049,1,33,195,154,1,sixfive,,,,,,,,,,,,,,,,,,,,,,,,,,,,,,,,,,,,,,,,,,,,,,,,,,,,,,,,,,,,,,,,,,,,,,,,,,,,,,,,,,,,,,,,,,,,,,,,,,,,,,,,,,,,,,,,,,,,,,,,,,,,,,,,,,,,,,,
,,5b76e19d948cc40001da0e50,2024-01-06_06h39.06.712,kallum_motion_pilot,2023.2.3,Win32,62.5,5b76e19d948cc40001da0e50,6598e6a5d84f07970b831e70,6598e747b14ee5c28bf479d2,0.049,0.049,1,34,196,138,1,sixfive,,,,,,,,,,,,,,,,,,,,,,,,,,,,,,,,,,,,,,,,,,,,,,,,,,,,,,,,,,,,,,,,,,,,,,,,,,,,,,,,,,,,,,,,,,,,,,,,,,,,,,,,,,,,,,,,,,,,,,,,,,,,,,,,,,,,,,,
,,5b76e19d948cc40001da0e50,2024-01-06_06h39.06.712,kallum_motion_pilot,2023.2.3,Win32,62.5,5b76e19d948cc40001da0e50,6598e6a5d84f07970b831e70,6598e747b14ee5c28bf479d2,0.049,0.049,1,35,197,14,1,fourtwo,,,,,,,,,,,,,,,,,,,,,,,,,,,,,,,,,,,,,,,,,,,,,,,,,,,,,,,,,,,,,,,,,,,,,,,,,,,,,,,,,,,,,,,,,,,,,,,,,,,,,,,,,,,,,,,,,,,,,,,,,,,,,,,,,,,,,,,
,,5b76e19d948cc40001da0e50,2024-01-06_06h39.06.712,kallum_motion_pilot,2023.2.3,Win32,62.5,5b76e19d948cc40001da0e50,6598e6a5d84f07970b831e70,6598e747b14ee5c28bf479d2,0.049,0.049,1,36,198,128,1,fivesix,,,,,,,,,,,,,,,,,,,,,,,,,,,,,,,,,,,,,,,,,,,,,,,,,,,,,,,,,,,,,,,,,,,,,,,,,,,,,,,,,,,,,,,,,,,,,,,,,,,,,,,,,,,,,,,,,,,,,,,,,,,,,,,,,,,,,,,
,,5b76e19d948cc40001da0e50,2024-01-06_06h39.06.712,kallum_motion_pilot,2023.2.3,Win32,62.5,5b76e19d948cc40001da0e50,6598e6a5d84f07970b831e70,6598e747b14ee5c28bf479d2,0.05,0.05,1,37,199,132,1,sevenfive,,,,,,,,,,,,,,,,,,,,,,,,,,,,,,,,,,,,,,,,,,,,,,,,,,,,,,,,,,,,,,,,,,,,,,,,,,,,,,,,,,,,,,,,,,,,,,,,,,,,,,,,,,,,,,,,,,,,,,,,,,,,,,,,,,,,,,,
,,5b76e19d948cc40001da0e50,2024-01-06_06h39.06.712,kallum_motion_pilot,2023.2.3,Win32,62.5,5b76e19d948cc40001da0e50,6598e6a5d84f07970b831e70,6598e747b14ee5c28bf479d2,0.05,0.05,1,38,200,65,1,onethree,,,,,,,,,,,,,,,,,,,,,,,,,,,,,,,,,,,,,,,,,,,,,,,,,,,,,,,,,,,,,,,,,,,,,,,,,,,,,,,,,,,,,,,,,,,,,,,,,,,,,,,,,,,,,,,,,,,,,,,,,,,,,,,,,,,,,,,
,,5b76e19d948cc40001da0e50,2024-01-06_06h39.06.712,kallum_motion_pilot,2023.2.3,Win32,62.5,5b76e19d948cc40001da0e50,6598e6a5d84f07970b831e70,6598e747b14ee5c28bf479d2,0.05,0.05,1,39,201,151,1,eightseven,,,,,,,,,,,,,,,,,,,,,,,,,,,,,,,,,,,,,,,,,,,,,,,,,,,,,,,,,,,,,,,,,,,,,,,,,,,,,,,,,,,,,,,,,,,,,,,,,,,,,,,,,,,,,,,,,,,,,,,,,,,,,,,,,,,,,,,
,,5b76e19d948cc40001da0e50,2024-01-06_06h39.06.712,kallum_motion_pilot,2023.2.3,Win32,62.5,5b76e19d948cc40001da0e50,6598e6a5d84f07970b831e70,6598e747b14ee5c28bf479d2,0.05,0.05,1,40,202,5,1,threefour,,,,,,,,,,,,,,,,,,,,,,,,,,,,,,,,,,,,,,,,,,,,,,,,,,,,,,,,,,,,,,,,,,,,,,,,,,,,,,,,,,,,,,,,,,,,,,,,,,,,,,,,,,,,,,,,,,,,,,,,,,,,,,,,,,,,,,,
,,5b76e19d948cc40001da0e50,2024-01-06_06h39.06.712,kallum_motion_pilot,2023.2.3,Win32,62.5,5b76e19d948cc40001da0e50,6598e6a5d84f07970b831e70,6598e747b14ee5c28bf479d2,0.05,0.05,1,41,203,26,1,twoone,,,,,,,,,,,,,,,,,,,,,,,,,,,,,,,,,,,,,,,,,,,,,,,,,,,,,,,,,,,,,,,,,,,,,,,,,,,,,,,,,,,,,,,,,,,,,,,,,,,,,,,,,,,,,,,,,,,,,,,,,,,,,,,,,,,,,,,
,,5b76e19d948cc40001da0e50,2024-01-06_06h39.06.712,kallum_motion_pilot,2023.2.3,Win32,62.5,5b76e19d948cc40001da0e50,6598e6a5d84f07970b831e70,6598e747b14ee5c28bf479d2,0.05,0.05,1,42,204,1,1,onethree,,,,,,,,,,,,,,,,,,,,,,,,,,,,,,,,,,,,,,,,,,,,,,,,,,,,,,,,,,,,,,,,,,,,,,,,,,,,,,,,,,,,,,,,,,,,,,,,,,,,,,,,,,,,,,,,,,,,,,,,,,,,,,,,,,,,,,,
,,5b76e19d948cc40001da0e50,2024-01-06_06h39.06.712,kallum_motion_pilot,2023.2.3,Win32,62.5,5b76e19d948cc40001da0e50,6598e6a5d84f07970b831e70,6598e747b14ee5c28bf479d2,0.05,0.05,1,43,205,77,1,threefour,,,,,,,,,,,,,,,,,,,,,,,,,,,,,,,,,,,,,,,,,,,,,,,,,,,,,,,,,,,,,,,,,,,,,,,,,,,,,,,,,,,,,,,,,,,,,,,,,,,,,,,,,,,,,,,,,,,,,,,,,,,,,,,,,,,,,,,
,,5b76e19d948cc40001da0e50,2024-01-06_06h39.06.712,kallum_motion_pilot,2023.2.3,Win32,62.5,5b76e19d948cc40001da0e50,6598e6a5d84f07970b831e70,6598e747b14ee5c28bf479d2,0.05,0.05,1,44,206,7,1,fourthree,,,,,,,,,,,,,,,,,,,,,,,,,,,,,,,,,,,,,,,,,,,,,,,,,,,,,,,,,,,,,,,,,,,,,,,,,,,,,,,,,,,,,,,,,,,,,,,,,,,,,,,,,,,,,,,,,,,,,,,,,,,,,,,,,,,,,,,
,,5b76e19d948cc40001da0e50,2024-01-06_06h39.06.712,kallum_motion_pilot,2023.2.3,Win32,62.5,5b76e19d948cc40001da0e50,6598e6a5d84f07970b831e70,6598e747b14ee5c28bf479d2,0.05,0.051,1,45,207,122,1,sixfive,,,,,,,,,,,,,,,,,,,,,,,,,,,,,,,,,,,,,,,,,,,,,,,,,,,,,,,,,,,,,,,,,,,,,,,,,,,,,,,,,,,,,,,,,,,,,,,,,,,,,,,,,,,,,,,,,,,,,,,,,,,,,,,,,,,,,,,
,,5b76e19d948cc40001da0e50,2024-01-06_06h39.06.712,kallum_motion_pilot,2023.2.3,Win32,62.5,5b76e19d948cc40001da0e50,6598e6a5d84f07970b831e70,6598e747b14ee5c28bf479d2,0.051,0.051,1,46,208,91,1,sixeight,,,,,,,,,,,,,,,,,,,,,,,,,,,,,,,,,,,,,,,,,,,,,,,,,,,,,,,,,,,,,,,,,,,,,,,,,,,,,,,,,,,,,,,,,,,,,,,,,,,,,,,,,,,,,,,,,,,,,,,,,,,,,,,,,,,,,,,
,,5b76e19d948cc40001da0e50,2024-01-06_06h39.06.712,kallum_motion_pilot,2023.2.3,Win32,62.5,5b76e19d948cc40001da0e50,6598e6a5d84f07970b831e70,6598e747b14ee5c28bf479d2,0.051,0.051,1,47,209,88,1,fivesix,,,,,,,,,,,,,,,,,,,,,,,,,,,,,,,,,,,,,,,,,,,,,,,,,,,,,,,,,,,,,,,,,,,,,,,,,,,,,,,,,,,,,,,,,,,,,,,,,,,,,,,,,,,,,,,,,,,,,,,,,,,,,,,,,,,,,,,
,,5b76e19d948cc40001da0e50,2024-01-06_06h39.06.712,kallum_motion_pilot,2023.2.3,Win32,62.5,5b76e19d948cc40001da0e50,6598e6a5d84f07970b831e70,6598e747b14ee5c28bf479d2,0.051,0.051,1,48,210,12,1,threeone,,,,,,,,,,,,,,,,,,,,,,,,,,,,,,,,,,,,,,,,,,,,,,,,,,,,,,,,,,,,,,,,,,,,,,,,,,,,,,,,,,,,,,,,,,,,,,,,,,,,,,,,,,,,,,,,,,,,,,,,,,,,,,,,,,,,,,,
,,5b76e19d948cc40001da0e50,2024-01-06_06h39.06.712,kallum_motion_pilot,2023.2.3,Win32,62.5,5b76e19d948cc40001da0e50,6598e6a5d84f07970b831e70,6598e747b14ee5c28bf479d2,0.051,0.051,1,49,211,124,1,sevenfive,,,,,,,,,,,,,,,,,,,,,,,,,,,,,,,,,,,,,,,,,,,,,,,,,,,,,,,,,,,,,,,,,,,,,,,,,,,,,,,,,,,,,,,,,,,,,,,,,,,,,,,,,,,,,,,,,,,,,,,,,,,,,,,,,,,,,,,
,,5b76e19d948cc40001da0e50,2024-01-06_06h39.06.712,kallum_motion_pilot,2023.2.3,Win32,62.5,5b76e19d948cc40001da0e50,6598e6a5d84f07970b831e70,6598e747b14ee5c28bf479d2,0.051,0.051,1,50,212,6,1,fourtwo,,,,,,,,,,,,,,,,,,,,,,,,,,,,,,,,,,,,,,,,,,,,,,,,,,,,,,,,,,,,,,,,,,,,,,,,,,,,,,,,,,,,,,,,,,,,,,,,,,,,,,,,,,,,,,,,,,,,,,,,,,,,,,,,,,,,,,,
,,5b76e19d948cc40001da0e50,2024-01-06_06h39.06.712,kallum_motion_pilot,2023.2.3,Win32,62.5,5b76e19d948cc40001da0e50,6598e6a5d84f07970b831e70,6598e747b14ee5c28bf479d2,0.051,0.051,1,51,213,102,1,eightsix,,,,,,,,,,,,,,,,,,,,,,,,,,,,,,,,,,,,,,,,,,,,,,,,,,,,,,,,,,,,,,,,,,,,,,,,,,,,,,,,,,,,,,,,,,,,,,,,,,,,,,,,,,,,,,,,,,,,,,,,,,,,,,,,,,,,,,,
,,5b76e19d948cc40001da0e50,2024-01-06_06h39.06.712,kallum_motion_pilot,2023.2.3,Win32,62.5,5b76e19d948cc40001da0e50,6598e6a5d84f07970b831e70,6598e747b14ee5c28bf479d2,0.051,0.051,1,52,214,68,1,threeone,,,,,,,,,,,,,,,,,,,,,,,,,,,,,,,,,,,,,,,,,,,,,,,,,,,,,,,,,,,,,,,,,,,,,,,,,,,,,,,,,,,,,,,,,,,,,,,,,,,,,,,,,,,,,,,,,,,,,,,,,,,,,,,,,,,,,,,
,,5b76e19d948cc40001da0e50,2024-01-06_06h39.06.712,kallum_motion_pilot,2023.2.3,Win32,62.5,5b76e19d948cc40001da0e50,6598e6a5d84f07970b831e70,6598e747b14ee5c28bf479d2,0.051,0.051,1,53,215,92,1,sevenfive,,,,,,,,,,,,,,,,,,,,,,,,,,,,,,,,,,,,,,,,,,,,,,,,,,,,,,,,,,,,,,,,,,,,,,,,,,,,,,,,,,,,,,,,,,,,,,,,,,,,,,,,,,,,,,,,,,,,,,,,,,,,,,,,,,,,,,,
,,5b76e19d948cc40001da0e50,2024-01-06_06h39.06.712,kallum_motion_pilot,2023.2.3,Win32,62.5,5b76e19d948cc40001da0e50,6598e6a5d84f07970b831e70,6598e747b14ee5c28bf479d2,0.051,0.051,1,54,216,78,1,fourtwo,,,,,,,,,,,,,,,,,,,,,,,,,,,,,,,,,,,,,,,,,,,,,,,,,,,,,,,,,,,,,,,,,,,,,,,,,,,,,,,,,,,,,,,,,,,,,,,,,,,,,,,,,,,,,,,,,,,,,,,,,,,,,,,,,,,,,,,
,,5b76e19d948cc40001da0e50,2024-01-06_06h39.06.712,kallum_motion_pilot,2023.2.3,Win32,62.5,5b76e19d948cc40001da0e50,6598e6a5d84f07970b831e70,6598e747b14ee5c28bf479d2,0.051,0.052,1,55,217,48,1,onetwo,,,,,,,,,,,,,,,,,,,,,,,,,,,,,,,,,,,,,,,,,,,,,,,,,,,,,,,,,,,,,,,,,,,,,,,,,,,,,,,,,,,,,,,,,,,,,,,,,,,,,,,,,,,,,,,,,,,,,,,,,,,,,,,,,,,,,,,
,,5b76e19d948cc40001da0e50,2024-01-06_06h39.06.712,kallum_motion_pilot,2023.2.3,Win32,62.5,5b76e19d948cc40001da0e50,6598e6a5d84f07970b831e70,6598e747b14ee5c28bf479d2,0.052,0.052,1,56,218,32,1,onetwo,,,,,,,,,,,,,,,,,,,,,,,,,,,,,,,,,,,,,,,,,,,,,,,,,,,,,,,,,,,,,,,,,,,,,,,,,,,,,,,,,,,,,,,,,,,,,,,,,,,,,,,,,,,,,,,,,,,,,,,,,,,,,,,,,,,,,,,
,,5b76e19d948cc40001da0e50,2024-01-06_06h39.06.712,kallum_motion_pilot,2023.2.3,Win32,62.5,5b76e19d948cc40001da0e50,6598e6a5d84f07970b831e70,6598e747b14ee5c28bf479d2,0.052,0.052,1,57,219,144,1,fivesix,,,,,,,,,,,,,,,,,,,,,,,,,,,,,,,,,,,,,,,,,,,,,,,,,,,,,,,,,,,,,,,,,,,,,,,,,,,,,,,,,,,,,,,,,,,,,,,,,,,,,,,,,,,,,,,,,,,,,,,,,,,,,,,,,,,,,,,
,,5b76e19d948cc40001da0e50,2024-01-06_06h39.06.712,kallum_motion_pilot,2023.2.3,Win32,62.5,5b76e19d948cc40001da0e50,6598e6a5d84f07970b831e70,6598e747b14ee5c28bf479d2,0.052,0.052,1,58,220,135,1,eightseven,,,,,,,,,,,,,,,,,,,,,,,,,,,,,,,,,,,,,,,,,,,,,,,,,,,,,,,,,,,,,,,,,,,,,,,,,,,,,,,,,,,,,,,,,,,,,,,,,,,,,,,,,,,,,,,,,,,,,,,,,,,,,,,,,,,,,,,
,,5b76e19d948cc40001da0e50,2024-01-06_06h39.06.712,kallum_motion_pilot,2023.2.3,Win32,62.5,5b76e19d948cc40001da0e50,6598e6a5d84f07970b831e70,6598e747b14ee5c28bf479d2,0.052,0.052,1,59,221,86,1,eightsix,,,,,,,,,,,,,,,,,,,,,,,,,,,,,,,,,,,,,,,,,,,,,,,,,,,,,,,,,,,,,,,,,,,,,,,,,,,,,,,,,,,,,,,,,,,,,,,,,,,,,,,,,,,,,,,,,,,,,,,,,,,,,,,,,,,,,,,
,,5b76e19d948cc40001da0e50,2024-01-06_06h39.06.712,kallum_motion_pilot,2023.2.3,Win32,62.5,5b76e19d948cc40001da0e50,6598e6a5d84f07970b831e70,6598e747b14ee5c28bf479d2,0.052,0.052,1,60,222,158,1,eightsix,,,,,,,,,,,,,,,,,,,,,,,,,,,,,,,,,,,,,,,,,,,,,,,,,,,,,,,,,,,,,,,,,,,,,,,,,,,,,,,,,,,,,,,,,,,,,,,,,,,,,,,,,,,,,,,,,,,,,,,,,,,,,,,,,,,,,,,
,,5b76e19d948cc40001da0e50,2024-01-06_06h39.06.712,kallum_motion_pilot,2023.2.3,Win32,62.5,5b76e19d948cc40001da0e50,6598e6a5d84f07970b831e70,6598e747b14ee5c28bf479d2,0.052,0.052,1,61,223,119,1,eightseven,,,,,,,,,,,,,,,,,,,,,,,,,,,,,,,,,,,,,,,,,,,,,,,,,,,,,,,,,,,,,,,,,,,,,,,,,,,,,,,,,,,,,,,,,,,,,,,,,,,,,,,,,,,,,,,,,,,,,,,,,,,,,,,,,,,,,,,
,,5b76e19d948cc40001da0e50,2024-01-06_06h39.06.712,kallum_motion_pilot,2023.2.3,Win32,62.5,5b76e19d948cc40001da0e50,6598e6a5d84f07970b831e70,6598e747b14ee5c28bf479d2,0.052,0.052,1,62,224,142,1,eightsix,,,,,,,,,,,,,,,,,,,,,,,,,,,,,,,,,,,,,,,,,,,,,,,,,,,,,,,,,,,,,,,,,,,,,,,,,,,,,,,,,,,,,,,,,,,,,,,,,,,,,,,,,,,,,,,,,,,,,,,,,,,,,,,,,,,,,,,
,,5b76e19d948cc40001da0e50,2024-01-06_06h39.06.712,kallum_motion_pilot,2023.2.3,Win32,62.5,5b76e19d948cc40001da0e50,6598e6a5d84f07970b831e70,6598e747b14ee5c28bf479d2,0.052,0.052,1,63,225,75,1,twofour,,,,,,,,,,,,,,,,,,,,,,,,,,,,,,,,,,,,,,,,,,,,,,,,,,,,,,,,,,,,,,,,,,,,,,,,,,,,,,,,,,,,,,,,,,,,,,,,,,,,,,,,,,,,,,,,,,,,,,,,,,,,,,,,,,,,,,,
,,5b76e19d948cc40001da0e50,2024-01-06_06h39.06.712,kallum_motion_pilot,2023.2.3,Win32,62.5,5b76e19d948cc40001da0e50,6598e6a5d84f07970b831e70,6598e747b14ee5c28bf479d2,0.052,0.052,1,64,226,10,1,twoone,,,,,,,,,,,,,,,,,,,,,,,,,,,,,,,,,,,,,,,,,,,,,,,,,,,,,,,,,,,,,,,,,,,,,,,,,,,,,,,,,,,,,,,,,,,,,,,,,,,,,,,,,,,,,,,,,,,,,,,,,,,,,,,,,,,,,,,
,,5b76e19d948cc40001da0e50,2024-01-06_06h39.06.712,kallum_motion_pilot,2023.2.3,Win32,62.5,5b76e19d948cc40001da0e50,6598e6a5d84f07970b831e70,6598e747b14ee5c28bf479d2,0.052,0.052,1,65,227,13,1,threefour,,,,,,,,,,,,,,,,,,,,,,,,,,,,,,,,,,,,,,,,,,,,,,,,,,,,,,,,,,,,,,,,,,,,,,,,,,,,,,,,,,,,,,,,,,,,,,,,,,,,,,,,,,,,,,,,,,,,,,,,,,,,,,,,,,,,,,,
,,5b76e19d948cc40001da0e50,2024-01-06_06h39.06.712,kallum_motion_pilot,2023.2.3,Win32,62.5,5b76e19d948cc40001da0e50,6598e6a5d84f07970b831e70,6598e747b14ee5c28bf479d2,0.053,0.053,1,66,228,82,1,sixfive,,,,,,,,,,,,,,,,,,,,,,,,,,,,,,,,,,,,,,,,,,,,,,,,,,,,,,,,,,,,,,,,,,,,,,,,,,,,,,,,,,,,,,,,,,,,,,,,,,,,,,,,,,,,,,,,,,,,,,,,,,,,,,,,,,,,,,,
,,5b76e19d948cc40001da0e50,2024-01-06_06h39.06.712,kallum_motion_pilot,2023.2.3,Win32,62.5,5b76e19d948cc40001da0e50,6598e6a5d84f07970b831e70,6598e747b14ee5c28bf479d2,0.053,0.053,1,67,229,110,1,eightsix,,,,,,,,,,,,,,,,,,,,,,,,,,,,,,,,,,,,,,,,,,,,,,,,,,,,,,,,,,,,,,,,,,,,,,,,,,,,,,,,,,,,,,,,,,,,,,,,,,,,,,,,,,,,,,,,,,,,,,,,,,,,,,,,,,,,,,,
,,5b76e19d948cc40001da0e50,2024-01-06_06h39.06.712,kallum_motion_pilot,2023.2.3,Win32,62.5,5b76e19d948cc40001da0e50,6598e6a5d84f07970b831e70,6598e747b14ee5c28bf479d2,0.053,0.053,1,68,230,72,1,onetwo,,,,,,,,,,,,,,,,,,,,,,,,,,,,,,,,,,,,,,,,,,,,,,,,,,,,,,,,,,,,,,,,,,,,,,,,,,,,,,,,,,,,,,,,,,,,,,,,,,,,,,,,,,,,,,,,,,,,,,,,,,,,,,,,,,,,,,,
,,5b76e19d948cc40001da0e50,2024-01-06_06h39.06.712,kallum_motion_pilot,2023.2.3,Win32,62.5,5b76e19d948cc40001da0e50,6598e6a5d84f07970b831e70,6598e747b14ee5c28bf479d2,0.053,0.053,1,69,231,71,1,fourthree,,,,,,,,,,,,,,,,,,,,,,,,,,,,,,,,,,,,,,,,,,,,,,,,,,,,,,,,,,,,,,,,,,,,,,,,,,,,,,,,,,,,,,,,,,,,,,,,,,,,,,,,,,,,,,,,,,,,,,,,,,,,,,,,,,,,,,,
,,5b76e19d948cc40001da0e50,2024-01-06_06h39.06.712,kallum_motion_pilot,2023.2.3,Win32,62.5,5b76e19d948cc40001da0e50,6598e6a5d84f07970b831e70,6598e747b14ee5c28bf479d2,0.053,0.053,1,70,232,42,1,twoone,,,,,,,,,,,,,,,,,,,,,,,,,,,,,,,,,,,,,,,,,,,,,,,,,,,,,,,,,,,,,,,,,,,,,,,,,,,,,,,,,,,,,,,,,,,,,,,,,,,,,,,,,,,,,,,,,,,,,,,,,,,,,,,,,,,,,,,
,,5b76e19d948cc40001da0e50,2024-01-06_06h39.06.712,kallum_motion_pilot,2023.2.3,Win32,62.5,5b76e19d948cc40001da0e50,6598e6a5d84f07970b831e70,6598e747b14ee5c28bf479d2,0.053,0.054,1,71,233,108,1,sevenfive,,,,,,,,,,,,,,,,,,,,,,,,,,,,,,,,,,,,,,,,,,,,,,,,,,,,,,,,,,,,,,,,,,,,,,,,,,,,,,,,,,,,,,,,,,,,,,,,,,,,,,,,,,,,,,,,,,,,,,,,,,,,,,,,,,,,,,,
,,5b76e19d948cc40001da0e50,2024-01-06_06h39.06.712,kallum_motion_pilot,2023.2.3,Win32,62.5,5b76e19d948cc40001da0e50,6598e6a5d84f07970b831e70,6598e747b14ee5c28bf479d2,0.054,0.054,1,72,234,15,1,fourthree,,,,,,,,,,,,,,,,,,,,,,,,,,,,,,,,,,,,,,,,,,,,,,,,,,,,,,,,,,,,,,,,,,,,,,,,,,,,,,,,,,,,,,,,,,,,,,,,,,,,,,,,,,,,,,,,,,,,,,,,,,,,,,,,,,,,,,,
,,5b76e19d948cc40001da0e50,2024-01-06_06h39.06.712,kallum_motion_pilot,2023.2.3,Win32,62.5,5b76e19d948cc40001da0e50,6598e6a5d84f07970b831e70,6598e747b14ee5c28bf479d2,0.054,0.054,1,73,235,121,1,fiveseven,,,,,,,,,,,,,,,,,,,,,,,,,,,,,,,,,,,,,,,,,,,,,,,,,,,,,,,,,,,,,,,,,,,,,,,,,,,,,,,,,,,,,,,,,,,,,,,,,,,,,,,,,,,,,,,,,,,,,,,,,,,,,,,,,,,,,,,
,,5b76e19d948cc40001da0e50,2024-01-06_06h39.06.712,kallum_motion_pilot,2023.2.3,Win32,62.5,5b76e19d948cc40001da0e50,6598e6a5d84f07970b831e70,6598e747b14ee5c28bf479d2,0.054,0.054,1,74,236,114,1,sixfive,,,,,,,,,,,,,,,,,,,,,,,,,,,,,,,,,,,,,,,,,,,,,,,,,,,,,,,,,,,,,,,,,,,,,,,,,,,,,,,,,,,,,,,,,,,,,,,,,,,,,,,,,,,,,,,,,,,,,,,,,,,,,,,,,,,,,,,
,,5b76e19d948cc40001da0e50,2024-01-06_06h39.06.712,kallum_motion_pilot,2023.2.3,Win32,62.5,5b76e19d948cc40001da0e50,6598e6a5d84f07970b831e70,6598e747b14ee5c28bf479d2,0.054,0.054,1,75,237,29,1,threefour,,,,,,,,,,,,,,,,,,,,,,,,,,,,,,,,,,,,,,,,,,,,,,,,,,,,,,,,,,,,,,,,,,,,,,,,,,,,,,,,,,,,,,,,,,,,,,,,,,,,,,,,,,,,,,,,,,,,,,,,,,,,,,,,,,,,,,,
,,5b76e19d948cc40001da0e50,2024-01-06_06h39.06.712,kallum_motion_pilot,2023.2.3,Win32,62.5,5b76e19d948cc40001da0e50,6598e6a5d84f07970b831e70,6598e747b14ee5c28bf479d2,0.054,0.054,1,76,238,133,1,seveneight,,,,,,,,,,,,,,,,,,,,,,,,,,,,,,,,,,,,,,,,,,,,,,,,,,,,,,,,,,,,,,,,,,,,,,,,,,,,,,,,,,,,,,,,,,,,,,,,,,,,,,,,,,,,,,,,,,,,,,,,,,,,,,,,,,,,,,,
,,5b76e19d948cc40001da0e50,2024-01-06_06h39.06.712,kallum_motion_pilot,2023.2.3,Win32,62.5,5b76e19d948cc40001da0e50,6598e6a5d84f07970b831e70,6598e747b14ee5c28bf479d2,0.054,0.054,1,77,239,90,1,sixfive,,,,,,,,,,,,,,,,,,,,,,,,,,,,,,,,,,,,,,,,,,,,,,,,,,,,,,,,,,,,,,,,,,,,,,,,,,,,,,,,,,,,,,,,,,,,,,,,,,,,,,,,,,,,,,,,,,,,,,,,,,,,,,,,,,,,,,,
,,5b76e19d948cc40001da0e50,2024-01-06_06h39.06.712,kallum_motion_pilot,2023.2.3,Win32,62.5,5b76e19d948cc40001da0e50,6598e6a5d84f07970b831e70,6598e747b14ee5c28bf479d2,0.054,0.054,1,78,240,161,1,fiveseven,,,,,,,,,,,,,,,,,,,,,,,,,,,,,,,,,,,,,,,,,,,,,,,,,,,,,,,,,,,,,,,,,,,,,,,,,,,,,,,,,,,,,,,,,,,,,,,,,,,,,,,,,,,,,,,,,,,,,,,,,,,,,,,,,,,,,,,
,,5b76e19d948cc40001da0e50,2024-01-06_06h39.06.712,kallum_motion_pilot,2023.2.3,Win32,62.5,5b76e19d948cc40001da0e50,6598e6a5d84f07970b831e70,6598e747b14ee5c28bf479d2,0.054,0.054,1,79,241,131,1,sixeight,,,,,,,,,,,,,,,,,,,,,,,,,,,,,,,,,,,,,,,,,,,,,,,,,,,,,,,,,,,,,,,,,,,,,,,,,,,,,,,,,,,,,,,,,,,,,,,,,,,,,,,,,,,,,,,,,,,,,,,,,,,,,,,,,,,,,,,
,,5b76e19d948cc40001da0e50,2024-01-06_06h39.06.712,kallum_motion_pilot,2023.2.3,Win32,62.5,5b76e19d948cc40001da0e50,6598e6a5d84f07970b831e70,6598e747b14ee5c28bf479d2,0.054,0.054,1,80,242,156,1,sevenfive,,,,,,,,,,,,,,,,,,,,,,,,,,,,,,,,,,,,,,,,,,,,,,,,,,,,,,,,,,,,,,,,,,,,,,,,,,,,,,,,,,,,,,,,,,,,,,,,,,,,,,,,,,,,,,,,,,,,,,,,,,,,,,,,,,,,,,,
,,5b76e19d948cc40001da0e50,2024-01-06_06h39.06.712,kallum_motion_pilot,2023.2.3,Win32,62.5,5b76e19d948cc40001da0e50,6598e6a5d84f07970b831e70,6598e747b14ee5c28bf479d2,0.054,0.054,1,81,243,84,1,sevenfive,,,,,,,,,,,,,,,,,,,,,,,,,,,,,,,,,,,,,,,,,,,,,,,,,,,,,,,,,,,,,,,,,,,,,,,,,,,,,,,,,,,,,,,,,,,,,,,,,,,,,,,,,,,,,,,,,,,,,,,,,,,,,,,,,,,,,,,
,,5b76e19d948cc40001da0e50,2024-01-06_06h39.06.712,kallum_motion_pilot,2023.2.3,Win32,62.5,5b76e19d948cc40001da0e50,6598e6a5d84f07970b831e70,6598e747b14ee5c28bf479d2,0.054,0.054,1,82,244,152,1,fivesix,,,,,,,,,,,,,,,,,,,,,,,,,,,,,,,,,,,,,,,,,,,,,,,,,,,,,,,,,,,,,,,,,,,,,,,,,,,,,,,,,,,,,,,,,,,,,,,,,,,,,,,,,,,,,,,,,,,,,,,,,,,,,,,,,,,,,,,
,,5b76e19d948cc40001da0e50,2024-01-06_06h39.06.712,kallum_motion_pilot,2023.2.3,Win32,62.5,5b76e19d948cc40001da0e50,6598e6a5d84f07970b831e70,6598e747b14ee5c28bf479d2,0.054,0.054,1,83,245,45,1,threefour,,,,,,,,,,,,,,,,,,,,,,,,,,,,,,,,,,,,,,,,,,,,,,,,,,,,,,,,,,,,,,,,,,,,,,,,,,,,,,,,,,,,,,,,,,,,,,,,,,,,,,,,,,,,,,,,,,,,,,,,,,,,,,,,,,,,,,,
,,5b76e19d948cc40001da0e50,2024-01-06_06h39.06.712,kallum_motion_pilot,2023.2.3,Win32,62.5,5b76e19d948cc40001da0e50,6598e6a5d84f07970b831e70,6598e747b14ee5c28bf479d2,0.054,0.054,1,84,246,9,1,onethree,,,,,,,,,,,,,,,,,,,,,,,,,,,,,,,,,,,,,,,,,,,,,,,,,,,,,,,,,,,,,,,,,,,,,,,,,,,,,,,,,,,,,,,,,,,,,,,,,,,,,,,,,,,,,,,,,,,,,,,,,,,,,,,,,,,,,,,
,,5b76e19d948cc40001da0e50,2024-01-06_06h39.06.712,kallum_motion_pilot,2023.2.3,Win32,62.5,5b76e19d948cc40001da0e50,6598e6a5d84f07970b831e70,6598e747b14ee5c28bf479d2,0.054,0.054,1,85,247,74,1,twoone,,,,,,,,,,,,,,,,,,,,,,,,,,,,,,,,,,,,,,,,,,,,,,,,,,,,,,,,,,,,,,,,,,,,,,,,,,,,,,,,,,,,,,,,,,,,,,,,,,,,,,,,,,,,,,,,,,,,,,,,,,,,,,,,,,,,,,,
,,5b76e19d948cc40001da0e50,2024-01-06_06h39.06.712,kallum_motion_pilot,2023.2.3,Win32,62.5,5b76e19d948cc40001da0e50,6598e6a5d84f07970b831e70,6598e747b14ee5c28bf479d2,0.054,0.054,1,86,248,107,1,sixeight,,,,,,,,,,,,,,,,,,,,,,,,,,,,,,,,,,,,,,,,,,,,,,,,,,,,,,,,,,,,,,,,,,,,,,,,,,,,,,,,,,,,,,,,,,,,,,,,,,,,,,,,,,,,,,,,,,,,,,,,,,,,,,,,,,,,,,,
,,5b76e19d948cc40001da0e50,2024-01-06_06h39.06.712,kallum_motion_pilot,2023.2.3,Win32,62.5,5b76e19d948cc40001da0e50,6598e6a5d84f07970b831e70,6598e747b14ee5c28bf479d2,0.054,0.054,1,87,249,31,1,fourthree,,,,,,,,,,,,,,,,,,,,,,,,,,,,,,,,,,,,,,,,,,,,,,,,,,,,,,,,,,,,,,,,,,,,,,,,,,,,,,,,,,,,,,,,,,,,,,,,,,,,,,,,,,,,,,,,,,,,,,,,,,,,,,,,,,,,,,,
,,5b76e19d948cc40001da0e50,2024-01-06_06h39.06.712,kallum_motion_pilot,2023.2.3,Win32,62.5,5b76e19d948cc40001da0e50,6598e6a5d84f07970b831e70,6598e747b14ee5c28bf479d2,0.054,0.054,1,88,250,103,1,eightseven,,,,,,,,,,,,,,,,,,,,,,,,,,,,,,,,,,,,,,,,,,,,,,,,,,,,,,,,,,,,,,,,,,,,,,,,,,,,,,,,,,,,,,,,,,,,,,,,,,,,,,,,,,,,,,,,,,,,,,,,,,,,,,,,,,,,,,,
,,5b76e19d948cc40001da0e50,2024-01-06_06h39.06.712,kallum_motion_pilot,2023.2.3,Win32,62.5,5b76e19d948cc40001da0e50,6598e6a5d84f07970b831e70,6598e747b14ee5c28bf479d2,0.054,0.054,1,89,251,16,1,onetwo,,,,,,,,,,,,,,,,,,,,,,,,,,,,,,,,,,,,,,,,,,,,,,,,,,,,,,,,,,,,,,,,,,,,,,,,,,,,,,,,,,,,,,,,,,,,,,,,,,,,,,,,,,,,,,,,,,,,,,,,,,,,,,,,,,,,,,,
,,5b76e19d948cc40001da0e50,2024-01-06_06h39.06.712,kallum_motion_pilot,2023.2.3,Win32,62.5,5b76e19d948cc40001da0e50,6598e6a5d84f07970b831e70,6598e747b14ee5c28bf479d2,0.055,0.055,1,90,252,67,1,twofour,,,,,,,,,,,,,,,,,,,,,,,,,,,,,,,,,,,,,,,,,,,,,,,,,,,,,,,,,,,,,,,,,,,,,,,,,,,,,,,,,,,,,,,,,,,,,,,,,,,,,,,,,,,,,,,,,,,,,,,,,,,,,,,,,,,,,,,
,,5b76e19d948cc40001da0e50,2024-01-06_06h39.06.712,kallum_motion_pilot,2023.2.3,Win32,62.5,5b76e19d948cc40001da0e50,6598e6a5d84f07970b831e70,6598e747b14ee5c28bf479d2,0.055,0.055,1,91,253,147,1,sixeight,,,,,,,,,,,,,,,,,,,,,,,,,,,,,,,,,,,,,,,,,,,,,,,,,,,,,,,,,,,,,,,,,,,,,,,,,,,,,,,,,,,,,,,,,,,,,,,,,,,,,,,,,,,,,,,,,,,,,,,,,,,,,,,,,,,,,,,
,,5b76e19d948cc40001da0e50,2024-01-06_06h39.06.712,kallum_motion_pilot,2023.2.3,Win32,62.5,5b76e19d948cc40001da0e50,6598e6a5d84f07970b831e70,6598e747b14ee5c28bf479d2,0.055,0.055,1,92,254,120,1,fivesix,,,,,,,,,,,,,,,,,,,,,,,,,,,,,,,,,,,,,,,,,,,,,,,,,,,,,,,,,,,,,,,,,,,,,,,,,,,,,,,,,,,,,,,,,,,,,,,,,,,,,,,,,,,,,,,,,,,,,,,,,,,,,,,,,,,,,,,
,,5b76e19d948cc40001da0e50,2024-01-06_06h39.06.712,kallum_motion_pilot,2023.2.3,Win32,62.5,5b76e19d948cc40001da0e50,6598e6a5d84f07970b831e70,6598e747b14ee5c28bf479d2,0.055,0.055,1,93,255,89,1,fiveseven,,,,,,,,,,,,,,,,,,,,,,,,,,,,,,,,,,,,,,,,,,,,,,,,,,,,,,,,,,,,,,,,,,,,,,,,,,,,,,,,,,,,,,,,,,,,,,,,,,,,,,,,,,,,,,,,,,,,,,,,,,,,,,,,,,,,,,,
,,5b76e19d948cc40001da0e50,2024-01-06_06h39.06.712,kallum_motion_pilot,2023.2.3,Win32,62.5,5b76e19d948cc40001da0e50,6598e6a5d84f07970b831e70,6598e747b14ee5c28bf479d2,0.056,0.056,1,94,256,11,1,twofour,,,,,,,,,,,,,,,,,,,,,,,,,,,,,,,,,,,,,,,,,,,,,,,,,,,,,,,,,,,,,,,,,,,,,,,,,,,,,,,,,,,,,,,,,,,,,,,,,,,,,,,,,,,,,,,,,,,,,,,,,,,,,,,,,,,,,,,
,,5b76e19d948cc40001da0e50,2024-01-06_06h39.06.712,kallum_motion_pilot,2023.2.3,Win32,62.5,5b76e19d948cc40001da0e50,6598e6a5d84f07970b831e70,6598e747b14ee5c28bf479d2,0.056,0.056,1,95,257,20,1,threeone,,,,,,,,,,,,,,,,,,,,,,,,,,,,,,,,,,,,,,,,,,,,,,,,,,,,,,,,,,,,,,,,,,,,,,,,,,,,,,,,,,,,,,,,,,,,,,,,,,,,,,,,,,,,,,,,,,,,,,,,,,,,,,,,,,,,,,,
,,5b76e19d948cc40001da0e50,2024-01-06_06h39.06.712,kallum_motion_pilot,2023.2.3,Win32,62.5,5b76e19d948cc40001da0e50,6598e6a5d84f07970b831e70,6598e747b14ee5c28bf479d2,0.056,0.056,1,96,258,2,1,twoone,,,,,,,,,,,,,,,,,,,,,,,,,,,,,,,,,,,,,,,,,,,,,,,,,,,,,,,,,,,,,,,,,,,,,,,,,,,,,,,,,,,,,,,,,,,,,,,,,,,,,,,,,,,,,,,,,,,,,,,,,,,,,,,,,,,,,,,
,,5b76e19d948cc40001da0e50,2024-01-06_06h39.06.712,kallum_motion_pilot,2023.2.3,Win32,62.5,5b76e19d948cc40001da0e50,6598e6a5d84f07970b831e70,6598e747b14ee5c28bf479d2,0.056,0.056,1,97,259,140,1,sevenfive,,,,,,,,,,,,,,,,,,,,,,,,,,,,,,,,,,,,,,,,,,,,,,,,,,,,,,,,,,,,,,,,,,,,,,,,,,,,,,,,,,,,,,,,,,,,,,,,,,,,,,,,,,,,,,,,,,,,,,,,,,,,,,,,,,,,,,,
,,5b76e19d948cc40001da0e50,2024-01-06_06h39.06.712,kallum_motion_pilot,2023.2.3,Win32,62.5,5b76e19d948cc40001da0e50,6598e6a5d84f07970b831e70,6598e747b14ee5c28bf479d2,0.056,0.056,1,98,260,24,1,onetwo,,,,,,,,,,,,,,,,,,,,,,,,,,,,,,,,,,,,,,,,,,,,,,,,,,,,,,,,,,,,,,,,,,,,,,,,,,,,,,,,,,,,,,,,,,,,,,,,,,,,,,,,,,,,,,,,,,,,,,,,,,,,,,,,,,,,,,,
,,5b76e19d948cc40001da0e50,2024-01-06_06h39.06.712,kallum_motion_pilot,2023.2.3,Win32,62.5,5b76e19d948cc40001da0e50,6598e6a5d84f07970b831e70,6598e747b14ee5c28bf479d2,0.056,0.056,1,99,261,141,1,seveneight,,,,,,,,,,,,,,,,,,,,,,,,,,,,,,,,,,,,,,,,,,,,,,,,,,,,,,,,,,,,,,,,,,,,,,,,,,,,,,,,,,,,,,,,,,,,,,,,,,,,,,,,,,,,,,,,,,,,,,,,,,,,,,,,,,,,,,,
,,5b76e19d948cc40001da0e50,2024-01-06_06h39.06.712,kallum_motion_pilot,2023.2.3,Win32,62.5,5b76e19d948cc40001da0e50,6598e6a5d84f07970b831e70,6598e747b14ee5c28bf479d2,0.056,0.056,1,100,262,116,1,sevenfive,,,,,,,,,,,,,,,,,,,,,,,,,,,,,,,,,,,,,,,,,,,,,,,,,,,,,,,,,,,,,,,,,,,,,,,,,,,,,,,,,,,,,,,,,,,,,,,,,,,,,,,,,,,,,,,,,,,,,,,,,,,,,,,,,,,,,,,
,,5b76e19d948cc40001da0e50,2024-01-06_06h39.06.712,kallum_motion_pilot,2023.2.3,Win32,62.5,5b76e19d948cc40001da0e50,6598e6a5d84f07970b831e70,6598e747b14ee5c28bf479d2,0.056,0.056,1,101,263,19,1,twofour,,,,,,,,,,,,,,,,,,,,,,,,,,,,,,,,,,,,,,,,,,,,,,,,,,,,,,,,,,,,,,,,,,,,,,,,,,,,,,,,,,,,,,,,,,,,,,,,,,,,,,,,,,,,,,,,,,,,,,,,,,,,,,,,,,,,,,,
,,5b76e19d948cc40001da0e50,2024-01-06_06h39.06.712,kallum_motion_pilot,2023.2.3,Win32,62.5,5b76e19d948cc40001da0e50,6598e6a5d84f07970b831e70,6598e747b14ee5c28bf479d2,0.056,0.056,1,102,264,8,1,onetwo,,,,,,,,,,,,,,,,,,,,,,,,,,,,,,,,,,,,,,,,,,,,,,,,,,,,,,,,,,,,,,,,,,,,,,,,,,,,,,,,,,,,,,,,,,,,,,,,,,,,,,,,,,,,,,,,,,,,,,,,,,,,,,,,,,,,,,,
,,5b76e19d948cc40001da0e50,2024-01-06_06h39.06.712,kallum_motion_pilot,2023.2.3,Win32,62.5,5b76e19d948cc40001da0e50,6598e6a5d84f07970b831e70,6598e747b14ee5c28bf479d2,0.056,0.057,1,103,265,18,1,twoone,,,,,,,,,,,,,,,,,,,,,,,,,,,,,,,,,,,,,,,,,,,,,,,,,,,,,,,,,,,,,,,,,,,,,,,,,,,,,,,,,,,,,,,,,,,,,,,,,,,,,,,,,,,,,,,,,,,,,,,,,,,,,,,,,,,,,,,
,,5b76e19d948cc40001da0e50,2024-01-06_06h39.06.712,kallum_motion_pilot,2023.2.3,Win32,62.5,5b76e19d948cc40001da0e50,6598e6a5d84f07970b831e70,6598e747b14ee5c28bf479d2,0.057,0.057,1,104,266,51,1,twofour,,,,,,,,,,,,,,,,,,,,,,,,,,,,,,,,,,,,,,,,,,,,,,,,,,,,,,,,,,,,,,,,,,,,,,,,,,,,,,,,,,,,,,,,,,,,,,,,,,,,,,,,,,,,,,,,,,,,,,,,,,,,,,,,,,,,,,,
,,5b76e19d948cc40001da0e50,2024-01-06_06h39.06.712,kallum_motion_pilot,2023.2.3,Win32,62.5,5b76e19d948cc40001da0e50,6598e6a5d84f07970b831e70,6598e747b14ee5c28bf479d2,0.057,0.057,1,105,267,93,1,seveneight,,,,,,,,,,,,,,,,,,,,,,,,,,,,,,,,,,,,,,,,,,,,,,,,,,,,,,,,,,,,,,,,,,,,,,,,,,,,,,,,,,,,,,,,,,,,,,,,,,,,,,,,,,,,,,,,,,,,,,,,,,,,,,,,,,,,,,,
,,5b76e19d948cc40001da0e50,2024-01-06_06h39.06.712,kallum_motion_pilot,2023.2.3,Win32,62.5,5b76e19d948cc40001da0e50,6598e6a5d84f07970b831e70,6598e747b14ee5c28bf479d2,0.057,0.057,1,106,268,73,1,onethree,,,,,,,,,,,,,,,,,,,,,,,,,,,,,,,,,,,,,,,,,,,,,,,,,,,,,,,,,,,,,,,,,,,,,,,,,,,,,,,,,,,,,,,,,,,,,,,,,,,,,,,,,,,,,,,,,,,,,,,,,,,,,,,,,,,,,,,
,,5b76e19d948cc40001da0e50,2024-01-06_06h39.06.712,kallum_motion_pilot,2023.2.3,Win32,62.5,5b76e19d948cc40001da0e50,6598e6a5d84f07970b831e70,6598e747b14ee5c28bf479d2,0.057,0.057,1,107,269,143,1,eightseven,,,,,,,,,,,,,,,,,,,,,,,,,,,,,,,,,,,,,,,,,,,,,,,,,,,,,,,,,,,,,,,,,,,,,,,,,,,,,,,,,,,,,,,,,,,,,,,,,,,,,,,,,,,,,,,,,,,,,,,,,,,,,,,,,,,,,,,
,,5b76e19d948cc40001da0e50,2024-01-06_06h39.06.712,kallum_motion_pilot,2023.2.3,Win32,62.5,5b76e19d948cc40001da0e50,6598e6a5d84f07970b831e70,6598e747b14ee5c28bf479d2,0.057,0.057,1,108,270,17,1,onethree,,,,,,,,,,,,,,,,,,,,,,,,,,,,,,,,,,,,,,,,,,,,,,,,,,,,,,,,,,,,,,,,,,,,,,,,,,,,,,,,,,,,,,,,,,,,,,,,,,,,,,,,,,,,,,,,,,,,,,,,,,,,,,,,,,,,,,,
,,5b76e19d948cc40001da0e50,2024-01-06_06h39.06.712,kallum_motion_pilot,2023.2.3,Win32,62.5,5b76e19d948cc40001da0e50,6598e6a5d84f07970b831e70,6598e747b14ee5c28bf479d2,0.057,0.058,1,109,271,87,1,eightseven,,,,,,,,,,,,,,,,,,,,,,,,,,,,,,,,,,,,,,,,,,,,,,,,,,,,,,,,,,,,,,,,,,,,,,,,,,,,,,,,,,,,,,,,,,,,,,,,,,,,,,,,,,,,,,,,,,,,,,,,,,,,,,,,,,,,,,,
,,5b76e19d948cc40001da0e50,2024-01-06_06h39.06.712,kallum_motion_pilot,2023.2.3,Win32,62.5,5b76e19d948cc40001da0e50,6598e6a5d84f07970b831e70,6598e747b14ee5c28bf479d2,0.058,0.058,1,110,272,149,1,seveneight,,,,,,,,,,,,,,,,,,,,,,,,,,,,,,,,,,,,,,,,,,,,,,,,,,,,,,,,,,,,,,,,,,,,,,,,,,,,,,,,,,,,,,,,,,,,,,,,,,,,,,,,,,,,,,,,,,,,,,,,,,,,,,,,,,,,,,,
,,5b76e19d948cc40001da0e50,2024-01-06_06h39.06.712,kallum_motion_pilot,2023.2.3,Win32,62.5,5b76e19d948cc40001da0e50,6598e6a5d84f07970b831e70,6598e747b14ee5c28bf479d2,0.058,0.058,1,111,273,137,1,fiveseven,,,,,,,,,,,,,,,,,,,,,,,,,,,,,,,,,,,,,,,,,,,,,,,,,,,,,,,,,,,,,,,,,,,,,,,,,,,,,,,,,,,,,,,,,,,,,,,,,,,,,,,,,,,,,,,,,,,,,,,,,,,,,,,,,,,,,,,
,,5b76e19d948cc40001da0e50,2024-01-06_06h39.06.712,kallum_motion_pilot,2023.2.3,Win32,62.5,5b76e19d948cc40001da0e50,6598e6a5d84f07970b831e70,6598e747b14ee5c28bf479d2,0.058,0.058,1,112,274,145,1,fiveseven,,,,,,,,,,,,,,,,,,,,,,,,,,,,,,,,,,,,,,,,,,,,,,,,,,,,,,,,,,,,,,,,,,,,,,,,,,,,,,,,,,,,,,,,,,,,,,,,,,,,,,,,,,,,,,,,,,,,,,,,,,,,,,,,,,,,,,,
,,5b76e19d948cc40001da0e50,2024-01-06_06h39.06.712,kallum_motion_pilot,2023.2.3,Win32,62.5,5b76e19d948cc40001da0e50,6598e6a5d84f07970b831e70,6598e747b14ee5c28bf479d2,0.058,0.058,1,113,275,126,1,eightsix,,,,,,,,,,,,,,,,,,,,,,,,,,,,,,,,,,,,,,,,,,,,,,,,,,,,,,,,,,,,,,,,,,,,,,,,,,,,,,,,,,,,,,,,,,,,,,,,,,,,,,,,,,,,,,,,,,,,,,,,,,,,,,,,,,,,,,,
,,5b76e19d948cc40001da0e50,2024-01-06_06h39.06.712,kallum_motion_pilot,2023.2.3,Win32,62.5,5b76e19d948cc40001da0e50,6598e6a5d84f07970b831e70,6598e747b14ee5c28bf479d2,0.058,0.058,1,114,276,118,1,eightsix,,,,,,,,,,,,,,,,,,,,,,,,,,,,,,,,,,,,,,,,,,,,,,,,,,,,,,,,,,,,,,,,,,,,,,,,,,,,,,,,,,,,,,,,,,,,,,,,,,,,,,,,,,,,,,,,,,,,,,,,,,,,,,,,,,,,,,,
,,5b76e19d948cc40001da0e50,2024-01-06_06h39.06.712,kallum_motion_pilot,2023.2.3,Win32,62.5,5b76e19d948cc40001da0e50,6598e6a5d84f07970b831e70,6598e747b14ee5c28bf479d2,0.058,0.058,1,115,277,95,1,eightseven,,,,,,,,,,,,,,,,,,,,,,,,,,,,,,,,,,,,,,,,,,,,,,,,,,,,,,,,,,,,,,,,,,,,,,,,,,,,,,,,,,,,,,,,,,,,,,,,,,,,,,,,,,,,,,,,,,,,,,,,,,,,,,,,,,,,,,,
,,5b76e19d948cc40001da0e50,2024-01-06_06h39.06.712,kallum_motion_pilot,2023.2.3,Win32,62.5,5b76e19d948cc40001da0e50,6598e6a5d84f07970b831e70,6598e747b14ee5c28bf479d2,0.058,0.058,1,116,278,36,1,threeone,,,,,,,,,,,,,,,,,,,,,,,,,,,,,,,,,,,,,,,,,,,,,,,,,,,,,,,,,,,,,,,,,,,,,,,,,,,,,,,,,,,,,,,,,,,,,,,,,,,,,,,,,,,,,,,,,,,,,,,,,,,,,,,,,,,,,,,
,,5b76e19d948cc40001da0e50,2024-01-06_06h39.06.712,kallum_motion_pilot,2023.2.3,Win32,62.5,5b76e19d948cc40001da0e50,6598e6a5d84f07970b831e70,6598e747b14ee5c28bf479d2,0.058,0.059,1,117,279,54,1,fourtwo,,,,,,,,,,,,,,,,,,,,,,,,,,,,,,,,,,,,,,,,,,,,,,,,,,,,,,,,,,,,,,,,,,,,,,,,,,,,,,,,,,,,,,,,,,,,,,,,,,,,,,,,,,,,,,,,,,,,,,,,,,,,,,,,,,,,,,,
,,5b76e19d948cc40001da0e50,2024-01-06_06h39.06.712,kallum_motion_pilot,2023.2.3,Win32,62.5,5b76e19d948cc40001da0e50,6598e6a5d84f07970b831e70,6598e747b14ee5c28bf479d2,0.059,0.059,1,118,280,44,1,threeone,,,,,,,,,,,,,,,,,,,,,,,,,,,,,,,,,,,,,,,,,,,,,,,,,,,,,,,,,,,,,,,,,,,,,,,,,,,,,,,,,,,,,,,,,,,,,,,,,,,,,,,,,,,,,,,,,,,,,,,,,,,,,,,,,,,,,,,
,,5b76e19d948cc40001da0e50,2024-01-06_06h39.06.712,kallum_motion_pilot,2023.2.3,Win32,62.5,5b76e19d948cc40001da0e50,6598e6a5d84f07970b831e70,6598e747b14ee5c28bf479d2,0.059,0.059,1,119,281,97,1,fiveseven,,,,,,,,,,,,,,,,,,,,,,,,,,,,,,,,,,,,,,,,,,,,,,,,,,,,,,,,,,,,,,,,,,,,,,,,,,,,,,,,,,,,,,,,,,,,,,,,,,,,,,,,,,,,,,,,,,,,,,,,,,,,,,,,,,,,,,,
,,5b76e19d948cc40001da0e50,2024-01-06_06h39.06.712,kallum_motion_pilot,2023.2.3,Win32,62.5,5b76e19d948cc40001da0e50,6598e6a5d84f07970b831e70,6598e747b14ee5c28bf479d2,0.059,0.059,1,120,282,106,1,sixfive,,,,,,,,,,,,,,,,,,,,,,,,,,,,,,,,,,,,,,,,,,,,,,,,,,,,,,,,,,,,,,,,,,,,,,,,,,,,,,,,,,,,,,,,,,,,,,,,,,,,,,,,,,,,,,,,,,,,,,,,,,,,,,,,,,,,,,,
,,5b76e19d948cc40001da0e50,2024-01-06_06h39.06.712,kallum_motion_pilot,2023.2.3,Win32,62.5,5b76e19d948cc40001da0e50,6598e6a5d84f07970b831e70,6598e747b14ee5c28bf479d2,0.059,0.059,1,121,283,136,1,fivesix,,,,,,,,,,,,,,,,,,,,,,,,,,,,,,,,,,,,,,,,,,,,,,,,,,,,,,,,,,,,,,,,,,,,,,,,,,,,,,,,,,,,,,,,,,,,,,,,,,,,,,,,,,,,,,,,,,,,,,,,,,,,,,,,,,,,,,,
,,5b76e19d948cc40001da0e50,2024-01-06_06h39.06.712,kallum_motion_pilot,2023.2.3,Win32,62.5,5b76e19d948cc40001da0e50,6598e6a5d84f07970b831e70,6598e747b14ee5c28bf479d2,0.059,0.059,1,122,284,59,1,twofour,,,,,,,,,,,,,,,,,,,,,,,,,,,,,,,,,,,,,,,,,,,,,,,,,,,,,,,,,,,,,,,,,,,,,,,,,,,,,,,,,,,,,,,,,,,,,,,,,,,,,,,,,,,,,,,,,,,,,,,,,,,,,,,,,,,,,,,
,,5b76e19d948cc40001da0e50,2024-01-06_06h39.06.712,kallum_motion_pilot,2023.2.3,Win32,62.5,5b76e19d948cc40001da0e50,6598e6a5d84f07970b831e70,6598e747b14ee5c28bf479d2,0.059,0.059,1,123,285,134,1,eightsix,,,,,,,,,,,,,,,,,,,,,,,,,,,,,,,,,,,,,,,,,,,,,,,,,,,,,,,,,,,,,,,,,,,,,,,,,,,,,,,,,,,,,,,,,,,,,,,,,,,,,,,,,,,,,,,,,,,,,,,,,,,,,,,,,,,,,,,
,,5b76e19d948cc40001da0e50,2024-01-06_06h39.06.712,kallum_motion_pilot,2023.2.3,Win32,62.5,5b76e19d948cc40001da0e50,6598e6a5d84f07970b831e70,6598e747b14ee5c28bf479d2,0.059,0.059,1,124,286,111,1,eightseven,,,,,,,,,,,,,,,,,,,,,,,,,,,,,,,,,,,,,,,,,,,,,,,,,,,,,,,,,,,,,,,,,,,,,,,,,,,,,,,,,,,,,,,,,,,,,,,,,,,,,,,,,,,,,,,,,,,,,,,,,,,,,,,,,,,,,,,
