startup.started,startup.stopped,Prolific ID*,date,expName,psychopyVersion,OS,frameRate,PROLIFIC_PID,STUDY_ID,SESSION_ID,stimpositions.started,stimpositions.stopped,hardcoded_stimulus_positions.thisRepN,hardcoded_stimulus_positions.thisTrialN,hardcoded_stimulus_positions.thisN,hardcoded_stimulus_positions.thisIndex,hardcoded_stimulus_positions.ran,StimulusPos,stimorientation.started,stimorientation.stopped,prac_stimorientation_import_loop.thisRepN,prac_stimorientation_import_loop.thisTrialN,prac_stimorientation_import_loop.thisN,prac_stimorientation_import_loop.thisIndex,prac_stimorientation_import_loop.ran,Stimorientation,welcome_instr.started,welcome_instr.stopped,key_resp.keys,key_resp.rt,key_resp.duration,response_steppedout_1.started,response_steppedout_1.stopped,key_resp_20.keys,key_resp_20.rt,key_resp_20.duration,response_steppedout_2.started,response_steppedout_2.stopped,key_resp_19.keys,key_resp_19.rt,key_resp_19.duration,stim_response_instr.started,stim_response_instr.stopped,key_resp_15.keys,key_resp_15.rt,key_resp_15.duration,direction_instr_2.started,direction_instr_2.stopped,key_resp_9.keys,key_resp_9.rt,key_resp_9.duration,instr_prac.started,instr_prac.stopped,key_resp_10.keys,key_resp_10.rt,key_resp_10.duration,Stim1_display_prac.started,Stim1_display_prac.stopped,Ecc,Circle1_ori,Circle2_ori,response_prac.started,similarity,response_time,response_prac.stopped,mouse_5.x,mouse_5.y,mouse_5.leftButton,mouse_5.midButton,mouse_5.rightButton,mouse_5.clicked_name,responseprac_feedback.started,responseprac_feedback.stopped,summary2_prac.started,summary2_prac.stopped,mouse_6.x,mouse_6.y,mouse_6.leftButton,mouse_6.midButton,mouse_6.rightButton,mouse_6.clicked_name,duringprac.thisRepN,duringprac.thisTrialN,duringprac.thisN,duringprac.thisIndex,duringprac.ran,begin.started,begin.stopped,key_resp_22.keys,key_resp_22.rt,key_resp_22.duration,Stim1_display.started,Stim1_display.stopped,circle1_ori,circle2_ori,blank.started,blank.stopped,response.started,response.stopped,mouse.x,mouse.y,mouse.leftButton,mouse.midButton,mouse.rightButton,mouse.clicked_name,response_2.started,response_2.stopped,mouse_2.x,mouse_2.y,mouse_2.leftButton,mouse_2.midButton,mouse_2.rightButton,mouse_2.clicked_name,special_trial.started,special_trial.stopped,catch_1.started,catch_1.stopped,mouse_3.x,mouse_3.y,mouse_3.leftButton,mouse_3.midButton,mouse_3.rightButton,catchresponse,catchnumber,response_time_catch,Catch,response_sum.started,response_sum.stopped,mouse_11.x,mouse_11.y,mouse_11.leftButton,mouse_11.midButton,mouse_11.rightButton,main_trial.thisRepN,main_trial.thisTrialN,main_trial.thisN,main_trial.thisIndex,main_trial.ran,Orientationtrialno,xcircle1_ori,xcircle2_ori,flip_presentation_sequence_for_double_pass.started,flip_presentation_sequence_for_double_pass.stopped,double_pass.thisRepN,double_pass.thisTrialN,double_pass.thisN,double_pass.thisIndex,double_pass.ran,goodbye.started,goodbye.stopped,key_resp_3.keys,key_resp_3.rt,key_resp_3.duration
0.0029,0.0031,613f88c021bff7b9502b98db,2024-01-05_23h41.32.551,kallum_motion_pilot,2023.2.3,Win32,59.88023952,613f88c021bff7b9502b98db,6598e6a5d84f07970b831e70,6598e78339833e045566f283,,,,,,,,,,,,,,,,,,,,,,,,,,,,,,,,,,,,,,,,,,,,,,,,,,,,,,,,,,,,,,,,,,,,,,,,,,,,,,,,,,,,,,,,,,,,,,,,,,,,,,,,,,,,,,,,,,,,,,,,,,,,,,,,,,,,,,,,,,,,,,,
,,613f88c021bff7b9502b98db,2024-01-05_23h41.32.551,kallum_motion_pilot,2023.2.3,Win32,59.88023952,613f88c021bff7b9502b98db,6598e6a5d84f07970b831e70,6598e78339833e045566f283,0.029,0.0291,0,0,0,157,1,seveneight,,,,,,,,,,,,,,,,,,,,,,,,,,,,,,,,,,,,,,,,,,,,,,,,,,,,,,,,,,,,,,,,,,,,,,,,,,,,,,,,,,,,,,,,,,,,,,,,,,,,,,,,,,,,,,,,,,,,,,,,,,,,,,,,,,,,,,,
,,613f88c021bff7b9502b98db,2024-01-05_23h41.32.551,kallum_motion_pilot,2023.2.3,Win32,59.88023952,613f88c021bff7b9502b98db,6598e6a5d84f07970b831e70,6598e78339833e045566f283,0.0295,0.0295,0,1,1,23,1,fourthree,,,,,,,,,,,,,,,,,,,,,,,,,,,,,,,,,,,,,,,,,,,,,,,,,,,,,,,,,,,,,,,,,,,,,,,,,,,,,,,,,,,,,,,,,,,,,,,,,,,,,,,,,,,,,,,,,,,,,,,,,,,,,,,,,,,,,,,
,,613f88c021bff7b9502b98db,2024-01-05_23h41.32.551,kallum_motion_pilot,2023.2.3,Win32,59.88023952,613f88c021bff7b9502b98db,6598e6a5d84f07970b831e70,6598e78339833e045566f283,0.0297,0.0297,0,2,2,9,1,onethree,,,,,,,,,,,,,,,,,,,,,,,,,,,,,,,,,,,,,,,,,,,,,,,,,,,,,,,,,,,,,,,,,,,,,,,,,,,,,,,,,,,,,,,,,,,,,,,,,,,,,,,,,,,,,,,,,,,,,,,,,,,,,,,,,,,,,,,
,,613f88c021bff7b9502b98db,2024-01-05_23h41.32.551,kallum_motion_pilot,2023.2.3,Win32,59.88023952,613f88c021bff7b9502b98db,6598e6a5d84f07970b831e70,6598e78339833e045566f283,0.0298,0.0298,0,3,3,110,1,eightsix,,,,,,,,,,,,,,,,,,,,,,,,,,,,,,,,,,,,,,,,,,,,,,,,,,,,,,,,,,,,,,,,,,,,,,,,,,,,,,,,,,,,,,,,,,,,,,,,,,,,,,,,,,,,,,,,,,,,,,,,,,,,,,,,,,,,,,,
,,613f88c021bff7b9502b98db,2024-01-05_23h41.32.551,kallum_motion_pilot,2023.2.3,Win32,59.88023952,613f88c021bff7b9502b98db,6598e6a5d84f07970b831e70,6598e78339833e045566f283,0.03,0.03,0,4,4,51,1,twofour,,,,,,,,,,,,,,,,,,,,,,,,,,,,,,,,,,,,,,,,,,,,,,,,,,,,,,,,,,,,,,,,,,,,,,,,,,,,,,,,,,,,,,,,,,,,,,,,,,,,,,,,,,,,,,,,,,,,,,,,,,,,,,,,,,,,,,,
,,613f88c021bff7b9502b98db,2024-01-05_23h41.32.551,kallum_motion_pilot,2023.2.3,Win32,59.88023952,613f88c021bff7b9502b98db,6598e6a5d84f07970b831e70,6598e78339833e045566f283,0.03,0.0301,0,5,5,146,1,sixfive,,,,,,,,,,,,,,,,,,,,,,,,,,,,,,,,,,,,,,,,,,,,,,,,,,,,,,,,,,,,,,,,,,,,,,,,,,,,,,,,,,,,,,,,,,,,,,,,,,,,,,,,,,,,,,,,,,,,,,,,,,,,,,,,,,,,,,,
,,613f88c021bff7b9502b98db,2024-01-05_23h41.32.551,kallum_motion_pilot,2023.2.3,Win32,59.88023952,613f88c021bff7b9502b98db,6598e6a5d84f07970b831e70,6598e78339833e045566f283,0.0302,0.0302,0,6,6,125,1,seveneight,,,,,,,,,,,,,,,,,,,,,,,,,,,,,,,,,,,,,,,,,,,,,,,,,,,,,,,,,,,,,,,,,,,,,,,,,,,,,,,,,,,,,,,,,,,,,,,,,,,,,,,,,,,,,,,,,,,,,,,,,,,,,,,,,,,,,,,
,,613f88c021bff7b9502b98db,2024-01-05_23h41.32.551,kallum_motion_pilot,2023.2.3,Win32,59.88023952,613f88c021bff7b9502b98db,6598e6a5d84f07970b831e70,6598e78339833e045566f283,0.0303,0.0303,0,7,7,28,1,threeone,,,,,,,,,,,,,,,,,,,,,,,,,,,,,,,,,,,,,,,,,,,,,,,,,,,,,,,,,,,,,,,,,,,,,,,,,,,,,,,,,,,,,,,,,,,,,,,,,,,,,,,,,,,,,,,,,,,,,,,,,,,,,,,,,,,,,,,
,,613f88c021bff7b9502b98db,2024-01-05_23h41.32.551,kallum_motion_pilot,2023.2.3,Win32,59.88023952,613f88c021bff7b9502b98db,6598e6a5d84f07970b831e70,6598e78339833e045566f283,0.0304,0.0304,0,8,8,25,1,onethree,,,,,,,,,,,,,,,,,,,,,,,,,,,,,,,,,,,,,,,,,,,,,,,,,,,,,,,,,,,,,,,,,,,,,,,,,,,,,,,,,,,,,,,,,,,,,,,,,,,,,,,,,,,,,,,,,,,,,,,,,,,,,,,,,,,,,,,
,,613f88c021bff7b9502b98db,2024-01-05_23h41.32.551,kallum_motion_pilot,2023.2.3,Win32,59.88023952,613f88c021bff7b9502b98db,6598e6a5d84f07970b831e70,6598e78339833e045566f283,0.0306,0.0307,0,9,9,32,1,onetwo,,,,,,,,,,,,,,,,,,,,,,,,,,,,,,,,,,,,,,,,,,,,,,,,,,,,,,,,,,,,,,,,,,,,,,,,,,,,,,,,,,,,,,,,,,,,,,,,,,,,,,,,,,,,,,,,,,,,,,,,,,,,,,,,,,,,,,,
,,613f88c021bff7b9502b98db,2024-01-05_23h41.32.551,kallum_motion_pilot,2023.2.3,Win32,59.88023952,613f88c021bff7b9502b98db,6598e6a5d84f07970b831e70,6598e78339833e045566f283,0.0307,0.0307,0,10,10,116,1,sevenfive,,,,,,,,,,,,,,,,,,,,,,,,,,,,,,,,,,,,,,,,,,,,,,,,,,,,,,,,,,,,,,,,,,,,,,,,,,,,,,,,,,,,,,,,,,,,,,,,,,,,,,,,,,,,,,,,,,,,,,,,,,,,,,,,,,,,,,,
,,613f88c021bff7b9502b98db,2024-01-05_23h41.32.551,kallum_motion_pilot,2023.2.3,Win32,59.88023952,613f88c021bff7b9502b98db,6598e6a5d84f07970b831e70,6598e78339833e045566f283,0.0308,0.0308,0,11,11,120,1,fivesix,,,,,,,,,,,,,,,,,,,,,,,,,,,,,,,,,,,,,,,,,,,,,,,,,,,,,,,,,,,,,,,,,,,,,,,,,,,,,,,,,,,,,,,,,,,,,,,,,,,,,,,,,,,,,,,,,,,,,,,,,,,,,,,,,,,,,,,
,,613f88c021bff7b9502b98db,2024-01-05_23h41.32.551,kallum_motion_pilot,2023.2.3,Win32,59.88023952,613f88c021bff7b9502b98db,6598e6a5d84f07970b831e70,6598e78339833e045566f283,0.0309,0.0309,0,12,12,82,1,sixfive,,,,,,,,,,,,,,,,,,,,,,,,,,,,,,,,,,,,,,,,,,,,,,,,,,,,,,,,,,,,,,,,,,,,,,,,,,,,,,,,,,,,,,,,,,,,,,,,,,,,,,,,,,,,,,,,,,,,,,,,,,,,,,,,,,,,,,,
,,613f88c021bff7b9502b98db,2024-01-05_23h41.32.551,kallum_motion_pilot,2023.2.3,Win32,59.88023952,613f88c021bff7b9502b98db,6598e6a5d84f07970b831e70,6598e78339833e045566f283,0.031,0.031,0,13,13,68,1,threeone,,,,,,,,,,,,,,,,,,,,,,,,,,,,,,,,,,,,,,,,,,,,,,,,,,,,,,,,,,,,,,,,,,,,,,,,,,,,,,,,,,,,,,,,,,,,,,,,,,,,,,,,,,,,,,,,,,,,,,,,,,,,,,,,,,,,,,,
,,613f88c021bff7b9502b98db,2024-01-05_23h41.32.551,kallum_motion_pilot,2023.2.3,Win32,59.88023952,613f88c021bff7b9502b98db,6598e6a5d84f07970b831e70,6598e78339833e045566f283,0.0311,0.0319,0,14,14,93,1,seveneight,,,,,,,,,,,,,,,,,,,,,,,,,,,,,,,,,,,,,,,,,,,,,,,,,,,,,,,,,,,,,,,,,,,,,,,,,,,,,,,,,,,,,,,,,,,,,,,,,,,,,,,,,,,,,,,,,,,,,,,,,,,,,,,,,,,,,,,
,,613f88c021bff7b9502b98db,2024-01-05_23h41.32.551,kallum_motion_pilot,2023.2.3,Win32,59.88023952,613f88c021bff7b9502b98db,6598e6a5d84f07970b831e70,6598e78339833e045566f283,0.0319,0.0319,0,15,15,127,1,eightseven,,,,,,,,,,,,,,,,,,,,,,,,,,,,,,,,,,,,,,,,,,,,,,,,,,,,,,,,,,,,,,,,,,,,,,,,,,,,,,,,,,,,,,,,,,,,,,,,,,,,,,,,,,,,,,,,,,,,,,,,,,,,,,,,,,,,,,,
,,613f88c021bff7b9502b98db,2024-01-05_23h41.32.551,kallum_motion_pilot,2023.2.3,Win32,59.88023952,613f88c021bff7b9502b98db,6598e6a5d84f07970b831e70,6598e78339833e045566f283,0.032,0.032,0,16,16,154,1,sixfive,,,,,,,,,,,,,,,,,,,,,,,,,,,,,,,,,,,,,,,,,,,,,,,,,,,,,,,,,,,,,,,,,,,,,,,,,,,,,,,,,,,,,,,,,,,,,,,,,,,,,,,,,,,,,,,,,,,,,,,,,,,,,,,,,,,,,,,
,,613f88c021bff7b9502b98db,2024-01-05_23h41.32.551,kallum_motion_pilot,2023.2.3,Win32,59.88023952,613f88c021bff7b9502b98db,6598e6a5d84f07970b831e70,6598e78339833e045566f283,0.0321,0.0321,0,17,17,12,1,threeone,,,,,,,,,,,,,,,,,,,,,,,,,,,,,,,,,,,,,,,,,,,,,,,,,,,,,,,,,,,,,,,,,,,,,,,,,,,,,,,,,,,,,,,,,,,,,,,,,,,,,,,,,,,,,,,,,,,,,,,,,,,,,,,,,,,,,,,
,,613f88c021bff7b9502b98db,2024-01-05_23h41.32.551,kallum_motion_pilot,2023.2.3,Win32,59.88023952,613f88c021bff7b9502b98db,6598e6a5d84f07970b831e70,6598e78339833e045566f283,0.0322,0.0322,0,18,18,61,1,threefour,,,,,,,,,,,,,,,,,,,,,,,,,,,,,,,,,,,,,,,,,,,,,,,,,,,,,,,,,,,,,,,,,,,,,,,,,,,,,,,,,,,,,,,,,,,,,,,,,,,,,,,,,,,,,,,,,,,,,,,,,,,,,,,,,,,,,,,
,,613f88c021bff7b9502b98db,2024-01-05_23h41.32.551,kallum_motion_pilot,2023.2.3,Win32,59.88023952,613f88c021bff7b9502b98db,6598e6a5d84f07970b831e70,6598e78339833e045566f283,0.0322,0.0322,0,19,19,58,1,twoone,,,,,,,,,,,,,,,,,,,,,,,,,,,,,,,,,,,,,,,,,,,,,,,,,,,,,,,,,,,,,,,,,,,,,,,,,,,,,,,,,,,,,,,,,,,,,,,,,,,,,,,,,,,,,,,,,,,,,,,,,,,,,,,,,,,,,,,
,,613f88c021bff7b9502b98db,2024-01-05_23h41.32.551,kallum_motion_pilot,2023.2.3,Win32,59.88023952,613f88c021bff7b9502b98db,6598e6a5d84f07970b831e70,6598e78339833e045566f283,0.0323,0.0324,0,20,20,31,1,fourthree,,,,,,,,,,,,,,,,,,,,,,,,,,,,,,,,,,,,,,,,,,,,,,,,,,,,,,,,,,,,,,,,,,,,,,,,,,,,,,,,,,,,,,,,,,,,,,,,,,,,,,,,,,,,,,,,,,,,,,,,,,,,,,,,,,,,,,,
,,613f88c021bff7b9502b98db,2024-01-05_23h41.32.551,kallum_motion_pilot,2023.2.3,Win32,59.88023952,613f88c021bff7b9502b98db,6598e6a5d84f07970b831e70,6598e78339833e045566f283,0.0324,0.0324,0,21,21,72,1,onetwo,,,,,,,,,,,,,,,,,,,,,,,,,,,,,,,,,,,,,,,,,,,,,,,,,,,,,,,,,,,,,,,,,,,,,,,,,,,,,,,,,,,,,,,,,,,,,,,,,,,,,,,,,,,,,,,,,,,,,,,,,,,,,,,,,,,,,,,
,,613f88c021bff7b9502b98db,2024-01-05_23h41.32.551,kallum_motion_pilot,2023.2.3,Win32,59.88023952,613f88c021bff7b9502b98db,6598e6a5d84f07970b831e70,6598e78339833e045566f283,0.0325,0.0325,0,22,22,83,1,sixeight,,,,,,,,,,,,,,,,,,,,,,,,,,,,,,,,,,,,,,,,,,,,,,,,,,,,,,,,,,,,,,,,,,,,,,,,,,,,,,,,,,,,,,,,,,,,,,,,,,,,,,,,,,,,,,,,,,,,,,,,,,,,,,,,,,,,,,,
,,613f88c021bff7b9502b98db,2024-01-05_23h41.32.551,kallum_motion_pilot,2023.2.3,Win32,59.88023952,613f88c021bff7b9502b98db,6598e6a5d84f07970b831e70,6598e78339833e045566f283,0.0326,0.0326,0,23,23,37,1,threefour,,,,,,,,,,,,,,,,,,,,,,,,,,,,,,,,,,,,,,,,,,,,,,,,,,,,,,,,,,,,,,,,,,,,,,,,,,,,,,,,,,,,,,,,,,,,,,,,,,,,,,,,,,,,,,,,,,,,,,,,,,,,,,,,,,,,,,,
,,613f88c021bff7b9502b98db,2024-01-05_23h41.32.551,kallum_motion_pilot,2023.2.3,Win32,59.88023952,613f88c021bff7b9502b98db,6598e6a5d84f07970b831e70,6598e78339833e045566f283,0.0327,0.0327,0,24,24,140,1,sevenfive,,,,,,,,,,,,,,,,,,,,,,,,,,,,,,,,,,,,,,,,,,,,,,,,,,,,,,,,,,,,,,,,,,,,,,,,,,,,,,,,,,,,,,,,,,,,,,,,,,,,,,,,,,,,,,,,,,,,,,,,,,,,,,,,,,,,,,,
,,613f88c021bff7b9502b98db,2024-01-05_23h41.32.551,kallum_motion_pilot,2023.2.3,Win32,59.88023952,613f88c021bff7b9502b98db,6598e6a5d84f07970b831e70,6598e78339833e045566f283,0.0329,0.0329,0,25,25,4,1,threeone,,,,,,,,,,,,,,,,,,,,,,,,,,,,,,,,,,,,,,,,,,,,,,,,,,,,,,,,,,,,,,,,,,,,,,,,,,,,,,,,,,,,,,,,,,,,,,,,,,,,,,,,,,,,,,,,,,,,,,,,,,,,,,,,,,,,,,,
,,613f88c021bff7b9502b98db,2024-01-05_23h41.32.551,kallum_motion_pilot,2023.2.3,Win32,59.88023952,613f88c021bff7b9502b98db,6598e6a5d84f07970b831e70,6598e78339833e045566f283,0.033,0.033,0,26,26,39,1,fourthree,,,,,,,,,,,,,,,,,,,,,,,,,,,,,,,,,,,,,,,,,,,,,,,,,,,,,,,,,,,,,,,,,,,,,,,,,,,,,,,,,,,,,,,,,,,,,,,,,,,,,,,,,,,,,,,,,,,,,,,,,,,,,,,,,,,,,,,
,,613f88c021bff7b9502b98db,2024-01-05_23h41.32.551,kallum_motion_pilot,2023.2.3,Win32,59.88023952,613f88c021bff7b9502b98db,6598e6a5d84f07970b831e70,6598e78339833e045566f283,0.0331,0.0331,0,27,27,41,1,onethree,,,,,,,,,,,,,,,,,,,,,,,,,,,,,,,,,,,,,,,,,,,,,,,,,,,,,,,,,,,,,,,,,,,,,,,,,,,,,,,,,,,,,,,,,,,,,,,,,,,,,,,,,,,,,,,,,,,,,,,,,,,,,,,,,,,,,,,
,,613f88c021bff7b9502b98db,2024-01-05_23h41.32.551,kallum_motion_pilot,2023.2.3,Win32,59.88023952,613f88c021bff7b9502b98db,6598e6a5d84f07970b831e70,6598e78339833e045566f283,0.0331,0.0331,0,28,28,124,1,sevenfive,,,,,,,,,,,,,,,,,,,,,,,,,,,,,,,,,,,,,,,,,,,,,,,,,,,,,,,,,,,,,,,,,,,,,,,,,,,,,,,,,,,,,,,,,,,,,,,,,,,,,,,,,,,,,,,,,,,,,,,,,,,,,,,,,,,,,,,
,,613f88c021bff7b9502b98db,2024-01-05_23h41.32.551,kallum_motion_pilot,2023.2.3,Win32,59.88023952,613f88c021bff7b9502b98db,6598e6a5d84f07970b831e70,6598e78339833e045566f283,0.0332,0.0333,0,29,29,130,1,sixfive,,,,,,,,,,,,,,,,,,,,,,,,,,,,,,,,,,,,,,,,,,,,,,,,,,,,,,,,,,,,,,,,,,,,,,,,,,,,,,,,,,,,,,,,,,,,,,,,,,,,,,,,,,,,,,,,,,,,,,,,,,,,,,,,,,,,,,,
,,613f88c021bff7b9502b98db,2024-01-05_23h41.32.551,kallum_motion_pilot,2023.2.3,Win32,59.88023952,613f88c021bff7b9502b98db,6598e6a5d84f07970b831e70,6598e78339833e045566f283,0.0333,0.0334,0,30,30,87,1,eightseven,,,,,,,,,,,,,,,,,,,,,,,,,,,,,,,,,,,,,,,,,,,,,,,,,,,,,,,,,,,,,,,,,,,,,,,,,,,,,,,,,,,,,,,,,,,,,,,,,,,,,,,,,,,,,,,,,,,,,,,,,,,,,,,,,,,,,,,
,,613f88c021bff7b9502b98db,2024-01-05_23h41.32.551,kallum_motion_pilot,2023.2.3,Win32,59.88023952,613f88c021bff7b9502b98db,6598e6a5d84f07970b831e70,6598e78339833e045566f283,0.0334,0.0334,0,31,31,74,1,twoone,,,,,,,,,,,,,,,,,,,,,,,,,,,,,,,,,,,,,,,,,,,,,,,,,,,,,,,,,,,,,,,,,,,,,,,,,,,,,,,,,,,,,,,,,,,,,,,,,,,,,,,,,,,,,,,,,,,,,,,,,,,,,,,,,,,,,,,
,,613f88c021bff7b9502b98db,2024-01-05_23h41.32.551,kallum_motion_pilot,2023.2.3,Win32,59.88023952,613f88c021bff7b9502b98db,6598e6a5d84f07970b831e70,6598e78339833e045566f283,0.0335,0.0335,0,32,32,53,1,threefour,,,,,,,,,,,,,,,,,,,,,,,,,,,,,,,,,,,,,,,,,,,,,,,,,,,,,,,,,,,,,,,,,,,,,,,,,,,,,,,,,,,,,,,,,,,,,,,,,,,,,,,,,,,,,,,,,,,,,,,,,,,,,,,,,,,,,,,
,,613f88c021bff7b9502b98db,2024-01-05_23h41.32.551,kallum_motion_pilot,2023.2.3,Win32,59.88023952,613f88c021bff7b9502b98db,6598e6a5d84f07970b831e70,6598e78339833e045566f283,0.0336,0.0336,0,33,33,78,1,fourtwo,,,,,,,,,,,,,,,,,,,,,,,,,,,,,,,,,,,,,,,,,,,,,,,,,,,,,,,,,,,,,,,,,,,,,,,,,,,,,,,,,,,,,,,,,,,,,,,,,,,,,,,,,,,,,,,,,,,,,,,,,,,,,,,,,,,,,,,
,,613f88c021bff7b9502b98db,2024-01-05_23h41.32.551,kallum_motion_pilot,2023.2.3,Win32,59.88023952,613f88c021bff7b9502b98db,6598e6a5d84f07970b831e70,6598e78339833e045566f283,0.0337,0.0337,0,34,34,59,1,twofour,,,,,,,,,,,,,,,,,,,,,,,,,,,,,,,,,,,,,,,,,,,,,,,,,,,,,,,,,,,,,,,,,,,,,,,,,,,,,,,,,,,,,,,,,,,,,,,,,,,,,,,,,,,,,,,,,,,,,,,,,,,,,,,,,,,,,,,
,,613f88c021bff7b9502b98db,2024-01-05_23h41.32.551,kallum_motion_pilot,2023.2.3,Win32,59.88023952,613f88c021bff7b9502b98db,6598e6a5d84f07970b831e70,6598e78339833e045566f283,0.0338,0.0338,0,35,35,155,1,sixeight,,,,,,,,,,,,,,,,,,,,,,,,,,,,,,,,,,,,,,,,,,,,,,,,,,,,,,,,,,,,,,,,,,,,,,,,,,,,,,,,,,,,,,,,,,,,,,,,,,,,,,,,,,,,,,,,,,,,,,,,,,,,,,,,,,,,,,,
,,613f88c021bff7b9502b98db,2024-01-05_23h41.32.551,kallum_motion_pilot,2023.2.3,Win32,59.88023952,613f88c021bff7b9502b98db,6598e6a5d84f07970b831e70,6598e78339833e045566f283,0.034,0.034,0,36,36,1,1,onethree,,,,,,,,,,,,,,,,,,,,,,,,,,,,,,,,,,,,,,,,,,,,,,,,,,,,,,,,,,,,,,,,,,,,,,,,,,,,,,,,,,,,,,,,,,,,,,,,,,,,,,,,,,,,,,,,,,,,,,,,,,,,,,,,,,,,,,,
,,613f88c021bff7b9502b98db,2024-01-05_23h41.32.551,kallum_motion_pilot,2023.2.3,Win32,59.88023952,613f88c021bff7b9502b98db,6598e6a5d84f07970b831e70,6598e78339833e045566f283,0.034,0.034,0,37,37,11,1,twofour,,,,,,,,,,,,,,,,,,,,,,,,,,,,,,,,,,,,,,,,,,,,,,,,,,,,,,,,,,,,,,,,,,,,,,,,,,,,,,,,,,,,,,,,,,,,,,,,,,,,,,,,,,,,,,,,,,,,,,,,,,,,,,,,,,,,,,,
,,613f88c021bff7b9502b98db,2024-01-05_23h41.32.551,kallum_motion_pilot,2023.2.3,Win32,59.88023952,613f88c021bff7b9502b98db,6598e6a5d84f07970b831e70,6598e78339833e045566f283,0.0341,0.0341,0,38,38,128,1,fivesix,,,,,,,,,,,,,,,,,,,,,,,,,,,,,,,,,,,,,,,,,,,,,,,,,,,,,,,,,,,,,,,,,,,,,,,,,,,,,,,,,,,,,,,,,,,,,,,,,,,,,,,,,,,,,,,,,,,,,,,,,,,,,,,,,,,,,,,
,,613f88c021bff7b9502b98db,2024-01-05_23h41.32.551,kallum_motion_pilot,2023.2.3,Win32,59.88023952,613f88c021bff7b9502b98db,6598e6a5d84f07970b831e70,6598e78339833e045566f283,0.0342,0.0342,0,39,39,69,1,threefour,,,,,,,,,,,,,,,,,,,,,,,,,,,,,,,,,,,,,,,,,,,,,,,,,,,,,,,,,,,,,,,,,,,,,,,,,,,,,,,,,,,,,,,,,,,,,,,,,,,,,,,,,,,,,,,,,,,,,,,,,,,,,,,,,,,,,,,
,,613f88c021bff7b9502b98db,2024-01-05_23h41.32.551,kallum_motion_pilot,2023.2.3,Win32,59.88023952,613f88c021bff7b9502b98db,6598e6a5d84f07970b831e70,6598e78339833e045566f283,0.0343,0.0343,0,40,40,65,1,onethree,,,,,,,,,,,,,,,,,,,,,,,,,,,,,,,,,,,,,,,,,,,,,,,,,,,,,,,,,,,,,,,,,,,,,,,,,,,,,,,,,,,,,,,,,,,,,,,,,,,,,,,,,,,,,,,,,,,,,,,,,,,,,,,,,,,,,,,
,,613f88c021bff7b9502b98db,2024-01-05_23h41.32.551,kallum_motion_pilot,2023.2.3,Win32,59.88023952,613f88c021bff7b9502b98db,6598e6a5d84f07970b831e70,6598e78339833e045566f283,0.0345,0.0345,0,41,41,3,1,twofour,,,,,,,,,,,,,,,,,,,,,,,,,,,,,,,,,,,,,,,,,,,,,,,,,,,,,,,,,,,,,,,,,,,,,,,,,,,,,,,,,,,,,,,,,,,,,,,,,,,,,,,,,,,,,,,,,,,,,,,,,,,,,,,,,,,,,,,
,,613f88c021bff7b9502b98db,2024-01-05_23h41.32.551,kallum_motion_pilot,2023.2.3,Win32,59.88023952,613f88c021bff7b9502b98db,6598e6a5d84f07970b831e70,6598e78339833e045566f283,0.0345,0.0346,0,42,42,137,1,fiveseven,,,,,,,,,,,,,,,,,,,,,,,,,,,,,,,,,,,,,,,,,,,,,,,,,,,,,,,,,,,,,,,,,,,,,,,,,,,,,,,,,,,,,,,,,,,,,,,,,,,,,,,,,,,,,,,,,,,,,,,,,,,,,,,,,,,,,,,
,,613f88c021bff7b9502b98db,2024-01-05_23h41.32.551,kallum_motion_pilot,2023.2.3,Win32,59.88023952,613f88c021bff7b9502b98db,6598e6a5d84f07970b831e70,6598e78339833e045566f283,0.0346,0.0347,0,43,43,139,1,sixeight,,,,,,,,,,,,,,,,,,,,,,,,,,,,,,,,,,,,,,,,,,,,,,,,,,,,,,,,,,,,,,,,,,,,,,,,,,,,,,,,,,,,,,,,,,,,,,,,,,,,,,,,,,,,,,,,,,,,,,,,,,,,,,,,,,,,,,,
,,613f88c021bff7b9502b98db,2024-01-05_23h41.32.551,kallum_motion_pilot,2023.2.3,Win32,59.88023952,613f88c021bff7b9502b98db,6598e6a5d84f07970b831e70,6598e78339833e045566f283,0.0348,0.0348,0,44,44,50,1,twoone,,,,,,,,,,,,,,,,,,,,,,,,,,,,,,,,,,,,,,,,,,,,,,,,,,,,,,,,,,,,,,,,,,,,,,,,,,,,,,,,,,,,,,,,,,,,,,,,,,,,,,,,,,,,,,,,,,,,,,,,,,,,,,,,,,,,,,,
,,613f88c021bff7b9502b98db,2024-01-05_23h41.32.551,kallum_motion_pilot,2023.2.3,Win32,59.88023952,613f88c021bff7b9502b98db,6598e6a5d84f07970b831e70,6598e78339833e045566f283,0.0348,0.0349,0,45,45,85,1,seveneight,,,,,,,,,,,,,,,,,,,,,,,,,,,,,,,,,,,,,,,,,,,,,,,,,,,,,,,,,,,,,,,,,,,,,,,,,,,,,,,,,,,,,,,,,,,,,,,,,,,,,,,,,,,,,,,,,,,,,,,,,,,,,,,,,,,,,,,
,,613f88c021bff7b9502b98db,2024-01-05_23h41.32.551,kallum_motion_pilot,2023.2.3,Win32,59.88023952,613f88c021bff7b9502b98db,6598e6a5d84f07970b831e70,6598e78339833e045566f283,0.0349,0.0349,0,46,46,135,1,eightseven,,,,,,,,,,,,,,,,,,,,,,,,,,,,,,,,,,,,,,,,,,,,,,,,,,,,,,,,,,,,,,,,,,,,,,,,,,,,,,,,,,,,,,,,,,,,,,,,,,,,,,,,,,,,,,,,,,,,,,,,,,,,,,,,,,,,,,,
,,613f88c021bff7b9502b98db,2024-01-05_23h41.32.551,kallum_motion_pilot,2023.2.3,Win32,59.88023952,613f88c021bff7b9502b98db,6598e6a5d84f07970b831e70,6598e78339833e045566f283,0.0351,0.0351,0,47,47,160,1,fivesix,,,,,,,,,,,,,,,,,,,,,,,,,,,,,,,,,,,,,,,,,,,,,,,,,,,,,,,,,,,,,,,,,,,,,,,,,,,,,,,,,,,,,,,,,,,,,,,,,,,,,,,,,,,,,,,,,,,,,,,,,,,,,,,,,,,,,,,
,,613f88c021bff7b9502b98db,2024-01-05_23h41.32.551,kallum_motion_pilot,2023.2.3,Win32,59.88023952,613f88c021bff7b9502b98db,6598e6a5d84f07970b831e70,6598e78339833e045566f283,0.0351,0.0351,0,48,48,64,1,onetwo,,,,,,,,,,,,,,,,,,,,,,,,,,,,,,,,,,,,,,,,,,,,,,,,,,,,,,,,,,,,,,,,,,,,,,,,,,,,,,,,,,,,,,,,,,,,,,,,,,,,,,,,,,,,,,,,,,,,,,,,,,,,,,,,,,,,,,,
,,613f88c021bff7b9502b98db,2024-01-05_23h41.32.551,kallum_motion_pilot,2023.2.3,Win32,59.88023952,613f88c021bff7b9502b98db,6598e6a5d84f07970b831e70,6598e78339833e045566f283,0.0352,0.0353,0,49,49,95,1,eightseven,,,,,,,,,,,,,,,,,,,,,,,,,,,,,,,,,,,,,,,,,,,,,,,,,,,,,,,,,,,,,,,,,,,,,,,,,,,,,,,,,,,,,,,,,,,,,,,,,,,,,,,,,,,,,,,,,,,,,,,,,,,,,,,,,,,,,,,
,,613f88c021bff7b9502b98db,2024-01-05_23h41.32.551,kallum_motion_pilot,2023.2.3,Win32,59.88023952,613f88c021bff7b9502b98db,6598e6a5d84f07970b831e70,6598e78339833e045566f283,0.0354,0.0354,0,50,50,43,1,twofour,,,,,,,,,,,,,,,,,,,,,,,,,,,,,,,,,,,,,,,,,,,,,,,,,,,,,,,,,,,,,,,,,,,,,,,,,,,,,,,,,,,,,,,,,,,,,,,,,,,,,,,,,,,,,,,,,,,,,,,,,,,,,,,,,,,,,,,
,,613f88c021bff7b9502b98db,2024-01-05_23h41.32.551,kallum_motion_pilot,2023.2.3,Win32,59.88023952,613f88c021bff7b9502b98db,6598e6a5d84f07970b831e70,6598e78339833e045566f283,0.0354,0.0355,0,51,51,88,1,fivesix,,,,,,,,,,,,,,,,,,,,,,,,,,,,,,,,,,,,,,,,,,,,,,,,,,,,,,,,,,,,,,,,,,,,,,,,,,,,,,,,,,,,,,,,,,,,,,,,,,,,,,,,,,,,,,,,,,,,,,,,,,,,,,,,,,,,,,,
,,613f88c021bff7b9502b98db,2024-01-05_23h41.32.551,kallum_motion_pilot,2023.2.3,Win32,59.88023952,613f88c021bff7b9502b98db,6598e6a5d84f07970b831e70,6598e78339833e045566f283,0.0355,0.0356,0,52,52,132,1,sevenfive,,,,,,,,,,,,,,,,,,,,,,,,,,,,,,,,,,,,,,,,,,,,,,,,,,,,,,,,,,,,,,,,,,,,,,,,,,,,,,,,,,,,,,,,,,,,,,,,,,,,,,,,,,,,,,,,,,,,,,,,,,,,,,,,,,,,,,,
,,613f88c021bff7b9502b98db,2024-01-05_23h41.32.551,kallum_motion_pilot,2023.2.3,Win32,59.88023952,613f88c021bff7b9502b98db,6598e6a5d84f07970b831e70,6598e78339833e045566f283,0.0357,0.0357,0,53,53,97,1,fiveseven,,,,,,,,,,,,,,,,,,,,,,,,,,,,,,,,,,,,,,,,,,,,,,,,,,,,,,,,,,,,,,,,,,,,,,,,,,,,,,,,,,,,,,,,,,,,,,,,,,,,,,,,,,,,,,,,,,,,,,,,,,,,,,,,,,,,,,,
,,613f88c021bff7b9502b98db,2024-01-05_23h41.32.551,kallum_motion_pilot,2023.2.3,Win32,59.88023952,613f88c021bff7b9502b98db,6598e6a5d84f07970b831e70,6598e78339833e045566f283,0.0358,0.0358,0,54,54,30,1,fourtwo,,,,,,,,,,,,,,,,,,,,,,,,,,,,,,,,,,,,,,,,,,,,,,,,,,,,,,,,,,,,,,,,,,,,,,,,,,,,,,,,,,,,,,,,,,,,,,,,,,,,,,,,,,,,,,,,,,,,,,,,,,,,,,,,,,,,,,,
,,613f88c021bff7b9502b98db,2024-01-05_23h41.32.551,kallum_motion_pilot,2023.2.3,Win32,59.88023952,613f88c021bff7b9502b98db,6598e6a5d84f07970b831e70,6598e78339833e045566f283,0.0359,0.0359,0,55,55,77,1,threefour,,,,,,,,,,,,,,,,,,,,,,,,,,,,,,,,,,,,,,,,,,,,,,,,,,,,,,,,,,,,,,,,,,,,,,,,,,,,,,,,,,,,,,,,,,,,,,,,,,,,,,,,,,,,,,,,,,,,,,,,,,,,,,,,,,,,,,,
,,613f88c021bff7b9502b98db,2024-01-05_23h41.32.551,kallum_motion_pilot,2023.2.3,Win32,59.88023952,613f88c021bff7b9502b98db,6598e6a5d84f07970b831e70,6598e78339833e045566f283,0.036,0.036,0,56,56,20,1,threeone,,,,,,,,,,,,,,,,,,,,,,,,,,,,,,,,,,,,,,,,,,,,,,,,,,,,,,,,,,,,,,,,,,,,,,,,,,,,,,,,,,,,,,,,,,,,,,,,,,,,,,,,,,,,,,,,,,,,,,,,,,,,,,,,,,,,,,,
,,613f88c021bff7b9502b98db,2024-01-05_23h41.32.551,kallum_motion_pilot,2023.2.3,Win32,59.88023952,613f88c021bff7b9502b98db,6598e6a5d84f07970b831e70,6598e78339833e045566f283,0.036,0.036,0,57,57,36,1,threeone,,,,,,,,,,,,,,,,,,,,,,,,,,,,,,,,,,,,,,,,,,,,,,,,,,,,,,,,,,,,,,,,,,,,,,,,,,,,,,,,,,,,,,,,,,,,,,,,,,,,,,,,,,,,,,,,,,,,,,,,,,,,,,,,,,,,,,,
,,613f88c021bff7b9502b98db,2024-01-05_23h41.32.551,kallum_motion_pilot,2023.2.3,Win32,59.88023952,613f88c021bff7b9502b98db,6598e6a5d84f07970b831e70,6598e78339833e045566f283,0.0361,0.0362,0,58,58,40,1,onetwo,,,,,,,,,,,,,,,,,,,,,,,,,,,,,,,,,,,,,,,,,,,,,,,,,,,,,,,,,,,,,,,,,,,,,,,,,,,,,,,,,,,,,,,,,,,,,,,,,,,,,,,,,,,,,,,,,,,,,,,,,,,,,,,,,,,,,,,
,,613f88c021bff7b9502b98db,2024-01-05_23h41.32.551,kallum_motion_pilot,2023.2.3,Win32,59.88023952,613f88c021bff7b9502b98db,6598e6a5d84f07970b831e70,6598e78339833e045566f283,0.0362,0.0362,0,59,59,99,1,sixeight,,,,,,,,,,,,,,,,,,,,,,,,,,,,,,,,,,,,,,,,,,,,,,,,,,,,,,,,,,,,,,,,,,,,,,,,,,,,,,,,,,,,,,,,,,,,,,,,,,,,,,,,,,,,,,,,,,,,,,,,,,,,,,,,,,,,,,,
,,613f88c021bff7b9502b98db,2024-01-05_23h41.32.551,kallum_motion_pilot,2023.2.3,Win32,59.88023952,613f88c021bff7b9502b98db,6598e6a5d84f07970b831e70,6598e78339833e045566f283,0.0363,0.0364,0,60,60,33,1,onethree,,,,,,,,,,,,,,,,,,,,,,,,,,,,,,,,,,,,,,,,,,,,,,,,,,,,,,,,,,,,,,,,,,,,,,,,,,,,,,,,,,,,,,,,,,,,,,,,,,,,,,,,,,,,,,,,,,,,,,,,,,,,,,,,,,,,,,,
,,613f88c021bff7b9502b98db,2024-01-05_23h41.32.551,kallum_motion_pilot,2023.2.3,Win32,59.88023952,613f88c021bff7b9502b98db,6598e6a5d84f07970b831e70,6598e78339833e045566f283,0.0365,0.0365,0,61,61,35,1,twofour,,,,,,,,,,,,,,,,,,,,,,,,,,,,,,,,,,,,,,,,,,,,,,,,,,,,,,,,,,,,,,,,,,,,,,,,,,,,,,,,,,,,,,,,,,,,,,,,,,,,,,,,,,,,,,,,,,,,,,,,,,,,,,,,,,,,,,,
,,613f88c021bff7b9502b98db,2024-01-05_23h41.32.551,kallum_motion_pilot,2023.2.3,Win32,59.88023952,613f88c021bff7b9502b98db,6598e6a5d84f07970b831e70,6598e78339833e045566f283,0.0365,0.0365,0,62,62,152,1,fivesix,,,,,,,,,,,,,,,,,,,,,,,,,,,,,,,,,,,,,,,,,,,,,,,,,,,,,,,,,,,,,,,,,,,,,,,,,,,,,,,,,,,,,,,,,,,,,,,,,,,,,,,,,,,,,,,,,,,,,,,,,,,,,,,,,,,,,,,
,,613f88c021bff7b9502b98db,2024-01-05_23h41.32.551,kallum_motion_pilot,2023.2.3,Win32,59.88023952,613f88c021bff7b9502b98db,6598e6a5d84f07970b831e70,6598e78339833e045566f283,0.0367,0.0367,0,63,63,150,1,eightsix,,,,,,,,,,,,,,,,,,,,,,,,,,,,,,,,,,,,,,,,,,,,,,,,,,,,,,,,,,,,,,,,,,,,,,,,,,,,,,,,,,,,,,,,,,,,,,,,,,,,,,,,,,,,,,,,,,,,,,,,,,,,,,,,,,,,,,,
,,613f88c021bff7b9502b98db,2024-01-05_23h41.32.551,kallum_motion_pilot,2023.2.3,Win32,59.88023952,613f88c021bff7b9502b98db,6598e6a5d84f07970b831e70,6598e78339833e045566f283,0.0368,0.0368,0,64,64,149,1,seveneight,,,,,,,,,,,,,,,,,,,,,,,,,,,,,,,,,,,,,,,,,,,,,,,,,,,,,,,,,,,,,,,,,,,,,,,,,,,,,,,,,,,,,,,,,,,,,,,,,,,,,,,,,,,,,,,,,,,,,,,,,,,,,,,,,,,,,,,
,,613f88c021bff7b9502b98db,2024-01-05_23h41.32.551,kallum_motion_pilot,2023.2.3,Win32,59.88023952,613f88c021bff7b9502b98db,6598e6a5d84f07970b831e70,6598e78339833e045566f283,0.0369,0.0369,0,65,65,19,1,twofour,,,,,,,,,,,,,,,,,,,,,,,,,,,,,,,,,,,,,,,,,,,,,,,,,,,,,,,,,,,,,,,,,,,,,,,,,,,,,,,,,,,,,,,,,,,,,,,,,,,,,,,,,,,,,,,,,,,,,,,,,,,,,,,,,,,,,,,
,,613f88c021bff7b9502b98db,2024-01-05_23h41.32.551,kallum_motion_pilot,2023.2.3,Win32,59.88023952,613f88c021bff7b9502b98db,6598e6a5d84f07970b831e70,6598e78339833e045566f283,0.037,0.0371,0,66,66,159,1,eightseven,,,,,,,,,,,,,,,,,,,,,,,,,,,,,,,,,,,,,,,,,,,,,,,,,,,,,,,,,,,,,,,,,,,,,,,,,,,,,,,,,,,,,,,,,,,,,,,,,,,,,,,,,,,,,,,,,,,,,,,,,,,,,,,,,,,,,,,
,,613f88c021bff7b9502b98db,2024-01-05_23h41.32.551,kallum_motion_pilot,2023.2.3,Win32,59.88023952,613f88c021bff7b9502b98db,6598e6a5d84f07970b831e70,6598e78339833e045566f283,0.0371,0.0372,0,67,67,15,1,fourthree,,,,,,,,,,,,,,,,,,,,,,,,,,,,,,,,,,,,,,,,,,,,,,,,,,,,,,,,,,,,,,,,,,,,,,,,,,,,,,,,,,,,,,,,,,,,,,,,,,,,,,,,,,,,,,,,,,,,,,,,,,,,,,,,,,,,,,,
,,613f88c021bff7b9502b98db,2024-01-05_23h41.32.551,kallum_motion_pilot,2023.2.3,Win32,59.88023952,613f88c021bff7b9502b98db,6598e6a5d84f07970b831e70,6598e78339833e045566f283,0.0373,0.0373,0,68,68,2,1,twoone,,,,,,,,,,,,,,,,,,,,,,,,,,,,,,,,,,,,,,,,,,,,,,,,,,,,,,,,,,,,,,,,,,,,,,,,,,,,,,,,,,,,,,,,,,,,,,,,,,,,,,,,,,,,,,,,,,,,,,,,,,,,,,,,,,,,,,,
,,613f88c021bff7b9502b98db,2024-01-05_23h41.32.551,kallum_motion_pilot,2023.2.3,Win32,59.88023952,613f88c021bff7b9502b98db,6598e6a5d84f07970b831e70,6598e78339833e045566f283,0.0375,0.0375,0,69,69,122,1,sixfive,,,,,,,,,,,,,,,,,,,,,,,,,,,,,,,,,,,,,,,,,,,,,,,,,,,,,,,,,,,,,,,,,,,,,,,,,,,,,,,,,,,,,,,,,,,,,,,,,,,,,,,,,,,,,,,,,,,,,,,,,,,,,,,,,,,,,,,
,,613f88c021bff7b9502b98db,2024-01-05_23h41.32.551,kallum_motion_pilot,2023.2.3,Win32,59.88023952,613f88c021bff7b9502b98db,6598e6a5d84f07970b831e70,6598e78339833e045566f283,0.0376,0.0377,0,70,70,86,1,eightsix,,,,,,,,,,,,,,,,,,,,,,,,,,,,,,,,,,,,,,,,,,,,,,,,,,,,,,,,,,,,,,,,,,,,,,,,,,,,,,,,,,,,,,,,,,,,,,,,,,,,,,,,,,,,,,,,,,,,,,,,,,,,,,,,,,,,,,,
,,613f88c021bff7b9502b98db,2024-01-05_23h41.32.551,kallum_motion_pilot,2023.2.3,Win32,59.88023952,613f88c021bff7b9502b98db,6598e6a5d84f07970b831e70,6598e78339833e045566f283,0.0377,0.0377,0,71,71,133,1,seveneight,,,,,,,,,,,,,,,,,,,,,,,,,,,,,,,,,,,,,,,,,,,,,,,,,,,,,,,,,,,,,,,,,,,,,,,,,,,,,,,,,,,,,,,,,,,,,,,,,,,,,,,,,,,,,,,,,,,,,,,,,,,,,,,,,,,,,,,
,,613f88c021bff7b9502b98db,2024-01-05_23h41.32.551,kallum_motion_pilot,2023.2.3,Win32,59.88023952,613f88c021bff7b9502b98db,6598e6a5d84f07970b831e70,6598e78339833e045566f283,0.0377,0.0378,0,72,72,55,1,fourthree,,,,,,,,,,,,,,,,,,,,,,,,,,,,,,,,,,,,,,,,,,,,,,,,,,,,,,,,,,,,,,,,,,,,,,,,,,,,,,,,,,,,,,,,,,,,,,,,,,,,,,,,,,,,,,,,,,,,,,,,,,,,,,,,,,,,,,,
,,613f88c021bff7b9502b98db,2024-01-05_23h41.32.551,kallum_motion_pilot,2023.2.3,Win32,59.88023952,613f88c021bff7b9502b98db,6598e6a5d84f07970b831e70,6598e78339833e045566f283,0.0379,0.0379,0,73,73,27,1,twofour,,,,,,,,,,,,,,,,,,,,,,,,,,,,,,,,,,,,,,,,,,,,,,,,,,,,,,,,,,,,,,,,,,,,,,,,,,,,,,,,,,,,,,,,,,,,,,,,,,,,,,,,,,,,,,,,,,,,,,,,,,,,,,,,,,,,,,,
,,613f88c021bff7b9502b98db,2024-01-05_23h41.32.551,kallum_motion_pilot,2023.2.3,Win32,59.88023952,613f88c021bff7b9502b98db,6598e6a5d84f07970b831e70,6598e78339833e045566f283,0.038,0.0381,0,74,74,151,1,eightseven,,,,,,,,,,,,,,,,,,,,,,,,,,,,,,,,,,,,,,,,,,,,,,,,,,,,,,,,,,,,,,,,,,,,,,,,,,,,,,,,,,,,,,,,,,,,,,,,,,,,,,,,,,,,,,,,,,,,,,,,,,,,,,,,,,,,,,,
,,613f88c021bff7b9502b98db,2024-01-05_23h41.32.551,kallum_motion_pilot,2023.2.3,Win32,59.88023952,613f88c021bff7b9502b98db,6598e6a5d84f07970b831e70,6598e78339833e045566f283,0.0381,0.0381,0,75,75,89,1,fiveseven,,,,,,,,,,,,,,,,,,,,,,,,,,,,,,,,,,,,,,,,,,,,,,,,,,,,,,,,,,,,,,,,,,,,,,,,,,,,,,,,,,,,,,,,,,,,,,,,,,,,,,,,,,,,,,,,,,,,,,,,,,,,,,,,,,,,,,,
,,613f88c021bff7b9502b98db,2024-01-05_23h41.32.551,kallum_motion_pilot,2023.2.3,Win32,59.88023952,613f88c021bff7b9502b98db,6598e6a5d84f07970b831e70,6598e78339833e045566f283,0.0382,0.0382,0,76,76,148,1,sevenfive,,,,,,,,,,,,,,,,,,,,,,,,,,,,,,,,,,,,,,,,,,,,,,,,,,,,,,,,,,,,,,,,,,,,,,,,,,,,,,,,,,,,,,,,,,,,,,,,,,,,,,,,,,,,,,,,,,,,,,,,,,,,,,,,,,,,,,,
,,613f88c021bff7b9502b98db,2024-01-05_23h41.32.551,kallum_motion_pilot,2023.2.3,Win32,59.88023952,613f88c021bff7b9502b98db,6598e6a5d84f07970b831e70,6598e78339833e045566f283,0.0383,0.0383,0,77,77,29,1,threefour,,,,,,,,,,,,,,,,,,,,,,,,,,,,,,,,,,,,,,,,,,,,,,,,,,,,,,,,,,,,,,,,,,,,,,,,,,,,,,,,,,,,,,,,,,,,,,,,,,,,,,,,,,,,,,,,,,,,,,,,,,,,,,,,,,,,,,,
,,613f88c021bff7b9502b98db,2024-01-05_23h41.32.551,kallum_motion_pilot,2023.2.3,Win32,59.88023952,613f88c021bff7b9502b98db,6598e6a5d84f07970b831e70,6598e78339833e045566f283,0.0384,0.0385,0,78,78,52,1,threeone,,,,,,,,,,,,,,,,,,,,,,,,,,,,,,,,,,,,,,,,,,,,,,,,,,,,,,,,,,,,,,,,,,,,,,,,,,,,,,,,,,,,,,,,,,,,,,,,,,,,,,,,,,,,,,,,,,,,,,,,,,,,,,,,,,,,,,,
,,613f88c021bff7b9502b98db,2024-01-05_23h41.32.551,kallum_motion_pilot,2023.2.3,Win32,59.88023952,613f88c021bff7b9502b98db,6598e6a5d84f07970b831e70,6598e78339833e045566f283,0.0385,0.0386,0,79,79,105,1,fiveseven,,,,,,,,,,,,,,,,,,,,,,,,,,,,,,,,,,,,,,,,,,,,,,,,,,,,,,,,,,,,,,,,,,,,,,,,,,,,,,,,,,,,,,,,,,,,,,,,,,,,,,,,,,,,,,,,,,,,,,,,,,,,,,,,,,,,,,,
,,613f88c021bff7b9502b98db,2024-01-05_23h41.32.551,kallum_motion_pilot,2023.2.3,Win32,59.88023952,613f88c021bff7b9502b98db,6598e6a5d84f07970b831e70,6598e78339833e045566f283,0.0387,0.0387,0,80,80,131,1,sixeight,,,,,,,,,,,,,,,,,,,,,,,,,,,,,,,,,,,,,,,,,,,,,,,,,,,,,,,,,,,,,,,,,,,,,,,,,,,,,,,,,,,,,,,,,,,,,,,,,,,,,,,,,,,,,,,,,,,,,,,,,,,,,,,,,,,,,,,
,,613f88c021bff7b9502b98db,2024-01-05_23h41.32.551,kallum_motion_pilot,2023.2.3,Win32,59.88023952,613f88c021bff7b9502b98db,6598e6a5d84f07970b831e70,6598e78339833e045566f283,0.0391,0.0391,0,81,81,22,1,fourtwo,,,,,,,,,,,,,,,,,,,,,,,,,,,,,,,,,,,,,,,,,,,,,,,,,,,,,,,,,,,,,,,,,,,,,,,,,,,,,,,,,,,,,,,,,,,,,,,,,,,,,,,,,,,,,,,,,,,,,,,,,,,,,,,,,,,,,,,
,,613f88c021bff7b9502b98db,2024-01-05_23h41.32.551,kallum_motion_pilot,2023.2.3,Win32,59.88023952,613f88c021bff7b9502b98db,6598e6a5d84f07970b831e70,6598e78339833e045566f283,0.0393,0.0393,0,82,82,6,1,fourtwo,,,,,,,,,,,,,,,,,,,,,,,,,,,,,,,,,,,,,,,,,,,,,,,,,,,,,,,,,,,,,,,,,,,,,,,,,,,,,,,,,,,,,,,,,,,,,,,,,,,,,,,,,,,,,,,,,,,,,,,,,,,,,,,,,,,,,,,
,,613f88c021bff7b9502b98db,2024-01-05_23h41.32.551,kallum_motion_pilot,2023.2.3,Win32,59.88023952,613f88c021bff7b9502b98db,6598e6a5d84f07970b831e70,6598e78339833e045566f283,0.0393,0.0395,0,83,83,60,1,threeone,,,,,,,,,,,,,,,,,,,,,,,,,,,,,,,,,,,,,,,,,,,,,,,,,,,,,,,,,,,,,,,,,,,,,,,,,,,,,,,,,,,,,,,,,,,,,,,,,,,,,,,,,,,,,,,,,,,,,,,,,,,,,,,,,,,,,,,
,,613f88c021bff7b9502b98db,2024-01-05_23h41.32.551,kallum_motion_pilot,2023.2.3,Win32,59.88023952,613f88c021bff7b9502b98db,6598e6a5d84f07970b831e70,6598e78339833e045566f283,0.0395,0.0395,0,84,84,102,1,eightsix,,,,,,,,,,,,,,,,,,,,,,,,,,,,,,,,,,,,,,,,,,,,,,,,,,,,,,,,,,,,,,,,,,,,,,,,,,,,,,,,,,,,,,,,,,,,,,,,,,,,,,,,,,,,,,,,,,,,,,,,,,,,,,,,,,,,,,,
,,613f88c021bff7b9502b98db,2024-01-05_23h41.32.551,kallum_motion_pilot,2023.2.3,Win32,59.88023952,613f88c021bff7b9502b98db,6598e6a5d84f07970b831e70,6598e78339833e045566f283,0.0403,0.0403,0,85,85,8,1,onetwo,,,,,,,,,,,,,,,,,,,,,,,,,,,,,,,,,,,,,,,,,,,,,,,,,,,,,,,,,,,,,,,,,,,,,,,,,,,,,,,,,,,,,,,,,,,,,,,,,,,,,,,,,,,,,,,,,,,,,,,,,,,,,,,,,,,,,,,
,,613f88c021bff7b9502b98db,2024-01-05_23h41.32.551,kallum_motion_pilot,2023.2.3,Win32,59.88023952,613f88c021bff7b9502b98db,6598e6a5d84f07970b831e70,6598e78339833e045566f283,0.0404,0.0404,0,86,86,156,1,sevenfive,,,,,,,,,,,,,,,,,,,,,,,,,,,,,,,,,,,,,,,,,,,,,,,,,,,,,,,,,,,,,,,,,,,,,,,,,,,,,,,,,,,,,,,,,,,,,,,,,,,,,,,,,,,,,,,,,,,,,,,,,,,,,,,,,,,,,,,
,,613f88c021bff7b9502b98db,2024-01-05_23h41.32.551,kallum_motion_pilot,2023.2.3,Win32,59.88023952,613f88c021bff7b9502b98db,6598e6a5d84f07970b831e70,6598e78339833e045566f283,0.0404,0.0405,0,87,87,96,1,fivesix,,,,,,,,,,,,,,,,,,,,,,,,,,,,,,,,,,,,,,,,,,,,,,,,,,,,,,,,,,,,,,,,,,,,,,,,,,,,,,,,,,,,,,,,,,,,,,,,,,,,,,,,,,,,,,,,,,,,,,,,,,,,,,,,,,,,,,,
,,613f88c021bff7b9502b98db,2024-01-05_23h41.32.551,kallum_motion_pilot,2023.2.3,Win32,59.88023952,613f88c021bff7b9502b98db,6598e6a5d84f07970b831e70,6598e78339833e045566f283,0.0406,0.0406,0,88,88,38,1,fourtwo,,,,,,,,,,,,,,,,,,,,,,,,,,,,,,,,,,,,,,,,,,,,,,,,,,,,,,,,,,,,,,,,,,,,,,,,,,,,,,,,,,,,,,,,,,,,,,,,,,,,,,,,,,,,,,,,,,,,,,,,,,,,,,,,,,,,,,,
,,613f88c021bff7b9502b98db,2024-01-05_23h41.32.551,kallum_motion_pilot,2023.2.3,Win32,59.88023952,613f88c021bff7b9502b98db,6598e6a5d84f07970b831e70,6598e78339833e045566f283,0.0407,0.0407,0,89,89,67,1,twofour,,,,,,,,,,,,,,,,,,,,,,,,,,,,,,,,,,,,,,,,,,,,,,,,,,,,,,,,,,,,,,,,,,,,,,,,,,,,,,,,,,,,,,,,,,,,,,,,,,,,,,,,,,,,,,,,,,,,,,,,,,,,,,,,,,,,,,,
,,613f88c021bff7b9502b98db,2024-01-05_23h41.32.551,kallum_motion_pilot,2023.2.3,Win32,59.88023952,613f88c021bff7b9502b98db,6598e6a5d84f07970b831e70,6598e78339833e045566f283,0.0407,0.0407,0,90,90,44,1,threeone,,,,,,,,,,,,,,,,,,,,,,,,,,,,,,,,,,,,,,,,,,,,,,,,,,,,,,,,,,,,,,,,,,,,,,,,,,,,,,,,,,,,,,,,,,,,,,,,,,,,,,,,,,,,,,,,,,,,,,,,,,,,,,,,,,,,,,,
,,613f88c021bff7b9502b98db,2024-01-05_23h41.32.551,kallum_motion_pilot,2023.2.3,Win32,59.88023952,613f88c021bff7b9502b98db,6598e6a5d84f07970b831e70,6598e78339833e045566f283,0.0407,0.0408,0,91,91,34,1,twoone,,,,,,,,,,,,,,,,,,,,,,,,,,,,,,,,,,,,,,,,,,,,,,,,,,,,,,,,,,,,,,,,,,,,,,,,,,,,,,,,,,,,,,,,,,,,,,,,,,,,,,,,,,,,,,,,,,,,,,,,,,,,,,,,,,,,,,,
,,613f88c021bff7b9502b98db,2024-01-05_23h41.32.551,kallum_motion_pilot,2023.2.3,Win32,59.88023952,613f88c021bff7b9502b98db,6598e6a5d84f07970b831e70,6598e78339833e045566f283,0.0409,0.0409,0,92,92,92,1,sevenfive,,,,,,,,,,,,,,,,,,,,,,,,,,,,,,,,,,,,,,,,,,,,,,,,,,,,,,,,,,,,,,,,,,,,,,,,,,,,,,,,,,,,,,,,,,,,,,,,,,,,,,,,,,,,,,,,,,,,,,,,,,,,,,,,,,,,,,,
,,613f88c021bff7b9502b98db,2024-01-05_23h41.32.551,kallum_motion_pilot,2023.2.3,Win32,59.88023952,613f88c021bff7b9502b98db,6598e6a5d84f07970b831e70,6598e78339833e045566f283,0.0409,0.0409,0,93,93,114,1,sixfive,,,,,,,,,,,,,,,,,,,,,,,,,,,,,,,,,,,,,,,,,,,,,,,,,,,,,,,,,,,,,,,,,,,,,,,,,,,,,,,,,,,,,,,,,,,,,,,,,,,,,,,,,,,,,,,,,,,,,,,,,,,,,,,,,,,,,,,
,,613f88c021bff7b9502b98db,2024-01-05_23h41.32.551,kallum_motion_pilot,2023.2.3,Win32,59.88023952,613f88c021bff7b9502b98db,6598e6a5d84f07970b831e70,6598e78339833e045566f283,0.0411,0.0412,0,94,94,134,1,eightsix,,,,,,,,,,,,,,,,,,,,,,,,,,,,,,,,,,,,,,,,,,,,,,,,,,,,,,,,,,,,,,,,,,,,,,,,,,,,,,,,,,,,,,,,,,,,,,,,,,,,,,,,,,,,,,,,,,,,,,,,,,,,,,,,,,,,,,,
,,613f88c021bff7b9502b98db,2024-01-05_23h41.32.551,kallum_motion_pilot,2023.2.3,Win32,59.88023952,613f88c021bff7b9502b98db,6598e6a5d84f07970b831e70,6598e78339833e045566f283,0.0412,0.0412,0,95,95,48,1,onetwo,,,,,,,,,,,,,,,,,,,,,,,,,,,,,,,,,,,,,,,,,,,,,,,,,,,,,,,,,,,,,,,,,,,,,,,,,,,,,,,,,,,,,,,,,,,,,,,,,,,,,,,,,,,,,,,,,,,,,,,,,,,,,,,,,,,,,,,
,,613f88c021bff7b9502b98db,2024-01-05_23h41.32.551,kallum_motion_pilot,2023.2.3,Win32,59.88023952,613f88c021bff7b9502b98db,6598e6a5d84f07970b831e70,6598e78339833e045566f283,0.0413,0.0414,0,96,96,144,1,fivesix,,,,,,,,,,,,,,,,,,,,,,,,,,,,,,,,,,,,,,,,,,,,,,,,,,,,,,,,,,,,,,,,,,,,,,,,,,,,,,,,,,,,,,,,,,,,,,,,,,,,,,,,,,,,,,,,,,,,,,,,,,,,,,,,,,,,,,,
,,613f88c021bff7b9502b98db,2024-01-05_23h41.32.551,kallum_motion_pilot,2023.2.3,Win32,59.88023952,613f88c021bff7b9502b98db,6598e6a5d84f07970b831e70,6598e78339833e045566f283,0.0414,0.0414,0,97,97,47,1,fourthree,,,,,,,,,,,,,,,,,,,,,,,,,,,,,,,,,,,,,,,,,,,,,,,,,,,,,,,,,,,,,,,,,,,,,,,,,,,,,,,,,,,,,,,,,,,,,,,,,,,,,,,,,,,,,,,,,,,,,,,,,,,,,,,,,,,,,,,
,,613f88c021bff7b9502b98db,2024-01-05_23h41.32.551,kallum_motion_pilot,2023.2.3,Win32,59.88023952,613f88c021bff7b9502b98db,6598e6a5d84f07970b831e70,6598e78339833e045566f283,0.0414,0.0415,0,98,98,141,1,seveneight,,,,,,,,,,,,,,,,,,,,,,,,,,,,,,,,,,,,,,,,,,,,,,,,,,,,,,,,,,,,,,,,,,,,,,,,,,,,,,,,,,,,,,,,,,,,,,,,,,,,,,,,,,,,,,,,,,,,,,,,,,,,,,,,,,,,,,,
,,613f88c021bff7b9502b98db,2024-01-05_23h41.32.551,kallum_motion_pilot,2023.2.3,Win32,59.88023952,613f88c021bff7b9502b98db,6598e6a5d84f07970b831e70,6598e78339833e045566f283,0.0415,0.0415,0,99,99,79,1,eightseven,,,,,,,,,,,,,,,,,,,,,,,,,,,,,,,,,,,,,,,,,,,,,,,,,,,,,,,,,,,,,,,,,,,,,,,,,,,,,,,,,,,,,,,,,,,,,,,,,,,,,,,,,,,,,,,,,,,,,,,,,,,,,,,,,,,,,,,
,,613f88c021bff7b9502b98db,2024-01-05_23h41.32.551,kallum_motion_pilot,2023.2.3,Win32,59.88023952,613f88c021bff7b9502b98db,6598e6a5d84f07970b831e70,6598e78339833e045566f283,0.0415,0.0416,0,100,100,84,1,sevenfive,,,,,,,,,,,,,,,,,,,,,,,,,,,,,,,,,,,,,,,,,,,,,,,,,,,,,,,,,,,,,,,,,,,,,,,,,,,,,,,,,,,,,,,,,,,,,,,,,,,,,,,,,,,,,,,,,,,,,,,,,,,,,,,,,,,,,,,
,,613f88c021bff7b9502b98db,2024-01-05_23h41.32.551,kallum_motion_pilot,2023.2.3,Win32,59.88023952,613f88c021bff7b9502b98db,6598e6a5d84f07970b831e70,6598e78339833e045566f283,0.0417,0.0417,0,101,101,91,1,sixeight,,,,,,,,,,,,,,,,,,,,,,,,,,,,,,,,,,,,,,,,,,,,,,,,,,,,,,,,,,,,,,,,,,,,,,,,,,,,,,,,,,,,,,,,,,,,,,,,,,,,,,,,,,,,,,,,,,,,,,,,,,,,,,,,,,,,,,,
,,613f88c021bff7b9502b98db,2024-01-05_23h41.32.551,kallum_motion_pilot,2023.2.3,Win32,59.88023952,613f88c021bff7b9502b98db,6598e6a5d84f07970b831e70,6598e78339833e045566f283,0.0417,0.0418,0,102,102,73,1,onethree,,,,,,,,,,,,,,,,,,,,,,,,,,,,,,,,,,,,,,,,,,,,,,,,,,,,,,,,,,,,,,,,,,,,,,,,,,,,,,,,,,,,,,,,,,,,,,,,,,,,,,,,,,,,,,,,,,,,,,,,,,,,,,,,,,,,,,,
,,613f88c021bff7b9502b98db,2024-01-05_23h41.32.551,kallum_motion_pilot,2023.2.3,Win32,59.88023952,613f88c021bff7b9502b98db,6598e6a5d84f07970b831e70,6598e78339833e045566f283,0.0418,0.0419,0,103,103,143,1,eightseven,,,,,,,,,,,,,,,,,,,,,,,,,,,,,,,,,,,,,,,,,,,,,,,,,,,,,,,,,,,,,,,,,,,,,,,,,,,,,,,,,,,,,,,,,,,,,,,,,,,,,,,,,,,,,,,,,,,,,,,,,,,,,,,,,,,,,,,
,,613f88c021bff7b9502b98db,2024-01-05_23h41.32.551,kallum_motion_pilot,2023.2.3,Win32,59.88023952,613f88c021bff7b9502b98db,6598e6a5d84f07970b831e70,6598e78339833e045566f283,0.0419,0.042,0,104,104,46,1,fourtwo,,,,,,,,,,,,,,,,,,,,,,,,,,,,,,,,,,,,,,,,,,,,,,,,,,,,,,,,,,,,,,,,,,,,,,,,,,,,,,,,,,,,,,,,,,,,,,,,,,,,,,,,,,,,,,,,,,,,,,,,,,,,,,,,,,,,,,,
,,613f88c021bff7b9502b98db,2024-01-05_23h41.32.551,kallum_motion_pilot,2023.2.3,Win32,59.88023952,613f88c021bff7b9502b98db,6598e6a5d84f07970b831e70,6598e78339833e045566f283,0.042,0.042,0,105,105,18,1,twoone,,,,,,,,,,,,,,,,,,,,,,,,,,,,,,,,,,,,,,,,,,,,,,,,,,,,,,,,,,,,,,,,,,,,,,,,,,,,,,,,,,,,,,,,,,,,,,,,,,,,,,,,,,,,,,,,,,,,,,,,,,,,,,,,,,,,,,,
,,613f88c021bff7b9502b98db,2024-01-05_23h41.32.551,kallum_motion_pilot,2023.2.3,Win32,59.88023952,613f88c021bff7b9502b98db,6598e6a5d84f07970b831e70,6598e78339833e045566f283,0.0421,0.0422,0,106,106,106,1,sixfive,,,,,,,,,,,,,,,,,,,,,,,,,,,,,,,,,,,,,,,,,,,,,,,,,,,,,,,,,,,,,,,,,,,,,,,,,,,,,,,,,,,,,,,,,,,,,,,,,,,,,,,,,,,,,,,,,,,,,,,,,,,,,,,,,,,,,,,
,,613f88c021bff7b9502b98db,2024-01-05_23h41.32.551,kallum_motion_pilot,2023.2.3,Win32,59.88023952,613f88c021bff7b9502b98db,6598e6a5d84f07970b831e70,6598e78339833e045566f283,0.0422,0.0423,0,107,107,129,1,fiveseven,,,,,,,,,,,,,,,,,,,,,,,,,,,,,,,,,,,,,,,,,,,,,,,,,,,,,,,,,,,,,,,,,,,,,,,,,,,,,,,,,,,,,,,,,,,,,,,,,,,,,,,,,,,,,,,,,,,,,,,,,,,,,,,,,,,,,,,
,,613f88c021bff7b9502b98db,2024-01-05_23h41.32.551,kallum_motion_pilot,2023.2.3,Win32,59.88023952,613f88c021bff7b9502b98db,6598e6a5d84f07970b831e70,6598e78339833e045566f283,0.0423,0.0423,0,108,108,14,1,fourtwo,,,,,,,,,,,,,,,,,,,,,,,,,,,,,,,,,,,,,,,,,,,,,,,,,,,,,,,,,,,,,,,,,,,,,,,,,,,,,,,,,,,,,,,,,,,,,,,,,,,,,,,,,,,,,,,,,,,,,,,,,,,,,,,,,,,,,,,
,,613f88c021bff7b9502b98db,2024-01-05_23h41.32.551,kallum_motion_pilot,2023.2.3,Win32,59.88023952,613f88c021bff7b9502b98db,6598e6a5d84f07970b831e70,6598e78339833e045566f283,0.0424,0.0424,0,109,109,42,1,twoone,,,,,,,,,,,,,,,,,,,,,,,,,,,,,,,,,,,,,,,,,,,,,,,,,,,,,,,,,,,,,,,,,,,,,,,,,,,,,,,,,,,,,,,,,,,,,,,,,,,,,,,,,,,,,,,,,,,,,,,,,,,,,,,,,,,,,,,
,,613f88c021bff7b9502b98db,2024-01-05_23h41.32.551,kallum_motion_pilot,2023.2.3,Win32,59.88023952,613f88c021bff7b9502b98db,6598e6a5d84f07970b831e70,6598e78339833e045566f283,0.0425,0.0425,0,110,110,26,1,twoone,,,,,,,,,,,,,,,,,,,,,,,,,,,,,,,,,,,,,,,,,,,,,,,,,,,,,,,,,,,,,,,,,,,,,,,,,,,,,,,,,,,,,,,,,,,,,,,,,,,,,,,,,,,,,,,,,,,,,,,,,,,,,,,,,,,,,,,
,,613f88c021bff7b9502b98db,2024-01-05_23h41.32.551,kallum_motion_pilot,2023.2.3,Win32,59.88023952,613f88c021bff7b9502b98db,6598e6a5d84f07970b831e70,6598e78339833e045566f283,0.0425,0.0426,0,111,111,71,1,fourthree,,,,,,,,,,,,,,,,,,,,,,,,,,,,,,,,,,,,,,,,,,,,,,,,,,,,,,,,,,,,,,,,,,,,,,,,,,,,,,,,,,,,,,,,,,,,,,,,,,,,,,,,,,,,,,,,,,,,,,,,,,,,,,,,,,,,,,,
,,613f88c021bff7b9502b98db,2024-01-05_23h41.32.551,kallum_motion_pilot,2023.2.3,Win32,59.88023952,613f88c021bff7b9502b98db,6598e6a5d84f07970b831e70,6598e78339833e045566f283,0.0427,0.0427,0,112,112,107,1,sixeight,,,,,,,,,,,,,,,,,,,,,,,,,,,,,,,,,,,,,,,,,,,,,,,,,,,,,,,,,,,,,,,,,,,,,,,,,,,,,,,,,,,,,,,,,,,,,,,,,,,,,,,,,,,,,,,,,,,,,,,,,,,,,,,,,,,,,,,
,,613f88c021bff7b9502b98db,2024-01-05_23h41.32.551,kallum_motion_pilot,2023.2.3,Win32,59.88023952,613f88c021bff7b9502b98db,6598e6a5d84f07970b831e70,6598e78339833e045566f283,0.0427,0.0428,0,113,113,45,1,threefour,,,,,,,,,,,,,,,,,,,,,,,,,,,,,,,,,,,,,,,,,,,,,,,,,,,,,,,,,,,,,,,,,,,,,,,,,,,,,,,,,,,,,,,,,,,,,,,,,,,,,,,,,,,,,,,,,,,,,,,,,,,,,,,,,,,,,,,
,,613f88c021bff7b9502b98db,2024-01-05_23h41.32.551,kallum_motion_pilot,2023.2.3,Win32,59.88023952,613f88c021bff7b9502b98db,6598e6a5d84f07970b831e70,6598e78339833e045566f283,0.0428,0.0429,0,114,114,103,1,eightseven,,,,,,,,,,,,,,,,,,,,,,,,,,,,,,,,,,,,,,,,,,,,,,,,,,,,,,,,,,,,,,,,,,,,,,,,,,,,,,,,,,,,,,,,,,,,,,,,,,,,,,,,,,,,,,,,,,,,,,,,,,,,,,,,,,,,,,,
,,613f88c021bff7b9502b98db,2024-01-05_23h41.32.551,kallum_motion_pilot,2023.2.3,Win32,59.88023952,613f88c021bff7b9502b98db,6598e6a5d84f07970b831e70,6598e78339833e045566f283,0.0429,0.0429,0,115,115,126,1,eightsix,,,,,,,,,,,,,,,,,,,,,,,,,,,,,,,,,,,,,,,,,,,,,,,,,,,,,,,,,,,,,,,,,,,,,,,,,,,,,,,,,,,,,,,,,,,,,,,,,,,,,,,,,,,,,,,,,,,,,,,,,,,,,,,,,,,,,,,
,,613f88c021bff7b9502b98db,2024-01-05_23h41.32.551,kallum_motion_pilot,2023.2.3,Win32,59.88023952,613f88c021bff7b9502b98db,6598e6a5d84f07970b831e70,6598e78339833e045566f283,0.043,0.043,0,116,116,70,1,fourtwo,,,,,,,,,,,,,,,,,,,,,,,,,,,,,,,,,,,,,,,,,,,,,,,,,,,,,,,,,,,,,,,,,,,,,,,,,,,,,,,,,,,,,,,,,,,,,,,,,,,,,,,,,,,,,,,,,,,,,,,,,,,,,,,,,,,,,,,
,,613f88c021bff7b9502b98db,2024-01-05_23h41.32.551,kallum_motion_pilot,2023.2.3,Win32,59.88023952,613f88c021bff7b9502b98db,6598e6a5d84f07970b831e70,6598e78339833e045566f283,0.0431,0.0431,0,117,117,80,1,fivesix,,,,,,,,,,,,,,,,,,,,,,,,,,,,,,,,,,,,,,,,,,,,,,,,,,,,,,,,,,,,,,,,,,,,,,,,,,,,,,,,,,,,,,,,,,,,,,,,,,,,,,,,,,,,,,,,,,,,,,,,,,,,,,,,,,,,,,,
,,613f88c021bff7b9502b98db,2024-01-05_23h41.32.551,kallum_motion_pilot,2023.2.3,Win32,59.88023952,613f88c021bff7b9502b98db,6598e6a5d84f07970b831e70,6598e78339833e045566f283,0.0431,0.0431,0,118,118,119,1,eightseven,,,,,,,,,,,,,,,,,,,,,,,,,,,,,,,,,,,,,,,,,,,,,,,,,,,,,,,,,,,,,,,,,,,,,,,,,,,,,,,,,,,,,,,,,,,,,,,,,,,,,,,,,,,,,,,,,,,,,,,,,,,,,,,,,,,,,,,
,,613f88c021bff7b9502b98db,2024-01-05_23h41.32.551,kallum_motion_pilot,2023.2.3,Win32,59.88023952,613f88c021bff7b9502b98db,6598e6a5d84f07970b831e70,6598e78339833e045566f283,0.0433,0.0433,0,119,119,98,1,sixfive,,,,,,,,,,,,,,,,,,,,,,,,,,,,,,,,,,,,,,,,,,,,,,,,,,,,,,,,,,,,,,,,,,,,,,,,,,,,,,,,,,,,,,,,,,,,,,,,,,,,,,,,,,,,,,,,,,,,,,,,,,,,,,,,,,,,,,,
,,613f88c021bff7b9502b98db,2024-01-05_23h41.32.551,kallum_motion_pilot,2023.2.3,Win32,59.88023952,613f88c021bff7b9502b98db,6598e6a5d84f07970b831e70,6598e78339833e045566f283,0.0434,0.0434,0,120,120,117,1,seveneight,,,,,,,,,,,,,,,,,,,,,,,,,,,,,,,,,,,,,,,,,,,,,,,,,,,,,,,,,,,,,,,,,,,,,,,,,,,,,,,,,,,,,,,,,,,,,,,,,,,,,,,,,,,,,,,,,,,,,,,,,,,,,,,,,,,,,,,
,,613f88c021bff7b9502b98db,2024-01-05_23h41.32.551,kallum_motion_pilot,2023.2.3,Win32,59.88023952,613f88c021bff7b9502b98db,6598e6a5d84f07970b831e70,6598e78339833e045566f283,0.0435,0.0435,0,121,121,63,1,fourthree,,,,,,,,,,,,,,,,,,,,,,,,,,,,,,,,,,,,,,,,,,,,,,,,,,,,,,,,,,,,,,,,,,,,,,,,,,,,,,,,,,,,,,,,,,,,,,,,,,,,,,,,,,,,,,,,,,,,,,,,,,,,,,,,,,,,,,,
,,613f88c021bff7b9502b98db,2024-01-05_23h41.32.551,kallum_motion_pilot,2023.2.3,Win32,59.88023952,613f88c021bff7b9502b98db,6598e6a5d84f07970b831e70,6598e78339833e045566f283,0.0435,0.0436,0,122,122,158,1,eightsix,,,,,,,,,,,,,,,,,,,,,,,,,,,,,,,,,,,,,,,,,,,,,,,,,,,,,,,,,,,,,,,,,,,,,,,,,,,,,,,,,,,,,,,,,,,,,,,,,,,,,,,,,,,,,,,,,,,,,,,,,,,,,,,,,,,,,,,
,,613f88c021bff7b9502b98db,2024-01-05_23h41.32.551,kallum_motion_pilot,2023.2.3,Win32,59.88023952,613f88c021bff7b9502b98db,6598e6a5d84f07970b831e70,6598e78339833e045566f283,0.0436,0.0436,0,123,123,121,1,fiveseven,,,,,,,,,,,,,,,,,,,,,,,,,,,,,,,,,,,,,,,,,,,,,,,,,,,,,,,,,,,,,,,,,,,,,,,,,,,,,,,,,,,,,,,,,,,,,,,,,,,,,,,,,,,,,,,,,,,,,,,,,,,,,,,,,,,,,,,
,,613f88c021bff7b9502b98db,2024-01-05_23h41.32.551,kallum_motion_pilot,2023.2.3,Win32,59.88023952,613f88c021bff7b9502b98db,6598e6a5d84f07970b831e70,6598e78339833e045566f283,0.0437,0.0437,0,124,124,104,1,fivesix,,,,,,,,,,,,,,,,,,,,,,,,,,,,,,,,,,,,,,,,,,,,,,,,,,,,,,,,,,,,,,,,,,,,,,,,,,,,,,,,,,,,,,,,,,,,,,,,,,,,,,,,,,,,,,,,,,,,,,,,,,,,,,,,,,,,,,,
,,613f88c021bff7b9502b98db,2024-01-05_23h41.32.551,kallum_motion_pilot,2023.2.3,Win32,59.88023952,613f88c021bff7b9502b98db,6598e6a5d84f07970b831e70,6598e78339833e045566f283,0.0438,0.0439,0,125,125,138,1,sixfive,,,,,,,,,,,,,,,,,,,,,,,,,,,,,,,,,,,,,,,,,,,,,,,,,,,,,,,,,,,,,,,,,,,,,,,,,,,,,,,,,,,,,,,,,,,,,,,,,,,,,,,,,,,,,,,,,,,,,,,,,,,,,,,,,,,,,,,
,,613f88c021bff7b9502b98db,2024-01-05_23h41.32.551,kallum_motion_pilot,2023.2.3,Win32,59.88023952,613f88c021bff7b9502b98db,6598e6a5d84f07970b831e70,6598e78339833e045566f283,0.0439,0.044,0,126,126,90,1,sixfive,,,,,,,,,,,,,,,,,,,,,,,,,,,,,,,,,,,,,,,,,,,,,,,,,,,,,,,,,,,,,,,,,,,,,,,,,,,,,,,,,,,,,,,,,,,,,,,,,,,,,,,,,,,,,,,,,,,,,,,,,,,,,,,,,,,,,,,
,,613f88c021bff7b9502b98db,2024-01-05_23h41.32.551,kallum_motion_pilot,2023.2.3,Win32,59.88023952,613f88c021bff7b9502b98db,6598e6a5d84f07970b831e70,6598e78339833e045566f283,0.044,0.0441,0,127,127,123,1,sixeight,,,,,,,,,,,,,,,,,,,,,,,,,,,,,,,,,,,,,,,,,,,,,,,,,,,,,,,,,,,,,,,,,,,,,,,,,,,,,,,,,,,,,,,,,,,,,,,,,,,,,,,,,,,,,,,,,,,,,,,,,,,,,,,,,,,,,,,
,,613f88c021bff7b9502b98db,2024-01-05_23h41.32.551,kallum_motion_pilot,2023.2.3,Win32,59.88023952,613f88c021bff7b9502b98db,6598e6a5d84f07970b831e70,6598e78339833e045566f283,0.0441,0.0442,0,128,128,153,1,fiveseven,,,,,,,,,,,,,,,,,,,,,,,,,,,,,,,,,,,,,,,,,,,,,,,,,,,,,,,,,,,,,,,,,,,,,,,,,,,,,,,,,,,,,,,,,,,,,,,,,,,,,,,,,,,,,,,,,,,,,,,,,,,,,,,,,,,,,,,
,,613f88c021bff7b9502b98db,2024-01-05_23h41.32.551,kallum_motion_pilot,2023.2.3,Win32,59.88023952,613f88c021bff7b9502b98db,6598e6a5d84f07970b831e70,6598e78339833e045566f283,0.0442,0.0443,0,129,129,109,1,seveneight,,,,,,,,,,,,,,,,,,,,,,,,,,,,,,,,,,,,,,,,,,,,,,,,,,,,,,,,,,,,,,,,,,,,,,,,,,,,,,,,,,,,,,,,,,,,,,,,,,,,,,,,,,,,,,,,,,,,,,,,,,,,,,,,,,,,,,,
,,613f88c021bff7b9502b98db,2024-01-05_23h41.32.551,kallum_motion_pilot,2023.2.3,Win32,59.88023952,613f88c021bff7b9502b98db,6598e6a5d84f07970b831e70,6598e78339833e045566f283,0.0443,0.0443,0,130,130,21,1,threefour,,,,,,,,,,,,,,,,,,,,,,,,,,,,,,,,,,,,,,,,,,,,,,,,,,,,,,,,,,,,,,,,,,,,,,,,,,,,,,,,,,,,,,,,,,,,,,,,,,,,,,,,,,,,,,,,,,,,,,,,,,,,,,,,,,,,,,,
,,613f88c021bff7b9502b98db,2024-01-05_23h41.32.551,kallum_motion_pilot,2023.2.3,Win32,59.88023952,613f88c021bff7b9502b98db,6598e6a5d84f07970b831e70,6598e78339833e045566f283,0.0443,0.0444,0,131,131,24,1,onetwo,,,,,,,,,,,,,,,,,,,,,,,,,,,,,,,,,,,,,,,,,,,,,,,,,,,,,,,,,,,,,,,,,,,,,,,,,,,,,,,,,,,,,,,,,,,,,,,,,,,,,,,,,,,,,,,,,,,,,,,,,,,,,,,,,,,,,,,
,,613f88c021bff7b9502b98db,2024-01-05_23h41.32.551,kallum_motion_pilot,2023.2.3,Win32,59.88023952,613f88c021bff7b9502b98db,6598e6a5d84f07970b831e70,6598e78339833e045566f283,0.0444,0.0444,0,132,132,66,1,twoone,,,,,,,,,,,,,,,,,,,,,,,,,,,,,,,,,,,,,,,,,,,,,,,,,,,,,,,,,,,,,,,,,,,,,,,,,,,,,,,,,,,,,,,,,,,,,,,,,,,,,,,,,,,,,,,,,,,,,,,,,,,,,,,,,,,,,,,
,,613f88c021bff7b9502b98db,2024-01-05_23h41.32.551,kallum_motion_pilot,2023.2.3,Win32,59.88023952,613f88c021bff7b9502b98db,6598e6a5d84f07970b831e70,6598e78339833e045566f283,0.0445,0.0446,0,133,133,118,1,eightsix,,,,,,,,,,,,,,,,,,,,,,,,,,,,,,,,,,,,,,,,,,,,,,,,,,,,,,,,,,,,,,,,,,,,,,,,,,,,,,,,,,,,,,,,,,,,,,,,,,,,,,,,,,,,,,,,,,,,,,,,,,,,,,,,,,,,,,,
,,613f88c021bff7b9502b98db,2024-01-05_23h41.32.551,kallum_motion_pilot,2023.2.3,Win32,59.88023952,613f88c021bff7b9502b98db,6598e6a5d84f07970b831e70,6598e78339833e045566f283,0.0446,0.0446,0,134,134,75,1,twofour,,,,,,,,,,,,,,,,,,,,,,,,,,,,,,,,,,,,,,,,,,,,,,,,,,,,,,,,,,,,,,,,,,,,,,,,,,,,,,,,,,,,,,,,,,,,,,,,,,,,,,,,,,,,,,,,,,,,,,,,,,,,,,,,,,,,,,,
,,613f88c021bff7b9502b98db,2024-01-05_23h41.32.551,kallum_motion_pilot,2023.2.3,Win32,59.88023952,613f88c021bff7b9502b98db,6598e6a5d84f07970b831e70,6598e78339833e045566f283,0.0447,0.0447,0,135,135,100,1,sevenfive,,,,,,,,,,,,,,,,,,,,,,,,,,,,,,,,,,,,,,,,,,,,,,,,,,,,,,,,,,,,,,,,,,,,,,,,,,,,,,,,,,,,,,,,,,,,,,,,,,,,,,,,,,,,,,,,,,,,,,,,,,,,,,,,,,,,,,,
,,613f88c021bff7b9502b98db,2024-01-05_23h41.32.551,kallum_motion_pilot,2023.2.3,Win32,59.88023952,613f88c021bff7b9502b98db,6598e6a5d84f07970b831e70,6598e78339833e045566f283,0.0448,0.0448,0,136,136,16,1,onetwo,,,,,,,,,,,,,,,,,,,,,,,,,,,,,,,,,,,,,,,,,,,,,,,,,,,,,,,,,,,,,,,,,,,,,,,,,,,,,,,,,,,,,,,,,,,,,,,,,,,,,,,,,,,,,,,,,,,,,,,,,,,,,,,,,,,,,,,
,,613f88c021bff7b9502b98db,2024-01-05_23h41.32.551,kallum_motion_pilot,2023.2.3,Win32,59.88023952,613f88c021bff7b9502b98db,6598e6a5d84f07970b831e70,6598e78339833e045566f283,0.0448,0.0449,0,137,137,108,1,sevenfive,,,,,,,,,,,,,,,,,,,,,,,,,,,,,,,,,,,,,,,,,,,,,,,,,,,,,,,,,,,,,,,,,,,,,,,,,,,,,,,,,,,,,,,,,,,,,,,,,,,,,,,,,,,,,,,,,,,,,,,,,,,,,,,,,,,,,,,
,,613f88c021bff7b9502b98db,2024-01-05_23h41.32.551,kallum_motion_pilot,2023.2.3,Win32,59.88023952,613f88c021bff7b9502b98db,6598e6a5d84f07970b831e70,6598e78339833e045566f283,0.0449,0.045,0,138,138,145,1,fiveseven,,,,,,,,,,,,,,,,,,,,,,,,,,,,,,,,,,,,,,,,,,,,,,,,,,,,,,,,,,,,,,,,,,,,,,,,,,,,,,,,,,,,,,,,,,,,,,,,,,,,,,,,,,,,,,,,,,,,,,,,,,,,,,,,,,,,,,,
,,613f88c021bff7b9502b98db,2024-01-05_23h41.32.551,kallum_motion_pilot,2023.2.3,Win32,59.88023952,613f88c021bff7b9502b98db,6598e6a5d84f07970b831e70,6598e78339833e045566f283,0.045,0.045,0,139,139,136,1,fivesix,,,,,,,,,,,,,,,,,,,,,,,,,,,,,,,,,,,,,,,,,,,,,,,,,,,,,,,,,,,,,,,,,,,,,,,,,,,,,,,,,,,,,,,,,,,,,,,,,,,,,,,,,,,,,,,,,,,,,,,,,,,,,,,,,,,,,,,
,,613f88c021bff7b9502b98db,2024-01-05_23h41.32.551,kallum_motion_pilot,2023.2.3,Win32,59.88023952,613f88c021bff7b9502b98db,6598e6a5d84f07970b831e70,6598e78339833e045566f283,0.0452,0.0452,0,140,140,5,1,threefour,,,,,,,,,,,,,,,,,,,,,,,,,,,,,,,,,,,,,,,,,,,,,,,,,,,,,,,,,,,,,,,,,,,,,,,,,,,,,,,,,,,,,,,,,,,,,,,,,,,,,,,,,,,,,,,,,,,,,,,,,,,,,,,,,,,,,,,
,,613f88c021bff7b9502b98db,2024-01-05_23h41.32.551,kallum_motion_pilot,2023.2.3,Win32,59.88023952,613f88c021bff7b9502b98db,6598e6a5d84f07970b831e70,6598e78339833e045566f283,0.0452,0.0453,0,141,141,115,1,sixeight,,,,,,,,,,,,,,,,,,,,,,,,,,,,,,,,,,,,,,,,,,,,,,,,,,,,,,,,,,,,,,,,,,,,,,,,,,,,,,,,,,,,,,,,,,,,,,,,,,,,,,,,,,,,,,,,,,,,,,,,,,,,,,,,,,,,,,,
,,613f88c021bff7b9502b98db,2024-01-05_23h41.32.551,kallum_motion_pilot,2023.2.3,Win32,59.88023952,613f88c021bff7b9502b98db,6598e6a5d84f07970b831e70,6598e78339833e045566f283,0.0453,0.0453,0,142,142,17,1,onethree,,,,,,,,,,,,,,,,,,,,,,,,,,,,,,,,,,,,,,,,,,,,,,,,,,,,,,,,,,,,,,,,,,,,,,,,,,,,,,,,,,,,,,,,,,,,,,,,,,,,,,,,,,,,,,,,,,,,,,,,,,,,,,,,,,,,,,,
,,613f88c021bff7b9502b98db,2024-01-05_23h41.32.551,kallum_motion_pilot,2023.2.3,Win32,59.88023952,613f88c021bff7b9502b98db,6598e6a5d84f07970b831e70,6598e78339833e045566f283,0.0455,0.0455,0,143,143,0,1,onetwo,,,,,,,,,,,,,,,,,,,,,,,,,,,,,,,,,,,,,,,,,,,,,,,,,,,,,,,,,,,,,,,,,,,,,,,,,,,,,,,,,,,,,,,,,,,,,,,,,,,,,,,,,,,,,,,,,,,,,,,,,,,,,,,,,,,,,,,
,,613f88c021bff7b9502b98db,2024-01-05_23h41.32.551,kallum_motion_pilot,2023.2.3,Win32,59.88023952,613f88c021bff7b9502b98db,6598e6a5d84f07970b831e70,6598e78339833e045566f283,0.0456,0.0456,0,144,144,54,1,fourtwo,,,,,,,,,,,,,,,,,,,,,,,,,,,,,,,,,,,,,,,,,,,,,,,,,,,,,,,,,,,,,,,,,,,,,,,,,,,,,,,,,,,,,,,,,,,,,,,,,,,,,,,,,,,,,,,,,,,,,,,,,,,,,,,,,,,,,,,
,,613f88c021bff7b9502b98db,2024-01-05_23h41.32.551,kallum_motion_pilot,2023.2.3,Win32,59.88023952,613f88c021bff7b9502b98db,6598e6a5d84f07970b831e70,6598e78339833e045566f283,0.0456,0.0457,0,145,145,13,1,threefour,,,,,,,,,,,,,,,,,,,,,,,,,,,,,,,,,,,,,,,,,,,,,,,,,,,,,,,,,,,,,,,,,,,,,,,,,,,,,,,,,,,,,,,,,,,,,,,,,,,,,,,,,,,,,,,,,,,,,,,,,,,,,,,,,,,,,,,
,,613f88c021bff7b9502b98db,2024-01-05_23h41.32.551,kallum_motion_pilot,2023.2.3,Win32,59.88023952,613f88c021bff7b9502b98db,6598e6a5d84f07970b831e70,6598e78339833e045566f283,0.0457,0.0457,0,146,146,94,1,eightsix,,,,,,,,,,,,,,,,,,,,,,,,,,,,,,,,,,,,,,,,,,,,,,,,,,,,,,,,,,,,,,,,,,,,,,,,,,,,,,,,,,,,,,,,,,,,,,,,,,,,,,,,,,,,,,,,,,,,,,,,,,,,,,,,,,,,,,,
,,613f88c021bff7b9502b98db,2024-01-05_23h41.32.551,kallum_motion_pilot,2023.2.3,Win32,59.88023952,613f88c021bff7b9502b98db,6598e6a5d84f07970b831e70,6598e78339833e045566f283,0.0457,0.0458,0,147,147,142,1,eightsix,,,,,,,,,,,,,,,,,,,,,,,,,,,,,,,,,,,,,,,,,,,,,,,,,,,,,,,,,,,,,,,,,,,,,,,,,,,,,,,,,,,,,,,,,,,,,,,,,,,,,,,,,,,,,,,,,,,,,,,,,,,,,,,,,,,,,,,
,,613f88c021bff7b9502b98db,2024-01-05_23h41.32.551,kallum_motion_pilot,2023.2.3,Win32,59.88023952,613f88c021bff7b9502b98db,6598e6a5d84f07970b831e70,6598e78339833e045566f283,0.0459,0.046,0,148,148,113,1,fiveseven,,,,,,,,,,,,,,,,,,,,,,,,,,,,,,,,,,,,,,,,,,,,,,,,,,,,,,,,,,,,,,,,,,,,,,,,,,,,,,,,,,,,,,,,,,,,,,,,,,,,,,,,,,,,,,,,,,,,,,,,,,,,,,,,,,,,,,,
,,613f88c021bff7b9502b98db,2024-01-05_23h41.32.551,kallum_motion_pilot,2023.2.3,Win32,59.88023952,613f88c021bff7b9502b98db,6598e6a5d84f07970b831e70,6598e78339833e045566f283,0.046,0.046,0,149,149,112,1,fivesix,,,,,,,,,,,,,,,,,,,,,,,,,,,,,,,,,,,,,,,,,,,,,,,,,,,,,,,,,,,,,,,,,,,,,,,,,,,,,,,,,,,,,,,,,,,,,,,,,,,,,,,,,,,,,,,,,,,,,,,,,,,,,,,,,,,,,,,
,,613f88c021bff7b9502b98db,2024-01-05_23h41.32.551,kallum_motion_pilot,2023.2.3,Win32,59.88023952,613f88c021bff7b9502b98db,6598e6a5d84f07970b831e70,6598e78339833e045566f283,0.046,0.0462,0,150,150,57,1,onethree,,,,,,,,,,,,,,,,,,,,,,,,,,,,,,,,,,,,,,,,,,,,,,,,,,,,,,,,,,,,,,,,,,,,,,,,,,,,,,,,,,,,,,,,,,,,,,,,,,,,,,,,,,,,,,,,,,,,,,,,,,,,,,,,,,,,,,,
,,613f88c021bff7b9502b98db,2024-01-05_23h41.32.551,kallum_motion_pilot,2023.2.3,Win32,59.88023952,613f88c021bff7b9502b98db,6598e6a5d84f07970b831e70,6598e78339833e045566f283,0.0462,0.0462,0,151,151,7,1,fourthree,,,,,,,,,,,,,,,,,,,,,,,,,,,,,,,,,,,,,,,,,,,,,,,,,,,,,,,,,,,,,,,,,,,,,,,,,,,,,,,,,,,,,,,,,,,,,,,,,,,,,,,,,,,,,,,,,,,,,,,,,,,,,,,,,,,,,,,
,,613f88c021bff7b9502b98db,2024-01-05_23h41.32.551,kallum_motion_pilot,2023.2.3,Win32,59.88023952,613f88c021bff7b9502b98db,6598e6a5d84f07970b831e70,6598e78339833e045566f283,0.0463,0.0463,0,152,152,62,1,fourtwo,,,,,,,,,,,,,,,,,,,,,,,,,,,,,,,,,,,,,,,,,,,,,,,,,,,,,,,,,,,,,,,,,,,,,,,,,,,,,,,,,,,,,,,,,,,,,,,,,,,,,,,,,,,,,,,,,,,,,,,,,,,,,,,,,,,,,,,
,,613f88c021bff7b9502b98db,2024-01-05_23h41.32.551,kallum_motion_pilot,2023.2.3,Win32,59.88023952,613f88c021bff7b9502b98db,6598e6a5d84f07970b831e70,6598e78339833e045566f283,0.0463,0.0464,0,153,153,111,1,eightseven,,,,,,,,,,,,,,,,,,,,,,,,,,,,,,,,,,,,,,,,,,,,,,,,,,,,,,,,,,,,,,,,,,,,,,,,,,,,,,,,,,,,,,,,,,,,,,,,,,,,,,,,,,,,,,,,,,,,,,,,,,,,,,,,,,,,,,,
,,613f88c021bff7b9502b98db,2024-01-05_23h41.32.551,kallum_motion_pilot,2023.2.3,Win32,59.88023952,613f88c021bff7b9502b98db,6598e6a5d84f07970b831e70,6598e78339833e045566f283,0.0464,0.0464,0,154,154,76,1,threeone,,,,,,,,,,,,,,,,,,,,,,,,,,,,,,,,,,,,,,,,,,,,,,,,,,,,,,,,,,,,,,,,,,,,,,,,,,,,,,,,,,,,,,,,,,,,,,,,,,,,,,,,,,,,,,,,,,,,,,,,,,,,,,,,,,,,,,,
,,613f88c021bff7b9502b98db,2024-01-05_23h41.32.551,kallum_motion_pilot,2023.2.3,Win32,59.88023952,613f88c021bff7b9502b98db,6598e6a5d84f07970b831e70,6598e78339833e045566f283,0.0465,0.0466,0,155,155,56,1,onetwo,,,,,,,,,,,,,,,,,,,,,,,,,,,,,,,,,,,,,,,,,,,,,,,,,,,,,,,,,,,,,,,,,,,,,,,,,,,,,,,,,,,,,,,,,,,,,,,,,,,,,,,,,,,,,,,,,,,,,,,,,,,,,,,,,,,,,,,
,,613f88c021bff7b9502b98db,2024-01-05_23h41.32.551,kallum_motion_pilot,2023.2.3,Win32,59.88023952,613f88c021bff7b9502b98db,6598e6a5d84f07970b831e70,6598e78339833e045566f283,0.0466,0.0466,0,156,156,10,1,twoone,,,,,,,,,,,,,,,,,,,,,,,,,,,,,,,,,,,,,,,,,,,,,,,,,,,,,,,,,,,,,,,,,,,,,,,,,,,,,,,,,,,,,,,,,,,,,,,,,,,,,,,,,,,,,,,,,,,,,,,,,,,,,,,,,,,,,,,
,,613f88c021bff7b9502b98db,2024-01-05_23h41.32.551,kallum_motion_pilot,2023.2.3,Win32,59.88023952,613f88c021bff7b9502b98db,6598e6a5d84f07970b831e70,6598e78339833e045566f283,0.0467,0.0468,0,157,157,161,1,fiveseven,,,,,,,,,,,,,,,,,,,,,,,,,,,,,,,,,,,,,,,,,,,,,,,,,,,,,,,,,,,,,,,,,,,,,,,,,,,,,,,,,,,,,,,,,,,,,,,,,,,,,,,,,,,,,,,,,,,,,,,,,,,,,,,,,,,,,,,
,,613f88c021bff7b9502b98db,2024-01-05_23h41.32.551,kallum_motion_pilot,2023.2.3,Win32,59.88023952,613f88c021bff7b9502b98db,6598e6a5d84f07970b831e70,6598e78339833e045566f283,0.0468,0.0468,0,158,158,49,1,onethree,,,,,,,,,,,,,,,,,,,,,,,,,,,,,,,,,,,,,,,,,,,,,,,,,,,,,,,,,,,,,,,,,,,,,,,,,,,,,,,,,,,,,,,,,,,,,,,,,,,,,,,,,,,,,,,,,,,,,,,,,,,,,,,,,,,,,,,
,,613f88c021bff7b9502b98db,2024-01-05_23h41.32.551,kallum_motion_pilot,2023.2.3,Win32,59.88023952,613f88c021bff7b9502b98db,6598e6a5d84f07970b831e70,6598e78339833e045566f283,0.0469,0.0469,0,159,159,101,1,seveneight,,,,,,,,,,,,,,,,,,,,,,,,,,,,,,,,,,,,,,,,,,,,,,,,,,,,,,,,,,,,,,,,,,,,,,,,,,,,,,,,,,,,,,,,,,,,,,,,,,,,,,,,,,,,,,,,,,,,,,,,,,,,,,,,,,,,,,,
,,613f88c021bff7b9502b98db,2024-01-05_23h41.32.551,kallum_motion_pilot,2023.2.3,Win32,59.88023952,613f88c021bff7b9502b98db,6598e6a5d84f07970b831e70,6598e78339833e045566f283,0.0469,0.047,0,160,160,147,1,sixeight,,,,,,,,,,,,,,,,,,,,,,,,,,,,,,,,,,,,,,,,,,,,,,,,,,,,,,,,,,,,,,,,,,,,,,,,,,,,,,,,,,,,,,,,,,,,,,,,,,,,,,,,,,,,,,,,,,,,,,,,,,,,,,,,,,,,,,,
,,613f88c021bff7b9502b98db,2024-01-05_23h41.32.551,kallum_motion_pilot,2023.2.3,Win32,59.88023952,613f88c021bff7b9502b98db,6598e6a5d84f07970b831e70,6598e78339833e045566f283,0.047,0.0471,0,161,161,81,1,fiveseven,,,,,,,,,,,,,,,,,,,,,,,,,,,,,,,,,,,,,,,,,,,,,,,,,,,,,,,,,,,,,,,,,,,,,,,,,,,,,,,,,,,,,,,,,,,,,,,,,,,,,,,,,,,,,,,,,,,,,,,,,,,,,,,,,,,,,,,
,,613f88c021bff7b9502b98db,2024-01-05_23h41.32.551,kallum_motion_pilot,2023.2.3,Win32,59.88023952,613f88c021bff7b9502b98db,6598e6a5d84f07970b831e70,6598e78339833e045566f283,0.0471,0.0471,1,0,162,42,1,twoone,,,,,,,,,,,,,,,,,,,,,,,,,,,,,,,,,,,,,,,,,,,,,,,,,,,,,,,,,,,,,,,,,,,,,,,,,,,,,,,,,,,,,,,,,,,,,,,,,,,,,,,,,,,,,,,,,,,,,,,,,,,,,,,,,,,,,,,
,,613f88c021bff7b9502b98db,2024-01-05_23h41.32.551,kallum_motion_pilot,2023.2.3,Win32,59.88023952,613f88c021bff7b9502b98db,6598e6a5d84f07970b831e70,6598e78339833e045566f283,0.0472,0.0472,1,1,163,25,1,onethree,,,,,,,,,,,,,,,,,,,,,,,,,,,,,,,,,,,,,,,,,,,,,,,,,,,,,,,,,,,,,,,,,,,,,,,,,,,,,,,,,,,,,,,,,,,,,,,,,,,,,,,,,,,,,,,,,,,,,,,,,,,,,,,,,,,,,,,
,,613f88c021bff7b9502b98db,2024-01-05_23h41.32.551,kallum_motion_pilot,2023.2.3,Win32,59.88023952,613f88c021bff7b9502b98db,6598e6a5d84f07970b831e70,6598e78339833e045566f283,0.0472,0.0473,1,2,164,56,1,onetwo,,,,,,,,,,,,,,,,,,,,,,,,,,,,,,,,,,,,,,,,,,,,,,,,,,,,,,,,,,,,,,,,,,,,,,,,,,,,,,,,,,,,,,,,,,,,,,,,,,,,,,,,,,,,,,,,,,,,,,,,,,,,,,,,,,,,,,,
,,613f88c021bff7b9502b98db,2024-01-05_23h41.32.551,kallum_motion_pilot,2023.2.3,Win32,59.88023952,613f88c021bff7b9502b98db,6598e6a5d84f07970b831e70,6598e78339833e045566f283,0.0473,0.0473,1,3,165,141,1,seveneight,,,,,,,,,,,,,,,,,,,,,,,,,,,,,,,,,,,,,,,,,,,,,,,,,,,,,,,,,,,,,,,,,,,,,,,,,,,,,,,,,,,,,,,,,,,,,,,,,,,,,,,,,,,,,,,,,,,,,,,,,,,,,,,,,,,,,,,
,,613f88c021bff7b9502b98db,2024-01-05_23h41.32.551,kallum_motion_pilot,2023.2.3,Win32,59.88023952,613f88c021bff7b9502b98db,6598e6a5d84f07970b831e70,6598e78339833e045566f283,0.0474,0.0474,1,4,166,38,1,fourtwo,,,,,,,,,,,,,,,,,,,,,,,,,,,,,,,,,,,,,,,,,,,,,,,,,,,,,,,,,,,,,,,,,,,,,,,,,,,,,,,,,,,,,,,,,,,,,,,,,,,,,,,,,,,,,,,,,,,,,,,,,,,,,,,,,,,,,,,
,,613f88c021bff7b9502b98db,2024-01-05_23h41.32.551,kallum_motion_pilot,2023.2.3,Win32,59.88023952,613f88c021bff7b9502b98db,6598e6a5d84f07970b831e70,6598e78339833e045566f283,0.0474,0.0475,1,5,167,73,1,onethree,,,,,,,,,,,,,,,,,,,,,,,,,,,,,,,,,,,,,,,,,,,,,,,,,,,,,,,,,,,,,,,,,,,,,,,,,,,,,,,,,,,,,,,,,,,,,,,,,,,,,,,,,,,,,,,,,,,,,,,,,,,,,,,,,,,,,,,
,,613f88c021bff7b9502b98db,2024-01-05_23h41.32.551,kallum_motion_pilot,2023.2.3,Win32,59.88023952,613f88c021bff7b9502b98db,6598e6a5d84f07970b831e70,6598e78339833e045566f283,0.0476,0.0476,1,6,168,129,1,fiveseven,,,,,,,,,,,,,,,,,,,,,,,,,,,,,,,,,,,,,,,,,,,,,,,,,,,,,,,,,,,,,,,,,,,,,,,,,,,,,,,,,,,,,,,,,,,,,,,,,,,,,,,,,,,,,,,,,,,,,,,,,,,,,,,,,,,,,,,
,,613f88c021bff7b9502b98db,2024-01-05_23h41.32.551,kallum_motion_pilot,2023.2.3,Win32,59.88023952,613f88c021bff7b9502b98db,6598e6a5d84f07970b831e70,6598e78339833e045566f283,0.0477,0.0477,1,7,169,108,1,sevenfive,,,,,,,,,,,,,,,,,,,,,,,,,,,,,,,,,,,,,,,,,,,,,,,,,,,,,,,,,,,,,,,,,,,,,,,,,,,,,,,,,,,,,,,,,,,,,,,,,,,,,,,,,,,,,,,,,,,,,,,,,,,,,,,,,,,,,,,
,,613f88c021bff7b9502b98db,2024-01-05_23h41.32.551,kallum_motion_pilot,2023.2.3,Win32,59.88023952,613f88c021bff7b9502b98db,6598e6a5d84f07970b831e70,6598e78339833e045566f283,0.0477,0.0477,1,8,170,106,1,sixfive,,,,,,,,,,,,,,,,,,,,,,,,,,,,,,,,,,,,,,,,,,,,,,,,,,,,,,,,,,,,,,,,,,,,,,,,,,,,,,,,,,,,,,,,,,,,,,,,,,,,,,,,,,,,,,,,,,,,,,,,,,,,,,,,,,,,,,,
,,613f88c021bff7b9502b98db,2024-01-05_23h41.32.551,kallum_motion_pilot,2023.2.3,Win32,59.88023952,613f88c021bff7b9502b98db,6598e6a5d84f07970b831e70,6598e78339833e045566f283,0.0478,0.0478,1,9,171,62,1,fourtwo,,,,,,,,,,,,,,,,,,,,,,,,,,,,,,,,,,,,,,,,,,,,,,,,,,,,,,,,,,,,,,,,,,,,,,,,,,,,,,,,,,,,,,,,,,,,,,,,,,,,,,,,,,,,,,,,,,,,,,,,,,,,,,,,,,,,,,,
,,613f88c021bff7b9502b98db,2024-01-05_23h41.32.551,kallum_motion_pilot,2023.2.3,Win32,59.88023952,613f88c021bff7b9502b98db,6598e6a5d84f07970b831e70,6598e78339833e045566f283,0.0479,0.048,1,10,172,29,1,threefour,,,,,,,,,,,,,,,,,,,,,,,,,,,,,,,,,,,,,,,,,,,,,,,,,,,,,,,,,,,,,,,,,,,,,,,,,,,,,,,,,,,,,,,,,,,,,,,,,,,,,,,,,,,,,,,,,,,,,,,,,,,,,,,,,,,,,,,
,,613f88c021bff7b9502b98db,2024-01-05_23h41.32.551,kallum_motion_pilot,2023.2.3,Win32,59.88023952,613f88c021bff7b9502b98db,6598e6a5d84f07970b831e70,6598e78339833e045566f283,0.0481,0.0481,1,11,173,134,1,eightsix,,,,,,,,,,,,,,,,,,,,,,,,,,,,,,,,,,,,,,,,,,,,,,,,,,,,,,,,,,,,,,,,,,,,,,,,,,,,,,,,,,,,,,,,,,,,,,,,,,,,,,,,,,,,,,,,,,,,,,,,,,,,,,,,,,,,,,,
,,613f88c021bff7b9502b98db,2024-01-05_23h41.32.551,kallum_motion_pilot,2023.2.3,Win32,59.88023952,613f88c021bff7b9502b98db,6598e6a5d84f07970b831e70,6598e78339833e045566f283,0.0482,0.0482,1,12,174,67,1,twofour,,,,,,,,,,,,,,,,,,,,,,,,,,,,,,,,,,,,,,,,,,,,,,,,,,,,,,,,,,,,,,,,,,,,,,,,,,,,,,,,,,,,,,,,,,,,,,,,,,,,,,,,,,,,,,,,,,,,,,,,,,,,,,,,,,,,,,,
,,613f88c021bff7b9502b98db,2024-01-05_23h41.32.551,kallum_motion_pilot,2023.2.3,Win32,59.88023952,613f88c021bff7b9502b98db,6598e6a5d84f07970b831e70,6598e78339833e045566f283,0.0483,0.0484,1,13,175,74,1,twoone,,,,,,,,,,,,,,,,,,,,,,,,,,,,,,,,,,,,,,,,,,,,,,,,,,,,,,,,,,,,,,,,,,,,,,,,,,,,,,,,,,,,,,,,,,,,,,,,,,,,,,,,,,,,,,,,,,,,,,,,,,,,,,,,,,,,,,,
,,613f88c021bff7b9502b98db,2024-01-05_23h41.32.551,kallum_motion_pilot,2023.2.3,Win32,59.88023952,613f88c021bff7b9502b98db,6598e6a5d84f07970b831e70,6598e78339833e045566f283,0.0484,0.0484,1,14,176,14,1,fourtwo,,,,,,,,,,,,,,,,,,,,,,,,,,,,,,,,,,,,,,,,,,,,,,,,,,,,,,,,,,,,,,,,,,,,,,,,,,,,,,,,,,,,,,,,,,,,,,,,,,,,,,,,,,,,,,,,,,,,,,,,,,,,,,,,,,,,,,,
,,613f88c021bff7b9502b98db,2024-01-05_23h41.32.551,kallum_motion_pilot,2023.2.3,Win32,59.88023952,613f88c021bff7b9502b98db,6598e6a5d84f07970b831e70,6598e78339833e045566f283,0.0485,0.0485,1,15,177,80,1,fivesix,,,,,,,,,,,,,,,,,,,,,,,,,,,,,,,,,,,,,,,,,,,,,,,,,,,,,,,,,,,,,,,,,,,,,,,,,,,,,,,,,,,,,,,,,,,,,,,,,,,,,,,,,,,,,,,,,,,,,,,,,,,,,,,,,,,,,,,
,,613f88c021bff7b9502b98db,2024-01-05_23h41.32.551,kallum_motion_pilot,2023.2.3,Win32,59.88023952,613f88c021bff7b9502b98db,6598e6a5d84f07970b831e70,6598e78339833e045566f283,0.0485,0.0486,1,16,178,34,1,twoone,,,,,,,,,,,,,,,,,,,,,,,,,,,,,,,,,,,,,,,,,,,,,,,,,,,,,,,,,,,,,,,,,,,,,,,,,,,,,,,,,,,,,,,,,,,,,,,,,,,,,,,,,,,,,,,,,,,,,,,,,,,,,,,,,,,,,,,
,,613f88c021bff7b9502b98db,2024-01-05_23h41.32.551,kallum_motion_pilot,2023.2.3,Win32,59.88023952,613f88c021bff7b9502b98db,6598e6a5d84f07970b831e70,6598e78339833e045566f283,0.0486,0.0486,1,17,179,33,1,onethree,,,,,,,,,,,,,,,,,,,,,,,,,,,,,,,,,,,,,,,,,,,,,,,,,,,,,,,,,,,,,,,,,,,,,,,,,,,,,,,,,,,,,,,,,,,,,,,,,,,,,,,,,,,,,,,,,,,,,,,,,,,,,,,,,,,,,,,
,,613f88c021bff7b9502b98db,2024-01-05_23h41.32.551,kallum_motion_pilot,2023.2.3,Win32,59.88023952,613f88c021bff7b9502b98db,6598e6a5d84f07970b831e70,6598e78339833e045566f283,0.0487,0.0488,1,18,180,114,1,sixfive,,,,,,,,,,,,,,,,,,,,,,,,,,,,,,,,,,,,,,,,,,,,,,,,,,,,,,,,,,,,,,,,,,,,,,,,,,,,,,,,,,,,,,,,,,,,,,,,,,,,,,,,,,,,,,,,,,,,,,,,,,,,,,,,,,,,,,,
,,613f88c021bff7b9502b98db,2024-01-05_23h41.32.551,kallum_motion_pilot,2023.2.3,Win32,59.88023952,613f88c021bff7b9502b98db,6598e6a5d84f07970b831e70,6598e78339833e045566f283,0.0489,0.0489,1,19,181,84,1,sevenfive,,,,,,,,,,,,,,,,,,,,,,,,,,,,,,,,,,,,,,,,,,,,,,,,,,,,,,,,,,,,,,,,,,,,,,,,,,,,,,,,,,,,,,,,,,,,,,,,,,,,,,,,,,,,,,,,,,,,,,,,,,,,,,,,,,,,,,,
,,613f88c021bff7b9502b98db,2024-01-05_23h41.32.551,kallum_motion_pilot,2023.2.3,Win32,59.88023952,613f88c021bff7b9502b98db,6598e6a5d84f07970b831e70,6598e78339833e045566f283,0.0489,0.0489,1,20,182,36,1,threeone,,,,,,,,,,,,,,,,,,,,,,,,,,,,,,,,,,,,,,,,,,,,,,,,,,,,,,,,,,,,,,,,,,,,,,,,,,,,,,,,,,,,,,,,,,,,,,,,,,,,,,,,,,,,,,,,,,,,,,,,,,,,,,,,,,,,,,,
,,613f88c021bff7b9502b98db,2024-01-05_23h41.32.551,kallum_motion_pilot,2023.2.3,Win32,59.88023952,613f88c021bff7b9502b98db,6598e6a5d84f07970b831e70,6598e78339833e045566f283,0.049,0.049,1,21,183,105,1,fiveseven,,,,,,,,,,,,,,,,,,,,,,,,,,,,,,,,,,,,,,,,,,,,,,,,,,,,,,,,,,,,,,,,,,,,,,,,,,,,,,,,,,,,,,,,,,,,,,,,,,,,,,,,,,,,,,,,,,,,,,,,,,,,,,,,,,,,,,,
,,613f88c021bff7b9502b98db,2024-01-05_23h41.32.551,kallum_motion_pilot,2023.2.3,Win32,59.88023952,613f88c021bff7b9502b98db,6598e6a5d84f07970b831e70,6598e78339833e045566f283,0.0491,0.0491,1,22,184,149,1,seveneight,,,,,,,,,,,,,,,,,,,,,,,,,,,,,,,,,,,,,,,,,,,,,,,,,,,,,,,,,,,,,,,,,,,,,,,,,,,,,,,,,,,,,,,,,,,,,,,,,,,,,,,,,,,,,,,,,,,,,,,,,,,,,,,,,,,,,,,
,,613f88c021bff7b9502b98db,2024-01-05_23h41.32.551,kallum_motion_pilot,2023.2.3,Win32,59.88023952,613f88c021bff7b9502b98db,6598e6a5d84f07970b831e70,6598e78339833e045566f283,0.0491,0.0493,1,23,185,97,1,fiveseven,,,,,,,,,,,,,,,,,,,,,,,,,,,,,,,,,,,,,,,,,,,,,,,,,,,,,,,,,,,,,,,,,,,,,,,,,,,,,,,,,,,,,,,,,,,,,,,,,,,,,,,,,,,,,,,,,,,,,,,,,,,,,,,,,,,,,,,
,,613f88c021bff7b9502b98db,2024-01-05_23h41.32.551,kallum_motion_pilot,2023.2.3,Win32,59.88023952,613f88c021bff7b9502b98db,6598e6a5d84f07970b831e70,6598e78339833e045566f283,0.0493,0.0493,1,24,186,156,1,sevenfive,,,,,,,,,,,,,,,,,,,,,,,,,,,,,,,,,,,,,,,,,,,,,,,,,,,,,,,,,,,,,,,,,,,,,,,,,,,,,,,,,,,,,,,,,,,,,,,,,,,,,,,,,,,,,,,,,,,,,,,,,,,,,,,,,,,,,,,
,,613f88c021bff7b9502b98db,2024-01-05_23h41.32.551,kallum_motion_pilot,2023.2.3,Win32,59.88023952,613f88c021bff7b9502b98db,6598e6a5d84f07970b831e70,6598e78339833e045566f283,0.0496,0.0497,1,25,187,61,1,threefour,,,,,,,,,,,,,,,,,,,,,,,,,,,,,,,,,,,,,,,,,,,,,,,,,,,,,,,,,,,,,,,,,,,,,,,,,,,,,,,,,,,,,,,,,,,,,,,,,,,,,,,,,,,,,,,,,,,,,,,,,,,,,,,,,,,,,,,
,,613f88c021bff7b9502b98db,2024-01-05_23h41.32.551,kallum_motion_pilot,2023.2.3,Win32,59.88023952,613f88c021bff7b9502b98db,6598e6a5d84f07970b831e70,6598e78339833e045566f283,0.0498,0.0498,1,26,188,15,1,fourthree,,,,,,,,,,,,,,,,,,,,,,,,,,,,,,,,,,,,,,,,,,,,,,,,,,,,,,,,,,,,,,,,,,,,,,,,,,,,,,,,,,,,,,,,,,,,,,,,,,,,,,,,,,,,,,,,,,,,,,,,,,,,,,,,,,,,,,,
,,613f88c021bff7b9502b98db,2024-01-05_23h41.32.551,kallum_motion_pilot,2023.2.3,Win32,59.88023952,613f88c021bff7b9502b98db,6598e6a5d84f07970b831e70,6598e78339833e045566f283,0.0498,0.0499,1,27,189,143,1,eightseven,,,,,,,,,,,,,,,,,,,,,,,,,,,,,,,,,,,,,,,,,,,,,,,,,,,,,,,,,,,,,,,,,,,,,,,,,,,,,,,,,,,,,,,,,,,,,,,,,,,,,,,,,,,,,,,,,,,,,,,,,,,,,,,,,,,,,,,
,,613f88c021bff7b9502b98db,2024-01-05_23h41.32.551,kallum_motion_pilot,2023.2.3,Win32,59.88023952,613f88c021bff7b9502b98db,6598e6a5d84f07970b831e70,6598e78339833e045566f283,0.05,0.05,1,28,190,50,1,twoone,,,,,,,,,,,,,,,,,,,,,,,,,,,,,,,,,,,,,,,,,,,,,,,,,,,,,,,,,,,,,,,,,,,,,,,,,,,,,,,,,,,,,,,,,,,,,,,,,,,,,,,,,,,,,,,,,,,,,,,,,,,,,,,,,,,,,,,
,,613f88c021bff7b9502b98db,2024-01-05_23h41.32.551,kallum_motion_pilot,2023.2.3,Win32,59.88023952,613f88c021bff7b9502b98db,6598e6a5d84f07970b831e70,6598e78339833e045566f283,0.0501,0.0501,1,29,191,126,1,eightsix,,,,,,,,,,,,,,,,,,,,,,,,,,,,,,,,,,,,,,,,,,,,,,,,,,,,,,,,,,,,,,,,,,,,,,,,,,,,,,,,,,,,,,,,,,,,,,,,,,,,,,,,,,,,,,,,,,,,,,,,,,,,,,,,,,,,,,,
,,613f88c021bff7b9502b98db,2024-01-05_23h41.32.551,kallum_motion_pilot,2023.2.3,Win32,59.88023952,613f88c021bff7b9502b98db,6598e6a5d84f07970b831e70,6598e78339833e045566f283,0.0501,0.0502,1,30,192,13,1,threefour,,,,,,,,,,,,,,,,,,,,,,,,,,,,,,,,,,,,,,,,,,,,,,,,,,,,,,,,,,,,,,,,,,,,,,,,,,,,,,,,,,,,,,,,,,,,,,,,,,,,,,,,,,,,,,,,,,,,,,,,,,,,,,,,,,,,,,,
,,613f88c021bff7b9502b98db,2024-01-05_23h41.32.551,kallum_motion_pilot,2023.2.3,Win32,59.88023952,613f88c021bff7b9502b98db,6598e6a5d84f07970b831e70,6598e78339833e045566f283,0.0502,0.0503,1,31,193,151,1,eightseven,,,,,,,,,,,,,,,,,,,,,,,,,,,,,,,,,,,,,,,,,,,,,,,,,,,,,,,,,,,,,,,,,,,,,,,,,,,,,,,,,,,,,,,,,,,,,,,,,,,,,,,,,,,,,,,,,,,,,,,,,,,,,,,,,,,,,,,
,,613f88c021bff7b9502b98db,2024-01-05_23h41.32.551,kallum_motion_pilot,2023.2.3,Win32,59.88023952,613f88c021bff7b9502b98db,6598e6a5d84f07970b831e70,6598e78339833e045566f283,0.0503,0.0503,1,32,194,69,1,threefour,,,,,,,,,,,,,,,,,,,,,,,,,,,,,,,,,,,,,,,,,,,,,,,,,,,,,,,,,,,,,,,,,,,,,,,,,,,,,,,,,,,,,,,,,,,,,,,,,,,,,,,,,,,,,,,,,,,,,,,,,,,,,,,,,,,,,,,
,,613f88c021bff7b9502b98db,2024-01-05_23h41.32.551,kallum_motion_pilot,2023.2.3,Win32,59.88023952,613f88c021bff7b9502b98db,6598e6a5d84f07970b831e70,6598e78339833e045566f283,0.0504,0.0505,1,33,195,6,1,fourtwo,,,,,,,,,,,,,,,,,,,,,,,,,,,,,,,,,,,,,,,,,,,,,,,,,,,,,,,,,,,,,,,,,,,,,,,,,,,,,,,,,,,,,,,,,,,,,,,,,,,,,,,,,,,,,,,,,,,,,,,,,,,,,,,,,,,,,,,
,,613f88c021bff7b9502b98db,2024-01-05_23h41.32.551,kallum_motion_pilot,2023.2.3,Win32,59.88023952,613f88c021bff7b9502b98db,6598e6a5d84f07970b831e70,6598e78339833e045566f283,0.0505,0.0506,1,34,196,158,1,eightsix,,,,,,,,,,,,,,,,,,,,,,,,,,,,,,,,,,,,,,,,,,,,,,,,,,,,,,,,,,,,,,,,,,,,,,,,,,,,,,,,,,,,,,,,,,,,,,,,,,,,,,,,,,,,,,,,,,,,,,,,,,,,,,,,,,,,,,,
,,613f88c021bff7b9502b98db,2024-01-05_23h41.32.551,kallum_motion_pilot,2023.2.3,Win32,59.88023952,613f88c021bff7b9502b98db,6598e6a5d84f07970b831e70,6598e78339833e045566f283,0.0506,0.0506,1,35,197,133,1,seveneight,,,,,,,,,,,,,,,,,,,,,,,,,,,,,,,,,,,,,,,,,,,,,,,,,,,,,,,,,,,,,,,,,,,,,,,,,,,,,,,,,,,,,,,,,,,,,,,,,,,,,,,,,,,,,,,,,,,,,,,,,,,,,,,,,,,,,,,
,,613f88c021bff7b9502b98db,2024-01-05_23h41.32.551,kallum_motion_pilot,2023.2.3,Win32,59.88023952,613f88c021bff7b9502b98db,6598e6a5d84f07970b831e70,6598e78339833e045566f283,0.0506,0.0508,1,36,198,95,1,eightseven,,,,,,,,,,,,,,,,,,,,,,,,,,,,,,,,,,,,,,,,,,,,,,,,,,,,,,,,,,,,,,,,,,,,,,,,,,,,,,,,,,,,,,,,,,,,,,,,,,,,,,,,,,,,,,,,,,,,,,,,,,,,,,,,,,,,,,,
,,613f88c021bff7b9502b98db,2024-01-05_23h41.32.551,kallum_motion_pilot,2023.2.3,Win32,59.88023952,613f88c021bff7b9502b98db,6598e6a5d84f07970b831e70,6598e78339833e045566f283,0.0508,0.0509,1,37,199,155,1,sixeight,,,,,,,,,,,,,,,,,,,,,,,,,,,,,,,,,,,,,,,,,,,,,,,,,,,,,,,,,,,,,,,,,,,,,,,,,,,,,,,,,,,,,,,,,,,,,,,,,,,,,,,,,,,,,,,,,,,,,,,,,,,,,,,,,,,,,,,
,,613f88c021bff7b9502b98db,2024-01-05_23h41.32.551,kallum_motion_pilot,2023.2.3,Win32,59.88023952,613f88c021bff7b9502b98db,6598e6a5d84f07970b831e70,6598e78339833e045566f283,0.0509,0.0509,1,38,200,160,1,fivesix,,,,,,,,,,,,,,,,,,,,,,,,,,,,,,,,,,,,,,,,,,,,,,,,,,,,,,,,,,,,,,,,,,,,,,,,,,,,,,,,,,,,,,,,,,,,,,,,,,,,,,,,,,,,,,,,,,,,,,,,,,,,,,,,,,,,,,,
,,613f88c021bff7b9502b98db,2024-01-05_23h41.32.551,kallum_motion_pilot,2023.2.3,Win32,59.88023952,613f88c021bff7b9502b98db,6598e6a5d84f07970b831e70,6598e78339833e045566f283,0.0509,0.051,1,39,201,47,1,fourthree,,,,,,,,,,,,,,,,,,,,,,,,,,,,,,,,,,,,,,,,,,,,,,,,,,,,,,,,,,,,,,,,,,,,,,,,,,,,,,,,,,,,,,,,,,,,,,,,,,,,,,,,,,,,,,,,,,,,,,,,,,,,,,,,,,,,,,,
,,613f88c021bff7b9502b98db,2024-01-05_23h41.32.551,kallum_motion_pilot,2023.2.3,Win32,59.88023952,613f88c021bff7b9502b98db,6598e6a5d84f07970b831e70,6598e78339833e045566f283,0.051,0.0511,1,40,202,16,1,onetwo,,,,,,,,,,,,,,,,,,,,,,,,,,,,,,,,,,,,,,,,,,,,,,,,,,,,,,,,,,,,,,,,,,,,,,,,,,,,,,,,,,,,,,,,,,,,,,,,,,,,,,,,,,,,,,,,,,,,,,,,,,,,,,,,,,,,,,,
,,613f88c021bff7b9502b98db,2024-01-05_23h41.32.551,kallum_motion_pilot,2023.2.3,Win32,59.88023952,613f88c021bff7b9502b98db,6598e6a5d84f07970b831e70,6598e78339833e045566f283,0.0511,0.0511,1,41,203,161,1,fiveseven,,,,,,,,,,,,,,,,,,,,,,,,,,,,,,,,,,,,,,,,,,,,,,,,,,,,,,,,,,,,,,,,,,,,,,,,,,,,,,,,,,,,,,,,,,,,,,,,,,,,,,,,,,,,,,,,,,,,,,,,,,,,,,,,,,,,,,,
,,613f88c021bff7b9502b98db,2024-01-05_23h41.32.551,kallum_motion_pilot,2023.2.3,Win32,59.88023952,613f88c021bff7b9502b98db,6598e6a5d84f07970b831e70,6598e78339833e045566f283,0.0513,0.0513,1,42,204,148,1,sevenfive,,,,,,,,,,,,,,,,,,,,,,,,,,,,,,,,,,,,,,,,,,,,,,,,,,,,,,,,,,,,,,,,,,,,,,,,,,,,,,,,,,,,,,,,,,,,,,,,,,,,,,,,,,,,,,,,,,,,,,,,,,,,,,,,,,,,,,,
,,613f88c021bff7b9502b98db,2024-01-05_23h41.32.551,kallum_motion_pilot,2023.2.3,Win32,59.88023952,613f88c021bff7b9502b98db,6598e6a5d84f07970b831e70,6598e78339833e045566f283,0.0513,0.0513,1,43,205,28,1,threeone,,,,,,,,,,,,,,,,,,,,,,,,,,,,,,,,,,,,,,,,,,,,,,,,,,,,,,,,,,,,,,,,,,,,,,,,,,,,,,,,,,,,,,,,,,,,,,,,,,,,,,,,,,,,,,,,,,,,,,,,,,,,,,,,,,,,,,,
,,613f88c021bff7b9502b98db,2024-01-05_23h41.32.551,kallum_motion_pilot,2023.2.3,Win32,59.88023952,613f88c021bff7b9502b98db,6598e6a5d84f07970b831e70,6598e78339833e045566f283,0.0514,0.0515,1,44,206,125,1,seveneight,,,,,,,,,,,,,,,,,,,,,,,,,,,,,,,,,,,,,,,,,,,,,,,,,,,,,,,,,,,,,,,,,,,,,,,,,,,,,,,,,,,,,,,,,,,,,,,,,,,,,,,,,,,,,,,,,,,,,,,,,,,,,,,,,,,,,,,
,,613f88c021bff7b9502b98db,2024-01-05_23h41.32.551,kallum_motion_pilot,2023.2.3,Win32,59.88023952,613f88c021bff7b9502b98db,6598e6a5d84f07970b831e70,6598e78339833e045566f283,0.0515,0.0515,1,45,207,53,1,threefour,,,,,,,,,,,,,,,,,,,,,,,,,,,,,,,,,,,,,,,,,,,,,,,,,,,,,,,,,,,,,,,,,,,,,,,,,,,,,,,,,,,,,,,,,,,,,,,,,,,,,,,,,,,,,,,,,,,,,,,,,,,,,,,,,,,,,,,
,,613f88c021bff7b9502b98db,2024-01-05_23h41.32.551,kallum_motion_pilot,2023.2.3,Win32,59.88023952,613f88c021bff7b9502b98db,6598e6a5d84f07970b831e70,6598e78339833e045566f283,0.0516,0.0516,1,46,208,19,1,twofour,,,,,,,,,,,,,,,,,,,,,,,,,,,,,,,,,,,,,,,,,,,,,,,,,,,,,,,,,,,,,,,,,,,,,,,,,,,,,,,,,,,,,,,,,,,,,,,,,,,,,,,,,,,,,,,,,,,,,,,,,,,,,,,,,,,,,,,
,,613f88c021bff7b9502b98db,2024-01-05_23h41.32.551,kallum_motion_pilot,2023.2.3,Win32,59.88023952,613f88c021bff7b9502b98db,6598e6a5d84f07970b831e70,6598e78339833e045566f283,0.0516,0.0517,1,47,209,48,1,onetwo,,,,,,,,,,,,,,,,,,,,,,,,,,,,,,,,,,,,,,,,,,,,,,,,,,,,,,,,,,,,,,,,,,,,,,,,,,,,,,,,,,,,,,,,,,,,,,,,,,,,,,,,,,,,,,,,,,,,,,,,,,,,,,,,,,,,,,,
,,613f88c021bff7b9502b98db,2024-01-05_23h41.32.551,kallum_motion_pilot,2023.2.3,Win32,59.88023952,613f88c021bff7b9502b98db,6598e6a5d84f07970b831e70,6598e78339833e045566f283,0.0518,0.0518,1,48,210,130,1,sixfive,,,,,,,,,,,,,,,,,,,,,,,,,,,,,,,,,,,,,,,,,,,,,,,,,,,,,,,,,,,,,,,,,,,,,,,,,,,,,,,,,,,,,,,,,,,,,,,,,,,,,,,,,,,,,,,,,,,,,,,,,,,,,,,,,,,,,,,
,,613f88c021bff7b9502b98db,2024-01-05_23h41.32.551,kallum_motion_pilot,2023.2.3,Win32,59.88023952,613f88c021bff7b9502b98db,6598e6a5d84f07970b831e70,6598e78339833e045566f283,0.0519,0.0519,1,49,211,139,1,sixeight,,,,,,,,,,,,,,,,,,,,,,,,,,,,,,,,,,,,,,,,,,,,,,,,,,,,,,,,,,,,,,,,,,,,,,,,,,,,,,,,,,,,,,,,,,,,,,,,,,,,,,,,,,,,,,,,,,,,,,,,,,,,,,,,,,,,,,,
,,613f88c021bff7b9502b98db,2024-01-05_23h41.32.551,kallum_motion_pilot,2023.2.3,Win32,59.88023952,613f88c021bff7b9502b98db,6598e6a5d84f07970b831e70,6598e78339833e045566f283,0.0519,0.052,1,50,212,135,1,eightseven,,,,,,,,,,,,,,,,,,,,,,,,,,,,,,,,,,,,,,,,,,,,,,,,,,,,,,,,,,,,,,,,,,,,,,,,,,,,,,,,,,,,,,,,,,,,,,,,,,,,,,,,,,,,,,,,,,,,,,,,,,,,,,,,,,,,,,,
,,613f88c021bff7b9502b98db,2024-01-05_23h41.32.551,kallum_motion_pilot,2023.2.3,Win32,59.88023952,613f88c021bff7b9502b98db,6598e6a5d84f07970b831e70,6598e78339833e045566f283,0.052,0.0521,1,51,213,20,1,threeone,,,,,,,,,,,,,,,,,,,,,,,,,,,,,,,,,,,,,,,,,,,,,,,,,,,,,,,,,,,,,,,,,,,,,,,,,,,,,,,,,,,,,,,,,,,,,,,,,,,,,,,,,,,,,,,,,,,,,,,,,,,,,,,,,,,,,,,
,,613f88c021bff7b9502b98db,2024-01-05_23h41.32.551,kallum_motion_pilot,2023.2.3,Win32,59.88023952,613f88c021bff7b9502b98db,6598e6a5d84f07970b831e70,6598e78339833e045566f283,0.0522,0.0522,1,52,214,136,1,fivesix,,,,,,,,,,,,,,,,,,,,,,,,,,,,,,,,,,,,,,,,,,,,,,,,,,,,,,,,,,,,,,,,,,,,,,,,,,,,,,,,,,,,,,,,,,,,,,,,,,,,,,,,,,,,,,,,,,,,,,,,,,,,,,,,,,,,,,,
,,613f88c021bff7b9502b98db,2024-01-05_23h41.32.551,kallum_motion_pilot,2023.2.3,Win32,59.88023952,613f88c021bff7b9502b98db,6598e6a5d84f07970b831e70,6598e78339833e045566f283,0.0522,0.0523,1,53,215,154,1,sixfive,,,,,,,,,,,,,,,,,,,,,,,,,,,,,,,,,,,,,,,,,,,,,,,,,,,,,,,,,,,,,,,,,,,,,,,,,,,,,,,,,,,,,,,,,,,,,,,,,,,,,,,,,,,,,,,,,,,,,,,,,,,,,,,,,,,,,,,
,,613f88c021bff7b9502b98db,2024-01-05_23h41.32.551,kallum_motion_pilot,2023.2.3,Win32,59.88023952,613f88c021bff7b9502b98db,6598e6a5d84f07970b831e70,6598e78339833e045566f283,0.0523,0.0523,1,54,216,64,1,onetwo,,,,,,,,,,,,,,,,,,,,,,,,,,,,,,,,,,,,,,,,,,,,,,,,,,,,,,,,,,,,,,,,,,,,,,,,,,,,,,,,,,,,,,,,,,,,,,,,,,,,,,,,,,,,,,,,,,,,,,,,,,,,,,,,,,,,,,,
,,613f88c021bff7b9502b98db,2024-01-05_23h41.32.551,kallum_motion_pilot,2023.2.3,Win32,59.88023952,613f88c021bff7b9502b98db,6598e6a5d84f07970b831e70,6598e78339833e045566f283,0.0524,0.0524,1,55,217,98,1,sixfive,,,,,,,,,,,,,,,,,,,,,,,,,,,,,,,,,,,,,,,,,,,,,,,,,,,,,,,,,,,,,,,,,,,,,,,,,,,,,,,,,,,,,,,,,,,,,,,,,,,,,,,,,,,,,,,,,,,,,,,,,,,,,,,,,,,,,,,
,,613f88c021bff7b9502b98db,2024-01-05_23h41.32.551,kallum_motion_pilot,2023.2.3,Win32,59.88023952,613f88c021bff7b9502b98db,6598e6a5d84f07970b831e70,6598e78339833e045566f283,0.0524,0.0525,1,56,218,49,1,onethree,,,,,,,,,,,,,,,,,,,,,,,,,,,,,,,,,,,,,,,,,,,,,,,,,,,,,,,,,,,,,,,,,,,,,,,,,,,,,,,,,,,,,,,,,,,,,,,,,,,,,,,,,,,,,,,,,,,,,,,,,,,,,,,,,,,,,,,
,,613f88c021bff7b9502b98db,2024-01-05_23h41.32.551,kallum_motion_pilot,2023.2.3,Win32,59.88023952,613f88c021bff7b9502b98db,6598e6a5d84f07970b831e70,6598e78339833e045566f283,0.0525,0.0526,1,57,219,81,1,fiveseven,,,,,,,,,,,,,,,,,,,,,,,,,,,,,,,,,,,,,,,,,,,,,,,,,,,,,,,,,,,,,,,,,,,,,,,,,,,,,,,,,,,,,,,,,,,,,,,,,,,,,,,,,,,,,,,,,,,,,,,,,,,,,,,,,,,,,,,
,,613f88c021bff7b9502b98db,2024-01-05_23h41.32.551,kallum_motion_pilot,2023.2.3,Win32,59.88023952,613f88c021bff7b9502b98db,6598e6a5d84f07970b831e70,6598e78339833e045566f283,0.0527,0.0528,1,58,220,102,1,eightsix,,,,,,,,,,,,,,,,,,,,,,,,,,,,,,,,,,,,,,,,,,,,,,,,,,,,,,,,,,,,,,,,,,,,,,,,,,,,,,,,,,,,,,,,,,,,,,,,,,,,,,,,,,,,,,,,,,,,,,,,,,,,,,,,,,,,,,,
,,613f88c021bff7b9502b98db,2024-01-05_23h41.32.551,kallum_motion_pilot,2023.2.3,Win32,59.88023952,613f88c021bff7b9502b98db,6598e6a5d84f07970b831e70,6598e78339833e045566f283,0.0528,0.0529,1,59,221,31,1,fourthree,,,,,,,,,,,,,,,,,,,,,,,,,,,,,,,,,,,,,,,,,,,,,,,,,,,,,,,,,,,,,,,,,,,,,,,,,,,,,,,,,,,,,,,,,,,,,,,,,,,,,,,,,,,,,,,,,,,,,,,,,,,,,,,,,,,,,,,
,,613f88c021bff7b9502b98db,2024-01-05_23h41.32.551,kallum_motion_pilot,2023.2.3,Win32,59.88023952,613f88c021bff7b9502b98db,6598e6a5d84f07970b831e70,6598e78339833e045566f283,0.0529,0.053,1,60,222,58,1,twoone,,,,,,,,,,,,,,,,,,,,,,,,,,,,,,,,,,,,,,,,,,,,,,,,,,,,,,,,,,,,,,,,,,,,,,,,,,,,,,,,,,,,,,,,,,,,,,,,,,,,,,,,,,,,,,,,,,,,,,,,,,,,,,,,,,,,,,,
,,613f88c021bff7b9502b98db,2024-01-05_23h41.32.551,kallum_motion_pilot,2023.2.3,Win32,59.88023952,613f88c021bff7b9502b98db,6598e6a5d84f07970b831e70,6598e78339833e045566f283,0.053,0.0531,1,61,223,54,1,fourtwo,,,,,,,,,,,,,,,,,,,,,,,,,,,,,,,,,,,,,,,,,,,,,,,,,,,,,,,,,,,,,,,,,,,,,,,,,,,,,,,,,,,,,,,,,,,,,,,,,,,,,,,,,,,,,,,,,,,,,,,,,,,,,,,,,,,,,,,
,,613f88c021bff7b9502b98db,2024-01-05_23h41.32.551,kallum_motion_pilot,2023.2.3,Win32,59.88023952,613f88c021bff7b9502b98db,6598e6a5d84f07970b831e70,6598e78339833e045566f283,0.0532,0.0532,1,62,224,91,1,sixeight,,,,,,,,,,,,,,,,,,,,,,,,,,,,,,,,,,,,,,,,,,,,,,,,,,,,,,,,,,,,,,,,,,,,,,,,,,,,,,,,,,,,,,,,,,,,,,,,,,,,,,,,,,,,,,,,,,,,,,,,,,,,,,,,,,,,,,,
,,613f88c021bff7b9502b98db,2024-01-05_23h41.32.551,kallum_motion_pilot,2023.2.3,Win32,59.88023952,613f88c021bff7b9502b98db,6598e6a5d84f07970b831e70,6598e78339833e045566f283,0.0532,0.0532,1,63,225,57,1,onethree,,,,,,,,,,,,,,,,,,,,,,,,,,,,,,,,,,,,,,,,,,,,,,,,,,,,,,,,,,,,,,,,,,,,,,,,,,,,,,,,,,,,,,,,,,,,,,,,,,,,,,,,,,,,,,,,,,,,,,,,,,,,,,,,,,,,,,,
,,613f88c021bff7b9502b98db,2024-01-05_23h41.32.551,kallum_motion_pilot,2023.2.3,Win32,59.88023952,613f88c021bff7b9502b98db,6598e6a5d84f07970b831e70,6598e78339833e045566f283,0.0533,0.0533,1,64,226,59,1,twofour,,,,,,,,,,,,,,,,,,,,,,,,,,,,,,,,,,,,,,,,,,,,,,,,,,,,,,,,,,,,,,,,,,,,,,,,,,,,,,,,,,,,,,,,,,,,,,,,,,,,,,,,,,,,,,,,,,,,,,,,,,,,,,,,,,,,,,,
,,613f88c021bff7b9502b98db,2024-01-05_23h41.32.551,kallum_motion_pilot,2023.2.3,Win32,59.88023952,613f88c021bff7b9502b98db,6598e6a5d84f07970b831e70,6598e78339833e045566f283,0.0534,0.0534,1,65,227,63,1,fourthree,,,,,,,,,,,,,,,,,,,,,,,,,,,,,,,,,,,,,,,,,,,,,,,,,,,,,,,,,,,,,,,,,,,,,,,,,,,,,,,,,,,,,,,,,,,,,,,,,,,,,,,,,,,,,,,,,,,,,,,,,,,,,,,,,,,,,,,
,,613f88c021bff7b9502b98db,2024-01-05_23h41.32.551,kallum_motion_pilot,2023.2.3,Win32,59.88023952,613f88c021bff7b9502b98db,6598e6a5d84f07970b831e70,6598e78339833e045566f283,0.0535,0.0535,1,66,228,150,1,eightsix,,,,,,,,,,,,,,,,,,,,,,,,,,,,,,,,,,,,,,,,,,,,,,,,,,,,,,,,,,,,,,,,,,,,,,,,,,,,,,,,,,,,,,,,,,,,,,,,,,,,,,,,,,,,,,,,,,,,,,,,,,,,,,,,,,,,,,,
,,613f88c021bff7b9502b98db,2024-01-05_23h41.32.551,kallum_motion_pilot,2023.2.3,Win32,59.88023952,613f88c021bff7b9502b98db,6598e6a5d84f07970b831e70,6598e78339833e045566f283,0.0536,0.0537,1,67,229,137,1,fiveseven,,,,,,,,,,,,,,,,,,,,,,,,,,,,,,,,,,,,,,,,,,,,,,,,,,,,,,,,,,,,,,,,,,,,,,,,,,,,,,,,,,,,,,,,,,,,,,,,,,,,,,,,,,,,,,,,,,,,,,,,,,,,,,,,,,,,,,,
,,613f88c021bff7b9502b98db,2024-01-05_23h41.32.551,kallum_motion_pilot,2023.2.3,Win32,59.88023952,613f88c021bff7b9502b98db,6598e6a5d84f07970b831e70,6598e78339833e045566f283,0.0537,0.0538,1,68,230,100,1,sevenfive,,,,,,,,,,,,,,,,,,,,,,,,,,,,,,,,,,,,,,,,,,,,,,,,,,,,,,,,,,,,,,,,,,,,,,,,,,,,,,,,,,,,,,,,,,,,,,,,,,,,,,,,,,,,,,,,,,,,,,,,,,,,,,,,,,,,,,,
,,613f88c021bff7b9502b98db,2024-01-05_23h41.32.551,kallum_motion_pilot,2023.2.3,Win32,59.88023952,613f88c021bff7b9502b98db,6598e6a5d84f07970b831e70,6598e78339833e045566f283,0.0538,0.0538,1,69,231,99,1,sixeight,,,,,,,,,,,,,,,,,,,,,,,,,,,,,,,,,,,,,,,,,,,,,,,,,,,,,,,,,,,,,,,,,,,,,,,,,,,,,,,,,,,,,,,,,,,,,,,,,,,,,,,,,,,,,,,,,,,,,,,,,,,,,,,,,,,,,,,
,,613f88c021bff7b9502b98db,2024-01-05_23h41.32.551,kallum_motion_pilot,2023.2.3,Win32,59.88023952,613f88c021bff7b9502b98db,6598e6a5d84f07970b831e70,6598e78339833e045566f283,0.0539,0.054,1,70,232,104,1,fivesix,,,,,,,,,,,,,,,,,,,,,,,,,,,,,,,,,,,,,,,,,,,,,,,,,,,,,,,,,,,,,,,,,,,,,,,,,,,,,,,,,,,,,,,,,,,,,,,,,,,,,,,,,,,,,,,,,,,,,,,,,,,,,,,,,,,,,,,
,,613f88c021bff7b9502b98db,2024-01-05_23h41.32.551,kallum_motion_pilot,2023.2.3,Win32,59.88023952,613f88c021bff7b9502b98db,6598e6a5d84f07970b831e70,6598e78339833e045566f283,0.054,0.0542,1,71,233,86,1,eightsix,,,,,,,,,,,,,,,,,,,,,,,,,,,,,,,,,,,,,,,,,,,,,,,,,,,,,,,,,,,,,,,,,,,,,,,,,,,,,,,,,,,,,,,,,,,,,,,,,,,,,,,,,,,,,,,,,,,,,,,,,,,,,,,,,,,,,,,
,,613f88c021bff7b9502b98db,2024-01-05_23h41.32.551,kallum_motion_pilot,2023.2.3,Win32,59.88023952,613f88c021bff7b9502b98db,6598e6a5d84f07970b831e70,6598e78339833e045566f283,0.0545,0.0547,1,72,234,107,1,sixeight,,,,,,,,,,,,,,,,,,,,,,,,,,,,,,,,,,,,,,,,,,,,,,,,,,,,,,,,,,,,,,,,,,,,,,,,,,,,,,,,,,,,,,,,,,,,,,,,,,,,,,,,,,,,,,,,,,,,,,,,,,,,,,,,,,,,,,,
,,613f88c021bff7b9502b98db,2024-01-05_23h41.32.551,kallum_motion_pilot,2023.2.3,Win32,59.88023952,613f88c021bff7b9502b98db,6598e6a5d84f07970b831e70,6598e78339833e045566f283,0.0549,0.055,1,73,235,83,1,sixeight,,,,,,,,,,,,,,,,,,,,,,,,,,,,,,,,,,,,,,,,,,,,,,,,,,,,,,,,,,,,,,,,,,,,,,,,,,,,,,,,,,,,,,,,,,,,,,,,,,,,,,,,,,,,,,,,,,,,,,,,,,,,,,,,,,,,,,,
,,613f88c021bff7b9502b98db,2024-01-05_23h41.32.551,kallum_motion_pilot,2023.2.3,Win32,59.88023952,613f88c021bff7b9502b98db,6598e6a5d84f07970b831e70,6598e78339833e045566f283,0.0551,0.0553,1,74,236,71,1,fourthree,,,,,,,,,,,,,,,,,,,,,,,,,,,,,,,,,,,,,,,,,,,,,,,,,,,,,,,,,,,,,,,,,,,,,,,,,,,,,,,,,,,,,,,,,,,,,,,,,,,,,,,,,,,,,,,,,,,,,,,,,,,,,,,,,,,,,,,
,,613f88c021bff7b9502b98db,2024-01-05_23h41.32.551,kallum_motion_pilot,2023.2.3,Win32,59.88023952,613f88c021bff7b9502b98db,6598e6a5d84f07970b831e70,6598e78339833e045566f283,0.0555,0.0556,1,75,237,146,1,sixfive,,,,,,,,,,,,,,,,,,,,,,,,,,,,,,,,,,,,,,,,,,,,,,,,,,,,,,,,,,,,,,,,,,,,,,,,,,,,,,,,,,,,,,,,,,,,,,,,,,,,,,,,,,,,,,,,,,,,,,,,,,,,,,,,,,,,,,,
,,613f88c021bff7b9502b98db,2024-01-05_23h41.32.551,kallum_motion_pilot,2023.2.3,Win32,59.88023952,613f88c021bff7b9502b98db,6598e6a5d84f07970b831e70,6598e78339833e045566f283,0.0559,0.056,1,76,238,124,1,sevenfive,,,,,,,,,,,,,,,,,,,,,,,,,,,,,,,,,,,,,,,,,,,,,,,,,,,,,,,,,,,,,,,,,,,,,,,,,,,,,,,,,,,,,,,,,,,,,,,,,,,,,,,,,,,,,,,,,,,,,,,,,,,,,,,,,,,,,,,
,,613f88c021bff7b9502b98db,2024-01-05_23h41.32.551,kallum_motion_pilot,2023.2.3,Win32,59.88023952,613f88c021bff7b9502b98db,6598e6a5d84f07970b831e70,6598e78339833e045566f283,0.0562,0.0565,1,77,239,94,1,eightsix,,,,,,,,,,,,,,,,,,,,,,,,,,,,,,,,,,,,,,,,,,,,,,,,,,,,,,,,,,,,,,,,,,,,,,,,,,,,,,,,,,,,,,,,,,,,,,,,,,,,,,,,,,,,,,,,,,,,,,,,,,,,,,,,,,,,,,,
,,613f88c021bff7b9502b98db,2024-01-05_23h41.32.551,kallum_motion_pilot,2023.2.3,Win32,59.88023952,613f88c021bff7b9502b98db,6598e6a5d84f07970b831e70,6598e78339833e045566f283,0.0568,0.057,1,78,240,79,1,eightseven,,,,,,,,,,,,,,,,,,,,,,,,,,,,,,,,,,,,,,,,,,,,,,,,,,,,,,,,,,,,,,,,,,,,,,,,,,,,,,,,,,,,,,,,,,,,,,,,,,,,,,,,,,,,,,,,,,,,,,,,,,,,,,,,,,,,,,,
,,613f88c021bff7b9502b98db,2024-01-05_23h41.32.551,kallum_motion_pilot,2023.2.3,Win32,59.88023952,613f88c021bff7b9502b98db,6598e6a5d84f07970b831e70,6598e78339833e045566f283,0.0571,0.0572,1,79,241,2,1,twoone,,,,,,,,,,,,,,,,,,,,,,,,,,,,,,,,,,,,,,,,,,,,,,,,,,,,,,,,,,,,,,,,,,,,,,,,,,,,,,,,,,,,,,,,,,,,,,,,,,,,,,,,,,,,,,,,,,,,,,,,,,,,,,,,,,,,,,,
,,613f88c021bff7b9502b98db,2024-01-05_23h41.32.551,kallum_motion_pilot,2023.2.3,Win32,59.88023952,613f88c021bff7b9502b98db,6598e6a5d84f07970b831e70,6598e78339833e045566f283,0.0574,0.0575,1,80,242,140,1,sevenfive,,,,,,,,,,,,,,,,,,,,,,,,,,,,,,,,,,,,,,,,,,,,,,,,,,,,,,,,,,,,,,,,,,,,,,,,,,,,,,,,,,,,,,,,,,,,,,,,,,,,,,,,,,,,,,,,,,,,,,,,,,,,,,,,,,,,,,,
,,613f88c021bff7b9502b98db,2024-01-05_23h41.32.551,kallum_motion_pilot,2023.2.3,Win32,59.88023952,613f88c021bff7b9502b98db,6598e6a5d84f07970b831e70,6598e78339833e045566f283,0.0575,0.0577,1,81,243,72,1,onetwo,,,,,,,,,,,,,,,,,,,,,,,,,,,,,,,,,,,,,,,,,,,,,,,,,,,,,,,,,,,,,,,,,,,,,,,,,,,,,,,,,,,,,,,,,,,,,,,,,,,,,,,,,,,,,,,,,,,,,,,,,,,,,,,,,,,,,,,
,,613f88c021bff7b9502b98db,2024-01-05_23h41.32.551,kallum_motion_pilot,2023.2.3,Win32,59.88023952,613f88c021bff7b9502b98db,6598e6a5d84f07970b831e70,6598e78339833e045566f283,0.0577,0.0578,1,82,244,30,1,fourtwo,,,,,,,,,,,,,,,,,,,,,,,,,,,,,,,,,,,,,,,,,,,,,,,,,,,,,,,,,,,,,,,,,,,,,,,,,,,,,,,,,,,,,,,,,,,,,,,,,,,,,,,,,,,,,,,,,,,,,,,,,,,,,,,,,,,,,,,
,,613f88c021bff7b9502b98db,2024-01-05_23h41.32.551,kallum_motion_pilot,2023.2.3,Win32,59.88023952,613f88c021bff7b9502b98db,6598e6a5d84f07970b831e70,6598e78339833e045566f283,0.0579,0.058,1,83,245,101,1,seveneight,,,,,,,,,,,,,,,,,,,,,,,,,,,,,,,,,,,,,,,,,,,,,,,,,,,,,,,,,,,,,,,,,,,,,,,,,,,,,,,,,,,,,,,,,,,,,,,,,,,,,,,,,,,,,,,,,,,,,,,,,,,,,,,,,,,,,,,
,,613f88c021bff7b9502b98db,2024-01-05_23h41.32.551,kallum_motion_pilot,2023.2.3,Win32,59.88023952,613f88c021bff7b9502b98db,6598e6a5d84f07970b831e70,6598e78339833e045566f283,0.058,0.0581,1,84,246,43,1,twofour,,,,,,,,,,,,,,,,,,,,,,,,,,,,,,,,,,,,,,,,,,,,,,,,,,,,,,,,,,,,,,,,,,,,,,,,,,,,,,,,,,,,,,,,,,,,,,,,,,,,,,,,,,,,,,,,,,,,,,,,,,,,,,,,,,,,,,,
,,613f88c021bff7b9502b98db,2024-01-05_23h41.32.551,kallum_motion_pilot,2023.2.3,Win32,59.88023952,613f88c021bff7b9502b98db,6598e6a5d84f07970b831e70,6598e78339833e045566f283,0.0582,0.0582,1,85,247,121,1,fiveseven,,,,,,,,,,,,,,,,,,,,,,,,,,,,,,,,,,,,,,,,,,,,,,,,,,,,,,,,,,,,,,,,,,,,,,,,,,,,,,,,,,,,,,,,,,,,,,,,,,,,,,,,,,,,,,,,,,,,,,,,,,,,,,,,,,,,,,,
,,613f88c021bff7b9502b98db,2024-01-05_23h41.32.551,kallum_motion_pilot,2023.2.3,Win32,59.88023952,613f88c021bff7b9502b98db,6598e6a5d84f07970b831e70,6598e78339833e045566f283,0.0583,0.0584,1,86,248,113,1,fiveseven,,,,,,,,,,,,,,,,,,,,,,,,,,,,,,,,,,,,,,,,,,,,,,,,,,,,,,,,,,,,,,,,,,,,,,,,,,,,,,,,,,,,,,,,,,,,,,,,,,,,,,,,,,,,,,,,,,,,,,,,,,,,,,,,,,,,,,,
,,613f88c021bff7b9502b98db,2024-01-05_23h41.32.551,kallum_motion_pilot,2023.2.3,Win32,59.88023952,613f88c021bff7b9502b98db,6598e6a5d84f07970b831e70,6598e78339833e045566f283,0.0585,0.0585,1,87,249,128,1,fivesix,,,,,,,,,,,,,,,,,,,,,,,,,,,,,,,,,,,,,,,,,,,,,,,,,,,,,,,,,,,,,,,,,,,,,,,,,,,,,,,,,,,,,,,,,,,,,,,,,,,,,,,,,,,,,,,,,,,,,,,,,,,,,,,,,,,,,,,
,,613f88c021bff7b9502b98db,2024-01-05_23h41.32.551,kallum_motion_pilot,2023.2.3,Win32,59.88023952,613f88c021bff7b9502b98db,6598e6a5d84f07970b831e70,6598e78339833e045566f283,0.0586,0.0587,1,88,250,39,1,fourthree,,,,,,,,,,,,,,,,,,,,,,,,,,,,,,,,,,,,,,,,,,,,,,,,,,,,,,,,,,,,,,,,,,,,,,,,,,,,,,,,,,,,,,,,,,,,,,,,,,,,,,,,,,,,,,,,,,,,,,,,,,,,,,,,,,,,,,,
,,613f88c021bff7b9502b98db,2024-01-05_23h41.32.551,kallum_motion_pilot,2023.2.3,Win32,59.88023952,613f88c021bff7b9502b98db,6598e6a5d84f07970b831e70,6598e78339833e045566f283,0.0588,0.0589,1,89,251,115,1,sixeight,,,,,,,,,,,,,,,,,,,,,,,,,,,,,,,,,,,,,,,,,,,,,,,,,,,,,,,,,,,,,,,,,,,,,,,,,,,,,,,,,,,,,,,,,,,,,,,,,,,,,,,,,,,,,,,,,,,,,,,,,,,,,,,,,,,,,,,
,,613f88c021bff7b9502b98db,2024-01-05_23h41.32.551,kallum_motion_pilot,2023.2.3,Win32,59.88023952,613f88c021bff7b9502b98db,6598e6a5d84f07970b831e70,6598e78339833e045566f283,0.059,0.0591,1,90,252,96,1,fivesix,,,,,,,,,,,,,,,,,,,,,,,,,,,,,,,,,,,,,,,,,,,,,,,,,,,,,,,,,,,,,,,,,,,,,,,,,,,,,,,,,,,,,,,,,,,,,,,,,,,,,,,,,,,,,,,,,,,,,,,,,,,,,,,,,,,,,,,
,,613f88c021bff7b9502b98db,2024-01-05_23h41.32.551,kallum_motion_pilot,2023.2.3,Win32,59.88023952,613f88c021bff7b9502b98db,6598e6a5d84f07970b831e70,6598e78339833e045566f283,0.0591,0.0592,1,91,253,147,1,sixeight,,,,,,,,,,,,,,,,,,,,,,,,,,,,,,,,,,,,,,,,,,,,,,,,,,,,,,,,,,,,,,,,,,,,,,,,,,,,,,,,,,,,,,,,,,,,,,,,,,,,,,,,,,,,,,,,,,,,,,,,,,,,,,,,,,,,,,,
,,613f88c021bff7b9502b98db,2024-01-05_23h41.32.551,kallum_motion_pilot,2023.2.3,Win32,59.88023952,613f88c021bff7b9502b98db,6598e6a5d84f07970b831e70,6598e78339833e045566f283,0.0593,0.0593,1,92,254,142,1,eightsix,,,,,,,,,,,,,,,,,,,,,,,,,,,,,,,,,,,,,,,,,,,,,,,,,,,,,,,,,,,,,,,,,,,,,,,,,,,,,,,,,,,,,,,,,,,,,,,,,,,,,,,,,,,,,,,,,,,,,,,,,,,,,,,,,,,,,,,
,,613f88c021bff7b9502b98db,2024-01-05_23h41.32.551,kallum_motion_pilot,2023.2.3,Win32,59.88023952,613f88c021bff7b9502b98db,6598e6a5d84f07970b831e70,6598e78339833e045566f283,0.0594,0.0595,1,93,255,119,1,eightseven,,,,,,,,,,,,,,,,,,,,,,,,,,,,,,,,,,,,,,,,,,,,,,,,,,,,,,,,,,,,,,,,,,,,,,,,,,,,,,,,,,,,,,,,,,,,,,,,,,,,,,,,,,,,,,,,,,,,,,,,,,,,,,,,,,,,,,,
,,613f88c021bff7b9502b98db,2024-01-05_23h41.32.551,kallum_motion_pilot,2023.2.3,Win32,59.88023952,613f88c021bff7b9502b98db,6598e6a5d84f07970b831e70,6598e78339833e045566f283,0.0596,0.0598,1,94,256,75,1,twofour,,,,,,,,,,,,,,,,,,,,,,,,,,,,,,,,,,,,,,,,,,,,,,,,,,,,,,,,,,,,,,,,,,,,,,,,,,,,,,,,,,,,,,,,,,,,,,,,,,,,,,,,,,,,,,,,,,,,,,,,,,,,,,,,,,,,,,,
,,613f88c021bff7b9502b98db,2024-01-05_23h41.32.551,kallum_motion_pilot,2023.2.3,Win32,59.88023952,613f88c021bff7b9502b98db,6598e6a5d84f07970b831e70,6598e78339833e045566f283,0.0598,0.0599,1,95,257,17,1,onethree,,,,,,,,,,,,,,,,,,,,,,,,,,,,,,,,,,,,,,,,,,,,,,,,,,,,,,,,,,,,,,,,,,,,,,,,,,,,,,,,,,,,,,,,,,,,,,,,,,,,,,,,,,,,,,,,,,,,,,,,,,,,,,,,,,,,,,,
,,613f88c021bff7b9502b98db,2024-01-05_23h41.32.551,kallum_motion_pilot,2023.2.3,Win32,59.88023952,613f88c021bff7b9502b98db,6598e6a5d84f07970b831e70,6598e78339833e045566f283,0.06,0.0601,1,96,258,152,1,fivesix,,,,,,,,,,,,,,,,,,,,,,,,,,,,,,,,,,,,,,,,,,,,,,,,,,,,,,,,,,,,,,,,,,,,,,,,,,,,,,,,,,,,,,,,,,,,,,,,,,,,,,,,,,,,,,,,,,,,,,,,,,,,,,,,,,,,,,,
,,613f88c021bff7b9502b98db,2024-01-05_23h41.32.551,kallum_motion_pilot,2023.2.3,Win32,59.88023952,613f88c021bff7b9502b98db,6598e6a5d84f07970b831e70,6598e78339833e045566f283,0.0601,0.0603,1,97,259,18,1,twoone,,,,,,,,,,,,,,,,,,,,,,,,,,,,,,,,,,,,,,,,,,,,,,,,,,,,,,,,,,,,,,,,,,,,,,,,,,,,,,,,,,,,,,,,,,,,,,,,,,,,,,,,,,,,,,,,,,,,,,,,,,,,,,,,,,,,,,,
,,613f88c021bff7b9502b98db,2024-01-05_23h41.32.551,kallum_motion_pilot,2023.2.3,Win32,59.88023952,613f88c021bff7b9502b98db,6598e6a5d84f07970b831e70,6598e78339833e045566f283,0.0603,0.0604,1,98,260,26,1,twoone,,,,,,,,,,,,,,,,,,,,,,,,,,,,,,,,,,,,,,,,,,,,,,,,,,,,,,,,,,,,,,,,,,,,,,,,,,,,,,,,,,,,,,,,,,,,,,,,,,,,,,,,,,,,,,,,,,,,,,,,,,,,,,,,,,,,,,,
,,613f88c021bff7b9502b98db,2024-01-05_23h41.32.551,kallum_motion_pilot,2023.2.3,Win32,59.88023952,613f88c021bff7b9502b98db,6598e6a5d84f07970b831e70,6598e78339833e045566f283,0.0604,0.0606,1,99,261,52,1,threeone,,,,,,,,,,,,,,,,,,,,,,,,,,,,,,,,,,,,,,,,,,,,,,,,,,,,,,,,,,,,,,,,,,,,,,,,,,,,,,,,,,,,,,,,,,,,,,,,,,,,,,,,,,,,,,,,,,,,,,,,,,,,,,,,,,,,,,,
,,613f88c021bff7b9502b98db,2024-01-05_23h41.32.551,kallum_motion_pilot,2023.2.3,Win32,59.88023952,613f88c021bff7b9502b98db,6598e6a5d84f07970b831e70,6598e78339833e045566f283,0.0606,0.0607,1,100,262,10,1,twoone,,,,,,,,,,,,,,,,,,,,,,,,,,,,,,,,,,,,,,,,,,,,,,,,,,,,,,,,,,,,,,,,,,,,,,,,,,,,,,,,,,,,,,,,,,,,,,,,,,,,,,,,,,,,,,,,,,,,,,,,,,,,,,,,,,,,,,,
,,613f88c021bff7b9502b98db,2024-01-05_23h41.32.551,kallum_motion_pilot,2023.2.3,Win32,59.88023952,613f88c021bff7b9502b98db,6598e6a5d84f07970b831e70,6598e78339833e045566f283,0.0607,0.0608,1,101,263,131,1,sixeight,,,,,,,,,,,,,,,,,,,,,,,,,,,,,,,,,,,,,,,,,,,,,,,,,,,,,,,,,,,,,,,,,,,,,,,,,,,,,,,,,,,,,,,,,,,,,,,,,,,,,,,,,,,,,,,,,,,,,,,,,,,,,,,,,,,,,,,
,,613f88c021bff7b9502b98db,2024-01-05_23h41.32.551,kallum_motion_pilot,2023.2.3,Win32,59.88023952,613f88c021bff7b9502b98db,6598e6a5d84f07970b831e70,6598e78339833e045566f283,0.0609,0.0611,1,102,264,41,1,onethree,,,,,,,,,,,,,,,,,,,,,,,,,,,,,,,,,,,,,,,,,,,,,,,,,,,,,,,,,,,,,,,,,,,,,,,,,,,,,,,,,,,,,,,,,,,,,,,,,,,,,,,,,,,,,,,,,,,,,,,,,,,,,,,,,,,,,,,
,,613f88c021bff7b9502b98db,2024-01-05_23h41.32.551,kallum_motion_pilot,2023.2.3,Win32,59.88023952,613f88c021bff7b9502b98db,6598e6a5d84f07970b831e70,6598e78339833e045566f283,0.0611,0.0612,1,103,265,7,1,fourthree,,,,,,,,,,,,,,,,,,,,,,,,,,,,,,,,,,,,,,,,,,,,,,,,,,,,,,,,,,,,,,,,,,,,,,,,,,,,,,,,,,,,,,,,,,,,,,,,,,,,,,,,,,,,,,,,,,,,,,,,,,,,,,,,,,,,,,,
,,613f88c021bff7b9502b98db,2024-01-05_23h41.32.551,kallum_motion_pilot,2023.2.3,Win32,59.88023952,613f88c021bff7b9502b98db,6598e6a5d84f07970b831e70,6598e78339833e045566f283,0.0612,0.0613,1,104,266,110,1,eightsix,,,,,,,,,,,,,,,,,,,,,,,,,,,,,,,,,,,,,,,,,,,,,,,,,,,,,,,,,,,,,,,,,,,,,,,,,,,,,,,,,,,,,,,,,,,,,,,,,,,,,,,,,,,,,,,,,,,,,,,,,,,,,,,,,,,,,,,
,,613f88c021bff7b9502b98db,2024-01-05_23h41.32.551,kallum_motion_pilot,2023.2.3,Win32,59.88023952,613f88c021bff7b9502b98db,6598e6a5d84f07970b831e70,6598e78339833e045566f283,0.0614,0.0615,1,105,267,11,1,twofour,,,,,,,,,,,,,,,,,,,,,,,,,,,,,,,,,,,,,,,,,,,,,,,,,,,,,,,,,,,,,,,,,,,,,,,,,,,,,,,,,,,,,,,,,,,,,,,,,,,,,,,,,,,,,,,,,,,,,,,,,,,,,,,,,,,,,,,
,,613f88c021bff7b9502b98db,2024-01-05_23h41.32.551,kallum_motion_pilot,2023.2.3,Win32,59.88023952,613f88c021bff7b9502b98db,6598e6a5d84f07970b831e70,6598e78339833e045566f283,0.0615,0.0616,1,106,268,51,1,twofour,,,,,,,,,,,,,,,,,,,,,,,,,,,,,,,,,,,,,,,,,,,,,,,,,,,,,,,,,,,,,,,,,,,,,,,,,,,,,,,,,,,,,,,,,,,,,,,,,,,,,,,,,,,,,,,,,,,,,,,,,,,,,,,,,,,,,,,
,,613f88c021bff7b9502b98db,2024-01-05_23h41.32.551,kallum_motion_pilot,2023.2.3,Win32,59.88023952,613f88c021bff7b9502b98db,6598e6a5d84f07970b831e70,6598e78339833e045566f283,0.0617,0.0618,1,107,269,93,1,seveneight,,,,,,,,,,,,,,,,,,,,,,,,,,,,,,,,,,,,,,,,,,,,,,,,,,,,,,,,,,,,,,,,,,,,,,,,,,,,,,,,,,,,,,,,,,,,,,,,,,,,,,,,,,,,,,,,,,,,,,,,,,,,,,,,,,,,,,,
,,613f88c021bff7b9502b98db,2024-01-05_23h41.32.551,kallum_motion_pilot,2023.2.3,Win32,59.88023952,613f88c021bff7b9502b98db,6598e6a5d84f07970b831e70,6598e78339833e045566f283,0.0618,0.062,1,108,270,35,1,twofour,,,,,,,,,,,,,,,,,,,,,,,,,,,,,,,,,,,,,,,,,,,,,,,,,,,,,,,,,,,,,,,,,,,,,,,,,,,,,,,,,,,,,,,,,,,,,,,,,,,,,,,,,,,,,,,,,,,,,,,,,,,,,,,,,,,,,,,
,,613f88c021bff7b9502b98db,2024-01-05_23h41.32.551,kallum_motion_pilot,2023.2.3,Win32,59.88023952,613f88c021bff7b9502b98db,6598e6a5d84f07970b831e70,6598e78339833e045566f283,0.0621,0.0621,1,109,271,118,1,eightsix,,,,,,,,,,,,,,,,,,,,,,,,,,,,,,,,,,,,,,,,,,,,,,,,,,,,,,,,,,,,,,,,,,,,,,,,,,,,,,,,,,,,,,,,,,,,,,,,,,,,,,,,,,,,,,,,,,,,,,,,,,,,,,,,,,,,,,,
,,613f88c021bff7b9502b98db,2024-01-05_23h41.32.551,kallum_motion_pilot,2023.2.3,Win32,59.88023952,613f88c021bff7b9502b98db,6598e6a5d84f07970b831e70,6598e78339833e045566f283,0.0622,0.0623,1,110,272,138,1,sixfive,,,,,,,,,,,,,,,,,,,,,,,,,,,,,,,,,,,,,,,,,,,,,,,,,,,,,,,,,,,,,,,,,,,,,,,,,,,,,,,,,,,,,,,,,,,,,,,,,,,,,,,,,,,,,,,,,,,,,,,,,,,,,,,,,,,,,,,
,,613f88c021bff7b9502b98db,2024-01-05_23h41.32.551,kallum_motion_pilot,2023.2.3,Win32,59.88023952,613f88c021bff7b9502b98db,6598e6a5d84f07970b831e70,6598e78339833e045566f283,0.0623,0.0625,1,111,273,4,1,threeone,,,,,,,,,,,,,,,,,,,,,,,,,,,,,,,,,,,,,,,,,,,,,,,,,,,,,,,,,,,,,,,,,,,,,,,,,,,,,,,,,,,,,,,,,,,,,,,,,,,,,,,,,,,,,,,,,,,,,,,,,,,,,,,,,,,,,,,
,,613f88c021bff7b9502b98db,2024-01-05_23h41.32.551,kallum_motion_pilot,2023.2.3,Win32,59.88023952,613f88c021bff7b9502b98db,6598e6a5d84f07970b831e70,6598e78339833e045566f283,0.0625,0.0625,1,112,274,112,1,fivesix,,,,,,,,,,,,,,,,,,,,,,,,,,,,,,,,,,,,,,,,,,,,,,,,,,,,,,,,,,,,,,,,,,,,,,,,,,,,,,,,,,,,,,,,,,,,,,,,,,,,,,,,,,,,,,,,,,,,,,,,,,,,,,,,,,,,,,,
,,613f88c021bff7b9502b98db,2024-01-05_23h41.32.551,kallum_motion_pilot,2023.2.3,Win32,59.88023952,613f88c021bff7b9502b98db,6598e6a5d84f07970b831e70,6598e78339833e045566f283,0.0627,0.0628,1,113,275,45,1,threefour,,,,,,,,,,,,,,,,,,,,,,,,,,,,,,,,,,,,,,,,,,,,,,,,,,,,,,,,,,,,,,,,,,,,,,,,,,,,,,,,,,,,,,,,,,,,,,,,,,,,,,,,,,,,,,,,,,,,,,,,,,,,,,,,,,,,,,,
,,613f88c021bff7b9502b98db,2024-01-05_23h41.32.551,kallum_motion_pilot,2023.2.3,Win32,59.88023952,613f88c021bff7b9502b98db,6598e6a5d84f07970b831e70,6598e78339833e045566f283,0.0628,0.0629,1,114,276,22,1,fourtwo,,,,,,,,,,,,,,,,,,,,,,,,,,,,,,,,,,,,,,,,,,,,,,,,,,,,,,,,,,,,,,,,,,,,,,,,,,,,,,,,,,,,,,,,,,,,,,,,,,,,,,,,,,,,,,,,,,,,,,,,,,,,,,,,,,,,,,,
,,613f88c021bff7b9502b98db,2024-01-05_23h41.32.551,kallum_motion_pilot,2023.2.3,Win32,59.88023952,613f88c021bff7b9502b98db,6598e6a5d84f07970b831e70,6598e78339833e045566f283,0.0629,0.063,1,115,277,3,1,twofour,,,,,,,,,,,,,,,,,,,,,,,,,,,,,,,,,,,,,,,,,,,,,,,,,,,,,,,,,,,,,,,,,,,,,,,,,,,,,,,,,,,,,,,,,,,,,,,,,,,,,,,,,,,,,,,,,,,,,,,,,,,,,,,,,,,,,,,
,,613f88c021bff7b9502b98db,2024-01-05_23h41.32.551,kallum_motion_pilot,2023.2.3,Win32,59.88023952,613f88c021bff7b9502b98db,6598e6a5d84f07970b831e70,6598e78339833e045566f283,0.0631,0.0632,1,116,278,132,1,sevenfive,,,,,,,,,,,,,,,,,,,,,,,,,,,,,,,,,,,,,,,,,,,,,,,,,,,,,,,,,,,,,,,,,,,,,,,,,,,,,,,,,,,,,,,,,,,,,,,,,,,,,,,,,,,,,,,,,,,,,,,,,,,,,,,,,,,,,,,
,,613f88c021bff7b9502b98db,2024-01-05_23h41.32.551,kallum_motion_pilot,2023.2.3,Win32,59.88023952,613f88c021bff7b9502b98db,6598e6a5d84f07970b831e70,6598e78339833e045566f283,0.0632,0.0633,1,117,279,89,1,fiveseven,,,,,,,,,,,,,,,,,,,,,,,,,,,,,,,,,,,,,,,,,,,,,,,,,,,,,,,,,,,,,,,,,,,,,,,,,,,,,,,,,,,,,,,,,,,,,,,,,,,,,,,,,,,,,,,,,,,,,,,,,,,,,,,,,,,,,,,
