startup.started,startup.stopped,Prolific ID*,date,expName,psychopyVersion,OS,frameRate,PROLIFIC_PID,STUDY_ID,SESSION_ID,stimpositions.started,stimpositions.stopped,hardcoded_stimulus_positions.thisRepN,hardcoded_stimulus_positions.thisTrialN,hardcoded_stimulus_positions.thisN,hardcoded_stimulus_positions.thisIndex,hardcoded_stimulus_positions.ran,StimulusPos,stimorientation.started,stimorientation.stopped,prac_stimorientation_import_loop.thisRepN,prac_stimorientation_import_loop.thisTrialN,prac_stimorientation_import_loop.thisN,prac_stimorientation_import_loop.thisIndex,prac_stimorientation_import_loop.ran,Stimorientation,welcome_instr.started,welcome_instr.stopped,key_resp.keys,key_resp.rt,key_resp.duration,response_steppedout_1.started,response_steppedout_1.stopped,key_resp_20.keys,key_resp_20.rt,key_resp_20.duration,response_steppedout_2.started,response_steppedout_2.stopped,key_resp_19.keys,key_resp_19.rt,key_resp_19.duration,stim_response_instr.started,stim_response_instr.stopped,key_resp_15.keys,key_resp_15.rt,key_resp_15.duration,direction_instr_2.started,direction_instr_2.stopped,key_resp_9.keys,key_resp_9.rt,key_resp_9.duration,instr_prac.started,instr_prac.stopped,key_resp_10.keys,key_resp_10.rt,key_resp_10.duration,Stim1_display_prac.started,Stim1_display_prac.stopped,Ecc,Circle1_ori,Circle2_ori,response_prac.started,similarity,response_time,response_prac.stopped,mouse_5.x,mouse_5.y,mouse_5.leftButton,mouse_5.midButton,mouse_5.rightButton,mouse_5.clicked_name,responseprac_feedback.started,responseprac_feedback.stopped,summary2_prac.started,summary2_prac.stopped,mouse_6.x,mouse_6.y,mouse_6.leftButton,mouse_6.midButton,mouse_6.rightButton,mouse_6.clicked_name,duringprac.thisRepN,duringprac.thisTrialN,duringprac.thisN,duringprac.thisIndex,duringprac.ran,begin.started,begin.stopped,key_resp_22.keys,key_resp_22.rt,key_resp_22.duration,Stim1_display.started,Stim1_display.stopped,circle1_ori,circle2_ori,blank.started,blank.stopped,response.started,response.stopped,mouse.x,mouse.y,mouse.leftButton,mouse.midButton,mouse.rightButton,mouse.clicked_name,response_2.started,response_2.stopped,mouse_2.x,mouse_2.y,mouse_2.leftButton,mouse_2.midButton,mouse_2.rightButton,mouse_2.clicked_name,special_trial.started,special_trial.stopped,catch_1.started,catch_1.stopped,mouse_3.x,mouse_3.y,mouse_3.leftButton,mouse_3.midButton,mouse_3.rightButton,catchresponse,catchnumber,response_time_catch,Catch,response_sum.started,response_sum.stopped,mouse_11.x,mouse_11.y,mouse_11.leftButton,mouse_11.midButton,mouse_11.rightButton,main_trial.thisRepN,main_trial.thisTrialN,main_trial.thisN,main_trial.thisIndex,main_trial.ran,Orientationtrialno,xcircle1_ori,xcircle2_ori,flip_presentation_sequence_for_double_pass.started,flip_presentation_sequence_for_double_pass.stopped,double_pass.thisRepN,double_pass.thisTrialN,double_pass.thisN,double_pass.thisIndex,double_pass.ran,goodbye.started,goodbye.stopped,key_resp_3.keys,key_resp_3.rt,key_resp_3.duration
0.0003,0.0003,652598cfa67d3941c6e6c31c,2024-01-06_10h52.10.718,kallum_motion_pilot,2023.2.3,Win32,166.6666667,652598cfa67d3941c6e6c31c,6598e6a5d84f07970b831e70,6598fdf82faa4ff4b116d0e7,,,,,,,,,,,,,,,,,,,,,,,,,,,,,,,,,,,,,,,,,,,,,,,,,,,,,,,,,,,,,,,,,,,,,,,,,,,,,,,,,,,,,,,,,,,,,,,,,,,,,,,,,,,,,,,,,,,,,,,,,,,,,,,,,,,,,,,,,,,,,,,
,,652598cfa67d3941c6e6c31c,2024-01-06_10h52.10.718,kallum_motion_pilot,2023.2.3,Win32,166.6666667,652598cfa67d3941c6e6c31c,6598e6a5d84f07970b831e70,6598fdf82faa4ff4b116d0e7,0.0148,0.015,0,0,0,24,1,onetwo,,,,,,,,,,,,,,,,,,,,,,,,,,,,,,,,,,,,,,,,,,,,,,,,,,,,,,,,,,,,,,,,,,,,,,,,,,,,,,,,,,,,,,,,,,,,,,,,,,,,,,,,,,,,,,,,,,,,,,,,,,,,,,,,,,,,,,,
,,652598cfa67d3941c6e6c31c,2024-01-06_10h52.10.718,kallum_motion_pilot,2023.2.3,Win32,166.6666667,652598cfa67d3941c6e6c31c,6598e6a5d84f07970b831e70,6598fdf82faa4ff4b116d0e7,0.0151,0.0152,0,1,1,133,1,seveneight,,,,,,,,,,,,,,,,,,,,,,,,,,,,,,,,,,,,,,,,,,,,,,,,,,,,,,,,,,,,,,,,,,,,,,,,,,,,,,,,,,,,,,,,,,,,,,,,,,,,,,,,,,,,,,,,,,,,,,,,,,,,,,,,,,,,,,,
,,652598cfa67d3941c6e6c31c,2024-01-06_10h52.10.718,kallum_motion_pilot,2023.2.3,Win32,166.6666667,652598cfa67d3941c6e6c31c,6598e6a5d84f07970b831e70,6598fdf82faa4ff4b116d0e7,0.0152,0.0152,0,2,2,6,1,fourtwo,,,,,,,,,,,,,,,,,,,,,,,,,,,,,,,,,,,,,,,,,,,,,,,,,,,,,,,,,,,,,,,,,,,,,,,,,,,,,,,,,,,,,,,,,,,,,,,,,,,,,,,,,,,,,,,,,,,,,,,,,,,,,,,,,,,,,,,
,,652598cfa67d3941c6e6c31c,2024-01-06_10h52.10.718,kallum_motion_pilot,2023.2.3,Win32,166.6666667,652598cfa67d3941c6e6c31c,6598e6a5d84f07970b831e70,6598fdf82faa4ff4b116d0e7,0.0153,0.0153,0,3,3,153,1,fiveseven,,,,,,,,,,,,,,,,,,,,,,,,,,,,,,,,,,,,,,,,,,,,,,,,,,,,,,,,,,,,,,,,,,,,,,,,,,,,,,,,,,,,,,,,,,,,,,,,,,,,,,,,,,,,,,,,,,,,,,,,,,,,,,,,,,,,,,,
,,652598cfa67d3941c6e6c31c,2024-01-06_10h52.10.718,kallum_motion_pilot,2023.2.3,Win32,166.6666667,652598cfa67d3941c6e6c31c,6598e6a5d84f07970b831e70,6598fdf82faa4ff4b116d0e7,0.0154,0.0154,0,4,4,1,1,onethree,,,,,,,,,,,,,,,,,,,,,,,,,,,,,,,,,,,,,,,,,,,,,,,,,,,,,,,,,,,,,,,,,,,,,,,,,,,,,,,,,,,,,,,,,,,,,,,,,,,,,,,,,,,,,,,,,,,,,,,,,,,,,,,,,,,,,,,
,,652598cfa67d3941c6e6c31c,2024-01-06_10h52.10.718,kallum_motion_pilot,2023.2.3,Win32,166.6666667,652598cfa67d3941c6e6c31c,6598e6a5d84f07970b831e70,6598fdf82faa4ff4b116d0e7,0.0155,0.0155,0,5,5,56,1,onetwo,,,,,,,,,,,,,,,,,,,,,,,,,,,,,,,,,,,,,,,,,,,,,,,,,,,,,,,,,,,,,,,,,,,,,,,,,,,,,,,,,,,,,,,,,,,,,,,,,,,,,,,,,,,,,,,,,,,,,,,,,,,,,,,,,,,,,,,
,,652598cfa67d3941c6e6c31c,2024-01-06_10h52.10.718,kallum_motion_pilot,2023.2.3,Win32,166.6666667,652598cfa67d3941c6e6c31c,6598e6a5d84f07970b831e70,6598fdf82faa4ff4b116d0e7,0.0155,0.0155,0,6,6,35,1,twofour,,,,,,,,,,,,,,,,,,,,,,,,,,,,,,,,,,,,,,,,,,,,,,,,,,,,,,,,,,,,,,,,,,,,,,,,,,,,,,,,,,,,,,,,,,,,,,,,,,,,,,,,,,,,,,,,,,,,,,,,,,,,,,,,,,,,,,,
,,652598cfa67d3941c6e6c31c,2024-01-06_10h52.10.718,kallum_motion_pilot,2023.2.3,Win32,166.6666667,652598cfa67d3941c6e6c31c,6598e6a5d84f07970b831e70,6598fdf82faa4ff4b116d0e7,0.0156,0.0156,0,7,7,130,1,sixfive,,,,,,,,,,,,,,,,,,,,,,,,,,,,,,,,,,,,,,,,,,,,,,,,,,,,,,,,,,,,,,,,,,,,,,,,,,,,,,,,,,,,,,,,,,,,,,,,,,,,,,,,,,,,,,,,,,,,,,,,,,,,,,,,,,,,,,,
,,652598cfa67d3941c6e6c31c,2024-01-06_10h52.10.718,kallum_motion_pilot,2023.2.3,Win32,166.6666667,652598cfa67d3941c6e6c31c,6598e6a5d84f07970b831e70,6598fdf82faa4ff4b116d0e7,0.0157,0.0157,0,8,8,115,1,sixeight,,,,,,,,,,,,,,,,,,,,,,,,,,,,,,,,,,,,,,,,,,,,,,,,,,,,,,,,,,,,,,,,,,,,,,,,,,,,,,,,,,,,,,,,,,,,,,,,,,,,,,,,,,,,,,,,,,,,,,,,,,,,,,,,,,,,,,,
,,652598cfa67d3941c6e6c31c,2024-01-06_10h52.10.718,kallum_motion_pilot,2023.2.3,Win32,166.6666667,652598cfa67d3941c6e6c31c,6598e6a5d84f07970b831e70,6598fdf82faa4ff4b116d0e7,0.0158,0.0158,0,9,9,51,1,twofour,,,,,,,,,,,,,,,,,,,,,,,,,,,,,,,,,,,,,,,,,,,,,,,,,,,,,,,,,,,,,,,,,,,,,,,,,,,,,,,,,,,,,,,,,,,,,,,,,,,,,,,,,,,,,,,,,,,,,,,,,,,,,,,,,,,,,,,
,,652598cfa67d3941c6e6c31c,2024-01-06_10h52.10.718,kallum_motion_pilot,2023.2.3,Win32,166.6666667,652598cfa67d3941c6e6c31c,6598e6a5d84f07970b831e70,6598fdf82faa4ff4b116d0e7,0.0159,0.0159,0,10,10,126,1,eightsix,,,,,,,,,,,,,,,,,,,,,,,,,,,,,,,,,,,,,,,,,,,,,,,,,,,,,,,,,,,,,,,,,,,,,,,,,,,,,,,,,,,,,,,,,,,,,,,,,,,,,,,,,,,,,,,,,,,,,,,,,,,,,,,,,,,,,,,
,,652598cfa67d3941c6e6c31c,2024-01-06_10h52.10.718,kallum_motion_pilot,2023.2.3,Win32,166.6666667,652598cfa67d3941c6e6c31c,6598e6a5d84f07970b831e70,6598fdf82faa4ff4b116d0e7,0.016,0.016,0,11,11,131,1,sixeight,,,,,,,,,,,,,,,,,,,,,,,,,,,,,,,,,,,,,,,,,,,,,,,,,,,,,,,,,,,,,,,,,,,,,,,,,,,,,,,,,,,,,,,,,,,,,,,,,,,,,,,,,,,,,,,,,,,,,,,,,,,,,,,,,,,,,,,
,,652598cfa67d3941c6e6c31c,2024-01-06_10h52.10.718,kallum_motion_pilot,2023.2.3,Win32,166.6666667,652598cfa67d3941c6e6c31c,6598e6a5d84f07970b831e70,6598fdf82faa4ff4b116d0e7,0.016,0.016,0,12,12,15,1,fourthree,,,,,,,,,,,,,,,,,,,,,,,,,,,,,,,,,,,,,,,,,,,,,,,,,,,,,,,,,,,,,,,,,,,,,,,,,,,,,,,,,,,,,,,,,,,,,,,,,,,,,,,,,,,,,,,,,,,,,,,,,,,,,,,,,,,,,,,
,,652598cfa67d3941c6e6c31c,2024-01-06_10h52.10.718,kallum_motion_pilot,2023.2.3,Win32,166.6666667,652598cfa67d3941c6e6c31c,6598e6a5d84f07970b831e70,6598fdf82faa4ff4b116d0e7,0.0161,0.0161,0,13,13,14,1,fourtwo,,,,,,,,,,,,,,,,,,,,,,,,,,,,,,,,,,,,,,,,,,,,,,,,,,,,,,,,,,,,,,,,,,,,,,,,,,,,,,,,,,,,,,,,,,,,,,,,,,,,,,,,,,,,,,,,,,,,,,,,,,,,,,,,,,,,,,,
,,652598cfa67d3941c6e6c31c,2024-01-06_10h52.10.718,kallum_motion_pilot,2023.2.3,Win32,166.6666667,652598cfa67d3941c6e6c31c,6598e6a5d84f07970b831e70,6598fdf82faa4ff4b116d0e7,0.0162,0.0162,0,14,14,16,1,onetwo,,,,,,,,,,,,,,,,,,,,,,,,,,,,,,,,,,,,,,,,,,,,,,,,,,,,,,,,,,,,,,,,,,,,,,,,,,,,,,,,,,,,,,,,,,,,,,,,,,,,,,,,,,,,,,,,,,,,,,,,,,,,,,,,,,,,,,,
,,652598cfa67d3941c6e6c31c,2024-01-06_10h52.10.718,kallum_motion_pilot,2023.2.3,Win32,166.6666667,652598cfa67d3941c6e6c31c,6598e6a5d84f07970b831e70,6598fdf82faa4ff4b116d0e7,0.0162,0.0162,0,15,15,66,1,twoone,,,,,,,,,,,,,,,,,,,,,,,,,,,,,,,,,,,,,,,,,,,,,,,,,,,,,,,,,,,,,,,,,,,,,,,,,,,,,,,,,,,,,,,,,,,,,,,,,,,,,,,,,,,,,,,,,,,,,,,,,,,,,,,,,,,,,,,
,,652598cfa67d3941c6e6c31c,2024-01-06_10h52.10.718,kallum_motion_pilot,2023.2.3,Win32,166.6666667,652598cfa67d3941c6e6c31c,6598e6a5d84f07970b831e70,6598fdf82faa4ff4b116d0e7,0.0163,0.0163,0,16,16,49,1,onethree,,,,,,,,,,,,,,,,,,,,,,,,,,,,,,,,,,,,,,,,,,,,,,,,,,,,,,,,,,,,,,,,,,,,,,,,,,,,,,,,,,,,,,,,,,,,,,,,,,,,,,,,,,,,,,,,,,,,,,,,,,,,,,,,,,,,,,,
,,652598cfa67d3941c6e6c31c,2024-01-06_10h52.10.718,kallum_motion_pilot,2023.2.3,Win32,166.6666667,652598cfa67d3941c6e6c31c,6598e6a5d84f07970b831e70,6598fdf82faa4ff4b116d0e7,0.0163,0.0163,0,17,17,60,1,threeone,,,,,,,,,,,,,,,,,,,,,,,,,,,,,,,,,,,,,,,,,,,,,,,,,,,,,,,,,,,,,,,,,,,,,,,,,,,,,,,,,,,,,,,,,,,,,,,,,,,,,,,,,,,,,,,,,,,,,,,,,,,,,,,,,,,,,,,
,,652598cfa67d3941c6e6c31c,2024-01-06_10h52.10.718,kallum_motion_pilot,2023.2.3,Win32,166.6666667,652598cfa67d3941c6e6c31c,6598e6a5d84f07970b831e70,6598fdf82faa4ff4b116d0e7,0.0164,0.0164,0,18,18,72,1,onetwo,,,,,,,,,,,,,,,,,,,,,,,,,,,,,,,,,,,,,,,,,,,,,,,,,,,,,,,,,,,,,,,,,,,,,,,,,,,,,,,,,,,,,,,,,,,,,,,,,,,,,,,,,,,,,,,,,,,,,,,,,,,,,,,,,,,,,,,
,,652598cfa67d3941c6e6c31c,2024-01-06_10h52.10.718,kallum_motion_pilot,2023.2.3,Win32,166.6666667,652598cfa67d3941c6e6c31c,6598e6a5d84f07970b831e70,6598fdf82faa4ff4b116d0e7,0.0165,0.0165,0,19,19,45,1,threefour,,,,,,,,,,,,,,,,,,,,,,,,,,,,,,,,,,,,,,,,,,,,,,,,,,,,,,,,,,,,,,,,,,,,,,,,,,,,,,,,,,,,,,,,,,,,,,,,,,,,,,,,,,,,,,,,,,,,,,,,,,,,,,,,,,,,,,,
,,652598cfa67d3941c6e6c31c,2024-01-06_10h52.10.718,kallum_motion_pilot,2023.2.3,Win32,166.6666667,652598cfa67d3941c6e6c31c,6598e6a5d84f07970b831e70,6598fdf82faa4ff4b116d0e7,0.0165,0.0165,0,20,20,110,1,eightsix,,,,,,,,,,,,,,,,,,,,,,,,,,,,,,,,,,,,,,,,,,,,,,,,,,,,,,,,,,,,,,,,,,,,,,,,,,,,,,,,,,,,,,,,,,,,,,,,,,,,,,,,,,,,,,,,,,,,,,,,,,,,,,,,,,,,,,,
,,652598cfa67d3941c6e6c31c,2024-01-06_10h52.10.718,kallum_motion_pilot,2023.2.3,Win32,166.6666667,652598cfa67d3941c6e6c31c,6598e6a5d84f07970b831e70,6598fdf82faa4ff4b116d0e7,0.0166,0.0166,0,21,21,147,1,sixeight,,,,,,,,,,,,,,,,,,,,,,,,,,,,,,,,,,,,,,,,,,,,,,,,,,,,,,,,,,,,,,,,,,,,,,,,,,,,,,,,,,,,,,,,,,,,,,,,,,,,,,,,,,,,,,,,,,,,,,,,,,,,,,,,,,,,,,,
,,652598cfa67d3941c6e6c31c,2024-01-06_10h52.10.718,kallum_motion_pilot,2023.2.3,Win32,166.6666667,652598cfa67d3941c6e6c31c,6598e6a5d84f07970b831e70,6598fdf82faa4ff4b116d0e7,0.0167,0.0167,0,22,22,112,1,fivesix,,,,,,,,,,,,,,,,,,,,,,,,,,,,,,,,,,,,,,,,,,,,,,,,,,,,,,,,,,,,,,,,,,,,,,,,,,,,,,,,,,,,,,,,,,,,,,,,,,,,,,,,,,,,,,,,,,,,,,,,,,,,,,,,,,,,,,,
,,652598cfa67d3941c6e6c31c,2024-01-06_10h52.10.718,kallum_motion_pilot,2023.2.3,Win32,166.6666667,652598cfa67d3941c6e6c31c,6598e6a5d84f07970b831e70,6598fdf82faa4ff4b116d0e7,0.0167,0.0167,0,23,23,33,1,onethree,,,,,,,,,,,,,,,,,,,,,,,,,,,,,,,,,,,,,,,,,,,,,,,,,,,,,,,,,,,,,,,,,,,,,,,,,,,,,,,,,,,,,,,,,,,,,,,,,,,,,,,,,,,,,,,,,,,,,,,,,,,,,,,,,,,,,,,
,,652598cfa67d3941c6e6c31c,2024-01-06_10h52.10.718,kallum_motion_pilot,2023.2.3,Win32,166.6666667,652598cfa67d3941c6e6c31c,6598e6a5d84f07970b831e70,6598fdf82faa4ff4b116d0e7,0.0168,0.0168,0,24,24,103,1,eightseven,,,,,,,,,,,,,,,,,,,,,,,,,,,,,,,,,,,,,,,,,,,,,,,,,,,,,,,,,,,,,,,,,,,,,,,,,,,,,,,,,,,,,,,,,,,,,,,,,,,,,,,,,,,,,,,,,,,,,,,,,,,,,,,,,,,,,,,
,,652598cfa67d3941c6e6c31c,2024-01-06_10h52.10.718,kallum_motion_pilot,2023.2.3,Win32,166.6666667,652598cfa67d3941c6e6c31c,6598e6a5d84f07970b831e70,6598fdf82faa4ff4b116d0e7,0.0169,0.0169,0,25,25,156,1,sevenfive,,,,,,,,,,,,,,,,,,,,,,,,,,,,,,,,,,,,,,,,,,,,,,,,,,,,,,,,,,,,,,,,,,,,,,,,,,,,,,,,,,,,,,,,,,,,,,,,,,,,,,,,,,,,,,,,,,,,,,,,,,,,,,,,,,,,,,,
,,652598cfa67d3941c6e6c31c,2024-01-06_10h52.10.718,kallum_motion_pilot,2023.2.3,Win32,166.6666667,652598cfa67d3941c6e6c31c,6598e6a5d84f07970b831e70,6598fdf82faa4ff4b116d0e7,0.017,0.017,0,26,26,4,1,threeone,,,,,,,,,,,,,,,,,,,,,,,,,,,,,,,,,,,,,,,,,,,,,,,,,,,,,,,,,,,,,,,,,,,,,,,,,,,,,,,,,,,,,,,,,,,,,,,,,,,,,,,,,,,,,,,,,,,,,,,,,,,,,,,,,,,,,,,
,,652598cfa67d3941c6e6c31c,2024-01-06_10h52.10.718,kallum_motion_pilot,2023.2.3,Win32,166.6666667,652598cfa67d3941c6e6c31c,6598e6a5d84f07970b831e70,6598fdf82faa4ff4b116d0e7,0.0171,0.0171,0,27,27,9,1,onethree,,,,,,,,,,,,,,,,,,,,,,,,,,,,,,,,,,,,,,,,,,,,,,,,,,,,,,,,,,,,,,,,,,,,,,,,,,,,,,,,,,,,,,,,,,,,,,,,,,,,,,,,,,,,,,,,,,,,,,,,,,,,,,,,,,,,,,,
,,652598cfa67d3941c6e6c31c,2024-01-06_10h52.10.718,kallum_motion_pilot,2023.2.3,Win32,166.6666667,652598cfa67d3941c6e6c31c,6598e6a5d84f07970b831e70,6598fdf82faa4ff4b116d0e7,0.0171,0.0171,0,28,28,117,1,seveneight,,,,,,,,,,,,,,,,,,,,,,,,,,,,,,,,,,,,,,,,,,,,,,,,,,,,,,,,,,,,,,,,,,,,,,,,,,,,,,,,,,,,,,,,,,,,,,,,,,,,,,,,,,,,,,,,,,,,,,,,,,,,,,,,,,,,,,,
,,652598cfa67d3941c6e6c31c,2024-01-06_10h52.10.718,kallum_motion_pilot,2023.2.3,Win32,166.6666667,652598cfa67d3941c6e6c31c,6598e6a5d84f07970b831e70,6598fdf82faa4ff4b116d0e7,0.0172,0.0172,0,29,29,100,1,sevenfive,,,,,,,,,,,,,,,,,,,,,,,,,,,,,,,,,,,,,,,,,,,,,,,,,,,,,,,,,,,,,,,,,,,,,,,,,,,,,,,,,,,,,,,,,,,,,,,,,,,,,,,,,,,,,,,,,,,,,,,,,,,,,,,,,,,,,,,
,,652598cfa67d3941c6e6c31c,2024-01-06_10h52.10.718,kallum_motion_pilot,2023.2.3,Win32,166.6666667,652598cfa67d3941c6e6c31c,6598e6a5d84f07970b831e70,6598fdf82faa4ff4b116d0e7,0.0173,0.0173,0,30,30,32,1,onetwo,,,,,,,,,,,,,,,,,,,,,,,,,,,,,,,,,,,,,,,,,,,,,,,,,,,,,,,,,,,,,,,,,,,,,,,,,,,,,,,,,,,,,,,,,,,,,,,,,,,,,,,,,,,,,,,,,,,,,,,,,,,,,,,,,,,,,,,
,,652598cfa67d3941c6e6c31c,2024-01-06_10h52.10.718,kallum_motion_pilot,2023.2.3,Win32,166.6666667,652598cfa67d3941c6e6c31c,6598e6a5d84f07970b831e70,6598fdf82faa4ff4b116d0e7,0.0173,0.0173,0,31,31,124,1,sevenfive,,,,,,,,,,,,,,,,,,,,,,,,,,,,,,,,,,,,,,,,,,,,,,,,,,,,,,,,,,,,,,,,,,,,,,,,,,,,,,,,,,,,,,,,,,,,,,,,,,,,,,,,,,,,,,,,,,,,,,,,,,,,,,,,,,,,,,,
,,652598cfa67d3941c6e6c31c,2024-01-06_10h52.10.718,kallum_motion_pilot,2023.2.3,Win32,166.6666667,652598cfa67d3941c6e6c31c,6598e6a5d84f07970b831e70,6598fdf82faa4ff4b116d0e7,0.0174,0.0174,0,32,32,69,1,threefour,,,,,,,,,,,,,,,,,,,,,,,,,,,,,,,,,,,,,,,,,,,,,,,,,,,,,,,,,,,,,,,,,,,,,,,,,,,,,,,,,,,,,,,,,,,,,,,,,,,,,,,,,,,,,,,,,,,,,,,,,,,,,,,,,,,,,,,
,,652598cfa67d3941c6e6c31c,2024-01-06_10h52.10.718,kallum_motion_pilot,2023.2.3,Win32,166.6666667,652598cfa67d3941c6e6c31c,6598e6a5d84f07970b831e70,6598fdf82faa4ff4b116d0e7,0.0174,0.0174,0,33,33,148,1,sevenfive,,,,,,,,,,,,,,,,,,,,,,,,,,,,,,,,,,,,,,,,,,,,,,,,,,,,,,,,,,,,,,,,,,,,,,,,,,,,,,,,,,,,,,,,,,,,,,,,,,,,,,,,,,,,,,,,,,,,,,,,,,,,,,,,,,,,,,,
,,652598cfa67d3941c6e6c31c,2024-01-06_10h52.10.718,kallum_motion_pilot,2023.2.3,Win32,166.6666667,652598cfa67d3941c6e6c31c,6598e6a5d84f07970b831e70,6598fdf82faa4ff4b116d0e7,0.0175,0.0176,0,34,34,94,1,eightsix,,,,,,,,,,,,,,,,,,,,,,,,,,,,,,,,,,,,,,,,,,,,,,,,,,,,,,,,,,,,,,,,,,,,,,,,,,,,,,,,,,,,,,,,,,,,,,,,,,,,,,,,,,,,,,,,,,,,,,,,,,,,,,,,,,,,,,,
,,652598cfa67d3941c6e6c31c,2024-01-06_10h52.10.718,kallum_motion_pilot,2023.2.3,Win32,166.6666667,652598cfa67d3941c6e6c31c,6598e6a5d84f07970b831e70,6598fdf82faa4ff4b116d0e7,0.0176,0.0176,0,35,35,84,1,sevenfive,,,,,,,,,,,,,,,,,,,,,,,,,,,,,,,,,,,,,,,,,,,,,,,,,,,,,,,,,,,,,,,,,,,,,,,,,,,,,,,,,,,,,,,,,,,,,,,,,,,,,,,,,,,,,,,,,,,,,,,,,,,,,,,,,,,,,,,
,,652598cfa67d3941c6e6c31c,2024-01-06_10h52.10.718,kallum_motion_pilot,2023.2.3,Win32,166.6666667,652598cfa67d3941c6e6c31c,6598e6a5d84f07970b831e70,6598fdf82faa4ff4b116d0e7,0.0177,0.0177,0,36,36,19,1,twofour,,,,,,,,,,,,,,,,,,,,,,,,,,,,,,,,,,,,,,,,,,,,,,,,,,,,,,,,,,,,,,,,,,,,,,,,,,,,,,,,,,,,,,,,,,,,,,,,,,,,,,,,,,,,,,,,,,,,,,,,,,,,,,,,,,,,,,,
,,652598cfa67d3941c6e6c31c,2024-01-06_10h52.10.718,kallum_motion_pilot,2023.2.3,Win32,166.6666667,652598cfa67d3941c6e6c31c,6598e6a5d84f07970b831e70,6598fdf82faa4ff4b116d0e7,0.0177,0.0178,0,37,37,128,1,fivesix,,,,,,,,,,,,,,,,,,,,,,,,,,,,,,,,,,,,,,,,,,,,,,,,,,,,,,,,,,,,,,,,,,,,,,,,,,,,,,,,,,,,,,,,,,,,,,,,,,,,,,,,,,,,,,,,,,,,,,,,,,,,,,,,,,,,,,,
,,652598cfa67d3941c6e6c31c,2024-01-06_10h52.10.718,kallum_motion_pilot,2023.2.3,Win32,166.6666667,652598cfa67d3941c6e6c31c,6598e6a5d84f07970b831e70,6598fdf82faa4ff4b116d0e7,0.0178,0.0178,0,38,38,54,1,fourtwo,,,,,,,,,,,,,,,,,,,,,,,,,,,,,,,,,,,,,,,,,,,,,,,,,,,,,,,,,,,,,,,,,,,,,,,,,,,,,,,,,,,,,,,,,,,,,,,,,,,,,,,,,,,,,,,,,,,,,,,,,,,,,,,,,,,,,,,
,,652598cfa67d3941c6e6c31c,2024-01-06_10h52.10.718,kallum_motion_pilot,2023.2.3,Win32,166.6666667,652598cfa67d3941c6e6c31c,6598e6a5d84f07970b831e70,6598fdf82faa4ff4b116d0e7,0.0178,0.0178,0,39,39,93,1,seveneight,,,,,,,,,,,,,,,,,,,,,,,,,,,,,,,,,,,,,,,,,,,,,,,,,,,,,,,,,,,,,,,,,,,,,,,,,,,,,,,,,,,,,,,,,,,,,,,,,,,,,,,,,,,,,,,,,,,,,,,,,,,,,,,,,,,,,,,
,,652598cfa67d3941c6e6c31c,2024-01-06_10h52.10.718,kallum_motion_pilot,2023.2.3,Win32,166.6666667,652598cfa67d3941c6e6c31c,6598e6a5d84f07970b831e70,6598fdf82faa4ff4b116d0e7,0.0179,0.0179,0,40,40,160,1,fivesix,,,,,,,,,,,,,,,,,,,,,,,,,,,,,,,,,,,,,,,,,,,,,,,,,,,,,,,,,,,,,,,,,,,,,,,,,,,,,,,,,,,,,,,,,,,,,,,,,,,,,,,,,,,,,,,,,,,,,,,,,,,,,,,,,,,,,,,
,,652598cfa67d3941c6e6c31c,2024-01-06_10h52.10.718,kallum_motion_pilot,2023.2.3,Win32,166.6666667,652598cfa67d3941c6e6c31c,6598e6a5d84f07970b831e70,6598fdf82faa4ff4b116d0e7,0.0179,0.0179,0,41,41,17,1,onethree,,,,,,,,,,,,,,,,,,,,,,,,,,,,,,,,,,,,,,,,,,,,,,,,,,,,,,,,,,,,,,,,,,,,,,,,,,,,,,,,,,,,,,,,,,,,,,,,,,,,,,,,,,,,,,,,,,,,,,,,,,,,,,,,,,,,,,,
,,652598cfa67d3941c6e6c31c,2024-01-06_10h52.10.718,kallum_motion_pilot,2023.2.3,Win32,166.6666667,652598cfa67d3941c6e6c31c,6598e6a5d84f07970b831e70,6598fdf82faa4ff4b116d0e7,0.0181,0.0181,0,42,42,135,1,eightseven,,,,,,,,,,,,,,,,,,,,,,,,,,,,,,,,,,,,,,,,,,,,,,,,,,,,,,,,,,,,,,,,,,,,,,,,,,,,,,,,,,,,,,,,,,,,,,,,,,,,,,,,,,,,,,,,,,,,,,,,,,,,,,,,,,,,,,,
,,652598cfa67d3941c6e6c31c,2024-01-06_10h52.10.718,kallum_motion_pilot,2023.2.3,Win32,166.6666667,652598cfa67d3941c6e6c31c,6598e6a5d84f07970b831e70,6598fdf82faa4ff4b116d0e7,0.0182,0.0182,0,43,43,86,1,eightsix,,,,,,,,,,,,,,,,,,,,,,,,,,,,,,,,,,,,,,,,,,,,,,,,,,,,,,,,,,,,,,,,,,,,,,,,,,,,,,,,,,,,,,,,,,,,,,,,,,,,,,,,,,,,,,,,,,,,,,,,,,,,,,,,,,,,,,,
,,652598cfa67d3941c6e6c31c,2024-01-06_10h52.10.718,kallum_motion_pilot,2023.2.3,Win32,166.6666667,652598cfa67d3941c6e6c31c,6598e6a5d84f07970b831e70,6598fdf82faa4ff4b116d0e7,0.0182,0.0182,0,44,44,142,1,eightsix,,,,,,,,,,,,,,,,,,,,,,,,,,,,,,,,,,,,,,,,,,,,,,,,,,,,,,,,,,,,,,,,,,,,,,,,,,,,,,,,,,,,,,,,,,,,,,,,,,,,,,,,,,,,,,,,,,,,,,,,,,,,,,,,,,,,,,,
,,652598cfa67d3941c6e6c31c,2024-01-06_10h52.10.718,kallum_motion_pilot,2023.2.3,Win32,166.6666667,652598cfa67d3941c6e6c31c,6598e6a5d84f07970b831e70,6598fdf82faa4ff4b116d0e7,0.0182,0.0183,0,45,45,0,1,onetwo,,,,,,,,,,,,,,,,,,,,,,,,,,,,,,,,,,,,,,,,,,,,,,,,,,,,,,,,,,,,,,,,,,,,,,,,,,,,,,,,,,,,,,,,,,,,,,,,,,,,,,,,,,,,,,,,,,,,,,,,,,,,,,,,,,,,,,,
,,652598cfa67d3941c6e6c31c,2024-01-06_10h52.10.718,kallum_motion_pilot,2023.2.3,Win32,166.6666667,652598cfa67d3941c6e6c31c,6598e6a5d84f07970b831e70,6598fdf82faa4ff4b116d0e7,0.0183,0.0183,0,46,46,18,1,twoone,,,,,,,,,,,,,,,,,,,,,,,,,,,,,,,,,,,,,,,,,,,,,,,,,,,,,,,,,,,,,,,,,,,,,,,,,,,,,,,,,,,,,,,,,,,,,,,,,,,,,,,,,,,,,,,,,,,,,,,,,,,,,,,,,,,,,,,
,,652598cfa67d3941c6e6c31c,2024-01-06_10h52.10.718,kallum_motion_pilot,2023.2.3,Win32,166.6666667,652598cfa67d3941c6e6c31c,6598e6a5d84f07970b831e70,6598fdf82faa4ff4b116d0e7,0.0184,0.0184,0,47,47,109,1,seveneight,,,,,,,,,,,,,,,,,,,,,,,,,,,,,,,,,,,,,,,,,,,,,,,,,,,,,,,,,,,,,,,,,,,,,,,,,,,,,,,,,,,,,,,,,,,,,,,,,,,,,,,,,,,,,,,,,,,,,,,,,,,,,,,,,,,,,,,
,,652598cfa67d3941c6e6c31c,2024-01-06_10h52.10.718,kallum_motion_pilot,2023.2.3,Win32,166.6666667,652598cfa67d3941c6e6c31c,6598e6a5d84f07970b831e70,6598fdf82faa4ff4b116d0e7,0.0184,0.0185,0,48,48,150,1,eightsix,,,,,,,,,,,,,,,,,,,,,,,,,,,,,,,,,,,,,,,,,,,,,,,,,,,,,,,,,,,,,,,,,,,,,,,,,,,,,,,,,,,,,,,,,,,,,,,,,,,,,,,,,,,,,,,,,,,,,,,,,,,,,,,,,,,,,,,
,,652598cfa67d3941c6e6c31c,2024-01-06_10h52.10.718,kallum_motion_pilot,2023.2.3,Win32,166.6666667,652598cfa67d3941c6e6c31c,6598e6a5d84f07970b831e70,6598fdf82faa4ff4b116d0e7,0.0186,0.0186,0,49,49,101,1,seveneight,,,,,,,,,,,,,,,,,,,,,,,,,,,,,,,,,,,,,,,,,,,,,,,,,,,,,,,,,,,,,,,,,,,,,,,,,,,,,,,,,,,,,,,,,,,,,,,,,,,,,,,,,,,,,,,,,,,,,,,,,,,,,,,,,,,,,,,
,,652598cfa67d3941c6e6c31c,2024-01-06_10h52.10.718,kallum_motion_pilot,2023.2.3,Win32,166.6666667,652598cfa67d3941c6e6c31c,6598e6a5d84f07970b831e70,6598fdf82faa4ff4b116d0e7,0.0186,0.0186,0,50,50,63,1,fourthree,,,,,,,,,,,,,,,,,,,,,,,,,,,,,,,,,,,,,,,,,,,,,,,,,,,,,,,,,,,,,,,,,,,,,,,,,,,,,,,,,,,,,,,,,,,,,,,,,,,,,,,,,,,,,,,,,,,,,,,,,,,,,,,,,,,,,,,
,,652598cfa67d3941c6e6c31c,2024-01-06_10h52.10.718,kallum_motion_pilot,2023.2.3,Win32,166.6666667,652598cfa67d3941c6e6c31c,6598e6a5d84f07970b831e70,6598fdf82faa4ff4b116d0e7,0.0187,0.0187,0,51,51,20,1,threeone,,,,,,,,,,,,,,,,,,,,,,,,,,,,,,,,,,,,,,,,,,,,,,,,,,,,,,,,,,,,,,,,,,,,,,,,,,,,,,,,,,,,,,,,,,,,,,,,,,,,,,,,,,,,,,,,,,,,,,,,,,,,,,,,,,,,,,,
,,652598cfa67d3941c6e6c31c,2024-01-06_10h52.10.718,kallum_motion_pilot,2023.2.3,Win32,166.6666667,652598cfa67d3941c6e6c31c,6598e6a5d84f07970b831e70,6598fdf82faa4ff4b116d0e7,0.0187,0.0188,0,52,52,85,1,seveneight,,,,,,,,,,,,,,,,,,,,,,,,,,,,,,,,,,,,,,,,,,,,,,,,,,,,,,,,,,,,,,,,,,,,,,,,,,,,,,,,,,,,,,,,,,,,,,,,,,,,,,,,,,,,,,,,,,,,,,,,,,,,,,,,,,,,,,,
,,652598cfa67d3941c6e6c31c,2024-01-06_10h52.10.718,kallum_motion_pilot,2023.2.3,Win32,166.6666667,652598cfa67d3941c6e6c31c,6598e6a5d84f07970b831e70,6598fdf82faa4ff4b116d0e7,0.0188,0.0188,0,53,53,96,1,fivesix,,,,,,,,,,,,,,,,,,,,,,,,,,,,,,,,,,,,,,,,,,,,,,,,,,,,,,,,,,,,,,,,,,,,,,,,,,,,,,,,,,,,,,,,,,,,,,,,,,,,,,,,,,,,,,,,,,,,,,,,,,,,,,,,,,,,,,,
,,652598cfa67d3941c6e6c31c,2024-01-06_10h52.10.718,kallum_motion_pilot,2023.2.3,Win32,166.6666667,652598cfa67d3941c6e6c31c,6598e6a5d84f07970b831e70,6598fdf82faa4ff4b116d0e7,0.0189,0.0189,0,54,54,139,1,sixeight,,,,,,,,,,,,,,,,,,,,,,,,,,,,,,,,,,,,,,,,,,,,,,,,,,,,,,,,,,,,,,,,,,,,,,,,,,,,,,,,,,,,,,,,,,,,,,,,,,,,,,,,,,,,,,,,,,,,,,,,,,,,,,,,,,,,,,,
,,652598cfa67d3941c6e6c31c,2024-01-06_10h52.10.718,kallum_motion_pilot,2023.2.3,Win32,166.6666667,652598cfa67d3941c6e6c31c,6598e6a5d84f07970b831e70,6598fdf82faa4ff4b116d0e7,0.019,0.019,0,55,55,74,1,twoone,,,,,,,,,,,,,,,,,,,,,,,,,,,,,,,,,,,,,,,,,,,,,,,,,,,,,,,,,,,,,,,,,,,,,,,,,,,,,,,,,,,,,,,,,,,,,,,,,,,,,,,,,,,,,,,,,,,,,,,,,,,,,,,,,,,,,,,
,,652598cfa67d3941c6e6c31c,2024-01-06_10h52.10.718,kallum_motion_pilot,2023.2.3,Win32,166.6666667,652598cfa67d3941c6e6c31c,6598e6a5d84f07970b831e70,6598fdf82faa4ff4b116d0e7,0.0191,0.0191,0,56,56,145,1,fiveseven,,,,,,,,,,,,,,,,,,,,,,,,,,,,,,,,,,,,,,,,,,,,,,,,,,,,,,,,,,,,,,,,,,,,,,,,,,,,,,,,,,,,,,,,,,,,,,,,,,,,,,,,,,,,,,,,,,,,,,,,,,,,,,,,,,,,,,,
,,652598cfa67d3941c6e6c31c,2024-01-06_10h52.10.718,kallum_motion_pilot,2023.2.3,Win32,166.6666667,652598cfa67d3941c6e6c31c,6598e6a5d84f07970b831e70,6598fdf82faa4ff4b116d0e7,0.0192,0.0192,0,57,57,154,1,sixfive,,,,,,,,,,,,,,,,,,,,,,,,,,,,,,,,,,,,,,,,,,,,,,,,,,,,,,,,,,,,,,,,,,,,,,,,,,,,,,,,,,,,,,,,,,,,,,,,,,,,,,,,,,,,,,,,,,,,,,,,,,,,,,,,,,,,,,,
,,652598cfa67d3941c6e6c31c,2024-01-06_10h52.10.718,kallum_motion_pilot,2023.2.3,Win32,166.6666667,652598cfa67d3941c6e6c31c,6598e6a5d84f07970b831e70,6598fdf82faa4ff4b116d0e7,0.0192,0.0192,0,58,58,155,1,sixeight,,,,,,,,,,,,,,,,,,,,,,,,,,,,,,,,,,,,,,,,,,,,,,,,,,,,,,,,,,,,,,,,,,,,,,,,,,,,,,,,,,,,,,,,,,,,,,,,,,,,,,,,,,,,,,,,,,,,,,,,,,,,,,,,,,,,,,,
,,652598cfa67d3941c6e6c31c,2024-01-06_10h52.10.718,kallum_motion_pilot,2023.2.3,Win32,166.6666667,652598cfa67d3941c6e6c31c,6598e6a5d84f07970b831e70,6598fdf82faa4ff4b116d0e7,0.0193,0.0193,0,59,59,48,1,onetwo,,,,,,,,,,,,,,,,,,,,,,,,,,,,,,,,,,,,,,,,,,,,,,,,,,,,,,,,,,,,,,,,,,,,,,,,,,,,,,,,,,,,,,,,,,,,,,,,,,,,,,,,,,,,,,,,,,,,,,,,,,,,,,,,,,,,,,,
,,652598cfa67d3941c6e6c31c,2024-01-06_10h52.10.718,kallum_motion_pilot,2023.2.3,Win32,166.6666667,652598cfa67d3941c6e6c31c,6598e6a5d84f07970b831e70,6598fdf82faa4ff4b116d0e7,0.0194,0.0194,0,60,60,118,1,eightsix,,,,,,,,,,,,,,,,,,,,,,,,,,,,,,,,,,,,,,,,,,,,,,,,,,,,,,,,,,,,,,,,,,,,,,,,,,,,,,,,,,,,,,,,,,,,,,,,,,,,,,,,,,,,,,,,,,,,,,,,,,,,,,,,,,,,,,,
,,652598cfa67d3941c6e6c31c,2024-01-06_10h52.10.718,kallum_motion_pilot,2023.2.3,Win32,166.6666667,652598cfa67d3941c6e6c31c,6598e6a5d84f07970b831e70,6598fdf82faa4ff4b116d0e7,0.0194,0.0195,0,61,61,23,1,fourthree,,,,,,,,,,,,,,,,,,,,,,,,,,,,,,,,,,,,,,,,,,,,,,,,,,,,,,,,,,,,,,,,,,,,,,,,,,,,,,,,,,,,,,,,,,,,,,,,,,,,,,,,,,,,,,,,,,,,,,,,,,,,,,,,,,,,,,,
,,652598cfa67d3941c6e6c31c,2024-01-06_10h52.10.718,kallum_motion_pilot,2023.2.3,Win32,166.6666667,652598cfa67d3941c6e6c31c,6598e6a5d84f07970b831e70,6598fdf82faa4ff4b116d0e7,0.0195,0.0196,0,62,62,161,1,fiveseven,,,,,,,,,,,,,,,,,,,,,,,,,,,,,,,,,,,,,,,,,,,,,,,,,,,,,,,,,,,,,,,,,,,,,,,,,,,,,,,,,,,,,,,,,,,,,,,,,,,,,,,,,,,,,,,,,,,,,,,,,,,,,,,,,,,,,,,
,,652598cfa67d3941c6e6c31c,2024-01-06_10h52.10.718,kallum_motion_pilot,2023.2.3,Win32,166.6666667,652598cfa67d3941c6e6c31c,6598e6a5d84f07970b831e70,6598fdf82faa4ff4b116d0e7,0.0197,0.0197,0,63,63,79,1,eightseven,,,,,,,,,,,,,,,,,,,,,,,,,,,,,,,,,,,,,,,,,,,,,,,,,,,,,,,,,,,,,,,,,,,,,,,,,,,,,,,,,,,,,,,,,,,,,,,,,,,,,,,,,,,,,,,,,,,,,,,,,,,,,,,,,,,,,,,
,,652598cfa67d3941c6e6c31c,2024-01-06_10h52.10.718,kallum_motion_pilot,2023.2.3,Win32,166.6666667,652598cfa67d3941c6e6c31c,6598e6a5d84f07970b831e70,6598fdf82faa4ff4b116d0e7,0.0198,0.0198,0,64,64,70,1,fourtwo,,,,,,,,,,,,,,,,,,,,,,,,,,,,,,,,,,,,,,,,,,,,,,,,,,,,,,,,,,,,,,,,,,,,,,,,,,,,,,,,,,,,,,,,,,,,,,,,,,,,,,,,,,,,,,,,,,,,,,,,,,,,,,,,,,,,,,,
,,652598cfa67d3941c6e6c31c,2024-01-06_10h52.10.718,kallum_motion_pilot,2023.2.3,Win32,166.6666667,652598cfa67d3941c6e6c31c,6598e6a5d84f07970b831e70,6598fdf82faa4ff4b116d0e7,0.0198,0.0199,0,65,65,129,1,fiveseven,,,,,,,,,,,,,,,,,,,,,,,,,,,,,,,,,,,,,,,,,,,,,,,,,,,,,,,,,,,,,,,,,,,,,,,,,,,,,,,,,,,,,,,,,,,,,,,,,,,,,,,,,,,,,,,,,,,,,,,,,,,,,,,,,,,,,,,
,,652598cfa67d3941c6e6c31c,2024-01-06_10h52.10.718,kallum_motion_pilot,2023.2.3,Win32,166.6666667,652598cfa67d3941c6e6c31c,6598e6a5d84f07970b831e70,6598fdf82faa4ff4b116d0e7,0.0199,0.02,0,66,66,37,1,threefour,,,,,,,,,,,,,,,,,,,,,,,,,,,,,,,,,,,,,,,,,,,,,,,,,,,,,,,,,,,,,,,,,,,,,,,,,,,,,,,,,,,,,,,,,,,,,,,,,,,,,,,,,,,,,,,,,,,,,,,,,,,,,,,,,,,,,,,
,,652598cfa67d3941c6e6c31c,2024-01-06_10h52.10.718,kallum_motion_pilot,2023.2.3,Win32,166.6666667,652598cfa67d3941c6e6c31c,6598e6a5d84f07970b831e70,6598fdf82faa4ff4b116d0e7,0.02,0.02,0,67,67,75,1,twofour,,,,,,,,,,,,,,,,,,,,,,,,,,,,,,,,,,,,,,,,,,,,,,,,,,,,,,,,,,,,,,,,,,,,,,,,,,,,,,,,,,,,,,,,,,,,,,,,,,,,,,,,,,,,,,,,,,,,,,,,,,,,,,,,,,,,,,,
,,652598cfa67d3941c6e6c31c,2024-01-06_10h52.10.718,kallum_motion_pilot,2023.2.3,Win32,166.6666667,652598cfa67d3941c6e6c31c,6598e6a5d84f07970b831e70,6598fdf82faa4ff4b116d0e7,0.0201,0.0201,0,68,68,2,1,twoone,,,,,,,,,,,,,,,,,,,,,,,,,,,,,,,,,,,,,,,,,,,,,,,,,,,,,,,,,,,,,,,,,,,,,,,,,,,,,,,,,,,,,,,,,,,,,,,,,,,,,,,,,,,,,,,,,,,,,,,,,,,,,,,,,,,,,,,
,,652598cfa67d3941c6e6c31c,2024-01-06_10h52.10.718,kallum_motion_pilot,2023.2.3,Win32,166.6666667,652598cfa67d3941c6e6c31c,6598e6a5d84f07970b831e70,6598fdf82faa4ff4b116d0e7,0.0202,0.0202,0,69,69,52,1,threeone,,,,,,,,,,,,,,,,,,,,,,,,,,,,,,,,,,,,,,,,,,,,,,,,,,,,,,,,,,,,,,,,,,,,,,,,,,,,,,,,,,,,,,,,,,,,,,,,,,,,,,,,,,,,,,,,,,,,,,,,,,,,,,,,,,,,,,,
,,652598cfa67d3941c6e6c31c,2024-01-06_10h52.10.718,kallum_motion_pilot,2023.2.3,Win32,166.6666667,652598cfa67d3941c6e6c31c,6598e6a5d84f07970b831e70,6598fdf82faa4ff4b116d0e7,0.0202,0.0202,0,70,70,67,1,twofour,,,,,,,,,,,,,,,,,,,,,,,,,,,,,,,,,,,,,,,,,,,,,,,,,,,,,,,,,,,,,,,,,,,,,,,,,,,,,,,,,,,,,,,,,,,,,,,,,,,,,,,,,,,,,,,,,,,,,,,,,,,,,,,,,,,,,,,
,,652598cfa67d3941c6e6c31c,2024-01-06_10h52.10.718,kallum_motion_pilot,2023.2.3,Win32,166.6666667,652598cfa67d3941c6e6c31c,6598e6a5d84f07970b831e70,6598fdf82faa4ff4b116d0e7,0.0203,0.0204,0,71,71,78,1,fourtwo,,,,,,,,,,,,,,,,,,,,,,,,,,,,,,,,,,,,,,,,,,,,,,,,,,,,,,,,,,,,,,,,,,,,,,,,,,,,,,,,,,,,,,,,,,,,,,,,,,,,,,,,,,,,,,,,,,,,,,,,,,,,,,,,,,,,,,,
,,652598cfa67d3941c6e6c31c,2024-01-06_10h52.10.718,kallum_motion_pilot,2023.2.3,Win32,166.6666667,652598cfa67d3941c6e6c31c,6598e6a5d84f07970b831e70,6598fdf82faa4ff4b116d0e7,0.0204,0.0205,0,72,72,64,1,onetwo,,,,,,,,,,,,,,,,,,,,,,,,,,,,,,,,,,,,,,,,,,,,,,,,,,,,,,,,,,,,,,,,,,,,,,,,,,,,,,,,,,,,,,,,,,,,,,,,,,,,,,,,,,,,,,,,,,,,,,,,,,,,,,,,,,,,,,,
,,652598cfa67d3941c6e6c31c,2024-01-06_10h52.10.718,kallum_motion_pilot,2023.2.3,Win32,166.6666667,652598cfa67d3941c6e6c31c,6598e6a5d84f07970b831e70,6598fdf82faa4ff4b116d0e7,0.0205,0.0206,0,73,73,36,1,threeone,,,,,,,,,,,,,,,,,,,,,,,,,,,,,,,,,,,,,,,,,,,,,,,,,,,,,,,,,,,,,,,,,,,,,,,,,,,,,,,,,,,,,,,,,,,,,,,,,,,,,,,,,,,,,,,,,,,,,,,,,,,,,,,,,,,,,,,
,,652598cfa67d3941c6e6c31c,2024-01-06_10h52.10.718,kallum_motion_pilot,2023.2.3,Win32,166.6666667,652598cfa67d3941c6e6c31c,6598e6a5d84f07970b831e70,6598fdf82faa4ff4b116d0e7,0.0206,0.0206,0,74,74,157,1,seveneight,,,,,,,,,,,,,,,,,,,,,,,,,,,,,,,,,,,,,,,,,,,,,,,,,,,,,,,,,,,,,,,,,,,,,,,,,,,,,,,,,,,,,,,,,,,,,,,,,,,,,,,,,,,,,,,,,,,,,,,,,,,,,,,,,,,,,,,
,,652598cfa67d3941c6e6c31c,2024-01-06_10h52.10.718,kallum_motion_pilot,2023.2.3,Win32,166.6666667,652598cfa67d3941c6e6c31c,6598e6a5d84f07970b831e70,6598fdf82faa4ff4b116d0e7,0.0207,0.0207,0,75,75,50,1,twoone,,,,,,,,,,,,,,,,,,,,,,,,,,,,,,,,,,,,,,,,,,,,,,,,,,,,,,,,,,,,,,,,,,,,,,,,,,,,,,,,,,,,,,,,,,,,,,,,,,,,,,,,,,,,,,,,,,,,,,,,,,,,,,,,,,,,,,,
,,652598cfa67d3941c6e6c31c,2024-01-06_10h52.10.718,kallum_motion_pilot,2023.2.3,Win32,166.6666667,652598cfa67d3941c6e6c31c,6598e6a5d84f07970b831e70,6598fdf82faa4ff4b116d0e7,0.0207,0.0207,0,76,76,44,1,threeone,,,,,,,,,,,,,,,,,,,,,,,,,,,,,,,,,,,,,,,,,,,,,,,,,,,,,,,,,,,,,,,,,,,,,,,,,,,,,,,,,,,,,,,,,,,,,,,,,,,,,,,,,,,,,,,,,,,,,,,,,,,,,,,,,,,,,,,
,,652598cfa67d3941c6e6c31c,2024-01-06_10h52.10.718,kallum_motion_pilot,2023.2.3,Win32,166.6666667,652598cfa67d3941c6e6c31c,6598e6a5d84f07970b831e70,6598fdf82faa4ff4b116d0e7,0.0208,0.0208,0,77,77,88,1,fivesix,,,,,,,,,,,,,,,,,,,,,,,,,,,,,,,,,,,,,,,,,,,,,,,,,,,,,,,,,,,,,,,,,,,,,,,,,,,,,,,,,,,,,,,,,,,,,,,,,,,,,,,,,,,,,,,,,,,,,,,,,,,,,,,,,,,,,,,
,,652598cfa67d3941c6e6c31c,2024-01-06_10h52.10.718,kallum_motion_pilot,2023.2.3,Win32,166.6666667,652598cfa67d3941c6e6c31c,6598e6a5d84f07970b831e70,6598fdf82faa4ff4b116d0e7,0.0214,0.0215,0,78,78,7,1,fourthree,,,,,,,,,,,,,,,,,,,,,,,,,,,,,,,,,,,,,,,,,,,,,,,,,,,,,,,,,,,,,,,,,,,,,,,,,,,,,,,,,,,,,,,,,,,,,,,,,,,,,,,,,,,,,,,,,,,,,,,,,,,,,,,,,,,,,,,
,,652598cfa67d3941c6e6c31c,2024-01-06_10h52.10.718,kallum_motion_pilot,2023.2.3,Win32,166.6666667,652598cfa67d3941c6e6c31c,6598e6a5d84f07970b831e70,6598fdf82faa4ff4b116d0e7,0.0215,0.0215,0,79,79,136,1,fivesix,,,,,,,,,,,,,,,,,,,,,,,,,,,,,,,,,,,,,,,,,,,,,,,,,,,,,,,,,,,,,,,,,,,,,,,,,,,,,,,,,,,,,,,,,,,,,,,,,,,,,,,,,,,,,,,,,,,,,,,,,,,,,,,,,,,,,,,
,,652598cfa67d3941c6e6c31c,2024-01-06_10h52.10.718,kallum_motion_pilot,2023.2.3,Win32,166.6666667,652598cfa67d3941c6e6c31c,6598e6a5d84f07970b831e70,6598fdf82faa4ff4b116d0e7,0.0216,0.0216,0,80,80,73,1,onethree,,,,,,,,,,,,,,,,,,,,,,,,,,,,,,,,,,,,,,,,,,,,,,,,,,,,,,,,,,,,,,,,,,,,,,,,,,,,,,,,,,,,,,,,,,,,,,,,,,,,,,,,,,,,,,,,,,,,,,,,,,,,,,,,,,,,,,,
,,652598cfa67d3941c6e6c31c,2024-01-06_10h52.10.718,kallum_motion_pilot,2023.2.3,Win32,166.6666667,652598cfa67d3941c6e6c31c,6598e6a5d84f07970b831e70,6598fdf82faa4ff4b116d0e7,0.0217,0.0217,0,81,81,134,1,eightsix,,,,,,,,,,,,,,,,,,,,,,,,,,,,,,,,,,,,,,,,,,,,,,,,,,,,,,,,,,,,,,,,,,,,,,,,,,,,,,,,,,,,,,,,,,,,,,,,,,,,,,,,,,,,,,,,,,,,,,,,,,,,,,,,,,,,,,,
,,652598cfa67d3941c6e6c31c,2024-01-06_10h52.10.718,kallum_motion_pilot,2023.2.3,Win32,166.6666667,652598cfa67d3941c6e6c31c,6598e6a5d84f07970b831e70,6598fdf82faa4ff4b116d0e7,0.0218,0.0218,0,82,82,83,1,sixeight,,,,,,,,,,,,,,,,,,,,,,,,,,,,,,,,,,,,,,,,,,,,,,,,,,,,,,,,,,,,,,,,,,,,,,,,,,,,,,,,,,,,,,,,,,,,,,,,,,,,,,,,,,,,,,,,,,,,,,,,,,,,,,,,,,,,,,,
,,652598cfa67d3941c6e6c31c,2024-01-06_10h52.10.718,kallum_motion_pilot,2023.2.3,Win32,166.6666667,652598cfa67d3941c6e6c31c,6598e6a5d84f07970b831e70,6598fdf82faa4ff4b116d0e7,0.0219,0.0219,0,83,83,82,1,sixfive,,,,,,,,,,,,,,,,,,,,,,,,,,,,,,,,,,,,,,,,,,,,,,,,,,,,,,,,,,,,,,,,,,,,,,,,,,,,,,,,,,,,,,,,,,,,,,,,,,,,,,,,,,,,,,,,,,,,,,,,,,,,,,,,,,,,,,,
,,652598cfa67d3941c6e6c31c,2024-01-06_10h52.10.718,kallum_motion_pilot,2023.2.3,Win32,166.6666667,652598cfa67d3941c6e6c31c,6598e6a5d84f07970b831e70,6598fdf82faa4ff4b116d0e7,0.0219,0.0219,0,84,84,107,1,sixeight,,,,,,,,,,,,,,,,,,,,,,,,,,,,,,,,,,,,,,,,,,,,,,,,,,,,,,,,,,,,,,,,,,,,,,,,,,,,,,,,,,,,,,,,,,,,,,,,,,,,,,,,,,,,,,,,,,,,,,,,,,,,,,,,,,,,,,,
,,652598cfa67d3941c6e6c31c,2024-01-06_10h52.10.718,kallum_motion_pilot,2023.2.3,Win32,166.6666667,652598cfa67d3941c6e6c31c,6598e6a5d84f07970b831e70,6598fdf82faa4ff4b116d0e7,0.022,0.022,0,85,85,108,1,sevenfive,,,,,,,,,,,,,,,,,,,,,,,,,,,,,,,,,,,,,,,,,,,,,,,,,,,,,,,,,,,,,,,,,,,,,,,,,,,,,,,,,,,,,,,,,,,,,,,,,,,,,,,,,,,,,,,,,,,,,,,,,,,,,,,,,,,,,,,
,,652598cfa67d3941c6e6c31c,2024-01-06_10h52.10.718,kallum_motion_pilot,2023.2.3,Win32,166.6666667,652598cfa67d3941c6e6c31c,6598e6a5d84f07970b831e70,6598fdf82faa4ff4b116d0e7,0.0221,0.0221,0,86,86,68,1,threeone,,,,,,,,,,,,,,,,,,,,,,,,,,,,,,,,,,,,,,,,,,,,,,,,,,,,,,,,,,,,,,,,,,,,,,,,,,,,,,,,,,,,,,,,,,,,,,,,,,,,,,,,,,,,,,,,,,,,,,,,,,,,,,,,,,,,,,,
,,652598cfa67d3941c6e6c31c,2024-01-06_10h52.10.718,kallum_motion_pilot,2023.2.3,Win32,166.6666667,652598cfa67d3941c6e6c31c,6598e6a5d84f07970b831e70,6598fdf82faa4ff4b116d0e7,0.0222,0.0222,0,87,87,81,1,fiveseven,,,,,,,,,,,,,,,,,,,,,,,,,,,,,,,,,,,,,,,,,,,,,,,,,,,,,,,,,,,,,,,,,,,,,,,,,,,,,,,,,,,,,,,,,,,,,,,,,,,,,,,,,,,,,,,,,,,,,,,,,,,,,,,,,,,,,,,
,,652598cfa67d3941c6e6c31c,2024-01-06_10h52.10.718,kallum_motion_pilot,2023.2.3,Win32,166.6666667,652598cfa67d3941c6e6c31c,6598e6a5d84f07970b831e70,6598fdf82faa4ff4b116d0e7,0.0223,0.0223,0,88,88,140,1,sevenfive,,,,,,,,,,,,,,,,,,,,,,,,,,,,,,,,,,,,,,,,,,,,,,,,,,,,,,,,,,,,,,,,,,,,,,,,,,,,,,,,,,,,,,,,,,,,,,,,,,,,,,,,,,,,,,,,,,,,,,,,,,,,,,,,,,,,,,,
,,652598cfa67d3941c6e6c31c,2024-01-06_10h52.10.718,kallum_motion_pilot,2023.2.3,Win32,166.6666667,652598cfa67d3941c6e6c31c,6598e6a5d84f07970b831e70,6598fdf82faa4ff4b116d0e7,0.0223,0.0223,0,89,89,90,1,sixfive,,,,,,,,,,,,,,,,,,,,,,,,,,,,,,,,,,,,,,,,,,,,,,,,,,,,,,,,,,,,,,,,,,,,,,,,,,,,,,,,,,,,,,,,,,,,,,,,,,,,,,,,,,,,,,,,,,,,,,,,,,,,,,,,,,,,,,,
,,652598cfa67d3941c6e6c31c,2024-01-06_10h52.10.718,kallum_motion_pilot,2023.2.3,Win32,166.6666667,652598cfa67d3941c6e6c31c,6598e6a5d84f07970b831e70,6598fdf82faa4ff4b116d0e7,0.0224,0.0224,0,90,90,40,1,onetwo,,,,,,,,,,,,,,,,,,,,,,,,,,,,,,,,,,,,,,,,,,,,,,,,,,,,,,,,,,,,,,,,,,,,,,,,,,,,,,,,,,,,,,,,,,,,,,,,,,,,,,,,,,,,,,,,,,,,,,,,,,,,,,,,,,,,,,,
,,652598cfa67d3941c6e6c31c,2024-01-06_10h52.10.718,kallum_motion_pilot,2023.2.3,Win32,166.6666667,652598cfa67d3941c6e6c31c,6598e6a5d84f07970b831e70,6598fdf82faa4ff4b116d0e7,0.0225,0.0225,0,91,91,151,1,eightseven,,,,,,,,,,,,,,,,,,,,,,,,,,,,,,,,,,,,,,,,,,,,,,,,,,,,,,,,,,,,,,,,,,,,,,,,,,,,,,,,,,,,,,,,,,,,,,,,,,,,,,,,,,,,,,,,,,,,,,,,,,,,,,,,,,,,,,,
,,652598cfa67d3941c6e6c31c,2024-01-06_10h52.10.718,kallum_motion_pilot,2023.2.3,Win32,166.6666667,652598cfa67d3941c6e6c31c,6598e6a5d84f07970b831e70,6598fdf82faa4ff4b116d0e7,0.0225,0.0226,0,92,92,46,1,fourtwo,,,,,,,,,,,,,,,,,,,,,,,,,,,,,,,,,,,,,,,,,,,,,,,,,,,,,,,,,,,,,,,,,,,,,,,,,,,,,,,,,,,,,,,,,,,,,,,,,,,,,,,,,,,,,,,,,,,,,,,,,,,,,,,,,,,,,,,
,,652598cfa67d3941c6e6c31c,2024-01-06_10h52.10.718,kallum_motion_pilot,2023.2.3,Win32,166.6666667,652598cfa67d3941c6e6c31c,6598e6a5d84f07970b831e70,6598fdf82faa4ff4b116d0e7,0.0226,0.0226,0,93,93,105,1,fiveseven,,,,,,,,,,,,,,,,,,,,,,,,,,,,,,,,,,,,,,,,,,,,,,,,,,,,,,,,,,,,,,,,,,,,,,,,,,,,,,,,,,,,,,,,,,,,,,,,,,,,,,,,,,,,,,,,,,,,,,,,,,,,,,,,,,,,,,,
,,652598cfa67d3941c6e6c31c,2024-01-06_10h52.10.718,kallum_motion_pilot,2023.2.3,Win32,166.6666667,652598cfa67d3941c6e6c31c,6598e6a5d84f07970b831e70,6598fdf82faa4ff4b116d0e7,0.0227,0.0227,0,94,94,5,1,threefour,,,,,,,,,,,,,,,,,,,,,,,,,,,,,,,,,,,,,,,,,,,,,,,,,,,,,,,,,,,,,,,,,,,,,,,,,,,,,,,,,,,,,,,,,,,,,,,,,,,,,,,,,,,,,,,,,,,,,,,,,,,,,,,,,,,,,,,
,,652598cfa67d3941c6e6c31c,2024-01-06_10h52.10.718,kallum_motion_pilot,2023.2.3,Win32,166.6666667,652598cfa67d3941c6e6c31c,6598e6a5d84f07970b831e70,6598fdf82faa4ff4b116d0e7,0.0228,0.0228,0,95,95,125,1,seveneight,,,,,,,,,,,,,,,,,,,,,,,,,,,,,,,,,,,,,,,,,,,,,,,,,,,,,,,,,,,,,,,,,,,,,,,,,,,,,,,,,,,,,,,,,,,,,,,,,,,,,,,,,,,,,,,,,,,,,,,,,,,,,,,,,,,,,,,
,,652598cfa67d3941c6e6c31c,2024-01-06_10h52.10.718,kallum_motion_pilot,2023.2.3,Win32,166.6666667,652598cfa67d3941c6e6c31c,6598e6a5d84f07970b831e70,6598fdf82faa4ff4b116d0e7,0.0228,0.0229,0,96,96,76,1,threeone,,,,,,,,,,,,,,,,,,,,,,,,,,,,,,,,,,,,,,,,,,,,,,,,,,,,,,,,,,,,,,,,,,,,,,,,,,,,,,,,,,,,,,,,,,,,,,,,,,,,,,,,,,,,,,,,,,,,,,,,,,,,,,,,,,,,,,,
,,652598cfa67d3941c6e6c31c,2024-01-06_10h52.10.718,kallum_motion_pilot,2023.2.3,Win32,166.6666667,652598cfa67d3941c6e6c31c,6598e6a5d84f07970b831e70,6598fdf82faa4ff4b116d0e7,0.023,0.023,0,97,97,31,1,fourthree,,,,,,,,,,,,,,,,,,,,,,,,,,,,,,,,,,,,,,,,,,,,,,,,,,,,,,,,,,,,,,,,,,,,,,,,,,,,,,,,,,,,,,,,,,,,,,,,,,,,,,,,,,,,,,,,,,,,,,,,,,,,,,,,,,,,,,,
,,652598cfa67d3941c6e6c31c,2024-01-06_10h52.10.718,kallum_motion_pilot,2023.2.3,Win32,166.6666667,652598cfa67d3941c6e6c31c,6598e6a5d84f07970b831e70,6598fdf82faa4ff4b116d0e7,0.023,0.023,0,98,98,102,1,eightsix,,,,,,,,,,,,,,,,,,,,,,,,,,,,,,,,,,,,,,,,,,,,,,,,,,,,,,,,,,,,,,,,,,,,,,,,,,,,,,,,,,,,,,,,,,,,,,,,,,,,,,,,,,,,,,,,,,,,,,,,,,,,,,,,,,,,,,,
,,652598cfa67d3941c6e6c31c,2024-01-06_10h52.10.718,kallum_motion_pilot,2023.2.3,Win32,166.6666667,652598cfa67d3941c6e6c31c,6598e6a5d84f07970b831e70,6598fdf82faa4ff4b116d0e7,0.0231,0.0231,0,99,99,116,1,sevenfive,,,,,,,,,,,,,,,,,,,,,,,,,,,,,,,,,,,,,,,,,,,,,,,,,,,,,,,,,,,,,,,,,,,,,,,,,,,,,,,,,,,,,,,,,,,,,,,,,,,,,,,,,,,,,,,,,,,,,,,,,,,,,,,,,,,,,,,
,,652598cfa67d3941c6e6c31c,2024-01-06_10h52.10.718,kallum_motion_pilot,2023.2.3,Win32,166.6666667,652598cfa67d3941c6e6c31c,6598e6a5d84f07970b831e70,6598fdf82faa4ff4b116d0e7,0.0232,0.0233,0,100,100,61,1,threefour,,,,,,,,,,,,,,,,,,,,,,,,,,,,,,,,,,,,,,,,,,,,,,,,,,,,,,,,,,,,,,,,,,,,,,,,,,,,,,,,,,,,,,,,,,,,,,,,,,,,,,,,,,,,,,,,,,,,,,,,,,,,,,,,,,,,,,,
,,652598cfa67d3941c6e6c31c,2024-01-06_10h52.10.718,kallum_motion_pilot,2023.2.3,Win32,166.6666667,652598cfa67d3941c6e6c31c,6598e6a5d84f07970b831e70,6598fdf82faa4ff4b116d0e7,0.0233,0.0233,0,101,101,59,1,twofour,,,,,,,,,,,,,,,,,,,,,,,,,,,,,,,,,,,,,,,,,,,,,,,,,,,,,,,,,,,,,,,,,,,,,,,,,,,,,,,,,,,,,,,,,,,,,,,,,,,,,,,,,,,,,,,,,,,,,,,,,,,,,,,,,,,,,,,
,,652598cfa67d3941c6e6c31c,2024-01-06_10h52.10.718,kallum_motion_pilot,2023.2.3,Win32,166.6666667,652598cfa67d3941c6e6c31c,6598e6a5d84f07970b831e70,6598fdf82faa4ff4b116d0e7,0.0233,0.0234,0,102,102,89,1,fiveseven,,,,,,,,,,,,,,,,,,,,,,,,,,,,,,,,,,,,,,,,,,,,,,,,,,,,,,,,,,,,,,,,,,,,,,,,,,,,,,,,,,,,,,,,,,,,,,,,,,,,,,,,,,,,,,,,,,,,,,,,,,,,,,,,,,,,,,,
,,652598cfa67d3941c6e6c31c,2024-01-06_10h52.10.718,kallum_motion_pilot,2023.2.3,Win32,166.6666667,652598cfa67d3941c6e6c31c,6598e6a5d84f07970b831e70,6598fdf82faa4ff4b116d0e7,0.0234,0.0235,0,103,103,62,1,fourtwo,,,,,,,,,,,,,,,,,,,,,,,,,,,,,,,,,,,,,,,,,,,,,,,,,,,,,,,,,,,,,,,,,,,,,,,,,,,,,,,,,,,,,,,,,,,,,,,,,,,,,,,,,,,,,,,,,,,,,,,,,,,,,,,,,,,,,,,
,,652598cfa67d3941c6e6c31c,2024-01-06_10h52.10.718,kallum_motion_pilot,2023.2.3,Win32,166.6666667,652598cfa67d3941c6e6c31c,6598e6a5d84f07970b831e70,6598fdf82faa4ff4b116d0e7,0.0236,0.0236,0,104,104,158,1,eightsix,,,,,,,,,,,,,,,,,,,,,,,,,,,,,,,,,,,,,,,,,,,,,,,,,,,,,,,,,,,,,,,,,,,,,,,,,,,,,,,,,,,,,,,,,,,,,,,,,,,,,,,,,,,,,,,,,,,,,,,,,,,,,,,,,,,,,,,
,,652598cfa67d3941c6e6c31c,2024-01-06_10h52.10.718,kallum_motion_pilot,2023.2.3,Win32,166.6666667,652598cfa67d3941c6e6c31c,6598e6a5d84f07970b831e70,6598fdf82faa4ff4b116d0e7,0.0236,0.0237,0,105,105,65,1,onethree,,,,,,,,,,,,,,,,,,,,,,,,,,,,,,,,,,,,,,,,,,,,,,,,,,,,,,,,,,,,,,,,,,,,,,,,,,,,,,,,,,,,,,,,,,,,,,,,,,,,,,,,,,,,,,,,,,,,,,,,,,,,,,,,,,,,,,,
,,652598cfa67d3941c6e6c31c,2024-01-06_10h52.10.718,kallum_motion_pilot,2023.2.3,Win32,166.6666667,652598cfa67d3941c6e6c31c,6598e6a5d84f07970b831e70,6598fdf82faa4ff4b116d0e7,0.0237,0.0237,0,106,106,92,1,sevenfive,,,,,,,,,,,,,,,,,,,,,,,,,,,,,,,,,,,,,,,,,,,,,,,,,,,,,,,,,,,,,,,,,,,,,,,,,,,,,,,,,,,,,,,,,,,,,,,,,,,,,,,,,,,,,,,,,,,,,,,,,,,,,,,,,,,,,,,
,,652598cfa67d3941c6e6c31c,2024-01-06_10h52.10.718,kallum_motion_pilot,2023.2.3,Win32,166.6666667,652598cfa67d3941c6e6c31c,6598e6a5d84f07970b831e70,6598fdf82faa4ff4b116d0e7,0.0238,0.0238,0,107,107,22,1,fourtwo,,,,,,,,,,,,,,,,,,,,,,,,,,,,,,,,,,,,,,,,,,,,,,,,,,,,,,,,,,,,,,,,,,,,,,,,,,,,,,,,,,,,,,,,,,,,,,,,,,,,,,,,,,,,,,,,,,,,,,,,,,,,,,,,,,,,,,,
,,652598cfa67d3941c6e6c31c,2024-01-06_10h52.10.718,kallum_motion_pilot,2023.2.3,Win32,166.6666667,652598cfa67d3941c6e6c31c,6598e6a5d84f07970b831e70,6598fdf82faa4ff4b116d0e7,0.0239,0.0239,0,108,108,132,1,sevenfive,,,,,,,,,,,,,,,,,,,,,,,,,,,,,,,,,,,,,,,,,,,,,,,,,,,,,,,,,,,,,,,,,,,,,,,,,,,,,,,,,,,,,,,,,,,,,,,,,,,,,,,,,,,,,,,,,,,,,,,,,,,,,,,,,,,,,,,
,,652598cfa67d3941c6e6c31c,2024-01-06_10h52.10.718,kallum_motion_pilot,2023.2.3,Win32,166.6666667,652598cfa67d3941c6e6c31c,6598e6a5d84f07970b831e70,6598fdf82faa4ff4b116d0e7,0.024,0.024,0,109,109,113,1,fiveseven,,,,,,,,,,,,,,,,,,,,,,,,,,,,,,,,,,,,,,,,,,,,,,,,,,,,,,,,,,,,,,,,,,,,,,,,,,,,,,,,,,,,,,,,,,,,,,,,,,,,,,,,,,,,,,,,,,,,,,,,,,,,,,,,,,,,,,,
,,652598cfa67d3941c6e6c31c,2024-01-06_10h52.10.718,kallum_motion_pilot,2023.2.3,Win32,166.6666667,652598cfa67d3941c6e6c31c,6598e6a5d84f07970b831e70,6598fdf82faa4ff4b116d0e7,0.024,0.0241,0,110,110,11,1,twofour,,,,,,,,,,,,,,,,,,,,,,,,,,,,,,,,,,,,,,,,,,,,,,,,,,,,,,,,,,,,,,,,,,,,,,,,,,,,,,,,,,,,,,,,,,,,,,,,,,,,,,,,,,,,,,,,,,,,,,,,,,,,,,,,,,,,,,,
,,652598cfa67d3941c6e6c31c,2024-01-06_10h52.10.718,kallum_motion_pilot,2023.2.3,Win32,166.6666667,652598cfa67d3941c6e6c31c,6598e6a5d84f07970b831e70,6598fdf82faa4ff4b116d0e7,0.0241,0.0241,0,111,111,152,1,fivesix,,,,,,,,,,,,,,,,,,,,,,,,,,,,,,,,,,,,,,,,,,,,,,,,,,,,,,,,,,,,,,,,,,,,,,,,,,,,,,,,,,,,,,,,,,,,,,,,,,,,,,,,,,,,,,,,,,,,,,,,,,,,,,,,,,,,,,,
,,652598cfa67d3941c6e6c31c,2024-01-06_10h52.10.718,kallum_motion_pilot,2023.2.3,Win32,166.6666667,652598cfa67d3941c6e6c31c,6598e6a5d84f07970b831e70,6598fdf82faa4ff4b116d0e7,0.0242,0.0242,0,112,112,144,1,fivesix,,,,,,,,,,,,,,,,,,,,,,,,,,,,,,,,,,,,,,,,,,,,,,,,,,,,,,,,,,,,,,,,,,,,,,,,,,,,,,,,,,,,,,,,,,,,,,,,,,,,,,,,,,,,,,,,,,,,,,,,,,,,,,,,,,,,,,,
,,652598cfa67d3941c6e6c31c,2024-01-06_10h52.10.718,kallum_motion_pilot,2023.2.3,Win32,166.6666667,652598cfa67d3941c6e6c31c,6598e6a5d84f07970b831e70,6598fdf82faa4ff4b116d0e7,0.0243,0.0243,0,113,113,97,1,fiveseven,,,,,,,,,,,,,,,,,,,,,,,,,,,,,,,,,,,,,,,,,,,,,,,,,,,,,,,,,,,,,,,,,,,,,,,,,,,,,,,,,,,,,,,,,,,,,,,,,,,,,,,,,,,,,,,,,,,,,,,,,,,,,,,,,,,,,,,
,,652598cfa67d3941c6e6c31c,2024-01-06_10h52.10.718,kallum_motion_pilot,2023.2.3,Win32,166.6666667,652598cfa67d3941c6e6c31c,6598e6a5d84f07970b831e70,6598fdf82faa4ff4b116d0e7,0.0244,0.0244,0,114,114,80,1,fivesix,,,,,,,,,,,,,,,,,,,,,,,,,,,,,,,,,,,,,,,,,,,,,,,,,,,,,,,,,,,,,,,,,,,,,,,,,,,,,,,,,,,,,,,,,,,,,,,,,,,,,,,,,,,,,,,,,,,,,,,,,,,,,,,,,,,,,,,
,,652598cfa67d3941c6e6c31c,2024-01-06_10h52.10.718,kallum_motion_pilot,2023.2.3,Win32,166.6666667,652598cfa67d3941c6e6c31c,6598e6a5d84f07970b831e70,6598fdf82faa4ff4b116d0e7,0.0245,0.0245,0,115,115,53,1,threefour,,,,,,,,,,,,,,,,,,,,,,,,,,,,,,,,,,,,,,,,,,,,,,,,,,,,,,,,,,,,,,,,,,,,,,,,,,,,,,,,,,,,,,,,,,,,,,,,,,,,,,,,,,,,,,,,,,,,,,,,,,,,,,,,,,,,,,,
,,652598cfa67d3941c6e6c31c,2024-01-06_10h52.10.718,kallum_motion_pilot,2023.2.3,Win32,166.6666667,652598cfa67d3941c6e6c31c,6598e6a5d84f07970b831e70,6598fdf82faa4ff4b116d0e7,0.0246,0.0246,0,116,116,121,1,fiveseven,,,,,,,,,,,,,,,,,,,,,,,,,,,,,,,,,,,,,,,,,,,,,,,,,,,,,,,,,,,,,,,,,,,,,,,,,,,,,,,,,,,,,,,,,,,,,,,,,,,,,,,,,,,,,,,,,,,,,,,,,,,,,,,,,,,,,,,
,,652598cfa67d3941c6e6c31c,2024-01-06_10h52.10.718,kallum_motion_pilot,2023.2.3,Win32,166.6666667,652598cfa67d3941c6e6c31c,6598e6a5d84f07970b831e70,6598fdf82faa4ff4b116d0e7,0.0246,0.0246,0,117,117,42,1,twoone,,,,,,,,,,,,,,,,,,,,,,,,,,,,,,,,,,,,,,,,,,,,,,,,,,,,,,,,,,,,,,,,,,,,,,,,,,,,,,,,,,,,,,,,,,,,,,,,,,,,,,,,,,,,,,,,,,,,,,,,,,,,,,,,,,,,,,,
,,652598cfa67d3941c6e6c31c,2024-01-06_10h52.10.718,kallum_motion_pilot,2023.2.3,Win32,166.6666667,652598cfa67d3941c6e6c31c,6598e6a5d84f07970b831e70,6598fdf82faa4ff4b116d0e7,0.0247,0.0248,0,118,118,13,1,threefour,,,,,,,,,,,,,,,,,,,,,,,,,,,,,,,,,,,,,,,,,,,,,,,,,,,,,,,,,,,,,,,,,,,,,,,,,,,,,,,,,,,,,,,,,,,,,,,,,,,,,,,,,,,,,,,,,,,,,,,,,,,,,,,,,,,,,,,
,,652598cfa67d3941c6e6c31c,2024-01-06_10h52.10.718,kallum_motion_pilot,2023.2.3,Win32,166.6666667,652598cfa67d3941c6e6c31c,6598e6a5d84f07970b831e70,6598fdf82faa4ff4b116d0e7,0.0248,0.0248,0,119,119,12,1,threeone,,,,,,,,,,,,,,,,,,,,,,,,,,,,,,,,,,,,,,,,,,,,,,,,,,,,,,,,,,,,,,,,,,,,,,,,,,,,,,,,,,,,,,,,,,,,,,,,,,,,,,,,,,,,,,,,,,,,,,,,,,,,,,,,,,,,,,,
,,652598cfa67d3941c6e6c31c,2024-01-06_10h52.10.718,kallum_motion_pilot,2023.2.3,Win32,166.6666667,652598cfa67d3941c6e6c31c,6598e6a5d84f07970b831e70,6598fdf82faa4ff4b116d0e7,0.0248,0.0248,0,120,120,29,1,threefour,,,,,,,,,,,,,,,,,,,,,,,,,,,,,,,,,,,,,,,,,,,,,,,,,,,,,,,,,,,,,,,,,,,,,,,,,,,,,,,,,,,,,,,,,,,,,,,,,,,,,,,,,,,,,,,,,,,,,,,,,,,,,,,,,,,,,,,
,,652598cfa67d3941c6e6c31c,2024-01-06_10h52.10.718,kallum_motion_pilot,2023.2.3,Win32,166.6666667,652598cfa67d3941c6e6c31c,6598e6a5d84f07970b831e70,6598fdf82faa4ff4b116d0e7,0.0249,0.025,0,121,121,8,1,onetwo,,,,,,,,,,,,,,,,,,,,,,,,,,,,,,,,,,,,,,,,,,,,,,,,,,,,,,,,,,,,,,,,,,,,,,,,,,,,,,,,,,,,,,,,,,,,,,,,,,,,,,,,,,,,,,,,,,,,,,,,,,,,,,,,,,,,,,,
,,652598cfa67d3941c6e6c31c,2024-01-06_10h52.10.718,kallum_motion_pilot,2023.2.3,Win32,166.6666667,652598cfa67d3941c6e6c31c,6598e6a5d84f07970b831e70,6598fdf82faa4ff4b116d0e7,0.025,0.0251,0,122,122,143,1,eightseven,,,,,,,,,,,,,,,,,,,,,,,,,,,,,,,,,,,,,,,,,,,,,,,,,,,,,,,,,,,,,,,,,,,,,,,,,,,,,,,,,,,,,,,,,,,,,,,,,,,,,,,,,,,,,,,,,,,,,,,,,,,,,,,,,,,,,,,
,,652598cfa67d3941c6e6c31c,2024-01-06_10h52.10.718,kallum_motion_pilot,2023.2.3,Win32,166.6666667,652598cfa67d3941c6e6c31c,6598e6a5d84f07970b831e70,6598fdf82faa4ff4b116d0e7,0.0252,0.0252,0,123,123,28,1,threeone,,,,,,,,,,,,,,,,,,,,,,,,,,,,,,,,,,,,,,,,,,,,,,,,,,,,,,,,,,,,,,,,,,,,,,,,,,,,,,,,,,,,,,,,,,,,,,,,,,,,,,,,,,,,,,,,,,,,,,,,,,,,,,,,,,,,,,,
,,652598cfa67d3941c6e6c31c,2024-01-06_10h52.10.718,kallum_motion_pilot,2023.2.3,Win32,166.6666667,652598cfa67d3941c6e6c31c,6598e6a5d84f07970b831e70,6598fdf82faa4ff4b116d0e7,0.0253,0.0254,0,124,124,127,1,eightseven,,,,,,,,,,,,,,,,,,,,,,,,,,,,,,,,,,,,,,,,,,,,,,,,,,,,,,,,,,,,,,,,,,,,,,,,,,,,,,,,,,,,,,,,,,,,,,,,,,,,,,,,,,,,,,,,,,,,,,,,,,,,,,,,,,,,,,,
,,652598cfa67d3941c6e6c31c,2024-01-06_10h52.10.718,kallum_motion_pilot,2023.2.3,Win32,166.6666667,652598cfa67d3941c6e6c31c,6598e6a5d84f07970b831e70,6598fdf82faa4ff4b116d0e7,0.0254,0.0254,0,125,125,146,1,sixfive,,,,,,,,,,,,,,,,,,,,,,,,,,,,,,,,,,,,,,,,,,,,,,,,,,,,,,,,,,,,,,,,,,,,,,,,,,,,,,,,,,,,,,,,,,,,,,,,,,,,,,,,,,,,,,,,,,,,,,,,,,,,,,,,,,,,,,,
,,652598cfa67d3941c6e6c31c,2024-01-06_10h52.10.718,kallum_motion_pilot,2023.2.3,Win32,166.6666667,652598cfa67d3941c6e6c31c,6598e6a5d84f07970b831e70,6598fdf82faa4ff4b116d0e7,0.0254,0.0255,0,126,126,43,1,twofour,,,,,,,,,,,,,,,,,,,,,,,,,,,,,,,,,,,,,,,,,,,,,,,,,,,,,,,,,,,,,,,,,,,,,,,,,,,,,,,,,,,,,,,,,,,,,,,,,,,,,,,,,,,,,,,,,,,,,,,,,,,,,,,,,,,,,,,
,,652598cfa67d3941c6e6c31c,2024-01-06_10h52.10.718,kallum_motion_pilot,2023.2.3,Win32,166.6666667,652598cfa67d3941c6e6c31c,6598e6a5d84f07970b831e70,6598fdf82faa4ff4b116d0e7,0.0255,0.0256,0,127,127,141,1,seveneight,,,,,,,,,,,,,,,,,,,,,,,,,,,,,,,,,,,,,,,,,,,,,,,,,,,,,,,,,,,,,,,,,,,,,,,,,,,,,,,,,,,,,,,,,,,,,,,,,,,,,,,,,,,,,,,,,,,,,,,,,,,,,,,,,,,,,,,
,,652598cfa67d3941c6e6c31c,2024-01-06_10h52.10.718,kallum_motion_pilot,2023.2.3,Win32,166.6666667,652598cfa67d3941c6e6c31c,6598e6a5d84f07970b831e70,6598fdf82faa4ff4b116d0e7,0.0256,0.0257,0,128,128,120,1,fivesix,,,,,,,,,,,,,,,,,,,,,,,,,,,,,,,,,,,,,,,,,,,,,,,,,,,,,,,,,,,,,,,,,,,,,,,,,,,,,,,,,,,,,,,,,,,,,,,,,,,,,,,,,,,,,,,,,,,,,,,,,,,,,,,,,,,,,,,
,,652598cfa67d3941c6e6c31c,2024-01-06_10h52.10.718,kallum_motion_pilot,2023.2.3,Win32,166.6666667,652598cfa67d3941c6e6c31c,6598e6a5d84f07970b831e70,6598fdf82faa4ff4b116d0e7,0.0258,0.0258,0,129,129,26,1,twoone,,,,,,,,,,,,,,,,,,,,,,,,,,,,,,,,,,,,,,,,,,,,,,,,,,,,,,,,,,,,,,,,,,,,,,,,,,,,,,,,,,,,,,,,,,,,,,,,,,,,,,,,,,,,,,,,,,,,,,,,,,,,,,,,,,,,,,,
,,652598cfa67d3941c6e6c31c,2024-01-06_10h52.10.718,kallum_motion_pilot,2023.2.3,Win32,166.6666667,652598cfa67d3941c6e6c31c,6598e6a5d84f07970b831e70,6598fdf82faa4ff4b116d0e7,0.0258,0.0259,0,130,130,39,1,fourthree,,,,,,,,,,,,,,,,,,,,,,,,,,,,,,,,,,,,,,,,,,,,,,,,,,,,,,,,,,,,,,,,,,,,,,,,,,,,,,,,,,,,,,,,,,,,,,,,,,,,,,,,,,,,,,,,,,,,,,,,,,,,,,,,,,,,,,,
,,652598cfa67d3941c6e6c31c,2024-01-06_10h52.10.718,kallum_motion_pilot,2023.2.3,Win32,166.6666667,652598cfa67d3941c6e6c31c,6598e6a5d84f07970b831e70,6598fdf82faa4ff4b116d0e7,0.0259,0.0259,0,131,131,30,1,fourtwo,,,,,,,,,,,,,,,,,,,,,,,,,,,,,,,,,,,,,,,,,,,,,,,,,,,,,,,,,,,,,,,,,,,,,,,,,,,,,,,,,,,,,,,,,,,,,,,,,,,,,,,,,,,,,,,,,,,,,,,,,,,,,,,,,,,,,,,
,,652598cfa67d3941c6e6c31c,2024-01-06_10h52.10.718,kallum_motion_pilot,2023.2.3,Win32,166.6666667,652598cfa67d3941c6e6c31c,6598e6a5d84f07970b831e70,6598fdf82faa4ff4b116d0e7,0.026,0.0261,0,132,132,137,1,fiveseven,,,,,,,,,,,,,,,,,,,,,,,,,,,,,,,,,,,,,,,,,,,,,,,,,,,,,,,,,,,,,,,,,,,,,,,,,,,,,,,,,,,,,,,,,,,,,,,,,,,,,,,,,,,,,,,,,,,,,,,,,,,,,,,,,,,,,,,
,,652598cfa67d3941c6e6c31c,2024-01-06_10h52.10.718,kallum_motion_pilot,2023.2.3,Win32,166.6666667,652598cfa67d3941c6e6c31c,6598e6a5d84f07970b831e70,6598fdf82faa4ff4b116d0e7,0.0262,0.0262,0,133,133,91,1,sixeight,,,,,,,,,,,,,,,,,,,,,,,,,,,,,,,,,,,,,,,,,,,,,,,,,,,,,,,,,,,,,,,,,,,,,,,,,,,,,,,,,,,,,,,,,,,,,,,,,,,,,,,,,,,,,,,,,,,,,,,,,,,,,,,,,,,,,,,
,,652598cfa67d3941c6e6c31c,2024-01-06_10h52.10.718,kallum_motion_pilot,2023.2.3,Win32,166.6666667,652598cfa67d3941c6e6c31c,6598e6a5d84f07970b831e70,6598fdf82faa4ff4b116d0e7,0.0263,0.0263,0,134,134,77,1,threefour,,,,,,,,,,,,,,,,,,,,,,,,,,,,,,,,,,,,,,,,,,,,,,,,,,,,,,,,,,,,,,,,,,,,,,,,,,,,,,,,,,,,,,,,,,,,,,,,,,,,,,,,,,,,,,,,,,,,,,,,,,,,,,,,,,,,,,,
,,652598cfa67d3941c6e6c31c,2024-01-06_10h52.10.718,kallum_motion_pilot,2023.2.3,Win32,166.6666667,652598cfa67d3941c6e6c31c,6598e6a5d84f07970b831e70,6598fdf82faa4ff4b116d0e7,0.0263,0.0264,0,135,135,87,1,eightseven,,,,,,,,,,,,,,,,,,,,,,,,,,,,,,,,,,,,,,,,,,,,,,,,,,,,,,,,,,,,,,,,,,,,,,,,,,,,,,,,,,,,,,,,,,,,,,,,,,,,,,,,,,,,,,,,,,,,,,,,,,,,,,,,,,,,,,,
,,652598cfa67d3941c6e6c31c,2024-01-06_10h52.10.718,kallum_motion_pilot,2023.2.3,Win32,166.6666667,652598cfa67d3941c6e6c31c,6598e6a5d84f07970b831e70,6598fdf82faa4ff4b116d0e7,0.0264,0.0264,0,136,136,119,1,eightseven,,,,,,,,,,,,,,,,,,,,,,,,,,,,,,,,,,,,,,,,,,,,,,,,,,,,,,,,,,,,,,,,,,,,,,,,,,,,,,,,,,,,,,,,,,,,,,,,,,,,,,,,,,,,,,,,,,,,,,,,,,,,,,,,,,,,,,,
,,652598cfa67d3941c6e6c31c,2024-01-06_10h52.10.718,kallum_motion_pilot,2023.2.3,Win32,166.6666667,652598cfa67d3941c6e6c31c,6598e6a5d84f07970b831e70,6598fdf82faa4ff4b116d0e7,0.0265,0.0265,0,137,137,123,1,sixeight,,,,,,,,,,,,,,,,,,,,,,,,,,,,,,,,,,,,,,,,,,,,,,,,,,,,,,,,,,,,,,,,,,,,,,,,,,,,,,,,,,,,,,,,,,,,,,,,,,,,,,,,,,,,,,,,,,,,,,,,,,,,,,,,,,,,,,,
,,652598cfa67d3941c6e6c31c,2024-01-06_10h52.10.718,kallum_motion_pilot,2023.2.3,Win32,166.6666667,652598cfa67d3941c6e6c31c,6598e6a5d84f07970b831e70,6598fdf82faa4ff4b116d0e7,0.0266,0.0266,0,138,138,38,1,fourtwo,,,,,,,,,,,,,,,,,,,,,,,,,,,,,,,,,,,,,,,,,,,,,,,,,,,,,,,,,,,,,,,,,,,,,,,,,,,,,,,,,,,,,,,,,,,,,,,,,,,,,,,,,,,,,,,,,,,,,,,,,,,,,,,,,,,,,,,
,,652598cfa67d3941c6e6c31c,2024-01-06_10h52.10.718,kallum_motion_pilot,2023.2.3,Win32,166.6666667,652598cfa67d3941c6e6c31c,6598e6a5d84f07970b831e70,6598fdf82faa4ff4b116d0e7,0.0266,0.0267,0,139,139,122,1,sixfive,,,,,,,,,,,,,,,,,,,,,,,,,,,,,,,,,,,,,,,,,,,,,,,,,,,,,,,,,,,,,,,,,,,,,,,,,,,,,,,,,,,,,,,,,,,,,,,,,,,,,,,,,,,,,,,,,,,,,,,,,,,,,,,,,,,,,,,
,,652598cfa67d3941c6e6c31c,2024-01-06_10h52.10.718,kallum_motion_pilot,2023.2.3,Win32,166.6666667,652598cfa67d3941c6e6c31c,6598e6a5d84f07970b831e70,6598fdf82faa4ff4b116d0e7,0.0267,0.0268,0,140,140,99,1,sixeight,,,,,,,,,,,,,,,,,,,,,,,,,,,,,,,,,,,,,,,,,,,,,,,,,,,,,,,,,,,,,,,,,,,,,,,,,,,,,,,,,,,,,,,,,,,,,,,,,,,,,,,,,,,,,,,,,,,,,,,,,,,,,,,,,,,,,,,
,,652598cfa67d3941c6e6c31c,2024-01-06_10h52.10.718,kallum_motion_pilot,2023.2.3,Win32,166.6666667,652598cfa67d3941c6e6c31c,6598e6a5d84f07970b831e70,6598fdf82faa4ff4b116d0e7,0.0268,0.0268,0,141,141,138,1,sixfive,,,,,,,,,,,,,,,,,,,,,,,,,,,,,,,,,,,,,,,,,,,,,,,,,,,,,,,,,,,,,,,,,,,,,,,,,,,,,,,,,,,,,,,,,,,,,,,,,,,,,,,,,,,,,,,,,,,,,,,,,,,,,,,,,,,,,,,
,,652598cfa67d3941c6e6c31c,2024-01-06_10h52.10.718,kallum_motion_pilot,2023.2.3,Win32,166.6666667,652598cfa67d3941c6e6c31c,6598e6a5d84f07970b831e70,6598fdf82faa4ff4b116d0e7,0.0269,0.0269,0,142,142,149,1,seveneight,,,,,,,,,,,,,,,,,,,,,,,,,,,,,,,,,,,,,,,,,,,,,,,,,,,,,,,,,,,,,,,,,,,,,,,,,,,,,,,,,,,,,,,,,,,,,,,,,,,,,,,,,,,,,,,,,,,,,,,,,,,,,,,,,,,,,,,
,,652598cfa67d3941c6e6c31c,2024-01-06_10h52.10.718,kallum_motion_pilot,2023.2.3,Win32,166.6666667,652598cfa67d3941c6e6c31c,6598e6a5d84f07970b831e70,6598fdf82faa4ff4b116d0e7,0.027,0.027,0,143,143,104,1,fivesix,,,,,,,,,,,,,,,,,,,,,,,,,,,,,,,,,,,,,,,,,,,,,,,,,,,,,,,,,,,,,,,,,,,,,,,,,,,,,,,,,,,,,,,,,,,,,,,,,,,,,,,,,,,,,,,,,,,,,,,,,,,,,,,,,,,,,,,
,,652598cfa67d3941c6e6c31c,2024-01-06_10h52.10.718,kallum_motion_pilot,2023.2.3,Win32,166.6666667,652598cfa67d3941c6e6c31c,6598e6a5d84f07970b831e70,6598fdf82faa4ff4b116d0e7,0.027,0.0271,0,144,144,27,1,twofour,,,,,,,,,,,,,,,,,,,,,,,,,,,,,,,,,,,,,,,,,,,,,,,,,,,,,,,,,,,,,,,,,,,,,,,,,,,,,,,,,,,,,,,,,,,,,,,,,,,,,,,,,,,,,,,,,,,,,,,,,,,,,,,,,,,,,,,
,,652598cfa67d3941c6e6c31c,2024-01-06_10h52.10.718,kallum_motion_pilot,2023.2.3,Win32,166.6666667,652598cfa67d3941c6e6c31c,6598e6a5d84f07970b831e70,6598fdf82faa4ff4b116d0e7,0.0272,0.0272,0,145,145,159,1,eightseven,,,,,,,,,,,,,,,,,,,,,,,,,,,,,,,,,,,,,,,,,,,,,,,,,,,,,,,,,,,,,,,,,,,,,,,,,,,,,,,,,,,,,,,,,,,,,,,,,,,,,,,,,,,,,,,,,,,,,,,,,,,,,,,,,,,,,,,
,,652598cfa67d3941c6e6c31c,2024-01-06_10h52.10.718,kallum_motion_pilot,2023.2.3,Win32,166.6666667,652598cfa67d3941c6e6c31c,6598e6a5d84f07970b831e70,6598fdf82faa4ff4b116d0e7,0.0273,0.0273,0,146,146,114,1,sixfive,,,,,,,,,,,,,,,,,,,,,,,,,,,,,,,,,,,,,,,,,,,,,,,,,,,,,,,,,,,,,,,,,,,,,,,,,,,,,,,,,,,,,,,,,,,,,,,,,,,,,,,,,,,,,,,,,,,,,,,,,,,,,,,,,,,,,,,
,,652598cfa67d3941c6e6c31c,2024-01-06_10h52.10.718,kallum_motion_pilot,2023.2.3,Win32,166.6666667,652598cfa67d3941c6e6c31c,6598e6a5d84f07970b831e70,6598fdf82faa4ff4b116d0e7,0.0273,0.0273,0,147,147,25,1,onethree,,,,,,,,,,,,,,,,,,,,,,,,,,,,,,,,,,,,,,,,,,,,,,,,,,,,,,,,,,,,,,,,,,,,,,,,,,,,,,,,,,,,,,,,,,,,,,,,,,,,,,,,,,,,,,,,,,,,,,,,,,,,,,,,,,,,,,,
,,652598cfa67d3941c6e6c31c,2024-01-06_10h52.10.718,kallum_motion_pilot,2023.2.3,Win32,166.6666667,652598cfa67d3941c6e6c31c,6598e6a5d84f07970b831e70,6598fdf82faa4ff4b116d0e7,0.0274,0.0275,0,148,148,21,1,threefour,,,,,,,,,,,,,,,,,,,,,,,,,,,,,,,,,,,,,,,,,,,,,,,,,,,,,,,,,,,,,,,,,,,,,,,,,,,,,,,,,,,,,,,,,,,,,,,,,,,,,,,,,,,,,,,,,,,,,,,,,,,,,,,,,,,,,,,
,,652598cfa67d3941c6e6c31c,2024-01-06_10h52.10.718,kallum_motion_pilot,2023.2.3,Win32,166.6666667,652598cfa67d3941c6e6c31c,6598e6a5d84f07970b831e70,6598fdf82faa4ff4b116d0e7,0.0276,0.0276,0,149,149,3,1,twofour,,,,,,,,,,,,,,,,,,,,,,,,,,,,,,,,,,,,,,,,,,,,,,,,,,,,,,,,,,,,,,,,,,,,,,,,,,,,,,,,,,,,,,,,,,,,,,,,,,,,,,,,,,,,,,,,,,,,,,,,,,,,,,,,,,,,,,,
,,652598cfa67d3941c6e6c31c,2024-01-06_10h52.10.718,kallum_motion_pilot,2023.2.3,Win32,166.6666667,652598cfa67d3941c6e6c31c,6598e6a5d84f07970b831e70,6598fdf82faa4ff4b116d0e7,0.0276,0.0277,0,150,150,106,1,sixfive,,,,,,,,,,,,,,,,,,,,,,,,,,,,,,,,,,,,,,,,,,,,,,,,,,,,,,,,,,,,,,,,,,,,,,,,,,,,,,,,,,,,,,,,,,,,,,,,,,,,,,,,,,,,,,,,,,,,,,,,,,,,,,,,,,,,,,,
,,652598cfa67d3941c6e6c31c,2024-01-06_10h52.10.718,kallum_motion_pilot,2023.2.3,Win32,166.6666667,652598cfa67d3941c6e6c31c,6598e6a5d84f07970b831e70,6598fdf82faa4ff4b116d0e7,0.0277,0.0277,0,151,151,55,1,fourthree,,,,,,,,,,,,,,,,,,,,,,,,,,,,,,,,,,,,,,,,,,,,,,,,,,,,,,,,,,,,,,,,,,,,,,,,,,,,,,,,,,,,,,,,,,,,,,,,,,,,,,,,,,,,,,,,,,,,,,,,,,,,,,,,,,,,,,,
,,652598cfa67d3941c6e6c31c,2024-01-06_10h52.10.718,kallum_motion_pilot,2023.2.3,Win32,166.6666667,652598cfa67d3941c6e6c31c,6598e6a5d84f07970b831e70,6598fdf82faa4ff4b116d0e7,0.0277,0.0278,0,152,152,98,1,sixfive,,,,,,,,,,,,,,,,,,,,,,,,,,,,,,,,,,,,,,,,,,,,,,,,,,,,,,,,,,,,,,,,,,,,,,,,,,,,,,,,,,,,,,,,,,,,,,,,,,,,,,,,,,,,,,,,,,,,,,,,,,,,,,,,,,,,,,,
,,652598cfa67d3941c6e6c31c,2024-01-06_10h52.10.718,kallum_motion_pilot,2023.2.3,Win32,166.6666667,652598cfa67d3941c6e6c31c,6598e6a5d84f07970b831e70,6598fdf82faa4ff4b116d0e7,0.0279,0.0279,0,153,153,111,1,eightseven,,,,,,,,,,,,,,,,,,,,,,,,,,,,,,,,,,,,,,,,,,,,,,,,,,,,,,,,,,,,,,,,,,,,,,,,,,,,,,,,,,,,,,,,,,,,,,,,,,,,,,,,,,,,,,,,,,,,,,,,,,,,,,,,,,,,,,,
,,652598cfa67d3941c6e6c31c,2024-01-06_10h52.10.718,kallum_motion_pilot,2023.2.3,Win32,166.6666667,652598cfa67d3941c6e6c31c,6598e6a5d84f07970b831e70,6598fdf82faa4ff4b116d0e7,0.0279,0.0279,0,154,154,58,1,twoone,,,,,,,,,,,,,,,,,,,,,,,,,,,,,,,,,,,,,,,,,,,,,,,,,,,,,,,,,,,,,,,,,,,,,,,,,,,,,,,,,,,,,,,,,,,,,,,,,,,,,,,,,,,,,,,,,,,,,,,,,,,,,,,,,,,,,,,
,,652598cfa67d3941c6e6c31c,2024-01-06_10h52.10.718,kallum_motion_pilot,2023.2.3,Win32,166.6666667,652598cfa67d3941c6e6c31c,6598e6a5d84f07970b831e70,6598fdf82faa4ff4b116d0e7,0.028,0.028,0,155,155,10,1,twoone,,,,,,,,,,,,,,,,,,,,,,,,,,,,,,,,,,,,,,,,,,,,,,,,,,,,,,,,,,,,,,,,,,,,,,,,,,,,,,,,,,,,,,,,,,,,,,,,,,,,,,,,,,,,,,,,,,,,,,,,,,,,,,,,,,,,,,,
,,652598cfa67d3941c6e6c31c,2024-01-06_10h52.10.718,kallum_motion_pilot,2023.2.3,Win32,166.6666667,652598cfa67d3941c6e6c31c,6598e6a5d84f07970b831e70,6598fdf82faa4ff4b116d0e7,0.0281,0.0281,0,156,156,47,1,fourthree,,,,,,,,,,,,,,,,,,,,,,,,,,,,,,,,,,,,,,,,,,,,,,,,,,,,,,,,,,,,,,,,,,,,,,,,,,,,,,,,,,,,,,,,,,,,,,,,,,,,,,,,,,,,,,,,,,,,,,,,,,,,,,,,,,,,,,,
,,652598cfa67d3941c6e6c31c,2024-01-06_10h52.10.718,kallum_motion_pilot,2023.2.3,Win32,166.6666667,652598cfa67d3941c6e6c31c,6598e6a5d84f07970b831e70,6598fdf82faa4ff4b116d0e7,0.0282,0.0282,0,157,157,34,1,twoone,,,,,,,,,,,,,,,,,,,,,,,,,,,,,,,,,,,,,,,,,,,,,,,,,,,,,,,,,,,,,,,,,,,,,,,,,,,,,,,,,,,,,,,,,,,,,,,,,,,,,,,,,,,,,,,,,,,,,,,,,,,,,,,,,,,,,,,
,,652598cfa67d3941c6e6c31c,2024-01-06_10h52.10.718,kallum_motion_pilot,2023.2.3,Win32,166.6666667,652598cfa67d3941c6e6c31c,6598e6a5d84f07970b831e70,6598fdf82faa4ff4b116d0e7,0.0283,0.0283,0,158,158,57,1,onethree,,,,,,,,,,,,,,,,,,,,,,,,,,,,,,,,,,,,,,,,,,,,,,,,,,,,,,,,,,,,,,,,,,,,,,,,,,,,,,,,,,,,,,,,,,,,,,,,,,,,,,,,,,,,,,,,,,,,,,,,,,,,,,,,,,,,,,,
,,652598cfa67d3941c6e6c31c,2024-01-06_10h52.10.718,kallum_motion_pilot,2023.2.3,Win32,166.6666667,652598cfa67d3941c6e6c31c,6598e6a5d84f07970b831e70,6598fdf82faa4ff4b116d0e7,0.0284,0.0284,0,159,159,95,1,eightseven,,,,,,,,,,,,,,,,,,,,,,,,,,,,,,,,,,,,,,,,,,,,,,,,,,,,,,,,,,,,,,,,,,,,,,,,,,,,,,,,,,,,,,,,,,,,,,,,,,,,,,,,,,,,,,,,,,,,,,,,,,,,,,,,,,,,,,,
,,652598cfa67d3941c6e6c31c,2024-01-06_10h52.10.718,kallum_motion_pilot,2023.2.3,Win32,166.6666667,652598cfa67d3941c6e6c31c,6598e6a5d84f07970b831e70,6598fdf82faa4ff4b116d0e7,0.0285,0.0285,0,160,160,71,1,fourthree,,,,,,,,,,,,,,,,,,,,,,,,,,,,,,,,,,,,,,,,,,,,,,,,,,,,,,,,,,,,,,,,,,,,,,,,,,,,,,,,,,,,,,,,,,,,,,,,,,,,,,,,,,,,,,,,,,,,,,,,,,,,,,,,,,,,,,,
,,652598cfa67d3941c6e6c31c,2024-01-06_10h52.10.718,kallum_motion_pilot,2023.2.3,Win32,166.6666667,652598cfa67d3941c6e6c31c,6598e6a5d84f07970b831e70,6598fdf82faa4ff4b116d0e7,0.0285,0.0286,0,161,161,41,1,onethree,,,,,,,,,,,,,,,,,,,,,,,,,,,,,,,,,,,,,,,,,,,,,,,,,,,,,,,,,,,,,,,,,,,,,,,,,,,,,,,,,,,,,,,,,,,,,,,,,,,,,,,,,,,,,,,,,,,,,,,,,,,,,,,,,,,,,,,
,,652598cfa67d3941c6e6c31c,2024-01-06_10h52.10.718,kallum_motion_pilot,2023.2.3,Win32,166.6666667,652598cfa67d3941c6e6c31c,6598e6a5d84f07970b831e70,6598fdf82faa4ff4b116d0e7,0.0286,0.0287,1,0,162,73,1,onethree,,,,,,,,,,,,,,,,,,,,,,,,,,,,,,,,,,,,,,,,,,,,,,,,,,,,,,,,,,,,,,,,,,,,,,,,,,,,,,,,,,,,,,,,,,,,,,,,,,,,,,,,,,,,,,,,,,,,,,,,,,,,,,,,,,,,,,,
,,652598cfa67d3941c6e6c31c,2024-01-06_10h52.10.718,kallum_motion_pilot,2023.2.3,Win32,166.6666667,652598cfa67d3941c6e6c31c,6598e6a5d84f07970b831e70,6598fdf82faa4ff4b116d0e7,0.0287,0.0287,1,1,163,128,1,fivesix,,,,,,,,,,,,,,,,,,,,,,,,,,,,,,,,,,,,,,,,,,,,,,,,,,,,,,,,,,,,,,,,,,,,,,,,,,,,,,,,,,,,,,,,,,,,,,,,,,,,,,,,,,,,,,,,,,,,,,,,,,,,,,,,,,,,,,,
,,652598cfa67d3941c6e6c31c,2024-01-06_10h52.10.718,kallum_motion_pilot,2023.2.3,Win32,166.6666667,652598cfa67d3941c6e6c31c,6598e6a5d84f07970b831e70,6598fdf82faa4ff4b116d0e7,0.0287,0.0288,1,2,164,126,1,eightsix,,,,,,,,,,,,,,,,,,,,,,,,,,,,,,,,,,,,,,,,,,,,,,,,,,,,,,,,,,,,,,,,,,,,,,,,,,,,,,,,,,,,,,,,,,,,,,,,,,,,,,,,,,,,,,,,,,,,,,,,,,,,,,,,,,,,,,,
,,652598cfa67d3941c6e6c31c,2024-01-06_10h52.10.718,kallum_motion_pilot,2023.2.3,Win32,166.6666667,652598cfa67d3941c6e6c31c,6598e6a5d84f07970b831e70,6598fdf82faa4ff4b116d0e7,0.0288,0.0289,1,3,165,85,1,seveneight,,,,,,,,,,,,,,,,,,,,,,,,,,,,,,,,,,,,,,,,,,,,,,,,,,,,,,,,,,,,,,,,,,,,,,,,,,,,,,,,,,,,,,,,,,,,,,,,,,,,,,,,,,,,,,,,,,,,,,,,,,,,,,,,,,,,,,,
,,652598cfa67d3941c6e6c31c,2024-01-06_10h52.10.718,kallum_motion_pilot,2023.2.3,Win32,166.6666667,652598cfa67d3941c6e6c31c,6598e6a5d84f07970b831e70,6598fdf82faa4ff4b116d0e7,0.0289,0.029,1,4,166,96,1,fivesix,,,,,,,,,,,,,,,,,,,,,,,,,,,,,,,,,,,,,,,,,,,,,,,,,,,,,,,,,,,,,,,,,,,,,,,,,,,,,,,,,,,,,,,,,,,,,,,,,,,,,,,,,,,,,,,,,,,,,,,,,,,,,,,,,,,,,,,
,,652598cfa67d3941c6e6c31c,2024-01-06_10h52.10.718,kallum_motion_pilot,2023.2.3,Win32,166.6666667,652598cfa67d3941c6e6c31c,6598e6a5d84f07970b831e70,6598fdf82faa4ff4b116d0e7,0.0291,0.0291,1,5,167,122,1,sixfive,,,,,,,,,,,,,,,,,,,,,,,,,,,,,,,,,,,,,,,,,,,,,,,,,,,,,,,,,,,,,,,,,,,,,,,,,,,,,,,,,,,,,,,,,,,,,,,,,,,,,,,,,,,,,,,,,,,,,,,,,,,,,,,,,,,,,,,
,,652598cfa67d3941c6e6c31c,2024-01-06_10h52.10.718,kallum_motion_pilot,2023.2.3,Win32,166.6666667,652598cfa67d3941c6e6c31c,6598e6a5d84f07970b831e70,6598fdf82faa4ff4b116d0e7,0.0292,0.0292,1,6,168,145,1,fiveseven,,,,,,,,,,,,,,,,,,,,,,,,,,,,,,,,,,,,,,,,,,,,,,,,,,,,,,,,,,,,,,,,,,,,,,,,,,,,,,,,,,,,,,,,,,,,,,,,,,,,,,,,,,,,,,,,,,,,,,,,,,,,,,,,,,,,,,,
,,652598cfa67d3941c6e6c31c,2024-01-06_10h52.10.718,kallum_motion_pilot,2023.2.3,Win32,166.6666667,652598cfa67d3941c6e6c31c,6598e6a5d84f07970b831e70,6598fdf82faa4ff4b116d0e7,0.0292,0.0292,1,7,169,92,1,sevenfive,,,,,,,,,,,,,,,,,,,,,,,,,,,,,,,,,,,,,,,,,,,,,,,,,,,,,,,,,,,,,,,,,,,,,,,,,,,,,,,,,,,,,,,,,,,,,,,,,,,,,,,,,,,,,,,,,,,,,,,,,,,,,,,,,,,,,,,
,,652598cfa67d3941c6e6c31c,2024-01-06_10h52.10.718,kallum_motion_pilot,2023.2.3,Win32,166.6666667,652598cfa67d3941c6e6c31c,6598e6a5d84f07970b831e70,6598fdf82faa4ff4b116d0e7,0.0293,0.0294,1,8,170,19,1,twofour,,,,,,,,,,,,,,,,,,,,,,,,,,,,,,,,,,,,,,,,,,,,,,,,,,,,,,,,,,,,,,,,,,,,,,,,,,,,,,,,,,,,,,,,,,,,,,,,,,,,,,,,,,,,,,,,,,,,,,,,,,,,,,,,,,,,,,,
,,652598cfa67d3941c6e6c31c,2024-01-06_10h52.10.718,kallum_motion_pilot,2023.2.3,Win32,166.6666667,652598cfa67d3941c6e6c31c,6598e6a5d84f07970b831e70,6598fdf82faa4ff4b116d0e7,0.0294,0.0294,1,9,171,14,1,fourtwo,,,,,,,,,,,,,,,,,,,,,,,,,,,,,,,,,,,,,,,,,,,,,,,,,,,,,,,,,,,,,,,,,,,,,,,,,,,,,,,,,,,,,,,,,,,,,,,,,,,,,,,,,,,,,,,,,,,,,,,,,,,,,,,,,,,,,,,
,,652598cfa67d3941c6e6c31c,2024-01-06_10h52.10.718,kallum_motion_pilot,2023.2.3,Win32,166.6666667,652598cfa67d3941c6e6c31c,6598e6a5d84f07970b831e70,6598fdf82faa4ff4b116d0e7,0.0294,0.0295,1,10,172,27,1,twofour,,,,,,,,,,,,,,,,,,,,,,,,,,,,,,,,,,,,,,,,,,,,,,,,,,,,,,,,,,,,,,,,,,,,,,,,,,,,,,,,,,,,,,,,,,,,,,,,,,,,,,,,,,,,,,,,,,,,,,,,,,,,,,,,,,,,,,,
,,652598cfa67d3941c6e6c31c,2024-01-06_10h52.10.718,kallum_motion_pilot,2023.2.3,Win32,166.6666667,652598cfa67d3941c6e6c31c,6598e6a5d84f07970b831e70,6598fdf82faa4ff4b116d0e7,0.0296,0.0296,1,11,173,56,1,onetwo,,,,,,,,,,,,,,,,,,,,,,,,,,,,,,,,,,,,,,,,,,,,,,,,,,,,,,,,,,,,,,,,,,,,,,,,,,,,,,,,,,,,,,,,,,,,,,,,,,,,,,,,,,,,,,,,,,,,,,,,,,,,,,,,,,,,,,,
,,652598cfa67d3941c6e6c31c,2024-01-06_10h52.10.718,kallum_motion_pilot,2023.2.3,Win32,166.6666667,652598cfa67d3941c6e6c31c,6598e6a5d84f07970b831e70,6598fdf82faa4ff4b116d0e7,0.0297,0.0298,1,12,174,161,1,fiveseven,,,,,,,,,,,,,,,,,,,,,,,,,,,,,,,,,,,,,,,,,,,,,,,,,,,,,,,,,,,,,,,,,,,,,,,,,,,,,,,,,,,,,,,,,,,,,,,,,,,,,,,,,,,,,,,,,,,,,,,,,,,,,,,,,,,,,,,
,,652598cfa67d3941c6e6c31c,2024-01-06_10h52.10.718,kallum_motion_pilot,2023.2.3,Win32,166.6666667,652598cfa67d3941c6e6c31c,6598e6a5d84f07970b831e70,6598fdf82faa4ff4b116d0e7,0.0298,0.0298,1,13,175,26,1,twoone,,,,,,,,,,,,,,,,,,,,,,,,,,,,,,,,,,,,,,,,,,,,,,,,,,,,,,,,,,,,,,,,,,,,,,,,,,,,,,,,,,,,,,,,,,,,,,,,,,,,,,,,,,,,,,,,,,,,,,,,,,,,,,,,,,,,,,,
,,652598cfa67d3941c6e6c31c,2024-01-06_10h52.10.718,kallum_motion_pilot,2023.2.3,Win32,166.6666667,652598cfa67d3941c6e6c31c,6598e6a5d84f07970b831e70,6598fdf82faa4ff4b116d0e7,0.0298,0.0299,1,14,176,102,1,eightsix,,,,,,,,,,,,,,,,,,,,,,,,,,,,,,,,,,,,,,,,,,,,,,,,,,,,,,,,,,,,,,,,,,,,,,,,,,,,,,,,,,,,,,,,,,,,,,,,,,,,,,,,,,,,,,,,,,,,,,,,,,,,,,,,,,,,,,,
,,652598cfa67d3941c6e6c31c,2024-01-06_10h52.10.718,kallum_motion_pilot,2023.2.3,Win32,166.6666667,652598cfa67d3941c6e6c31c,6598e6a5d84f07970b831e70,6598fdf82faa4ff4b116d0e7,0.0299,0.0299,1,15,177,74,1,twoone,,,,,,,,,,,,,,,,,,,,,,,,,,,,,,,,,,,,,,,,,,,,,,,,,,,,,,,,,,,,,,,,,,,,,,,,,,,,,,,,,,,,,,,,,,,,,,,,,,,,,,,,,,,,,,,,,,,,,,,,,,,,,,,,,,,,,,,
,,652598cfa67d3941c6e6c31c,2024-01-06_10h52.10.718,kallum_motion_pilot,2023.2.3,Win32,166.6666667,652598cfa67d3941c6e6c31c,6598e6a5d84f07970b831e70,6598fdf82faa4ff4b116d0e7,0.03,0.0301,1,16,178,98,1,sixfive,,,,,,,,,,,,,,,,,,,,,,,,,,,,,,,,,,,,,,,,,,,,,,,,,,,,,,,,,,,,,,,,,,,,,,,,,,,,,,,,,,,,,,,,,,,,,,,,,,,,,,,,,,,,,,,,,,,,,,,,,,,,,,,,,,,,,,,
,,652598cfa67d3941c6e6c31c,2024-01-06_10h52.10.718,kallum_motion_pilot,2023.2.3,Win32,166.6666667,652598cfa67d3941c6e6c31c,6598e6a5d84f07970b831e70,6598fdf82faa4ff4b116d0e7,0.0301,0.0302,1,17,179,33,1,onethree,,,,,,,,,,,,,,,,,,,,,,,,,,,,,,,,,,,,,,,,,,,,,,,,,,,,,,,,,,,,,,,,,,,,,,,,,,,,,,,,,,,,,,,,,,,,,,,,,,,,,,,,,,,,,,,,,,,,,,,,,,,,,,,,,,,,,,,
,,652598cfa67d3941c6e6c31c,2024-01-06_10h52.10.718,kallum_motion_pilot,2023.2.3,Win32,166.6666667,652598cfa67d3941c6e6c31c,6598e6a5d84f07970b831e70,6598fdf82faa4ff4b116d0e7,0.0302,0.0303,1,18,180,114,1,sixfive,,,,,,,,,,,,,,,,,,,,,,,,,,,,,,,,,,,,,,,,,,,,,,,,,,,,,,,,,,,,,,,,,,,,,,,,,,,,,,,,,,,,,,,,,,,,,,,,,,,,,,,,,,,,,,,,,,,,,,,,,,,,,,,,,,,,,,,
,,652598cfa67d3941c6e6c31c,2024-01-06_10h52.10.718,kallum_motion_pilot,2023.2.3,Win32,166.6666667,652598cfa67d3941c6e6c31c,6598e6a5d84f07970b831e70,6598fdf82faa4ff4b116d0e7,0.0303,0.0303,1,19,181,61,1,threefour,,,,,,,,,,,,,,,,,,,,,,,,,,,,,,,,,,,,,,,,,,,,,,,,,,,,,,,,,,,,,,,,,,,,,,,,,,,,,,,,,,,,,,,,,,,,,,,,,,,,,,,,,,,,,,,,,,,,,,,,,,,,,,,,,,,,,,,
,,652598cfa67d3941c6e6c31c,2024-01-06_10h52.10.718,kallum_motion_pilot,2023.2.3,Win32,166.6666667,652598cfa67d3941c6e6c31c,6598e6a5d84f07970b831e70,6598fdf82faa4ff4b116d0e7,0.0304,0.0304,1,20,182,58,1,twoone,,,,,,,,,,,,,,,,,,,,,,,,,,,,,,,,,,,,,,,,,,,,,,,,,,,,,,,,,,,,,,,,,,,,,,,,,,,,,,,,,,,,,,,,,,,,,,,,,,,,,,,,,,,,,,,,,,,,,,,,,,,,,,,,,,,,,,,
,,652598cfa67d3941c6e6c31c,2024-01-06_10h52.10.718,kallum_motion_pilot,2023.2.3,Win32,166.6666667,652598cfa67d3941c6e6c31c,6598e6a5d84f07970b831e70,6598fdf82faa4ff4b116d0e7,0.0305,0.0305,1,21,183,10,1,twoone,,,,,,,,,,,,,,,,,,,,,,,,,,,,,,,,,,,,,,,,,,,,,,,,,,,,,,,,,,,,,,,,,,,,,,,,,,,,,,,,,,,,,,,,,,,,,,,,,,,,,,,,,,,,,,,,,,,,,,,,,,,,,,,,,,,,,,,
,,652598cfa67d3941c6e6c31c,2024-01-06_10h52.10.718,kallum_motion_pilot,2023.2.3,Win32,166.6666667,652598cfa67d3941c6e6c31c,6598e6a5d84f07970b831e70,6598fdf82faa4ff4b116d0e7,0.0306,0.0307,1,22,184,42,1,twoone,,,,,,,,,,,,,,,,,,,,,,,,,,,,,,,,,,,,,,,,,,,,,,,,,,,,,,,,,,,,,,,,,,,,,,,,,,,,,,,,,,,,,,,,,,,,,,,,,,,,,,,,,,,,,,,,,,,,,,,,,,,,,,,,,,,,,,,
,,652598cfa67d3941c6e6c31c,2024-01-06_10h52.10.718,kallum_motion_pilot,2023.2.3,Win32,166.6666667,652598cfa67d3941c6e6c31c,6598e6a5d84f07970b831e70,6598fdf82faa4ff4b116d0e7,0.0307,0.0307,1,23,185,91,1,sixeight,,,,,,,,,,,,,,,,,,,,,,,,,,,,,,,,,,,,,,,,,,,,,,,,,,,,,,,,,,,,,,,,,,,,,,,,,,,,,,,,,,,,,,,,,,,,,,,,,,,,,,,,,,,,,,,,,,,,,,,,,,,,,,,,,,,,,,,
,,652598cfa67d3941c6e6c31c,2024-01-06_10h52.10.718,kallum_motion_pilot,2023.2.3,Win32,166.6666667,652598cfa67d3941c6e6c31c,6598e6a5d84f07970b831e70,6598fdf82faa4ff4b116d0e7,0.0308,0.0308,1,24,186,142,1,eightsix,,,,,,,,,,,,,,,,,,,,,,,,,,,,,,,,,,,,,,,,,,,,,,,,,,,,,,,,,,,,,,,,,,,,,,,,,,,,,,,,,,,,,,,,,,,,,,,,,,,,,,,,,,,,,,,,,,,,,,,,,,,,,,,,,,,,,,,
,,652598cfa67d3941c6e6c31c,2024-01-06_10h52.10.718,kallum_motion_pilot,2023.2.3,Win32,166.6666667,652598cfa67d3941c6e6c31c,6598e6a5d84f07970b831e70,6598fdf82faa4ff4b116d0e7,0.0309,0.031,1,25,187,116,1,sevenfive,,,,,,,,,,,,,,,,,,,,,,,,,,,,,,,,,,,,,,,,,,,,,,,,,,,,,,,,,,,,,,,,,,,,,,,,,,,,,,,,,,,,,,,,,,,,,,,,,,,,,,,,,,,,,,,,,,,,,,,,,,,,,,,,,,,,,,,
,,652598cfa67d3941c6e6c31c,2024-01-06_10h52.10.718,kallum_motion_pilot,2023.2.3,Win32,166.6666667,652598cfa67d3941c6e6c31c,6598e6a5d84f07970b831e70,6598fdf82faa4ff4b116d0e7,0.031,0.0311,1,26,188,70,1,fourtwo,,,,,,,,,,,,,,,,,,,,,,,,,,,,,,,,,,,,,,,,,,,,,,,,,,,,,,,,,,,,,,,,,,,,,,,,,,,,,,,,,,,,,,,,,,,,,,,,,,,,,,,,,,,,,,,,,,,,,,,,,,,,,,,,,,,,,,,
,,652598cfa67d3941c6e6c31c,2024-01-06_10h52.10.718,kallum_motion_pilot,2023.2.3,Win32,166.6666667,652598cfa67d3941c6e6c31c,6598e6a5d84f07970b831e70,6598fdf82faa4ff4b116d0e7,0.0311,0.0312,1,27,189,71,1,fourthree,,,,,,,,,,,,,,,,,,,,,,,,,,,,,,,,,,,,,,,,,,,,,,,,,,,,,,,,,,,,,,,,,,,,,,,,,,,,,,,,,,,,,,,,,,,,,,,,,,,,,,,,,,,,,,,,,,,,,,,,,,,,,,,,,,,,,,,
,,652598cfa67d3941c6e6c31c,2024-01-06_10h52.10.718,kallum_motion_pilot,2023.2.3,Win32,166.6666667,652598cfa67d3941c6e6c31c,6598e6a5d84f07970b831e70,6598fdf82faa4ff4b116d0e7,0.0313,0.0313,1,28,190,144,1,fivesix,,,,,,,,,,,,,,,,,,,,,,,,,,,,,,,,,,,,,,,,,,,,,,,,,,,,,,,,,,,,,,,,,,,,,,,,,,,,,,,,,,,,,,,,,,,,,,,,,,,,,,,,,,,,,,,,,,,,,,,,,,,,,,,,,,,,,,,
,,652598cfa67d3941c6e6c31c,2024-01-06_10h52.10.718,kallum_motion_pilot,2023.2.3,Win32,166.6666667,652598cfa67d3941c6e6c31c,6598e6a5d84f07970b831e70,6598fdf82faa4ff4b116d0e7,0.0315,0.0315,1,29,191,40,1,onetwo,,,,,,,,,,,,,,,,,,,,,,,,,,,,,,,,,,,,,,,,,,,,,,,,,,,,,,,,,,,,,,,,,,,,,,,,,,,,,,,,,,,,,,,,,,,,,,,,,,,,,,,,,,,,,,,,,,,,,,,,,,,,,,,,,,,,,,,
,,652598cfa67d3941c6e6c31c,2024-01-06_10h52.10.718,kallum_motion_pilot,2023.2.3,Win32,166.6666667,652598cfa67d3941c6e6c31c,6598e6a5d84f07970b831e70,6598fdf82faa4ff4b116d0e7,0.0317,0.0317,1,30,192,17,1,onethree,,,,,,,,,,,,,,,,,,,,,,,,,,,,,,,,,,,,,,,,,,,,,,,,,,,,,,,,,,,,,,,,,,,,,,,,,,,,,,,,,,,,,,,,,,,,,,,,,,,,,,,,,,,,,,,,,,,,,,,,,,,,,,,,,,,,,,,
,,652598cfa67d3941c6e6c31c,2024-01-06_10h52.10.718,kallum_motion_pilot,2023.2.3,Win32,166.6666667,652598cfa67d3941c6e6c31c,6598e6a5d84f07970b831e70,6598fdf82faa4ff4b116d0e7,0.0318,0.0319,1,31,193,129,1,fiveseven,,,,,,,,,,,,,,,,,,,,,,,,,,,,,,,,,,,,,,,,,,,,,,,,,,,,,,,,,,,,,,,,,,,,,,,,,,,,,,,,,,,,,,,,,,,,,,,,,,,,,,,,,,,,,,,,,,,,,,,,,,,,,,,,,,,,,,,
,,652598cfa67d3941c6e6c31c,2024-01-06_10h52.10.718,kallum_motion_pilot,2023.2.3,Win32,166.6666667,652598cfa67d3941c6e6c31c,6598e6a5d84f07970b831e70,6598fdf82faa4ff4b116d0e7,0.032,0.0321,1,32,194,68,1,threeone,,,,,,,,,,,,,,,,,,,,,,,,,,,,,,,,,,,,,,,,,,,,,,,,,,,,,,,,,,,,,,,,,,,,,,,,,,,,,,,,,,,,,,,,,,,,,,,,,,,,,,,,,,,,,,,,,,,,,,,,,,,,,,,,,,,,,,,
,,652598cfa67d3941c6e6c31c,2024-01-06_10h52.10.718,kallum_motion_pilot,2023.2.3,Win32,166.6666667,652598cfa67d3941c6e6c31c,6598e6a5d84f07970b831e70,6598fdf82faa4ff4b116d0e7,0.0322,0.0322,1,33,195,6,1,fourtwo,,,,,,,,,,,,,,,,,,,,,,,,,,,,,,,,,,,,,,,,,,,,,,,,,,,,,,,,,,,,,,,,,,,,,,,,,,,,,,,,,,,,,,,,,,,,,,,,,,,,,,,,,,,,,,,,,,,,,,,,,,,,,,,,,,,,,,,
,,652598cfa67d3941c6e6c31c,2024-01-06_10h52.10.718,kallum_motion_pilot,2023.2.3,Win32,166.6666667,652598cfa67d3941c6e6c31c,6598e6a5d84f07970b831e70,6598fdf82faa4ff4b116d0e7,0.0322,0.0323,1,34,196,146,1,sixfive,,,,,,,,,,,,,,,,,,,,,,,,,,,,,,,,,,,,,,,,,,,,,,,,,,,,,,,,,,,,,,,,,,,,,,,,,,,,,,,,,,,,,,,,,,,,,,,,,,,,,,,,,,,,,,,,,,,,,,,,,,,,,,,,,,,,,,,
,,652598cfa67d3941c6e6c31c,2024-01-06_10h52.10.718,kallum_motion_pilot,2023.2.3,Win32,166.6666667,652598cfa67d3941c6e6c31c,6598e6a5d84f07970b831e70,6598fdf82faa4ff4b116d0e7,0.0324,0.0324,1,35,197,2,1,twoone,,,,,,,,,,,,,,,,,,,,,,,,,,,,,,,,,,,,,,,,,,,,,,,,,,,,,,,,,,,,,,,,,,,,,,,,,,,,,,,,,,,,,,,,,,,,,,,,,,,,,,,,,,,,,,,,,,,,,,,,,,,,,,,,,,,,,,,
,,652598cfa67d3941c6e6c31c,2024-01-06_10h52.10.718,kallum_motion_pilot,2023.2.3,Win32,166.6666667,652598cfa67d3941c6e6c31c,6598e6a5d84f07970b831e70,6598fdf82faa4ff4b116d0e7,0.0324,0.0325,1,36,198,106,1,sixfive,,,,,,,,,,,,,,,,,,,,,,,,,,,,,,,,,,,,,,,,,,,,,,,,,,,,,,,,,,,,,,,,,,,,,,,,,,,,,,,,,,,,,,,,,,,,,,,,,,,,,,,,,,,,,,,,,,,,,,,,,,,,,,,,,,,,,,,
,,652598cfa67d3941c6e6c31c,2024-01-06_10h52.10.718,kallum_motion_pilot,2023.2.3,Win32,166.6666667,652598cfa67d3941c6e6c31c,6598e6a5d84f07970b831e70,6598fdf82faa4ff4b116d0e7,0.0325,0.0326,1,37,199,39,1,fourthree,,,,,,,,,,,,,,,,,,,,,,,,,,,,,,,,,,,,,,,,,,,,,,,,,,,,,,,,,,,,,,,,,,,,,,,,,,,,,,,,,,,,,,,,,,,,,,,,,,,,,,,,,,,,,,,,,,,,,,,,,,,,,,,,,,,,,,,
,,652598cfa67d3941c6e6c31c,2024-01-06_10h52.10.718,kallum_motion_pilot,2023.2.3,Win32,166.6666667,652598cfa67d3941c6e6c31c,6598e6a5d84f07970b831e70,6598fdf82faa4ff4b116d0e7,0.0326,0.0327,1,38,200,45,1,threefour,,,,,,,,,,,,,,,,,,,,,,,,,,,,,,,,,,,,,,,,,,,,,,,,,,,,,,,,,,,,,,,,,,,,,,,,,,,,,,,,,,,,,,,,,,,,,,,,,,,,,,,,,,,,,,,,,,,,,,,,,,,,,,,,,,,,,,,
,,652598cfa67d3941c6e6c31c,2024-01-06_10h52.10.718,kallum_motion_pilot,2023.2.3,Win32,166.6666667,652598cfa67d3941c6e6c31c,6598e6a5d84f07970b831e70,6598fdf82faa4ff4b116d0e7,0.0327,0.0327,1,39,201,21,1,threefour,,,,,,,,,,,,,,,,,,,,,,,,,,,,,,,,,,,,,,,,,,,,,,,,,,,,,,,,,,,,,,,,,,,,,,,,,,,,,,,,,,,,,,,,,,,,,,,,,,,,,,,,,,,,,,,,,,,,,,,,,,,,,,,,,,,,,,,
,,652598cfa67d3941c6e6c31c,2024-01-06_10h52.10.718,kallum_motion_pilot,2023.2.3,Win32,166.6666667,652598cfa67d3941c6e6c31c,6598e6a5d84f07970b831e70,6598fdf82faa4ff4b116d0e7,0.0329,0.0329,1,40,202,86,1,eightsix,,,,,,,,,,,,,,,,,,,,,,,,,,,,,,,,,,,,,,,,,,,,,,,,,,,,,,,,,,,,,,,,,,,,,,,,,,,,,,,,,,,,,,,,,,,,,,,,,,,,,,,,,,,,,,,,,,,,,,,,,,,,,,,,,,,,,,,
,,652598cfa67d3941c6e6c31c,2024-01-06_10h52.10.718,kallum_motion_pilot,2023.2.3,Win32,166.6666667,652598cfa67d3941c6e6c31c,6598e6a5d84f07970b831e70,6598fdf82faa4ff4b116d0e7,0.033,0.033,1,41,203,76,1,threeone,,,,,,,,,,,,,,,,,,,,,,,,,,,,,,,,,,,,,,,,,,,,,,,,,,,,,,,,,,,,,,,,,,,,,,,,,,,,,,,,,,,,,,,,,,,,,,,,,,,,,,,,,,,,,,,,,,,,,,,,,,,,,,,,,,,,,,,
,,652598cfa67d3941c6e6c31c,2024-01-06_10h52.10.718,kallum_motion_pilot,2023.2.3,Win32,166.6666667,652598cfa67d3941c6e6c31c,6598e6a5d84f07970b831e70,6598fdf82faa4ff4b116d0e7,0.033,0.033,1,42,204,51,1,twofour,,,,,,,,,,,,,,,,,,,,,,,,,,,,,,,,,,,,,,,,,,,,,,,,,,,,,,,,,,,,,,,,,,,,,,,,,,,,,,,,,,,,,,,,,,,,,,,,,,,,,,,,,,,,,,,,,,,,,,,,,,,,,,,,,,,,,,,
,,652598cfa67d3941c6e6c31c,2024-01-06_10h52.10.718,kallum_motion_pilot,2023.2.3,Win32,166.6666667,652598cfa67d3941c6e6c31c,6598e6a5d84f07970b831e70,6598fdf82faa4ff4b116d0e7,0.0331,0.0331,1,43,205,89,1,fiveseven,,,,,,,,,,,,,,,,,,,,,,,,,,,,,,,,,,,,,,,,,,,,,,,,,,,,,,,,,,,,,,,,,,,,,,,,,,,,,,,,,,,,,,,,,,,,,,,,,,,,,,,,,,,,,,,,,,,,,,,,,,,,,,,,,,,,,,,
,,652598cfa67d3941c6e6c31c,2024-01-06_10h52.10.718,kallum_motion_pilot,2023.2.3,Win32,166.6666667,652598cfa67d3941c6e6c31c,6598e6a5d84f07970b831e70,6598fdf82faa4ff4b116d0e7,0.0332,0.0333,1,44,206,160,1,fivesix,,,,,,,,,,,,,,,,,,,,,,,,,,,,,,,,,,,,,,,,,,,,,,,,,,,,,,,,,,,,,,,,,,,,,,,,,,,,,,,,,,,,,,,,,,,,,,,,,,,,,,,,,,,,,,,,,,,,,,,,,,,,,,,,,,,,,,,
,,652598cfa67d3941c6e6c31c,2024-01-06_10h52.10.718,kallum_motion_pilot,2023.2.3,Win32,166.6666667,652598cfa67d3941c6e6c31c,6598e6a5d84f07970b831e70,6598fdf82faa4ff4b116d0e7,0.0333,0.0333,1,45,207,23,1,fourthree,,,,,,,,,,,,,,,,,,,,,,,,,,,,,,,,,,,,,,,,,,,,,,,,,,,,,,,,,,,,,,,,,,,,,,,,,,,,,,,,,,,,,,,,,,,,,,,,,,,,,,,,,,,,,,,,,,,,,,,,,,,,,,,,,,,,,,,
,,652598cfa67d3941c6e6c31c,2024-01-06_10h52.10.718,kallum_motion_pilot,2023.2.3,Win32,166.6666667,652598cfa67d3941c6e6c31c,6598e6a5d84f07970b831e70,6598fdf82faa4ff4b116d0e7,0.0334,0.0335,1,46,208,49,1,onethree,,,,,,,,,,,,,,,,,,,,,,,,,,,,,,,,,,,,,,,,,,,,,,,,,,,,,,,,,,,,,,,,,,,,,,,,,,,,,,,,,,,,,,,,,,,,,,,,,,,,,,,,,,,,,,,,,,,,,,,,,,,,,,,,,,,,,,,
,,652598cfa67d3941c6e6c31c,2024-01-06_10h52.10.718,kallum_motion_pilot,2023.2.3,Win32,166.6666667,652598cfa67d3941c6e6c31c,6598e6a5d84f07970b831e70,6598fdf82faa4ff4b116d0e7,0.0335,0.0335,1,47,209,38,1,fourtwo,,,,,,,,,,,,,,,,,,,,,,,,,,,,,,,,,,,,,,,,,,,,,,,,,,,,,,,,,,,,,,,,,,,,,,,,,,,,,,,,,,,,,,,,,,,,,,,,,,,,,,,,,,,,,,,,,,,,,,,,,,,,,,,,,,,,,,,
,,652598cfa67d3941c6e6c31c,2024-01-06_10h52.10.718,kallum_motion_pilot,2023.2.3,Win32,166.6666667,652598cfa67d3941c6e6c31c,6598e6a5d84f07970b831e70,6598fdf82faa4ff4b116d0e7,0.0336,0.0336,1,48,210,34,1,twoone,,,,,,,,,,,,,,,,,,,,,,,,,,,,,,,,,,,,,,,,,,,,,,,,,,,,,,,,,,,,,,,,,,,,,,,,,,,,,,,,,,,,,,,,,,,,,,,,,,,,,,,,,,,,,,,,,,,,,,,,,,,,,,,,,,,,,,,
,,652598cfa67d3941c6e6c31c,2024-01-06_10h52.10.718,kallum_motion_pilot,2023.2.3,Win32,166.6666667,652598cfa67d3941c6e6c31c,6598e6a5d84f07970b831e70,6598fdf82faa4ff4b116d0e7,0.0337,0.0337,1,49,211,53,1,threefour,,,,,,,,,,,,,,,,,,,,,,,,,,,,,,,,,,,,,,,,,,,,,,,,,,,,,,,,,,,,,,,,,,,,,,,,,,,,,,,,,,,,,,,,,,,,,,,,,,,,,,,,,,,,,,,,,,,,,,,,,,,,,,,,,,,,,,,
,,652598cfa67d3941c6e6c31c,2024-01-06_10h52.10.718,kallum_motion_pilot,2023.2.3,Win32,166.6666667,652598cfa67d3941c6e6c31c,6598e6a5d84f07970b831e70,6598fdf82faa4ff4b116d0e7,0.0338,0.0338,1,50,212,48,1,onetwo,,,,,,,,,,,,,,,,,,,,,,,,,,,,,,,,,,,,,,,,,,,,,,,,,,,,,,,,,,,,,,,,,,,,,,,,,,,,,,,,,,,,,,,,,,,,,,,,,,,,,,,,,,,,,,,,,,,,,,,,,,,,,,,,,,,,,,,
,,652598cfa67d3941c6e6c31c,2024-01-06_10h52.10.718,kallum_motion_pilot,2023.2.3,Win32,166.6666667,652598cfa67d3941c6e6c31c,6598e6a5d84f07970b831e70,6598fdf82faa4ff4b116d0e7,0.0339,0.0339,1,51,213,67,1,twofour,,,,,,,,,,,,,,,,,,,,,,,,,,,,,,,,,,,,,,,,,,,,,,,,,,,,,,,,,,,,,,,,,,,,,,,,,,,,,,,,,,,,,,,,,,,,,,,,,,,,,,,,,,,,,,,,,,,,,,,,,,,,,,,,,,,,,,,
,,652598cfa67d3941c6e6c31c,2024-01-06_10h52.10.718,kallum_motion_pilot,2023.2.3,Win32,166.6666667,652598cfa67d3941c6e6c31c,6598e6a5d84f07970b831e70,6598fdf82faa4ff4b116d0e7,0.034,0.0341,1,52,214,139,1,sixeight,,,,,,,,,,,,,,,,,,,,,,,,,,,,,,,,,,,,,,,,,,,,,,,,,,,,,,,,,,,,,,,,,,,,,,,,,,,,,,,,,,,,,,,,,,,,,,,,,,,,,,,,,,,,,,,,,,,,,,,,,,,,,,,,,,,,,,,
,,652598cfa67d3941c6e6c31c,2024-01-06_10h52.10.718,kallum_motion_pilot,2023.2.3,Win32,166.6666667,652598cfa67d3941c6e6c31c,6598e6a5d84f07970b831e70,6598fdf82faa4ff4b116d0e7,0.0341,0.0342,1,53,215,41,1,onethree,,,,,,,,,,,,,,,,,,,,,,,,,,,,,,,,,,,,,,,,,,,,,,,,,,,,,,,,,,,,,,,,,,,,,,,,,,,,,,,,,,,,,,,,,,,,,,,,,,,,,,,,,,,,,,,,,,,,,,,,,,,,,,,,,,,,,,,
,,652598cfa67d3941c6e6c31c,2024-01-06_10h52.10.718,kallum_motion_pilot,2023.2.3,Win32,166.6666667,652598cfa67d3941c6e6c31c,6598e6a5d84f07970b831e70,6598fdf82faa4ff4b116d0e7,0.0342,0.0342,1,54,216,0,1,onetwo,,,,,,,,,,,,,,,,,,,,,,,,,,,,,,,,,,,,,,,,,,,,,,,,,,,,,,,,,,,,,,,,,,,,,,,,,,,,,,,,,,,,,,,,,,,,,,,,,,,,,,,,,,,,,,,,,,,,,,,,,,,,,,,,,,,,,,,
,,652598cfa67d3941c6e6c31c,2024-01-06_10h52.10.718,kallum_motion_pilot,2023.2.3,Win32,166.6666667,652598cfa67d3941c6e6c31c,6598e6a5d84f07970b831e70,6598fdf82faa4ff4b116d0e7,0.0342,0.0343,1,55,217,1,1,onethree,,,,,,,,,,,,,,,,,,,,,,,,,,,,,,,,,,,,,,,,,,,,,,,,,,,,,,,,,,,,,,,,,,,,,,,,,,,,,,,,,,,,,,,,,,,,,,,,,,,,,,,,,,,,,,,,,,,,,,,,,,,,,,,,,,,,,,,
,,652598cfa67d3941c6e6c31c,2024-01-06_10h52.10.718,kallum_motion_pilot,2023.2.3,Win32,166.6666667,652598cfa67d3941c6e6c31c,6598e6a5d84f07970b831e70,6598fdf82faa4ff4b116d0e7,0.0344,0.0344,1,56,218,112,1,fivesix,,,,,,,,,,,,,,,,,,,,,,,,,,,,,,,,,,,,,,,,,,,,,,,,,,,,,,,,,,,,,,,,,,,,,,,,,,,,,,,,,,,,,,,,,,,,,,,,,,,,,,,,,,,,,,,,,,,,,,,,,,,,,,,,,,,,,,,
,,652598cfa67d3941c6e6c31c,2024-01-06_10h52.10.718,kallum_motion_pilot,2023.2.3,Win32,166.6666667,652598cfa67d3941c6e6c31c,6598e6a5d84f07970b831e70,6598fdf82faa4ff4b116d0e7,0.0345,0.0345,1,57,219,124,1,sevenfive,,,,,,,,,,,,,,,,,,,,,,,,,,,,,,,,,,,,,,,,,,,,,,,,,,,,,,,,,,,,,,,,,,,,,,,,,,,,,,,,,,,,,,,,,,,,,,,,,,,,,,,,,,,,,,,,,,,,,,,,,,,,,,,,,,,,,,,
,,652598cfa67d3941c6e6c31c,2024-01-06_10h52.10.718,kallum_motion_pilot,2023.2.3,Win32,166.6666667,652598cfa67d3941c6e6c31c,6598e6a5d84f07970b831e70,6598fdf82faa4ff4b116d0e7,0.0346,0.0346,1,58,220,140,1,sevenfive,,,,,,,,,,,,,,,,,,,,,,,,,,,,,,,,,,,,,,,,,,,,,,,,,,,,,,,,,,,,,,,,,,,,,,,,,,,,,,,,,,,,,,,,,,,,,,,,,,,,,,,,,,,,,,,,,,,,,,,,,,,,,,,,,,,,,,,
,,652598cfa67d3941c6e6c31c,2024-01-06_10h52.10.718,kallum_motion_pilot,2023.2.3,Win32,166.6666667,652598cfa67d3941c6e6c31c,6598e6a5d84f07970b831e70,6598fdf82faa4ff4b116d0e7,0.0347,0.0347,1,59,221,141,1,seveneight,,,,,,,,,,,,,,,,,,,,,,,,,,,,,,,,,,,,,,,,,,,,,,,,,,,,,,,,,,,,,,,,,,,,,,,,,,,,,,,,,,,,,,,,,,,,,,,,,,,,,,,,,,,,,,,,,,,,,,,,,,,,,,,,,,,,,,,
,,652598cfa67d3941c6e6c31c,2024-01-06_10h52.10.718,kallum_motion_pilot,2023.2.3,Win32,166.6666667,652598cfa67d3941c6e6c31c,6598e6a5d84f07970b831e70,6598fdf82faa4ff4b116d0e7,0.0348,0.0348,1,60,222,77,1,threefour,,,,,,,,,,,,,,,,,,,,,,,,,,,,,,,,,,,,,,,,,,,,,,,,,,,,,,,,,,,,,,,,,,,,,,,,,,,,,,,,,,,,,,,,,,,,,,,,,,,,,,,,,,,,,,,,,,,,,,,,,,,,,,,,,,,,,,,
,,652598cfa67d3941c6e6c31c,2024-01-06_10h52.10.718,kallum_motion_pilot,2023.2.3,Win32,166.6666667,652598cfa67d3941c6e6c31c,6598e6a5d84f07970b831e70,6598fdf82faa4ff4b116d0e7,0.0349,0.035,1,61,223,105,1,fiveseven,,,,,,,,,,,,,,,,,,,,,,,,,,,,,,,,,,,,,,,,,,,,,,,,,,,,,,,,,,,,,,,,,,,,,,,,,,,,,,,,,,,,,,,,,,,,,,,,,,,,,,,,,,,,,,,,,,,,,,,,,,,,,,,,,,,,,,,
,,652598cfa67d3941c6e6c31c,2024-01-06_10h52.10.718,kallum_motion_pilot,2023.2.3,Win32,166.6666667,652598cfa67d3941c6e6c31c,6598e6a5d84f07970b831e70,6598fdf82faa4ff4b116d0e7,0.035,0.035,1,62,224,100,1,sevenfive,,,,,,,,,,,,,,,,,,,,,,,,,,,,,,,,,,,,,,,,,,,,,,,,,,,,,,,,,,,,,,,,,,,,,,,,,,,,,,,,,,,,,,,,,,,,,,,,,,,,,,,,,,,,,,,,,,,,,,,,,,,,,,,,,,,,,,,
,,652598cfa67d3941c6e6c31c,2024-01-06_10h52.10.718,kallum_motion_pilot,2023.2.3,Win32,166.6666667,652598cfa67d3941c6e6c31c,6598e6a5d84f07970b831e70,6598fdf82faa4ff4b116d0e7,0.0351,0.0352,1,63,225,78,1,fourtwo,,,,,,,,,,,,,,,,,,,,,,,,,,,,,,,,,,,,,,,,,,,,,,,,,,,,,,,,,,,,,,,,,,,,,,,,,,,,,,,,,,,,,,,,,,,,,,,,,,,,,,,,,,,,,,,,,,,,,,,,,,,,,,,,,,,,,,,
,,652598cfa67d3941c6e6c31c,2024-01-06_10h52.10.718,kallum_motion_pilot,2023.2.3,Win32,166.6666667,652598cfa67d3941c6e6c31c,6598e6a5d84f07970b831e70,6598fdf82faa4ff4b116d0e7,0.0352,0.0352,1,64,226,55,1,fourthree,,,,,,,,,,,,,,,,,,,,,,,,,,,,,,,,,,,,,,,,,,,,,,,,,,,,,,,,,,,,,,,,,,,,,,,,,,,,,,,,,,,,,,,,,,,,,,,,,,,,,,,,,,,,,,,,,,,,,,,,,,,,,,,,,,,,,,,
,,652598cfa67d3941c6e6c31c,2024-01-06_10h52.10.718,kallum_motion_pilot,2023.2.3,Win32,166.6666667,652598cfa67d3941c6e6c31c,6598e6a5d84f07970b831e70,6598fdf82faa4ff4b116d0e7,0.0353,0.0353,1,65,227,37,1,threefour,,,,,,,,,,,,,,,,,,,,,,,,,,,,,,,,,,,,,,,,,,,,,,,,,,,,,,,,,,,,,,,,,,,,,,,,,,,,,,,,,,,,,,,,,,,,,,,,,,,,,,,,,,,,,,,,,,,,,,,,,,,,,,,,,,,,,,,
,,652598cfa67d3941c6e6c31c,2024-01-06_10h52.10.718,kallum_motion_pilot,2023.2.3,Win32,166.6666667,652598cfa67d3941c6e6c31c,6598e6a5d84f07970b831e70,6598fdf82faa4ff4b116d0e7,0.0354,0.0355,1,66,228,157,1,seveneight,,,,,,,,,,,,,,,,,,,,,,,,,,,,,,,,,,,,,,,,,,,,,,,,,,,,,,,,,,,,,,,,,,,,,,,,,,,,,,,,,,,,,,,,,,,,,,,,,,,,,,,,,,,,,,,,,,,,,,,,,,,,,,,,,,,,,,,
,,652598cfa67d3941c6e6c31c,2024-01-06_10h52.10.718,kallum_motion_pilot,2023.2.3,Win32,166.6666667,652598cfa67d3941c6e6c31c,6598e6a5d84f07970b831e70,6598fdf82faa4ff4b116d0e7,0.0355,0.0356,1,67,229,24,1,onetwo,,,,,,,,,,,,,,,,,,,,,,,,,,,,,,,,,,,,,,,,,,,,,,,,,,,,,,,,,,,,,,,,,,,,,,,,,,,,,,,,,,,,,,,,,,,,,,,,,,,,,,,,,,,,,,,,,,,,,,,,,,,,,,,,,,,,,,,
,,652598cfa67d3941c6e6c31c,2024-01-06_10h52.10.718,kallum_motion_pilot,2023.2.3,Win32,166.6666667,652598cfa67d3941c6e6c31c,6598e6a5d84f07970b831e70,6598fdf82faa4ff4b116d0e7,0.0356,0.0357,1,68,230,110,1,eightsix,,,,,,,,,,,,,,,,,,,,,,,,,,,,,,,,,,,,,,,,,,,,,,,,,,,,,,,,,,,,,,,,,,,,,,,,,,,,,,,,,,,,,,,,,,,,,,,,,,,,,,,,,,,,,,,,,,,,,,,,,,,,,,,,,,,,,,,
,,652598cfa67d3941c6e6c31c,2024-01-06_10h52.10.718,kallum_motion_pilot,2023.2.3,Win32,166.6666667,652598cfa67d3941c6e6c31c,6598e6a5d84f07970b831e70,6598fdf82faa4ff4b116d0e7,0.0357,0.0358,1,69,231,9,1,onethree,,,,,,,,,,,,,,,,,,,,,,,,,,,,,,,,,,,,,,,,,,,,,,,,,,,,,,,,,,,,,,,,,,,,,,,,,,,,,,,,,,,,,,,,,,,,,,,,,,,,,,,,,,,,,,,,,,,,,,,,,,,,,,,,,,,,,,,
,,652598cfa67d3941c6e6c31c,2024-01-06_10h52.10.718,kallum_motion_pilot,2023.2.3,Win32,166.6666667,652598cfa67d3941c6e6c31c,6598e6a5d84f07970b831e70,6598fdf82faa4ff4b116d0e7,0.0359,0.0359,1,70,232,149,1,seveneight,,,,,,,,,,,,,,,,,,,,,,,,,,,,,,,,,,,,,,,,,,,,,,,,,,,,,,,,,,,,,,,,,,,,,,,,,,,,,,,,,,,,,,,,,,,,,,,,,,,,,,,,,,,,,,,,,,,,,,,,,,,,,,,,,,,,,,,
,,652598cfa67d3941c6e6c31c,2024-01-06_10h52.10.718,kallum_motion_pilot,2023.2.3,Win32,166.6666667,652598cfa67d3941c6e6c31c,6598e6a5d84f07970b831e70,6598fdf82faa4ff4b116d0e7,0.036,0.036,1,71,233,72,1,onetwo,,,,,,,,,,,,,,,,,,,,,,,,,,,,,,,,,,,,,,,,,,,,,,,,,,,,,,,,,,,,,,,,,,,,,,,,,,,,,,,,,,,,,,,,,,,,,,,,,,,,,,,,,,,,,,,,,,,,,,,,,,,,,,,,,,,,,,,
,,652598cfa67d3941c6e6c31c,2024-01-06_10h52.10.718,kallum_motion_pilot,2023.2.3,Win32,166.6666667,652598cfa67d3941c6e6c31c,6598e6a5d84f07970b831e70,6598fdf82faa4ff4b116d0e7,0.0361,0.0361,1,72,234,103,1,eightseven,,,,,,,,,,,,,,,,,,,,,,,,,,,,,,,,,,,,,,,,,,,,,,,,,,,,,,,,,,,,,,,,,,,,,,,,,,,,,,,,,,,,,,,,,,,,,,,,,,,,,,,,,,,,,,,,,,,,,,,,,,,,,,,,,,,,,,,
,,652598cfa67d3941c6e6c31c,2024-01-06_10h52.10.718,kallum_motion_pilot,2023.2.3,Win32,166.6666667,652598cfa67d3941c6e6c31c,6598e6a5d84f07970b831e70,6598fdf82faa4ff4b116d0e7,0.0361,0.0362,1,73,235,133,1,seveneight,,,,,,,,,,,,,,,,,,,,,,,,,,,,,,,,,,,,,,,,,,,,,,,,,,,,,,,,,,,,,,,,,,,,,,,,,,,,,,,,,,,,,,,,,,,,,,,,,,,,,,,,,,,,,,,,,,,,,,,,,,,,,,,,,,,,,,,
,,652598cfa67d3941c6e6c31c,2024-01-06_10h52.10.718,kallum_motion_pilot,2023.2.3,Win32,166.6666667,652598cfa67d3941c6e6c31c,6598e6a5d84f07970b831e70,6598fdf82faa4ff4b116d0e7,0.0363,0.0363,1,74,236,52,1,threeone,,,,,,,,,,,,,,,,,,,,,,,,,,,,,,,,,,,,,,,,,,,,,,,,,,,,,,,,,,,,,,,,,,,,,,,,,,,,,,,,,,,,,,,,,,,,,,,,,,,,,,,,,,,,,,,,,,,,,,,,,,,,,,,,,,,,,,,
,,652598cfa67d3941c6e6c31c,2024-01-06_10h52.10.718,kallum_motion_pilot,2023.2.3,Win32,166.6666667,652598cfa67d3941c6e6c31c,6598e6a5d84f07970b831e70,6598fdf82faa4ff4b116d0e7,0.0363,0.0364,1,75,237,31,1,fourthree,,,,,,,,,,,,,,,,,,,,,,,,,,,,,,,,,,,,,,,,,,,,,,,,,,,,,,,,,,,,,,,,,,,,,,,,,,,,,,,,,,,,,,,,,,,,,,,,,,,,,,,,,,,,,,,,,,,,,,,,,,,,,,,,,,,,,,,
,,652598cfa67d3941c6e6c31c,2024-01-06_10h52.10.718,kallum_motion_pilot,2023.2.3,Win32,166.6666667,652598cfa67d3941c6e6c31c,6598e6a5d84f07970b831e70,6598fdf82faa4ff4b116d0e7,0.0364,0.0365,1,76,238,154,1,sixfive,,,,,,,,,,,,,,,,,,,,,,,,,,,,,,,,,,,,,,,,,,,,,,,,,,,,,,,,,,,,,,,,,,,,,,,,,,,,,,,,,,,,,,,,,,,,,,,,,,,,,,,,,,,,,,,,,,,,,,,,,,,,,,,,,,,,,,,
,,652598cfa67d3941c6e6c31c,2024-01-06_10h52.10.718,kallum_motion_pilot,2023.2.3,Win32,166.6666667,652598cfa67d3941c6e6c31c,6598e6a5d84f07970b831e70,6598fdf82faa4ff4b116d0e7,0.0366,0.0366,1,77,239,30,1,fourtwo,,,,,,,,,,,,,,,,,,,,,,,,,,,,,,,,,,,,,,,,,,,,,,,,,,,,,,,,,,,,,,,,,,,,,,,,,,,,,,,,,,,,,,,,,,,,,,,,,,,,,,,,,,,,,,,,,,,,,,,,,,,,,,,,,,,,,,,
,,652598cfa67d3941c6e6c31c,2024-01-06_10h52.10.718,kallum_motion_pilot,2023.2.3,Win32,166.6666667,652598cfa67d3941c6e6c31c,6598e6a5d84f07970b831e70,6598fdf82faa4ff4b116d0e7,0.0366,0.0367,1,78,240,158,1,eightsix,,,,,,,,,,,,,,,,,,,,,,,,,,,,,,,,,,,,,,,,,,,,,,,,,,,,,,,,,,,,,,,,,,,,,,,,,,,,,,,,,,,,,,,,,,,,,,,,,,,,,,,,,,,,,,,,,,,,,,,,,,,,,,,,,,,,,,,
,,652598cfa67d3941c6e6c31c,2024-01-06_10h52.10.718,kallum_motion_pilot,2023.2.3,Win32,166.6666667,652598cfa67d3941c6e6c31c,6598e6a5d84f07970b831e70,6598fdf82faa4ff4b116d0e7,0.0368,0.0369,1,79,241,15,1,fourthree,,,,,,,,,,,,,,,,,,,,,,,,,,,,,,,,,,,,,,,,,,,,,,,,,,,,,,,,,,,,,,,,,,,,,,,,,,,,,,,,,,,,,,,,,,,,,,,,,,,,,,,,,,,,,,,,,,,,,,,,,,,,,,,,,,,,,,,
,,652598cfa67d3941c6e6c31c,2024-01-06_10h52.10.718,kallum_motion_pilot,2023.2.3,Win32,166.6666667,652598cfa67d3941c6e6c31c,6598e6a5d84f07970b831e70,6598fdf82faa4ff4b116d0e7,0.0369,0.0369,1,80,242,29,1,threefour,,,,,,,,,,,,,,,,,,,,,,,,,,,,,,,,,,,,,,,,,,,,,,,,,,,,,,,,,,,,,,,,,,,,,,,,,,,,,,,,,,,,,,,,,,,,,,,,,,,,,,,,,,,,,,,,,,,,,,,,,,,,,,,,,,,,,,,
,,652598cfa67d3941c6e6c31c,2024-01-06_10h52.10.718,kallum_motion_pilot,2023.2.3,Win32,166.6666667,652598cfa67d3941c6e6c31c,6598e6a5d84f07970b831e70,6598fdf82faa4ff4b116d0e7,0.0369,0.037,1,81,243,109,1,seveneight,,,,,,,,,,,,,,,,,,,,,,,,,,,,,,,,,,,,,,,,,,,,,,,,,,,,,,,,,,,,,,,,,,,,,,,,,,,,,,,,,,,,,,,,,,,,,,,,,,,,,,,,,,,,,,,,,,,,,,,,,,,,,,,,,,,,,,,
,,652598cfa67d3941c6e6c31c,2024-01-06_10h52.10.718,kallum_motion_pilot,2023.2.3,Win32,166.6666667,652598cfa67d3941c6e6c31c,6598e6a5d84f07970b831e70,6598fdf82faa4ff4b116d0e7,0.0371,0.0372,1,82,244,95,1,eightseven,,,,,,,,,,,,,,,,,,,,,,,,,,,,,,,,,,,,,,,,,,,,,,,,,,,,,,,,,,,,,,,,,,,,,,,,,,,,,,,,,,,,,,,,,,,,,,,,,,,,,,,,,,,,,,,,,,,,,,,,,,,,,,,,,,,,,,,
,,652598cfa67d3941c6e6c31c,2024-01-06_10h52.10.718,kallum_motion_pilot,2023.2.3,Win32,166.6666667,652598cfa67d3941c6e6c31c,6598e6a5d84f07970b831e70,6598fdf82faa4ff4b116d0e7,0.0372,0.0373,1,83,245,97,1,fiveseven,,,,,,,,,,,,,,,,,,,,,,,,,,,,,,,,,,,,,,,,,,,,,,,,,,,,,,,,,,,,,,,,,,,,,,,,,,,,,,,,,,,,,,,,,,,,,,,,,,,,,,,,,,,,,,,,,,,,,,,,,,,,,,,,,,,,,,,
,,652598cfa67d3941c6e6c31c,2024-01-06_10h52.10.718,kallum_motion_pilot,2023.2.3,Win32,166.6666667,652598cfa67d3941c6e6c31c,6598e6a5d84f07970b831e70,6598fdf82faa4ff4b116d0e7,0.0373,0.0373,1,84,246,94,1,eightsix,,,,,,,,,,,,,,,,,,,,,,,,,,,,,,,,,,,,,,,,,,,,,,,,,,,,,,,,,,,,,,,,,,,,,,,,,,,,,,,,,,,,,,,,,,,,,,,,,,,,,,,,,,,,,,,,,,,,,,,,,,,,,,,,,,,,,,,
,,652598cfa67d3941c6e6c31c,2024-01-06_10h52.10.718,kallum_motion_pilot,2023.2.3,Win32,166.6666667,652598cfa67d3941c6e6c31c,6598e6a5d84f07970b831e70,6598fdf82faa4ff4b116d0e7,0.0374,0.0374,1,85,247,84,1,sevenfive,,,,,,,,,,,,,,,,,,,,,,,,,,,,,,,,,,,,,,,,,,,,,,,,,,,,,,,,,,,,,,,,,,,,,,,,,,,,,,,,,,,,,,,,,,,,,,,,,,,,,,,,,,,,,,,,,,,,,,,,,,,,,,,,,,,,,,,
,,652598cfa67d3941c6e6c31c,2024-01-06_10h52.10.718,kallum_motion_pilot,2023.2.3,Win32,166.6666667,652598cfa67d3941c6e6c31c,6598e6a5d84f07970b831e70,6598fdf82faa4ff4b116d0e7,0.0375,0.0375,1,86,248,152,1,fivesix,,,,,,,,,,,,,,,,,,,,,,,,,,,,,,,,,,,,,,,,,,,,,,,,,,,,,,,,,,,,,,,,,,,,,,,,,,,,,,,,,,,,,,,,,,,,,,,,,,,,,,,,,,,,,,,,,,,,,,,,,,,,,,,,,,,,,,,
,,652598cfa67d3941c6e6c31c,2024-01-06_10h52.10.718,kallum_motion_pilot,2023.2.3,Win32,166.6666667,652598cfa67d3941c6e6c31c,6598e6a5d84f07970b831e70,6598fdf82faa4ff4b116d0e7,0.0376,0.0377,1,87,249,8,1,onetwo,,,,,,,,,,,,,,,,,,,,,,,,,,,,,,,,,,,,,,,,,,,,,,,,,,,,,,,,,,,,,,,,,,,,,,,,,,,,,,,,,,,,,,,,,,,,,,,,,,,,,,,,,,,,,,,,,,,,,,,,,,,,,,,,,,,,,,,
,,652598cfa67d3941c6e6c31c,2024-01-06_10h52.10.718,kallum_motion_pilot,2023.2.3,Win32,166.6666667,652598cfa67d3941c6e6c31c,6598e6a5d84f07970b831e70,6598fdf82faa4ff4b116d0e7,0.0377,0.0378,1,88,250,136,1,fivesix,,,,,,,,,,,,,,,,,,,,,,,,,,,,,,,,,,,,,,,,,,,,,,,,,,,,,,,,,,,,,,,,,,,,,,,,,,,,,,,,,,,,,,,,,,,,,,,,,,,,,,,,,,,,,,,,,,,,,,,,,,,,,,,,,,,,,,,
,,652598cfa67d3941c6e6c31c,2024-01-06_10h52.10.718,kallum_motion_pilot,2023.2.3,Win32,166.6666667,652598cfa67d3941c6e6c31c,6598e6a5d84f07970b831e70,6598fdf82faa4ff4b116d0e7,0.0379,0.0379,1,89,251,87,1,eightseven,,,,,,,,,,,,,,,,,,,,,,,,,,,,,,,,,,,,,,,,,,,,,,,,,,,,,,,,,,,,,,,,,,,,,,,,,,,,,,,,,,,,,,,,,,,,,,,,,,,,,,,,,,,,,,,,,,,,,,,,,,,,,,,,,,,,,,,
,,652598cfa67d3941c6e6c31c,2024-01-06_10h52.10.718,kallum_motion_pilot,2023.2.3,Win32,166.6666667,652598cfa67d3941c6e6c31c,6598e6a5d84f07970b831e70,6598fdf82faa4ff4b116d0e7,0.038,0.038,1,90,252,135,1,eightseven,,,,,,,,,,,,,,,,,,,,,,,,,,,,,,,,,,,,,,,,,,,,,,,,,,,,,,,,,,,,,,,,,,,,,,,,,,,,,,,,,,,,,,,,,,,,,,,,,,,,,,,,,,,,,,,,,,,,,,,,,,,,,,,,,,,,,,,
,,652598cfa67d3941c6e6c31c,2024-01-06_10h52.10.718,kallum_motion_pilot,2023.2.3,Win32,166.6666667,652598cfa67d3941c6e6c31c,6598e6a5d84f07970b831e70,6598fdf82faa4ff4b116d0e7,0.038,0.0382,1,91,253,59,1,twofour,,,,,,,,,,,,,,,,,,,,,,,,,,,,,,,,,,,,,,,,,,,,,,,,,,,,,,,,,,,,,,,,,,,,,,,,,,,,,,,,,,,,,,,,,,,,,,,,,,,,,,,,,,,,,,,,,,,,,,,,,,,,,,,,,,,,,,,
,,652598cfa67d3941c6e6c31c,2024-01-06_10h52.10.718,kallum_motion_pilot,2023.2.3,Win32,166.6666667,652598cfa67d3941c6e6c31c,6598e6a5d84f07970b831e70,6598fdf82faa4ff4b116d0e7,0.0382,0.0382,1,92,254,75,1,twofour,,,,,,,,,,,,,,,,,,,,,,,,,,,,,,,,,,,,,,,,,,,,,,,,,,,,,,,,,,,,,,,,,,,,,,,,,,,,,,,,,,,,,,,,,,,,,,,,,,,,,,,,,,,,,,,,,,,,,,,,,,,,,,,,,,,,,,,
,,652598cfa67d3941c6e6c31c,2024-01-06_10h52.10.718,kallum_motion_pilot,2023.2.3,Win32,166.6666667,652598cfa67d3941c6e6c31c,6598e6a5d84f07970b831e70,6598fdf82faa4ff4b116d0e7,0.0383,0.0384,1,93,255,46,1,fourtwo,,,,,,,,,,,,,,,,,,,,,,,,,,,,,,,,,,,,,,,,,,,,,,,,,,,,,,,,,,,,,,,,,,,,,,,,,,,,,,,,,,,,,,,,,,,,,,,,,,,,,,,,,,,,,,,,,,,,,,,,,,,,,,,,,,,,,,,
,,652598cfa67d3941c6e6c31c,2024-01-06_10h52.10.718,kallum_motion_pilot,2023.2.3,Win32,166.6666667,652598cfa67d3941c6e6c31c,6598e6a5d84f07970b831e70,6598fdf82faa4ff4b116d0e7,0.0384,0.0384,1,94,256,50,1,twoone,,,,,,,,,,,,,,,,,,,,,,,,,,,,,,,,,,,,,,,,,,,,,,,,,,,,,,,,,,,,,,,,,,,,,,,,,,,,,,,,,,,,,,,,,,,,,,,,,,,,,,,,,,,,,,,,,,,,,,,,,,,,,,,,,,,,,,,
,,652598cfa67d3941c6e6c31c,2024-01-06_10h52.10.718,kallum_motion_pilot,2023.2.3,Win32,166.6666667,652598cfa67d3941c6e6c31c,6598e6a5d84f07970b831e70,6598fdf82faa4ff4b116d0e7,0.0386,0.0386,1,95,257,28,1,threeone,,,,,,,,,,,,,,,,,,,,,,,,,,,,,,,,,,,,,,,,,,,,,,,,,,,,,,,,,,,,,,,,,,,,,,,,,,,,,,,,,,,,,,,,,,,,,,,,,,,,,,,,,,,,,,,,,,,,,,,,,,,,,,,,,,,,,,,
,,652598cfa67d3941c6e6c31c,2024-01-06_10h52.10.718,kallum_motion_pilot,2023.2.3,Win32,166.6666667,652598cfa67d3941c6e6c31c,6598e6a5d84f07970b831e70,6598fdf82faa4ff4b116d0e7,0.0386,0.0387,1,96,258,69,1,threefour,,,,,,,,,,,,,,,,,,,,,,,,,,,,,,,,,,,,,,,,,,,,,,,,,,,,,,,,,,,,,,,,,,,,,,,,,,,,,,,,,,,,,,,,,,,,,,,,,,,,,,,,,,,,,,,,,,,,,,,,,,,,,,,,,,,,,,,
,,652598cfa67d3941c6e6c31c,2024-01-06_10h52.10.718,kallum_motion_pilot,2023.2.3,Win32,166.6666667,652598cfa67d3941c6e6c31c,6598e6a5d84f07970b831e70,6598fdf82faa4ff4b116d0e7,0.0388,0.0388,1,97,259,119,1,eightseven,,,,,,,,,,,,,,,,,,,,,,,,,,,,,,,,,,,,,,,,,,,,,,,,,,,,,,,,,,,,,,,,,,,,,,,,,,,,,,,,,,,,,,,,,,,,,,,,,,,,,,,,,,,,,,,,,,,,,,,,,,,,,,,,,,,,,,,
,,652598cfa67d3941c6e6c31c,2024-01-06_10h52.10.718,kallum_motion_pilot,2023.2.3,Win32,166.6666667,652598cfa67d3941c6e6c31c,6598e6a5d84f07970b831e70,6598fdf82faa4ff4b116d0e7,0.0388,0.0389,1,98,260,118,1,eightsix,,,,,,,,,,,,,,,,,,,,,,,,,,,,,,,,,,,,,,,,,,,,,,,,,,,,,,,,,,,,,,,,,,,,,,,,,,,,,,,,,,,,,,,,,,,,,,,,,,,,,,,,,,,,,,,,,,,,,,,,,,,,,,,,,,,,,,,
,,652598cfa67d3941c6e6c31c,2024-01-06_10h52.10.718,kallum_motion_pilot,2023.2.3,Win32,166.6666667,652598cfa67d3941c6e6c31c,6598e6a5d84f07970b831e70,6598fdf82faa4ff4b116d0e7,0.0389,0.039,1,99,261,11,1,twofour,,,,,,,,,,,,,,,,,,,,,,,,,,,,,,,,,,,,,,,,,,,,,,,,,,,,,,,,,,,,,,,,,,,,,,,,,,,,,,,,,,,,,,,,,,,,,,,,,,,,,,,,,,,,,,,,,,,,,,,,,,,,,,,,,,,,,,,
,,652598cfa67d3941c6e6c31c,2024-01-06_10h52.10.718,kallum_motion_pilot,2023.2.3,Win32,166.6666667,652598cfa67d3941c6e6c31c,6598e6a5d84f07970b831e70,6598fdf82faa4ff4b116d0e7,0.039,0.0391,1,100,262,22,1,fourtwo,,,,,,,,,,,,,,,,,,,,,,,,,,,,,,,,,,,,,,,,,,,,,,,,,,,,,,,,,,,,,,,,,,,,,,,,,,,,,,,,,,,,,,,,,,,,,,,,,,,,,,,,,,,,,,,,,,,,,,,,,,,,,,,,,,,,,,,
,,652598cfa67d3941c6e6c31c,2024-01-06_10h52.10.718,kallum_motion_pilot,2023.2.3,Win32,166.6666667,652598cfa67d3941c6e6c31c,6598e6a5d84f07970b831e70,6598fdf82faa4ff4b116d0e7,0.0392,0.0393,1,101,263,62,1,fourtwo,,,,,,,,,,,,,,,,,,,,,,,,,,,,,,,,,,,,,,,,,,,,,,,,,,,,,,,,,,,,,,,,,,,,,,,,,,,,,,,,,,,,,,,,,,,,,,,,,,,,,,,,,,,,,,,,,,,,,,,,,,,,,,,,,,,,,,,
,,652598cfa67d3941c6e6c31c,2024-01-06_10h52.10.718,kallum_motion_pilot,2023.2.3,Win32,166.6666667,652598cfa67d3941c6e6c31c,6598e6a5d84f07970b831e70,6598fdf82faa4ff4b116d0e7,0.0393,0.0393,1,102,264,25,1,onethree,,,,,,,,,,,,,,,,,,,,,,,,,,,,,,,,,,,,,,,,,,,,,,,,,,,,,,,,,,,,,,,,,,,,,,,,,,,,,,,,,,,,,,,,,,,,,,,,,,,,,,,,,,,,,,,,,,,,,,,,,,,,,,,,,,,,,,,
,,652598cfa67d3941c6e6c31c,2024-01-06_10h52.10.718,kallum_motion_pilot,2023.2.3,Win32,166.6666667,652598cfa67d3941c6e6c31c,6598e6a5d84f07970b831e70,6598fdf82faa4ff4b116d0e7,0.0394,0.0395,1,103,265,148,1,sevenfive,,,,,,,,,,,,,,,,,,,,,,,,,,,,,,,,,,,,,,,,,,,,,,,,,,,,,,,,,,,,,,,,,,,,,,,,,,,,,,,,,,,,,,,,,,,,,,,,,,,,,,,,,,,,,,,,,,,,,,,,,,,,,,,,,,,,,,,
,,652598cfa67d3941c6e6c31c,2024-01-06_10h52.10.718,kallum_motion_pilot,2023.2.3,Win32,166.6666667,652598cfa67d3941c6e6c31c,6598e6a5d84f07970b831e70,6598fdf82faa4ff4b116d0e7,0.0395,0.0396,1,104,266,131,1,sixeight,,,,,,,,,,,,,,,,,,,,,,,,,,,,,,,,,,,,,,,,,,,,,,,,,,,,,,,,,,,,,,,,,,,,,,,,,,,,,,,,,,,,,,,,,,,,,,,,,,,,,,,,,,,,,,,,,,,,,,,,,,,,,,,,,,,,,,,
,,652598cfa67d3941c6e6c31c,2024-01-06_10h52.10.718,kallum_motion_pilot,2023.2.3,Win32,166.6666667,652598cfa67d3941c6e6c31c,6598e6a5d84f07970b831e70,6598fdf82faa4ff4b116d0e7,0.0396,0.0397,1,105,267,20,1,threeone,,,,,,,,,,,,,,,,,,,,,,,,,,,,,,,,,,,,,,,,,,,,,,,,,,,,,,,,,,,,,,,,,,,,,,,,,,,,,,,,,,,,,,,,,,,,,,,,,,,,,,,,,,,,,,,,,,,,,,,,,,,,,,,,,,,,,,,
,,652598cfa67d3941c6e6c31c,2024-01-06_10h52.10.718,kallum_motion_pilot,2023.2.3,Win32,166.6666667,652598cfa67d3941c6e6c31c,6598e6a5d84f07970b831e70,6598fdf82faa4ff4b116d0e7,0.0397,0.0397,1,106,268,83,1,sixeight,,,,,,,,,,,,,,,,,,,,,,,,,,,,,,,,,,,,,,,,,,,,,,,,,,,,,,,,,,,,,,,,,,,,,,,,,,,,,,,,,,,,,,,,,,,,,,,,,,,,,,,,,,,,,,,,,,,,,,,,,,,,,,,,,,,,,,,
,,652598cfa67d3941c6e6c31c,2024-01-06_10h52.10.718,kallum_motion_pilot,2023.2.3,Win32,166.6666667,652598cfa67d3941c6e6c31c,6598e6a5d84f07970b831e70,6598fdf82faa4ff4b116d0e7,0.0398,0.0398,1,107,269,150,1,eightsix,,,,,,,,,,,,,,,,,,,,,,,,,,,,,,,,,,,,,,,,,,,,,,,,,,,,,,,,,,,,,,,,,,,,,,,,,,,,,,,,,,,,,,,,,,,,,,,,,,,,,,,,,,,,,,,,,,,,,,,,,,,,,,,,,,,,,,,
,,652598cfa67d3941c6e6c31c,2024-01-06_10h52.10.718,kallum_motion_pilot,2023.2.3,Win32,166.6666667,652598cfa67d3941c6e6c31c,6598e6a5d84f07970b831e70,6598fdf82faa4ff4b116d0e7,0.0399,0.0399,1,108,270,108,1,sevenfive,,,,,,,,,,,,,,,,,,,,,,,,,,,,,,,,,,,,,,,,,,,,,,,,,,,,,,,,,,,,,,,,,,,,,,,,,,,,,,,,,,,,,,,,,,,,,,,,,,,,,,,,,,,,,,,,,,,,,,,,,,,,,,,,,,,,,,,
,,652598cfa67d3941c6e6c31c,2024-01-06_10h52.10.718,kallum_motion_pilot,2023.2.3,Win32,166.6666667,652598cfa67d3941c6e6c31c,6598e6a5d84f07970b831e70,6598fdf82faa4ff4b116d0e7,0.0401,0.0401,1,109,271,111,1,eightseven,,,,,,,,,,,,,,,,,,,,,,,,,,,,,,,,,,,,,,,,,,,,,,,,,,,,,,,,,,,,,,,,,,,,,,,,,,,,,,,,,,,,,,,,,,,,,,,,,,,,,,,,,,,,,,,,,,,,,,,,,,,,,,,,,,,,,,,
,,652598cfa67d3941c6e6c31c,2024-01-06_10h52.10.718,kallum_motion_pilot,2023.2.3,Win32,166.6666667,652598cfa67d3941c6e6c31c,6598e6a5d84f07970b831e70,6598fdf82faa4ff4b116d0e7,0.0402,0.0402,1,110,272,66,1,twoone,,,,,,,,,,,,,,,,,,,,,,,,,,,,,,,,,,,,,,,,,,,,,,,,,,,,,,,,,,,,,,,,,,,,,,,,,,,,,,,,,,,,,,,,,,,,,,,,,,,,,,,,,,,,,,,,,,,,,,,,,,,,,,,,,,,,,,,
,,652598cfa67d3941c6e6c31c,2024-01-06_10h52.10.718,kallum_motion_pilot,2023.2.3,Win32,166.6666667,652598cfa67d3941c6e6c31c,6598e6a5d84f07970b831e70,6598fdf82faa4ff4b116d0e7,0.0402,0.0403,1,111,273,63,1,fourthree,,,,,,,,,,,,,,,,,,,,,,,,,,,,,,,,,,,,,,,,,,,,,,,,,,,,,,,,,,,,,,,,,,,,,,,,,,,,,,,,,,,,,,,,,,,,,,,,,,,,,,,,,,,,,,,,,,,,,,,,,,,,,,,,,,,,,,,
,,652598cfa67d3941c6e6c31c,2024-01-06_10h52.10.718,kallum_motion_pilot,2023.2.3,Win32,166.6666667,652598cfa67d3941c6e6c31c,6598e6a5d84f07970b831e70,6598fdf82faa4ff4b116d0e7,0.0403,0.0404,1,112,274,130,1,sixfive,,,,,,,,,,,,,,,,,,,,,,,,,,,,,,,,,,,,,,,,,,,,,,,,,,,,,,,,,,,,,,,,,,,,,,,,,,,,,,,,,,,,,,,,,,,,,,,,,,,,,,,,,,,,,,,,,,,,,,,,,,,,,,,,,,,,,,,
,,652598cfa67d3941c6e6c31c,2024-01-06_10h52.10.718,kallum_motion_pilot,2023.2.3,Win32,166.6666667,652598cfa67d3941c6e6c31c,6598e6a5d84f07970b831e70,6598fdf82faa4ff4b116d0e7,0.0404,0.0405,1,113,275,81,1,fiveseven,,,,,,,,,,,,,,,,,,,,,,,,,,,,,,,,,,,,,,,,,,,,,,,,,,,,,,,,,,,,,,,,,,,,,,,,,,,,,,,,,,,,,,,,,,,,,,,,,,,,,,,,,,,,,,,,,,,,,,,,,,,,,,,,,,,,,,,
,,652598cfa67d3941c6e6c31c,2024-01-06_10h52.10.718,kallum_motion_pilot,2023.2.3,Win32,166.6666667,652598cfa67d3941c6e6c31c,6598e6a5d84f07970b831e70,6598fdf82faa4ff4b116d0e7,0.0405,0.0406,1,114,276,147,1,sixeight,,,,,,,,,,,,,,,,,,,,,,,,,,,,,,,,,,,,,,,,,,,,,,,,,,,,,,,,,,,,,,,,,,,,,,,,,,,,,,,,,,,,,,,,,,,,,,,,,,,,,,,,,,,,,,,,,,,,,,,,,,,,,,,,,,,,,,,
,,652598cfa67d3941c6e6c31c,2024-01-06_10h52.10.718,kallum_motion_pilot,2023.2.3,Win32,166.6666667,652598cfa67d3941c6e6c31c,6598e6a5d84f07970b831e70,6598fdf82faa4ff4b116d0e7,0.0407,0.0407,1,115,277,47,1,fourthree,,,,,,,,,,,,,,,,,,,,,,,,,,,,,,,,,,,,,,,,,,,,,,,,,,,,,,,,,,,,,,,,,,,,,,,,,,,,,,,,,,,,,,,,,,,,,,,,,,,,,,,,,,,,,,,,,,,,,,,,,,,,,,,,,,,,,,,
,,652598cfa67d3941c6e6c31c,2024-01-06_10h52.10.718,kallum_motion_pilot,2023.2.3,Win32,166.6666667,652598cfa67d3941c6e6c31c,6598e6a5d84f07970b831e70,6598fdf82faa4ff4b116d0e7,0.0408,0.0409,1,116,278,90,1,sixfive,,,,,,,,,,,,,,,,,,,,,,,,,,,,,,,,,,,,,,,,,,,,,,,,,,,,,,,,,,,,,,,,,,,,,,,,,,,,,,,,,,,,,,,,,,,,,,,,,,,,,,,,,,,,,,,,,,,,,,,,,,,,,,,,,,,,,,,
,,652598cfa67d3941c6e6c31c,2024-01-06_10h52.10.718,kallum_motion_pilot,2023.2.3,Win32,166.6666667,652598cfa67d3941c6e6c31c,6598e6a5d84f07970b831e70,6598fdf82faa4ff4b116d0e7,0.0409,0.041,1,117,279,32,1,onetwo,,,,,,,,,,,,,,,,,,,,,,,,,,,,,,,,,,,,,,,,,,,,,,,,,,,,,,,,,,,,,,,,,,,,,,,,,,,,,,,,,,,,,,,,,,,,,,,,,,,,,,,,,,,,,,,,,,,,,,,,,,,,,,,,,,,,,,,
