startup.started,startup.stopped,Prolific ID*,date,expName,psychopyVersion,OS,frameRate,PROLIFIC_PID,STUDY_ID,SESSION_ID,stimpositions.started,stimpositions.stopped,hardcoded_stimulus_positions.thisRepN,hardcoded_stimulus_positions.thisTrialN,hardcoded_stimulus_positions.thisN,hardcoded_stimulus_positions.thisIndex,hardcoded_stimulus_positions.ran,StimulusPos,stimorientation.started,stimorientation.stopped,prac_stimorientation_import_loop.thisRepN,prac_stimorientation_import_loop.thisTrialN,prac_stimorientation_import_loop.thisN,prac_stimorientation_import_loop.thisIndex,prac_stimorientation_import_loop.ran,Stimorientation,welcome_instr.started,welcome_instr.stopped,key_resp.keys,key_resp.rt,key_resp.duration,response_steppedout_1.started,response_steppedout_1.stopped,key_resp_20.keys,key_resp_20.rt,key_resp_20.duration,response_steppedout_2.started,response_steppedout_2.stopped,key_resp_19.keys,key_resp_19.rt,key_resp_19.duration,stim_response_instr.started,stim_response_instr.stopped,key_resp_15.keys,key_resp_15.rt,key_resp_15.duration,direction_instr_2.started,direction_instr_2.stopped,key_resp_9.keys,key_resp_9.rt,key_resp_9.duration,instr_prac.started,instr_prac.stopped,key_resp_10.keys,key_resp_10.rt,key_resp_10.duration,Stim1_display_prac.started,Stim1_display_prac.stopped,Ecc,Circle1_ori,Circle2_ori,response_prac.started,similarity,response_time,response_prac.stopped,mouse_5.x,mouse_5.y,mouse_5.leftButton,mouse_5.midButton,mouse_5.rightButton,mouse_5.clicked_name,responseprac_feedback.started,responseprac_feedback.stopped,summary2_prac.started,summary2_prac.stopped,mouse_6.x,mouse_6.y,mouse_6.leftButton,mouse_6.midButton,mouse_6.rightButton,mouse_6.clicked_name,duringprac.thisRepN,duringprac.thisTrialN,duringprac.thisN,duringprac.thisIndex,duringprac.ran,begin.started,begin.stopped,key_resp_22.keys,key_resp_22.rt,key_resp_22.duration,Stim1_display.started,Stim1_display.stopped,circle1_ori,circle2_ori,blank.started,blank.stopped,response.started,response.stopped,mouse.x,mouse.y,mouse.leftButton,mouse.midButton,mouse.rightButton,mouse.clicked_name,response_2.started,response_2.stopped,mouse_2.x,mouse_2.y,mouse_2.leftButton,mouse_2.midButton,mouse_2.rightButton,mouse_2.clicked_name,special_trial.started,special_trial.stopped,catch_1.started,catch_1.stopped,mouse_3.x,mouse_3.y,mouse_3.leftButton,mouse_3.midButton,mouse_3.rightButton,catchresponse,catchnumber,response_time_catch,Catch,response_sum.started,response_sum.stopped,mouse_11.x,mouse_11.y,mouse_11.leftButton,mouse_11.midButton,mouse_11.rightButton,main_trial.thisRepN,main_trial.thisTrialN,main_trial.thisN,main_trial.thisIndex,main_trial.ran,Orientationtrialno,xcircle1_ori,xcircle2_ori,flip_presentation_sequence_for_double_pass.started,flip_presentation_sequence_for_double_pass.stopped,double_pass.thisRepN,double_pass.thisTrialN,double_pass.thisN,double_pass.thisIndex,double_pass.ran,goodbye.started,goodbye.stopped,key_resp_3.keys,key_resp_3.rt,key_resp_3.duration
0.0002,0.0003,605824a5c79c7e261e281cc5,2024-01-06_02h43.00.023,kallum_motion_pilot,2023.2.3,Win32,59.52380952,605824a5c79c7e261e281cc5,6598e6a5d84f07970b831e70,6598e724b14ee5c28bf479cb,,,,,,,,,,,,,,,,,,,,,,,,,,,,,,,,,,,,,,,,,,,,,,,,,,,,,,,,,,,,,,,,,,,,,,,,,,,,,,,,,,,,,,,,,,,,,,,,,,,,,,,,,,,,,,,,,,,,,,,,,,,,,,,,,,,,,,,,,,,,,,,
,,605824a5c79c7e261e281cc5,2024-01-06_02h43.00.023,kallum_motion_pilot,2023.2.3,Win32,59.52380952,605824a5c79c7e261e281cc5,6598e6a5d84f07970b831e70,6598e724b14ee5c28bf479cb,0.0211,0.0212,0,0,0,81,1,fiveseven,,,,,,,,,,,,,,,,,,,,,,,,,,,,,,,,,,,,,,,,,,,,,,,,,,,,,,,,,,,,,,,,,,,,,,,,,,,,,,,,,,,,,,,,,,,,,,,,,,,,,,,,,,,,,,,,,,,,,,,,,,,,,,,,,,,,,,,
,,605824a5c79c7e261e281cc5,2024-01-06_02h43.00.023,kallum_motion_pilot,2023.2.3,Win32,59.52380952,605824a5c79c7e261e281cc5,6598e6a5d84f07970b831e70,6598e724b14ee5c28bf479cb,0.0214,0.0214,0,1,1,104,1,fivesix,,,,,,,,,,,,,,,,,,,,,,,,,,,,,,,,,,,,,,,,,,,,,,,,,,,,,,,,,,,,,,,,,,,,,,,,,,,,,,,,,,,,,,,,,,,,,,,,,,,,,,,,,,,,,,,,,,,,,,,,,,,,,,,,,,,,,,,
,,605824a5c79c7e261e281cc5,2024-01-06_02h43.00.023,kallum_motion_pilot,2023.2.3,Win32,59.52380952,605824a5c79c7e261e281cc5,6598e6a5d84f07970b831e70,6598e724b14ee5c28bf479cb,0.0215,0.0215,0,2,2,0,1,onetwo,,,,,,,,,,,,,,,,,,,,,,,,,,,,,,,,,,,,,,,,,,,,,,,,,,,,,,,,,,,,,,,,,,,,,,,,,,,,,,,,,,,,,,,,,,,,,,,,,,,,,,,,,,,,,,,,,,,,,,,,,,,,,,,,,,,,,,,
,,605824a5c79c7e261e281cc5,2024-01-06_02h43.00.023,kallum_motion_pilot,2023.2.3,Win32,59.52380952,605824a5c79c7e261e281cc5,6598e6a5d84f07970b831e70,6598e724b14ee5c28bf479cb,0.0216,0.0216,0,3,3,152,1,fivesix,,,,,,,,,,,,,,,,,,,,,,,,,,,,,,,,,,,,,,,,,,,,,,,,,,,,,,,,,,,,,,,,,,,,,,,,,,,,,,,,,,,,,,,,,,,,,,,,,,,,,,,,,,,,,,,,,,,,,,,,,,,,,,,,,,,,,,,
,,605824a5c79c7e261e281cc5,2024-01-06_02h43.00.023,kallum_motion_pilot,2023.2.3,Win32,59.52380952,605824a5c79c7e261e281cc5,6598e6a5d84f07970b831e70,6598e724b14ee5c28bf479cb,0.0218,0.0218,0,4,4,20,1,threeone,,,,,,,,,,,,,,,,,,,,,,,,,,,,,,,,,,,,,,,,,,,,,,,,,,,,,,,,,,,,,,,,,,,,,,,,,,,,,,,,,,,,,,,,,,,,,,,,,,,,,,,,,,,,,,,,,,,,,,,,,,,,,,,,,,,,,,,
,,605824a5c79c7e261e281cc5,2024-01-06_02h43.00.023,kallum_motion_pilot,2023.2.3,Win32,59.52380952,605824a5c79c7e261e281cc5,6598e6a5d84f07970b831e70,6598e724b14ee5c28bf479cb,0.0218,0.0218,0,5,5,36,1,threeone,,,,,,,,,,,,,,,,,,,,,,,,,,,,,,,,,,,,,,,,,,,,,,,,,,,,,,,,,,,,,,,,,,,,,,,,,,,,,,,,,,,,,,,,,,,,,,,,,,,,,,,,,,,,,,,,,,,,,,,,,,,,,,,,,,,,,,,
,,605824a5c79c7e261e281cc5,2024-01-06_02h43.00.023,kallum_motion_pilot,2023.2.3,Win32,59.52380952,605824a5c79c7e261e281cc5,6598e6a5d84f07970b831e70,6598e724b14ee5c28bf479cb,0.0219,0.0219,0,6,6,15,1,fourthree,,,,,,,,,,,,,,,,,,,,,,,,,,,,,,,,,,,,,,,,,,,,,,,,,,,,,,,,,,,,,,,,,,,,,,,,,,,,,,,,,,,,,,,,,,,,,,,,,,,,,,,,,,,,,,,,,,,,,,,,,,,,,,,,,,,,,,,
,,605824a5c79c7e261e281cc5,2024-01-06_02h43.00.023,kallum_motion_pilot,2023.2.3,Win32,59.52380952,605824a5c79c7e261e281cc5,6598e6a5d84f07970b831e70,6598e724b14ee5c28bf479cb,0.022,0.022,0,7,7,5,1,threefour,,,,,,,,,,,,,,,,,,,,,,,,,,,,,,,,,,,,,,,,,,,,,,,,,,,,,,,,,,,,,,,,,,,,,,,,,,,,,,,,,,,,,,,,,,,,,,,,,,,,,,,,,,,,,,,,,,,,,,,,,,,,,,,,,,,,,,,
,,605824a5c79c7e261e281cc5,2024-01-06_02h43.00.023,kallum_motion_pilot,2023.2.3,Win32,59.52380952,605824a5c79c7e261e281cc5,6598e6a5d84f07970b831e70,6598e724b14ee5c28bf479cb,0.0221,0.0222,0,8,8,83,1,sixeight,,,,,,,,,,,,,,,,,,,,,,,,,,,,,,,,,,,,,,,,,,,,,,,,,,,,,,,,,,,,,,,,,,,,,,,,,,,,,,,,,,,,,,,,,,,,,,,,,,,,,,,,,,,,,,,,,,,,,,,,,,,,,,,,,,,,,,,
,,605824a5c79c7e261e281cc5,2024-01-06_02h43.00.023,kallum_motion_pilot,2023.2.3,Win32,59.52380952,605824a5c79c7e261e281cc5,6598e6a5d84f07970b831e70,6598e724b14ee5c28bf479cb,0.0222,0.0223,0,9,9,33,1,onethree,,,,,,,,,,,,,,,,,,,,,,,,,,,,,,,,,,,,,,,,,,,,,,,,,,,,,,,,,,,,,,,,,,,,,,,,,,,,,,,,,,,,,,,,,,,,,,,,,,,,,,,,,,,,,,,,,,,,,,,,,,,,,,,,,,,,,,,
,,605824a5c79c7e261e281cc5,2024-01-06_02h43.00.023,kallum_motion_pilot,2023.2.3,Win32,59.52380952,605824a5c79c7e261e281cc5,6598e6a5d84f07970b831e70,6598e724b14ee5c28bf479cb,0.0223,0.0223,0,10,10,107,1,sixeight,,,,,,,,,,,,,,,,,,,,,,,,,,,,,,,,,,,,,,,,,,,,,,,,,,,,,,,,,,,,,,,,,,,,,,,,,,,,,,,,,,,,,,,,,,,,,,,,,,,,,,,,,,,,,,,,,,,,,,,,,,,,,,,,,,,,,,,
,,605824a5c79c7e261e281cc5,2024-01-06_02h43.00.023,kallum_motion_pilot,2023.2.3,Win32,59.52380952,605824a5c79c7e261e281cc5,6598e6a5d84f07970b831e70,6598e724b14ee5c28bf479cb,0.0224,0.0225,0,11,11,34,1,twoone,,,,,,,,,,,,,,,,,,,,,,,,,,,,,,,,,,,,,,,,,,,,,,,,,,,,,,,,,,,,,,,,,,,,,,,,,,,,,,,,,,,,,,,,,,,,,,,,,,,,,,,,,,,,,,,,,,,,,,,,,,,,,,,,,,,,,,,
,,605824a5c79c7e261e281cc5,2024-01-06_02h43.00.023,kallum_motion_pilot,2023.2.3,Win32,59.52380952,605824a5c79c7e261e281cc5,6598e6a5d84f07970b831e70,6598e724b14ee5c28bf479cb,0.0225,0.0225,0,12,12,97,1,fiveseven,,,,,,,,,,,,,,,,,,,,,,,,,,,,,,,,,,,,,,,,,,,,,,,,,,,,,,,,,,,,,,,,,,,,,,,,,,,,,,,,,,,,,,,,,,,,,,,,,,,,,,,,,,,,,,,,,,,,,,,,,,,,,,,,,,,,,,,
,,605824a5c79c7e261e281cc5,2024-01-06_02h43.00.023,kallum_motion_pilot,2023.2.3,Win32,59.52380952,605824a5c79c7e261e281cc5,6598e6a5d84f07970b831e70,6598e724b14ee5c28bf479cb,0.0225,0.0226,0,13,13,106,1,sixfive,,,,,,,,,,,,,,,,,,,,,,,,,,,,,,,,,,,,,,,,,,,,,,,,,,,,,,,,,,,,,,,,,,,,,,,,,,,,,,,,,,,,,,,,,,,,,,,,,,,,,,,,,,,,,,,,,,,,,,,,,,,,,,,,,,,,,,,
,,605824a5c79c7e261e281cc5,2024-01-06_02h43.00.023,kallum_motion_pilot,2023.2.3,Win32,59.52380952,605824a5c79c7e261e281cc5,6598e6a5d84f07970b831e70,6598e724b14ee5c28bf479cb,0.0227,0.0227,0,14,14,54,1,fourtwo,,,,,,,,,,,,,,,,,,,,,,,,,,,,,,,,,,,,,,,,,,,,,,,,,,,,,,,,,,,,,,,,,,,,,,,,,,,,,,,,,,,,,,,,,,,,,,,,,,,,,,,,,,,,,,,,,,,,,,,,,,,,,,,,,,,,,,,
,,605824a5c79c7e261e281cc5,2024-01-06_02h43.00.023,kallum_motion_pilot,2023.2.3,Win32,59.52380952,605824a5c79c7e261e281cc5,6598e6a5d84f07970b831e70,6598e724b14ee5c28bf479cb,0.0227,0.0227,0,15,15,156,1,sevenfive,,,,,,,,,,,,,,,,,,,,,,,,,,,,,,,,,,,,,,,,,,,,,,,,,,,,,,,,,,,,,,,,,,,,,,,,,,,,,,,,,,,,,,,,,,,,,,,,,,,,,,,,,,,,,,,,,,,,,,,,,,,,,,,,,,,,,,,
,,605824a5c79c7e261e281cc5,2024-01-06_02h43.00.023,kallum_motion_pilot,2023.2.3,Win32,59.52380952,605824a5c79c7e261e281cc5,6598e6a5d84f07970b831e70,6598e724b14ee5c28bf479cb,0.0227,0.0227,0,16,16,100,1,sevenfive,,,,,,,,,,,,,,,,,,,,,,,,,,,,,,,,,,,,,,,,,,,,,,,,,,,,,,,,,,,,,,,,,,,,,,,,,,,,,,,,,,,,,,,,,,,,,,,,,,,,,,,,,,,,,,,,,,,,,,,,,,,,,,,,,,,,,,,
,,605824a5c79c7e261e281cc5,2024-01-06_02h43.00.023,kallum_motion_pilot,2023.2.3,Win32,59.52380952,605824a5c79c7e261e281cc5,6598e6a5d84f07970b831e70,6598e724b14ee5c28bf479cb,0.0228,0.0228,0,17,17,17,1,onethree,,,,,,,,,,,,,,,,,,,,,,,,,,,,,,,,,,,,,,,,,,,,,,,,,,,,,,,,,,,,,,,,,,,,,,,,,,,,,,,,,,,,,,,,,,,,,,,,,,,,,,,,,,,,,,,,,,,,,,,,,,,,,,,,,,,,,,,
,,605824a5c79c7e261e281cc5,2024-01-06_02h43.00.023,kallum_motion_pilot,2023.2.3,Win32,59.52380952,605824a5c79c7e261e281cc5,6598e6a5d84f07970b831e70,6598e724b14ee5c28bf479cb,0.0229,0.0229,0,18,18,50,1,twoone,,,,,,,,,,,,,,,,,,,,,,,,,,,,,,,,,,,,,,,,,,,,,,,,,,,,,,,,,,,,,,,,,,,,,,,,,,,,,,,,,,,,,,,,,,,,,,,,,,,,,,,,,,,,,,,,,,,,,,,,,,,,,,,,,,,,,,,
,,605824a5c79c7e261e281cc5,2024-01-06_02h43.00.023,kallum_motion_pilot,2023.2.3,Win32,59.52380952,605824a5c79c7e261e281cc5,6598e6a5d84f07970b831e70,6598e724b14ee5c28bf479cb,0.0229,0.023,0,19,19,158,1,eightsix,,,,,,,,,,,,,,,,,,,,,,,,,,,,,,,,,,,,,,,,,,,,,,,,,,,,,,,,,,,,,,,,,,,,,,,,,,,,,,,,,,,,,,,,,,,,,,,,,,,,,,,,,,,,,,,,,,,,,,,,,,,,,,,,,,,,,,,
,,605824a5c79c7e261e281cc5,2024-01-06_02h43.00.023,kallum_motion_pilot,2023.2.3,Win32,59.52380952,605824a5c79c7e261e281cc5,6598e6a5d84f07970b831e70,6598e724b14ee5c28bf479cb,0.0231,0.0231,0,20,20,57,1,onethree,,,,,,,,,,,,,,,,,,,,,,,,,,,,,,,,,,,,,,,,,,,,,,,,,,,,,,,,,,,,,,,,,,,,,,,,,,,,,,,,,,,,,,,,,,,,,,,,,,,,,,,,,,,,,,,,,,,,,,,,,,,,,,,,,,,,,,,
,,605824a5c79c7e261e281cc5,2024-01-06_02h43.00.023,kallum_motion_pilot,2023.2.3,Win32,59.52380952,605824a5c79c7e261e281cc5,6598e6a5d84f07970b831e70,6598e724b14ee5c28bf479cb,0.0231,0.0231,0,21,21,136,1,fivesix,,,,,,,,,,,,,,,,,,,,,,,,,,,,,,,,,,,,,,,,,,,,,,,,,,,,,,,,,,,,,,,,,,,,,,,,,,,,,,,,,,,,,,,,,,,,,,,,,,,,,,,,,,,,,,,,,,,,,,,,,,,,,,,,,,,,,,,
,,605824a5c79c7e261e281cc5,2024-01-06_02h43.00.023,kallum_motion_pilot,2023.2.3,Win32,59.52380952,605824a5c79c7e261e281cc5,6598e6a5d84f07970b831e70,6598e724b14ee5c28bf479cb,0.0232,0.0232,0,22,22,60,1,threeone,,,,,,,,,,,,,,,,,,,,,,,,,,,,,,,,,,,,,,,,,,,,,,,,,,,,,,,,,,,,,,,,,,,,,,,,,,,,,,,,,,,,,,,,,,,,,,,,,,,,,,,,,,,,,,,,,,,,,,,,,,,,,,,,,,,,,,,
,,605824a5c79c7e261e281cc5,2024-01-06_02h43.00.023,kallum_motion_pilot,2023.2.3,Win32,59.52380952,605824a5c79c7e261e281cc5,6598e6a5d84f07970b831e70,6598e724b14ee5c28bf479cb,0.0232,0.0232,0,23,23,103,1,eightseven,,,,,,,,,,,,,,,,,,,,,,,,,,,,,,,,,,,,,,,,,,,,,,,,,,,,,,,,,,,,,,,,,,,,,,,,,,,,,,,,,,,,,,,,,,,,,,,,,,,,,,,,,,,,,,,,,,,,,,,,,,,,,,,,,,,,,,,
,,605824a5c79c7e261e281cc5,2024-01-06_02h43.00.023,kallum_motion_pilot,2023.2.3,Win32,59.52380952,605824a5c79c7e261e281cc5,6598e6a5d84f07970b831e70,6598e724b14ee5c28bf479cb,0.0233,0.0233,0,24,24,142,1,eightsix,,,,,,,,,,,,,,,,,,,,,,,,,,,,,,,,,,,,,,,,,,,,,,,,,,,,,,,,,,,,,,,,,,,,,,,,,,,,,,,,,,,,,,,,,,,,,,,,,,,,,,,,,,,,,,,,,,,,,,,,,,,,,,,,,,,,,,,
,,605824a5c79c7e261e281cc5,2024-01-06_02h43.00.023,kallum_motion_pilot,2023.2.3,Win32,59.52380952,605824a5c79c7e261e281cc5,6598e6a5d84f07970b831e70,6598e724b14ee5c28bf479cb,0.0234,0.0234,0,25,25,92,1,sevenfive,,,,,,,,,,,,,,,,,,,,,,,,,,,,,,,,,,,,,,,,,,,,,,,,,,,,,,,,,,,,,,,,,,,,,,,,,,,,,,,,,,,,,,,,,,,,,,,,,,,,,,,,,,,,,,,,,,,,,,,,,,,,,,,,,,,,,,,
,,605824a5c79c7e261e281cc5,2024-01-06_02h43.00.023,kallum_motion_pilot,2023.2.3,Win32,59.52380952,605824a5c79c7e261e281cc5,6598e6a5d84f07970b831e70,6598e724b14ee5c28bf479cb,0.0235,0.0235,0,26,26,89,1,fiveseven,,,,,,,,,,,,,,,,,,,,,,,,,,,,,,,,,,,,,,,,,,,,,,,,,,,,,,,,,,,,,,,,,,,,,,,,,,,,,,,,,,,,,,,,,,,,,,,,,,,,,,,,,,,,,,,,,,,,,,,,,,,,,,,,,,,,,,,
,,605824a5c79c7e261e281cc5,2024-01-06_02h43.00.023,kallum_motion_pilot,2023.2.3,Win32,59.52380952,605824a5c79c7e261e281cc5,6598e6a5d84f07970b831e70,6598e724b14ee5c28bf479cb,0.0236,0.0236,0,27,27,23,1,fourthree,,,,,,,,,,,,,,,,,,,,,,,,,,,,,,,,,,,,,,,,,,,,,,,,,,,,,,,,,,,,,,,,,,,,,,,,,,,,,,,,,,,,,,,,,,,,,,,,,,,,,,,,,,,,,,,,,,,,,,,,,,,,,,,,,,,,,,,
,,605824a5c79c7e261e281cc5,2024-01-06_02h43.00.023,kallum_motion_pilot,2023.2.3,Win32,59.52380952,605824a5c79c7e261e281cc5,6598e6a5d84f07970b831e70,6598e724b14ee5c28bf479cb,0.0236,0.0236,0,28,28,69,1,threefour,,,,,,,,,,,,,,,,,,,,,,,,,,,,,,,,,,,,,,,,,,,,,,,,,,,,,,,,,,,,,,,,,,,,,,,,,,,,,,,,,,,,,,,,,,,,,,,,,,,,,,,,,,,,,,,,,,,,,,,,,,,,,,,,,,,,,,,
,,605824a5c79c7e261e281cc5,2024-01-06_02h43.00.023,kallum_motion_pilot,2023.2.3,Win32,59.52380952,605824a5c79c7e261e281cc5,6598e6a5d84f07970b831e70,6598e724b14ee5c28bf479cb,0.0236,0.0236,0,29,29,66,1,twoone,,,,,,,,,,,,,,,,,,,,,,,,,,,,,,,,,,,,,,,,,,,,,,,,,,,,,,,,,,,,,,,,,,,,,,,,,,,,,,,,,,,,,,,,,,,,,,,,,,,,,,,,,,,,,,,,,,,,,,,,,,,,,,,,,,,,,,,
,,605824a5c79c7e261e281cc5,2024-01-06_02h43.00.023,kallum_motion_pilot,2023.2.3,Win32,59.52380952,605824a5c79c7e261e281cc5,6598e6a5d84f07970b831e70,6598e724b14ee5c28bf479cb,0.0237,0.0237,0,30,30,42,1,twoone,,,,,,,,,,,,,,,,,,,,,,,,,,,,,,,,,,,,,,,,,,,,,,,,,,,,,,,,,,,,,,,,,,,,,,,,,,,,,,,,,,,,,,,,,,,,,,,,,,,,,,,,,,,,,,,,,,,,,,,,,,,,,,,,,,,,,,,
,,605824a5c79c7e261e281cc5,2024-01-06_02h43.00.023,kallum_motion_pilot,2023.2.3,Win32,59.52380952,605824a5c79c7e261e281cc5,6598e6a5d84f07970b831e70,6598e724b14ee5c28bf479cb,0.0238,0.0238,0,31,31,154,1,sixfive,,,,,,,,,,,,,,,,,,,,,,,,,,,,,,,,,,,,,,,,,,,,,,,,,,,,,,,,,,,,,,,,,,,,,,,,,,,,,,,,,,,,,,,,,,,,,,,,,,,,,,,,,,,,,,,,,,,,,,,,,,,,,,,,,,,,,,,
,,605824a5c79c7e261e281cc5,2024-01-06_02h43.00.023,kallum_motion_pilot,2023.2.3,Win32,59.52380952,605824a5c79c7e261e281cc5,6598e6a5d84f07970b831e70,6598e724b14ee5c28bf479cb,0.0239,0.0239,0,32,32,73,1,onethree,,,,,,,,,,,,,,,,,,,,,,,,,,,,,,,,,,,,,,,,,,,,,,,,,,,,,,,,,,,,,,,,,,,,,,,,,,,,,,,,,,,,,,,,,,,,,,,,,,,,,,,,,,,,,,,,,,,,,,,,,,,,,,,,,,,,,,,
,,605824a5c79c7e261e281cc5,2024-01-06_02h43.00.023,kallum_motion_pilot,2023.2.3,Win32,59.52380952,605824a5c79c7e261e281cc5,6598e6a5d84f07970b831e70,6598e724b14ee5c28bf479cb,0.024,0.024,0,33,33,96,1,fivesix,,,,,,,,,,,,,,,,,,,,,,,,,,,,,,,,,,,,,,,,,,,,,,,,,,,,,,,,,,,,,,,,,,,,,,,,,,,,,,,,,,,,,,,,,,,,,,,,,,,,,,,,,,,,,,,,,,,,,,,,,,,,,,,,,,,,,,,
,,605824a5c79c7e261e281cc5,2024-01-06_02h43.00.023,kallum_motion_pilot,2023.2.3,Win32,59.52380952,605824a5c79c7e261e281cc5,6598e6a5d84f07970b831e70,6598e724b14ee5c28bf479cb,0.024,0.024,0,34,34,59,1,twofour,,,,,,,,,,,,,,,,,,,,,,,,,,,,,,,,,,,,,,,,,,,,,,,,,,,,,,,,,,,,,,,,,,,,,,,,,,,,,,,,,,,,,,,,,,,,,,,,,,,,,,,,,,,,,,,,,,,,,,,,,,,,,,,,,,,,,,,
,,605824a5c79c7e261e281cc5,2024-01-06_02h43.00.023,kallum_motion_pilot,2023.2.3,Win32,59.52380952,605824a5c79c7e261e281cc5,6598e6a5d84f07970b831e70,6598e724b14ee5c28bf479cb,0.0241,0.0241,0,35,35,12,1,threeone,,,,,,,,,,,,,,,,,,,,,,,,,,,,,,,,,,,,,,,,,,,,,,,,,,,,,,,,,,,,,,,,,,,,,,,,,,,,,,,,,,,,,,,,,,,,,,,,,,,,,,,,,,,,,,,,,,,,,,,,,,,,,,,,,,,,,,,
,,605824a5c79c7e261e281cc5,2024-01-06_02h43.00.023,kallum_motion_pilot,2023.2.3,Win32,59.52380952,605824a5c79c7e261e281cc5,6598e6a5d84f07970b831e70,6598e724b14ee5c28bf479cb,0.0242,0.0242,0,36,36,79,1,eightseven,,,,,,,,,,,,,,,,,,,,,,,,,,,,,,,,,,,,,,,,,,,,,,,,,,,,,,,,,,,,,,,,,,,,,,,,,,,,,,,,,,,,,,,,,,,,,,,,,,,,,,,,,,,,,,,,,,,,,,,,,,,,,,,,,,,,,,,
,,605824a5c79c7e261e281cc5,2024-01-06_02h43.00.023,kallum_motion_pilot,2023.2.3,Win32,59.52380952,605824a5c79c7e261e281cc5,6598e6a5d84f07970b831e70,6598e724b14ee5c28bf479cb,0.0243,0.0243,0,37,37,122,1,sixfive,,,,,,,,,,,,,,,,,,,,,,,,,,,,,,,,,,,,,,,,,,,,,,,,,,,,,,,,,,,,,,,,,,,,,,,,,,,,,,,,,,,,,,,,,,,,,,,,,,,,,,,,,,,,,,,,,,,,,,,,,,,,,,,,,,,,,,,
,,605824a5c79c7e261e281cc5,2024-01-06_02h43.00.023,kallum_motion_pilot,2023.2.3,Win32,59.52380952,605824a5c79c7e261e281cc5,6598e6a5d84f07970b831e70,6598e724b14ee5c28bf479cb,0.0244,0.0244,0,38,38,121,1,fiveseven,,,,,,,,,,,,,,,,,,,,,,,,,,,,,,,,,,,,,,,,,,,,,,,,,,,,,,,,,,,,,,,,,,,,,,,,,,,,,,,,,,,,,,,,,,,,,,,,,,,,,,,,,,,,,,,,,,,,,,,,,,,,,,,,,,,,,,,
,,605824a5c79c7e261e281cc5,2024-01-06_02h43.00.023,kallum_motion_pilot,2023.2.3,Win32,59.52380952,605824a5c79c7e261e281cc5,6598e6a5d84f07970b831e70,6598e724b14ee5c28bf479cb,0.0245,0.0245,0,39,39,49,1,onethree,,,,,,,,,,,,,,,,,,,,,,,,,,,,,,,,,,,,,,,,,,,,,,,,,,,,,,,,,,,,,,,,,,,,,,,,,,,,,,,,,,,,,,,,,,,,,,,,,,,,,,,,,,,,,,,,,,,,,,,,,,,,,,,,,,,,,,,
,,605824a5c79c7e261e281cc5,2024-01-06_02h43.00.023,kallum_motion_pilot,2023.2.3,Win32,59.52380952,605824a5c79c7e261e281cc5,6598e6a5d84f07970b831e70,6598e724b14ee5c28bf479cb,0.0246,0.0246,0,40,40,86,1,eightsix,,,,,,,,,,,,,,,,,,,,,,,,,,,,,,,,,,,,,,,,,,,,,,,,,,,,,,,,,,,,,,,,,,,,,,,,,,,,,,,,,,,,,,,,,,,,,,,,,,,,,,,,,,,,,,,,,,,,,,,,,,,,,,,,,,,,,,,
,,605824a5c79c7e261e281cc5,2024-01-06_02h43.00.023,kallum_motion_pilot,2023.2.3,Win32,59.52380952,605824a5c79c7e261e281cc5,6598e6a5d84f07970b831e70,6598e724b14ee5c28bf479cb,0.0247,0.0247,0,41,41,62,1,fourtwo,,,,,,,,,,,,,,,,,,,,,,,,,,,,,,,,,,,,,,,,,,,,,,,,,,,,,,,,,,,,,,,,,,,,,,,,,,,,,,,,,,,,,,,,,,,,,,,,,,,,,,,,,,,,,,,,,,,,,,,,,,,,,,,,,,,,,,,
,,605824a5c79c7e261e281cc5,2024-01-06_02h43.00.023,kallum_motion_pilot,2023.2.3,Win32,59.52380952,605824a5c79c7e261e281cc5,6598e6a5d84f07970b831e70,6598e724b14ee5c28bf479cb,0.0247,0.0248,0,42,42,6,1,fourtwo,,,,,,,,,,,,,,,,,,,,,,,,,,,,,,,,,,,,,,,,,,,,,,,,,,,,,,,,,,,,,,,,,,,,,,,,,,,,,,,,,,,,,,,,,,,,,,,,,,,,,,,,,,,,,,,,,,,,,,,,,,,,,,,,,,,,,,,
,,605824a5c79c7e261e281cc5,2024-01-06_02h43.00.023,kallum_motion_pilot,2023.2.3,Win32,59.52380952,605824a5c79c7e261e281cc5,6598e6a5d84f07970b831e70,6598e724b14ee5c28bf479cb,0.0249,0.0249,0,43,43,141,1,seveneight,,,,,,,,,,,,,,,,,,,,,,,,,,,,,,,,,,,,,,,,,,,,,,,,,,,,,,,,,,,,,,,,,,,,,,,,,,,,,,,,,,,,,,,,,,,,,,,,,,,,,,,,,,,,,,,,,,,,,,,,,,,,,,,,,,,,,,,
,,605824a5c79c7e261e281cc5,2024-01-06_02h43.00.023,kallum_motion_pilot,2023.2.3,Win32,59.52380952,605824a5c79c7e261e281cc5,6598e6a5d84f07970b831e70,6598e724b14ee5c28bf479cb,0.025,0.025,0,44,44,128,1,fivesix,,,,,,,,,,,,,,,,,,,,,,,,,,,,,,,,,,,,,,,,,,,,,,,,,,,,,,,,,,,,,,,,,,,,,,,,,,,,,,,,,,,,,,,,,,,,,,,,,,,,,,,,,,,,,,,,,,,,,,,,,,,,,,,,,,,,,,,
,,605824a5c79c7e261e281cc5,2024-01-06_02h43.00.023,kallum_motion_pilot,2023.2.3,Win32,59.52380952,605824a5c79c7e261e281cc5,6598e6a5d84f07970b831e70,6598e724b14ee5c28bf479cb,0.0251,0.0251,0,45,45,52,1,threeone,,,,,,,,,,,,,,,,,,,,,,,,,,,,,,,,,,,,,,,,,,,,,,,,,,,,,,,,,,,,,,,,,,,,,,,,,,,,,,,,,,,,,,,,,,,,,,,,,,,,,,,,,,,,,,,,,,,,,,,,,,,,,,,,,,,,,,,
,,605824a5c79c7e261e281cc5,2024-01-06_02h43.00.023,kallum_motion_pilot,2023.2.3,Win32,59.52380952,605824a5c79c7e261e281cc5,6598e6a5d84f07970b831e70,6598e724b14ee5c28bf479cb,0.0252,0.0252,0,46,46,51,1,twofour,,,,,,,,,,,,,,,,,,,,,,,,,,,,,,,,,,,,,,,,,,,,,,,,,,,,,,,,,,,,,,,,,,,,,,,,,,,,,,,,,,,,,,,,,,,,,,,,,,,,,,,,,,,,,,,,,,,,,,,,,,,,,,,,,,,,,,,
,,605824a5c79c7e261e281cc5,2024-01-06_02h43.00.023,kallum_motion_pilot,2023.2.3,Win32,59.52380952,605824a5c79c7e261e281cc5,6598e6a5d84f07970b831e70,6598e724b14ee5c28bf479cb,0.0253,0.0253,0,47,47,127,1,eightseven,,,,,,,,,,,,,,,,,,,,,,,,,,,,,,,,,,,,,,,,,,,,,,,,,,,,,,,,,,,,,,,,,,,,,,,,,,,,,,,,,,,,,,,,,,,,,,,,,,,,,,,,,,,,,,,,,,,,,,,,,,,,,,,,,,,,,,,
,,605824a5c79c7e261e281cc5,2024-01-06_02h43.00.023,kallum_motion_pilot,2023.2.3,Win32,59.52380952,605824a5c79c7e261e281cc5,6598e6a5d84f07970b831e70,6598e724b14ee5c28bf479cb,0.0254,0.0254,0,48,48,120,1,fivesix,,,,,,,,,,,,,,,,,,,,,,,,,,,,,,,,,,,,,,,,,,,,,,,,,,,,,,,,,,,,,,,,,,,,,,,,,,,,,,,,,,,,,,,,,,,,,,,,,,,,,,,,,,,,,,,,,,,,,,,,,,,,,,,,,,,,,,,
,,605824a5c79c7e261e281cc5,2024-01-06_02h43.00.023,kallum_motion_pilot,2023.2.3,Win32,59.52380952,605824a5c79c7e261e281cc5,6598e6a5d84f07970b831e70,6598e724b14ee5c28bf479cb,0.0254,0.0254,0,49,49,30,1,fourtwo,,,,,,,,,,,,,,,,,,,,,,,,,,,,,,,,,,,,,,,,,,,,,,,,,,,,,,,,,,,,,,,,,,,,,,,,,,,,,,,,,,,,,,,,,,,,,,,,,,,,,,,,,,,,,,,,,,,,,,,,,,,,,,,,,,,,,,,
,,605824a5c79c7e261e281cc5,2024-01-06_02h43.00.023,kallum_motion_pilot,2023.2.3,Win32,59.52380952,605824a5c79c7e261e281cc5,6598e6a5d84f07970b831e70,6598e724b14ee5c28bf479cb,0.0255,0.0255,0,50,50,130,1,sixfive,,,,,,,,,,,,,,,,,,,,,,,,,,,,,,,,,,,,,,,,,,,,,,,,,,,,,,,,,,,,,,,,,,,,,,,,,,,,,,,,,,,,,,,,,,,,,,,,,,,,,,,,,,,,,,,,,,,,,,,,,,,,,,,,,,,,,,,
,,605824a5c79c7e261e281cc5,2024-01-06_02h43.00.023,kallum_motion_pilot,2023.2.3,Win32,59.52380952,605824a5c79c7e261e281cc5,6598e6a5d84f07970b831e70,6598e724b14ee5c28bf479cb,0.0257,0.0258,0,51,51,160,1,fivesix,,,,,,,,,,,,,,,,,,,,,,,,,,,,,,,,,,,,,,,,,,,,,,,,,,,,,,,,,,,,,,,,,,,,,,,,,,,,,,,,,,,,,,,,,,,,,,,,,,,,,,,,,,,,,,,,,,,,,,,,,,,,,,,,,,,,,,,
,,605824a5c79c7e261e281cc5,2024-01-06_02h43.00.023,kallum_motion_pilot,2023.2.3,Win32,59.52380952,605824a5c79c7e261e281cc5,6598e6a5d84f07970b831e70,6598e724b14ee5c28bf479cb,0.0258,0.0258,0,52,52,148,1,sevenfive,,,,,,,,,,,,,,,,,,,,,,,,,,,,,,,,,,,,,,,,,,,,,,,,,,,,,,,,,,,,,,,,,,,,,,,,,,,,,,,,,,,,,,,,,,,,,,,,,,,,,,,,,,,,,,,,,,,,,,,,,,,,,,,,,,,,,,,
,,605824a5c79c7e261e281cc5,2024-01-06_02h43.00.023,kallum_motion_pilot,2023.2.3,Win32,59.52380952,605824a5c79c7e261e281cc5,6598e6a5d84f07970b831e70,6598e724b14ee5c28bf479cb,0.0259,0.0259,0,53,53,32,1,onetwo,,,,,,,,,,,,,,,,,,,,,,,,,,,,,,,,,,,,,,,,,,,,,,,,,,,,,,,,,,,,,,,,,,,,,,,,,,,,,,,,,,,,,,,,,,,,,,,,,,,,,,,,,,,,,,,,,,,,,,,,,,,,,,,,,,,,,,,
,,605824a5c79c7e261e281cc5,2024-01-06_02h43.00.023,kallum_motion_pilot,2023.2.3,Win32,59.52380952,605824a5c79c7e261e281cc5,6598e6a5d84f07970b831e70,6598e724b14ee5c28bf479cb,0.0261,0.0261,0,54,54,2,1,twoone,,,,,,,,,,,,,,,,,,,,,,,,,,,,,,,,,,,,,,,,,,,,,,,,,,,,,,,,,,,,,,,,,,,,,,,,,,,,,,,,,,,,,,,,,,,,,,,,,,,,,,,,,,,,,,,,,,,,,,,,,,,,,,,,,,,,,,,
,,605824a5c79c7e261e281cc5,2024-01-06_02h43.00.023,kallum_motion_pilot,2023.2.3,Win32,59.52380952,605824a5c79c7e261e281cc5,6598e6a5d84f07970b831e70,6598e724b14ee5c28bf479cb,0.0261,0.0261,0,55,55,11,1,twofour,,,,,,,,,,,,,,,,,,,,,,,,,,,,,,,,,,,,,,,,,,,,,,,,,,,,,,,,,,,,,,,,,,,,,,,,,,,,,,,,,,,,,,,,,,,,,,,,,,,,,,,,,,,,,,,,,,,,,,,,,,,,,,,,,,,,,,,
,,605824a5c79c7e261e281cc5,2024-01-06_02h43.00.023,kallum_motion_pilot,2023.2.3,Win32,59.52380952,605824a5c79c7e261e281cc5,6598e6a5d84f07970b831e70,6598e724b14ee5c28bf479cb,0.0262,0.0262,0,56,56,109,1,seveneight,,,,,,,,,,,,,,,,,,,,,,,,,,,,,,,,,,,,,,,,,,,,,,,,,,,,,,,,,,,,,,,,,,,,,,,,,,,,,,,,,,,,,,,,,,,,,,,,,,,,,,,,,,,,,,,,,,,,,,,,,,,,,,,,,,,,,,,
,,605824a5c79c7e261e281cc5,2024-01-06_02h43.00.023,kallum_motion_pilot,2023.2.3,Win32,59.52380952,605824a5c79c7e261e281cc5,6598e6a5d84f07970b831e70,6598e724b14ee5c28bf479cb,0.0264,0.0264,0,57,57,19,1,twofour,,,,,,,,,,,,,,,,,,,,,,,,,,,,,,,,,,,,,,,,,,,,,,,,,,,,,,,,,,,,,,,,,,,,,,,,,,,,,,,,,,,,,,,,,,,,,,,,,,,,,,,,,,,,,,,,,,,,,,,,,,,,,,,,,,,,,,,
,,605824a5c79c7e261e281cc5,2024-01-06_02h43.00.023,kallum_motion_pilot,2023.2.3,Win32,59.52380952,605824a5c79c7e261e281cc5,6598e6a5d84f07970b831e70,6598e724b14ee5c28bf479cb,0.0265,0.0265,0,58,58,151,1,eightseven,,,,,,,,,,,,,,,,,,,,,,,,,,,,,,,,,,,,,,,,,,,,,,,,,,,,,,,,,,,,,,,,,,,,,,,,,,,,,,,,,,,,,,,,,,,,,,,,,,,,,,,,,,,,,,,,,,,,,,,,,,,,,,,,,,,,,,,
,,605824a5c79c7e261e281cc5,2024-01-06_02h43.00.023,kallum_motion_pilot,2023.2.3,Win32,59.52380952,605824a5c79c7e261e281cc5,6598e6a5d84f07970b831e70,6598e724b14ee5c28bf479cb,0.0265,0.0265,0,59,59,126,1,eightsix,,,,,,,,,,,,,,,,,,,,,,,,,,,,,,,,,,,,,,,,,,,,,,,,,,,,,,,,,,,,,,,,,,,,,,,,,,,,,,,,,,,,,,,,,,,,,,,,,,,,,,,,,,,,,,,,,,,,,,,,,,,,,,,,,,,,,,,
,,605824a5c79c7e261e281cc5,2024-01-06_02h43.00.023,kallum_motion_pilot,2023.2.3,Win32,59.52380952,605824a5c79c7e261e281cc5,6598e6a5d84f07970b831e70,6598e724b14ee5c28bf479cb,0.0267,0.0267,0,60,60,115,1,sixeight,,,,,,,,,,,,,,,,,,,,,,,,,,,,,,,,,,,,,,,,,,,,,,,,,,,,,,,,,,,,,,,,,,,,,,,,,,,,,,,,,,,,,,,,,,,,,,,,,,,,,,,,,,,,,,,,,,,,,,,,,,,,,,,,,,,,,,,
,,605824a5c79c7e261e281cc5,2024-01-06_02h43.00.023,kallum_motion_pilot,2023.2.3,Win32,59.52380952,605824a5c79c7e261e281cc5,6598e6a5d84f07970b831e70,6598e724b14ee5c28bf479cb,0.0267,0.0268,0,61,61,27,1,twofour,,,,,,,,,,,,,,,,,,,,,,,,,,,,,,,,,,,,,,,,,,,,,,,,,,,,,,,,,,,,,,,,,,,,,,,,,,,,,,,,,,,,,,,,,,,,,,,,,,,,,,,,,,,,,,,,,,,,,,,,,,,,,,,,,,,,,,,
,,605824a5c79c7e261e281cc5,2024-01-06_02h43.00.023,kallum_motion_pilot,2023.2.3,Win32,59.52380952,605824a5c79c7e261e281cc5,6598e6a5d84f07970b831e70,6598e724b14ee5c28bf479cb,0.0268,0.0268,0,62,62,116,1,sevenfive,,,,,,,,,,,,,,,,,,,,,,,,,,,,,,,,,,,,,,,,,,,,,,,,,,,,,,,,,,,,,,,,,,,,,,,,,,,,,,,,,,,,,,,,,,,,,,,,,,,,,,,,,,,,,,,,,,,,,,,,,,,,,,,,,,,,,,,
,,605824a5c79c7e261e281cc5,2024-01-06_02h43.00.023,kallum_motion_pilot,2023.2.3,Win32,59.52380952,605824a5c79c7e261e281cc5,6598e6a5d84f07970b831e70,6598e724b14ee5c28bf479cb,0.0269,0.0269,0,63,63,67,1,twofour,,,,,,,,,,,,,,,,,,,,,,,,,,,,,,,,,,,,,,,,,,,,,,,,,,,,,,,,,,,,,,,,,,,,,,,,,,,,,,,,,,,,,,,,,,,,,,,,,,,,,,,,,,,,,,,,,,,,,,,,,,,,,,,,,,,,,,,
,,605824a5c79c7e261e281cc5,2024-01-06_02h43.00.023,kallum_motion_pilot,2023.2.3,Win32,59.52380952,605824a5c79c7e261e281cc5,6598e6a5d84f07970b831e70,6598e724b14ee5c28bf479cb,0.0271,0.0271,0,64,64,82,1,sixfive,,,,,,,,,,,,,,,,,,,,,,,,,,,,,,,,,,,,,,,,,,,,,,,,,,,,,,,,,,,,,,,,,,,,,,,,,,,,,,,,,,,,,,,,,,,,,,,,,,,,,,,,,,,,,,,,,,,,,,,,,,,,,,,,,,,,,,,
,,605824a5c79c7e261e281cc5,2024-01-06_02h43.00.023,kallum_motion_pilot,2023.2.3,Win32,59.52380952,605824a5c79c7e261e281cc5,6598e6a5d84f07970b831e70,6598e724b14ee5c28bf479cb,0.0272,0.0272,0,65,65,22,1,fourtwo,,,,,,,,,,,,,,,,,,,,,,,,,,,,,,,,,,,,,,,,,,,,,,,,,,,,,,,,,,,,,,,,,,,,,,,,,,,,,,,,,,,,,,,,,,,,,,,,,,,,,,,,,,,,,,,,,,,,,,,,,,,,,,,,,,,,,,,
,,605824a5c79c7e261e281cc5,2024-01-06_02h43.00.023,kallum_motion_pilot,2023.2.3,Win32,59.52380952,605824a5c79c7e261e281cc5,6598e6a5d84f07970b831e70,6598e724b14ee5c28bf479cb,0.0272,0.0274,0,66,66,4,1,threeone,,,,,,,,,,,,,,,,,,,,,,,,,,,,,,,,,,,,,,,,,,,,,,,,,,,,,,,,,,,,,,,,,,,,,,,,,,,,,,,,,,,,,,,,,,,,,,,,,,,,,,,,,,,,,,,,,,,,,,,,,,,,,,,,,,,,,,,
,,605824a5c79c7e261e281cc5,2024-01-06_02h43.00.023,kallum_motion_pilot,2023.2.3,Win32,59.52380952,605824a5c79c7e261e281cc5,6598e6a5d84f07970b831e70,6598e724b14ee5c28bf479cb,0.0274,0.0274,0,67,67,84,1,sevenfive,,,,,,,,,,,,,,,,,,,,,,,,,,,,,,,,,,,,,,,,,,,,,,,,,,,,,,,,,,,,,,,,,,,,,,,,,,,,,,,,,,,,,,,,,,,,,,,,,,,,,,,,,,,,,,,,,,,,,,,,,,,,,,,,,,,,,,,
,,605824a5c79c7e261e281cc5,2024-01-06_02h43.00.023,kallum_motion_pilot,2023.2.3,Win32,59.52380952,605824a5c79c7e261e281cc5,6598e6a5d84f07970b831e70,6598e724b14ee5c28bf479cb,0.0274,0.0274,0,68,68,87,1,eightseven,,,,,,,,,,,,,,,,,,,,,,,,,,,,,,,,,,,,,,,,,,,,,,,,,,,,,,,,,,,,,,,,,,,,,,,,,,,,,,,,,,,,,,,,,,,,,,,,,,,,,,,,,,,,,,,,,,,,,,,,,,,,,,,,,,,,,,,
,,605824a5c79c7e261e281cc5,2024-01-06_02h43.00.023,kallum_motion_pilot,2023.2.3,Win32,59.52380952,605824a5c79c7e261e281cc5,6598e6a5d84f07970b831e70,6598e724b14ee5c28bf479cb,0.0275,0.0276,0,69,69,28,1,threeone,,,,,,,,,,,,,,,,,,,,,,,,,,,,,,,,,,,,,,,,,,,,,,,,,,,,,,,,,,,,,,,,,,,,,,,,,,,,,,,,,,,,,,,,,,,,,,,,,,,,,,,,,,,,,,,,,,,,,,,,,,,,,,,,,,,,,,,
,,605824a5c79c7e261e281cc5,2024-01-06_02h43.00.023,kallum_motion_pilot,2023.2.3,Win32,59.52380952,605824a5c79c7e261e281cc5,6598e6a5d84f07970b831e70,6598e724b14ee5c28bf479cb,0.0276,0.0276,0,70,70,8,1,onetwo,,,,,,,,,,,,,,,,,,,,,,,,,,,,,,,,,,,,,,,,,,,,,,,,,,,,,,,,,,,,,,,,,,,,,,,,,,,,,,,,,,,,,,,,,,,,,,,,,,,,,,,,,,,,,,,,,,,,,,,,,,,,,,,,,,,,,,,
,,605824a5c79c7e261e281cc5,2024-01-06_02h43.00.023,kallum_motion_pilot,2023.2.3,Win32,59.52380952,605824a5c79c7e261e281cc5,6598e6a5d84f07970b831e70,6598e724b14ee5c28bf479cb,0.0277,0.0277,0,71,71,131,1,sixeight,,,,,,,,,,,,,,,,,,,,,,,,,,,,,,,,,,,,,,,,,,,,,,,,,,,,,,,,,,,,,,,,,,,,,,,,,,,,,,,,,,,,,,,,,,,,,,,,,,,,,,,,,,,,,,,,,,,,,,,,,,,,,,,,,,,,,,,
,,605824a5c79c7e261e281cc5,2024-01-06_02h43.00.023,kallum_motion_pilot,2023.2.3,Win32,59.52380952,605824a5c79c7e261e281cc5,6598e6a5d84f07970b831e70,6598e724b14ee5c28bf479cb,0.0278,0.0278,0,72,72,53,1,threefour,,,,,,,,,,,,,,,,,,,,,,,,,,,,,,,,,,,,,,,,,,,,,,,,,,,,,,,,,,,,,,,,,,,,,,,,,,,,,,,,,,,,,,,,,,,,,,,,,,,,,,,,,,,,,,,,,,,,,,,,,,,,,,,,,,,,,,,
,,605824a5c79c7e261e281cc5,2024-01-06_02h43.00.023,kallum_motion_pilot,2023.2.3,Win32,59.52380952,605824a5c79c7e261e281cc5,6598e6a5d84f07970b831e70,6598e724b14ee5c28bf479cb,0.0279,0.0279,0,73,73,39,1,fourthree,,,,,,,,,,,,,,,,,,,,,,,,,,,,,,,,,,,,,,,,,,,,,,,,,,,,,,,,,,,,,,,,,,,,,,,,,,,,,,,,,,,,,,,,,,,,,,,,,,,,,,,,,,,,,,,,,,,,,,,,,,,,,,,,,,,,,,,
,,605824a5c79c7e261e281cc5,2024-01-06_02h43.00.023,kallum_motion_pilot,2023.2.3,Win32,59.52380952,605824a5c79c7e261e281cc5,6598e6a5d84f07970b831e70,6598e724b14ee5c28bf479cb,0.028,0.028,0,74,74,140,1,sevenfive,,,,,,,,,,,,,,,,,,,,,,,,,,,,,,,,,,,,,,,,,,,,,,,,,,,,,,,,,,,,,,,,,,,,,,,,,,,,,,,,,,,,,,,,,,,,,,,,,,,,,,,,,,,,,,,,,,,,,,,,,,,,,,,,,,,,,,,
,,605824a5c79c7e261e281cc5,2024-01-06_02h43.00.023,kallum_motion_pilot,2023.2.3,Win32,59.52380952,605824a5c79c7e261e281cc5,6598e6a5d84f07970b831e70,6598e724b14ee5c28bf479cb,0.0281,0.0281,0,75,75,24,1,onetwo,,,,,,,,,,,,,,,,,,,,,,,,,,,,,,,,,,,,,,,,,,,,,,,,,,,,,,,,,,,,,,,,,,,,,,,,,,,,,,,,,,,,,,,,,,,,,,,,,,,,,,,,,,,,,,,,,,,,,,,,,,,,,,,,,,,,,,,
,,605824a5c79c7e261e281cc5,2024-01-06_02h43.00.023,kallum_motion_pilot,2023.2.3,Win32,59.52380952,605824a5c79c7e261e281cc5,6598e6a5d84f07970b831e70,6598e724b14ee5c28bf479cb,0.0282,0.0282,0,76,76,99,1,sixeight,,,,,,,,,,,,,,,,,,,,,,,,,,,,,,,,,,,,,,,,,,,,,,,,,,,,,,,,,,,,,,,,,,,,,,,,,,,,,,,,,,,,,,,,,,,,,,,,,,,,,,,,,,,,,,,,,,,,,,,,,,,,,,,,,,,,,,,
,,605824a5c79c7e261e281cc5,2024-01-06_02h43.00.023,kallum_motion_pilot,2023.2.3,Win32,59.52380952,605824a5c79c7e261e281cc5,6598e6a5d84f07970b831e70,6598e724b14ee5c28bf479cb,0.0283,0.0283,0,77,77,90,1,sixfive,,,,,,,,,,,,,,,,,,,,,,,,,,,,,,,,,,,,,,,,,,,,,,,,,,,,,,,,,,,,,,,,,,,,,,,,,,,,,,,,,,,,,,,,,,,,,,,,,,,,,,,,,,,,,,,,,,,,,,,,,,,,,,,,,,,,,,,
,,605824a5c79c7e261e281cc5,2024-01-06_02h43.00.023,kallum_motion_pilot,2023.2.3,Win32,59.52380952,605824a5c79c7e261e281cc5,6598e6a5d84f07970b831e70,6598e724b14ee5c28bf479cb,0.0284,0.0284,0,78,78,110,1,eightsix,,,,,,,,,,,,,,,,,,,,,,,,,,,,,,,,,,,,,,,,,,,,,,,,,,,,,,,,,,,,,,,,,,,,,,,,,,,,,,,,,,,,,,,,,,,,,,,,,,,,,,,,,,,,,,,,,,,,,,,,,,,,,,,,,,,,,,,
,,605824a5c79c7e261e281cc5,2024-01-06_02h43.00.023,kallum_motion_pilot,2023.2.3,Win32,59.52380952,605824a5c79c7e261e281cc5,6598e6a5d84f07970b831e70,6598e724b14ee5c28bf479cb,0.0285,0.0285,0,79,79,159,1,eightseven,,,,,,,,,,,,,,,,,,,,,,,,,,,,,,,,,,,,,,,,,,,,,,,,,,,,,,,,,,,,,,,,,,,,,,,,,,,,,,,,,,,,,,,,,,,,,,,,,,,,,,,,,,,,,,,,,,,,,,,,,,,,,,,,,,,,,,,
,,605824a5c79c7e261e281cc5,2024-01-06_02h43.00.023,kallum_motion_pilot,2023.2.3,Win32,59.52380952,605824a5c79c7e261e281cc5,6598e6a5d84f07970b831e70,6598e724b14ee5c28bf479cb,0.0286,0.0287,0,80,80,112,1,fivesix,,,,,,,,,,,,,,,,,,,,,,,,,,,,,,,,,,,,,,,,,,,,,,,,,,,,,,,,,,,,,,,,,,,,,,,,,,,,,,,,,,,,,,,,,,,,,,,,,,,,,,,,,,,,,,,,,,,,,,,,,,,,,,,,,,,,,,,
,,605824a5c79c7e261e281cc5,2024-01-06_02h43.00.023,kallum_motion_pilot,2023.2.3,Win32,59.52380952,605824a5c79c7e261e281cc5,6598e6a5d84f07970b831e70,6598e724b14ee5c28bf479cb,0.0287,0.0287,0,81,81,98,1,sixfive,,,,,,,,,,,,,,,,,,,,,,,,,,,,,,,,,,,,,,,,,,,,,,,,,,,,,,,,,,,,,,,,,,,,,,,,,,,,,,,,,,,,,,,,,,,,,,,,,,,,,,,,,,,,,,,,,,,,,,,,,,,,,,,,,,,,,,,
,,605824a5c79c7e261e281cc5,2024-01-06_02h43.00.023,kallum_motion_pilot,2023.2.3,Win32,59.52380952,605824a5c79c7e261e281cc5,6598e6a5d84f07970b831e70,6598e724b14ee5c28bf479cb,0.0288,0.0288,0,82,82,143,1,eightseven,,,,,,,,,,,,,,,,,,,,,,,,,,,,,,,,,,,,,,,,,,,,,,,,,,,,,,,,,,,,,,,,,,,,,,,,,,,,,,,,,,,,,,,,,,,,,,,,,,,,,,,,,,,,,,,,,,,,,,,,,,,,,,,,,,,,,,,
,,605824a5c79c7e261e281cc5,2024-01-06_02h43.00.023,kallum_motion_pilot,2023.2.3,Win32,59.52380952,605824a5c79c7e261e281cc5,6598e6a5d84f07970b831e70,6598e724b14ee5c28bf479cb,0.0289,0.0289,0,83,83,132,1,sevenfive,,,,,,,,,,,,,,,,,,,,,,,,,,,,,,,,,,,,,,,,,,,,,,,,,,,,,,,,,,,,,,,,,,,,,,,,,,,,,,,,,,,,,,,,,,,,,,,,,,,,,,,,,,,,,,,,,,,,,,,,,,,,,,,,,,,,,,,
,,605824a5c79c7e261e281cc5,2024-01-06_02h43.00.023,kallum_motion_pilot,2023.2.3,Win32,59.52380952,605824a5c79c7e261e281cc5,6598e6a5d84f07970b831e70,6598e724b14ee5c28bf479cb,0.029,0.029,0,84,84,94,1,eightsix,,,,,,,,,,,,,,,,,,,,,,,,,,,,,,,,,,,,,,,,,,,,,,,,,,,,,,,,,,,,,,,,,,,,,,,,,,,,,,,,,,,,,,,,,,,,,,,,,,,,,,,,,,,,,,,,,,,,,,,,,,,,,,,,,,,,,,,
,,605824a5c79c7e261e281cc5,2024-01-06_02h43.00.023,kallum_motion_pilot,2023.2.3,Win32,59.52380952,605824a5c79c7e261e281cc5,6598e6a5d84f07970b831e70,6598e724b14ee5c28bf479cb,0.0291,0.0291,0,85,85,150,1,eightsix,,,,,,,,,,,,,,,,,,,,,,,,,,,,,,,,,,,,,,,,,,,,,,,,,,,,,,,,,,,,,,,,,,,,,,,,,,,,,,,,,,,,,,,,,,,,,,,,,,,,,,,,,,,,,,,,,,,,,,,,,,,,,,,,,,,,,,,
,,605824a5c79c7e261e281cc5,2024-01-06_02h43.00.023,kallum_motion_pilot,2023.2.3,Win32,59.52380952,605824a5c79c7e261e281cc5,6598e6a5d84f07970b831e70,6598e724b14ee5c28bf479cb,0.0292,0.0292,0,86,86,31,1,fourthree,,,,,,,,,,,,,,,,,,,,,,,,,,,,,,,,,,,,,,,,,,,,,,,,,,,,,,,,,,,,,,,,,,,,,,,,,,,,,,,,,,,,,,,,,,,,,,,,,,,,,,,,,,,,,,,,,,,,,,,,,,,,,,,,,,,,,,,
,,605824a5c79c7e261e281cc5,2024-01-06_02h43.00.023,kallum_motion_pilot,2023.2.3,Win32,59.52380952,605824a5c79c7e261e281cc5,6598e6a5d84f07970b831e70,6598e724b14ee5c28bf479cb,0.0292,0.0293,0,87,87,47,1,fourthree,,,,,,,,,,,,,,,,,,,,,,,,,,,,,,,,,,,,,,,,,,,,,,,,,,,,,,,,,,,,,,,,,,,,,,,,,,,,,,,,,,,,,,,,,,,,,,,,,,,,,,,,,,,,,,,,,,,,,,,,,,,,,,,,,,,,,,,
,,605824a5c79c7e261e281cc5,2024-01-06_02h43.00.023,kallum_motion_pilot,2023.2.3,Win32,59.52380952,605824a5c79c7e261e281cc5,6598e6a5d84f07970b831e70,6598e724b14ee5c28bf479cb,0.0294,0.0294,0,88,88,7,1,fourthree,,,,,,,,,,,,,,,,,,,,,,,,,,,,,,,,,,,,,,,,,,,,,,,,,,,,,,,,,,,,,,,,,,,,,,,,,,,,,,,,,,,,,,,,,,,,,,,,,,,,,,,,,,,,,,,,,,,,,,,,,,,,,,,,,,,,,,,
,,605824a5c79c7e261e281cc5,2024-01-06_02h43.00.023,kallum_motion_pilot,2023.2.3,Win32,59.52380952,605824a5c79c7e261e281cc5,6598e6a5d84f07970b831e70,6598e724b14ee5c28bf479cb,0.0295,0.0295,0,89,89,37,1,threefour,,,,,,,,,,,,,,,,,,,,,,,,,,,,,,,,,,,,,,,,,,,,,,,,,,,,,,,,,,,,,,,,,,,,,,,,,,,,,,,,,,,,,,,,,,,,,,,,,,,,,,,,,,,,,,,,,,,,,,,,,,,,,,,,,,,,,,,
,,605824a5c79c7e261e281cc5,2024-01-06_02h43.00.023,kallum_motion_pilot,2023.2.3,Win32,59.52380952,605824a5c79c7e261e281cc5,6598e6a5d84f07970b831e70,6598e724b14ee5c28bf479cb,0.0296,0.0296,0,90,90,74,1,twoone,,,,,,,,,,,,,,,,,,,,,,,,,,,,,,,,,,,,,,,,,,,,,,,,,,,,,,,,,,,,,,,,,,,,,,,,,,,,,,,,,,,,,,,,,,,,,,,,,,,,,,,,,,,,,,,,,,,,,,,,,,,,,,,,,,,,,,,
,,605824a5c79c7e261e281cc5,2024-01-06_02h43.00.023,kallum_motion_pilot,2023.2.3,Win32,59.52380952,605824a5c79c7e261e281cc5,6598e6a5d84f07970b831e70,6598e724b14ee5c28bf479cb,0.0296,0.0296,0,91,91,41,1,onethree,,,,,,,,,,,,,,,,,,,,,,,,,,,,,,,,,,,,,,,,,,,,,,,,,,,,,,,,,,,,,,,,,,,,,,,,,,,,,,,,,,,,,,,,,,,,,,,,,,,,,,,,,,,,,,,,,,,,,,,,,,,,,,,,,,,,,,,
,,605824a5c79c7e261e281cc5,2024-01-06_02h43.00.023,kallum_motion_pilot,2023.2.3,Win32,59.52380952,605824a5c79c7e261e281cc5,6598e6a5d84f07970b831e70,6598e724b14ee5c28bf479cb,0.0297,0.0298,0,92,92,111,1,eightseven,,,,,,,,,,,,,,,,,,,,,,,,,,,,,,,,,,,,,,,,,,,,,,,,,,,,,,,,,,,,,,,,,,,,,,,,,,,,,,,,,,,,,,,,,,,,,,,,,,,,,,,,,,,,,,,,,,,,,,,,,,,,,,,,,,,,,,,
,,605824a5c79c7e261e281cc5,2024-01-06_02h43.00.023,kallum_motion_pilot,2023.2.3,Win32,59.52380952,605824a5c79c7e261e281cc5,6598e6a5d84f07970b831e70,6598e724b14ee5c28bf479cb,0.0299,0.0299,0,93,93,76,1,threeone,,,,,,,,,,,,,,,,,,,,,,,,,,,,,,,,,,,,,,,,,,,,,,,,,,,,,,,,,,,,,,,,,,,,,,,,,,,,,,,,,,,,,,,,,,,,,,,,,,,,,,,,,,,,,,,,,,,,,,,,,,,,,,,,,,,,,,,
,,605824a5c79c7e261e281cc5,2024-01-06_02h43.00.023,kallum_motion_pilot,2023.2.3,Win32,59.52380952,605824a5c79c7e261e281cc5,6598e6a5d84f07970b831e70,6598e724b14ee5c28bf479cb,0.0299,0.0299,0,94,94,10,1,twoone,,,,,,,,,,,,,,,,,,,,,,,,,,,,,,,,,,,,,,,,,,,,,,,,,,,,,,,,,,,,,,,,,,,,,,,,,,,,,,,,,,,,,,,,,,,,,,,,,,,,,,,,,,,,,,,,,,,,,,,,,,,,,,,,,,,,,,,
,,605824a5c79c7e261e281cc5,2024-01-06_02h43.00.023,kallum_motion_pilot,2023.2.3,Win32,59.52380952,605824a5c79c7e261e281cc5,6598e6a5d84f07970b831e70,6598e724b14ee5c28bf479cb,0.03,0.0301,0,95,95,61,1,threefour,,,,,,,,,,,,,,,,,,,,,,,,,,,,,,,,,,,,,,,,,,,,,,,,,,,,,,,,,,,,,,,,,,,,,,,,,,,,,,,,,,,,,,,,,,,,,,,,,,,,,,,,,,,,,,,,,,,,,,,,,,,,,,,,,,,,,,,
,,605824a5c79c7e261e281cc5,2024-01-06_02h43.00.023,kallum_motion_pilot,2023.2.3,Win32,59.52380952,605824a5c79c7e261e281cc5,6598e6a5d84f07970b831e70,6598e724b14ee5c28bf479cb,0.0302,0.0302,0,96,96,93,1,seveneight,,,,,,,,,,,,,,,,,,,,,,,,,,,,,,,,,,,,,,,,,,,,,,,,,,,,,,,,,,,,,,,,,,,,,,,,,,,,,,,,,,,,,,,,,,,,,,,,,,,,,,,,,,,,,,,,,,,,,,,,,,,,,,,,,,,,,,,
,,605824a5c79c7e261e281cc5,2024-01-06_02h43.00.023,kallum_motion_pilot,2023.2.3,Win32,59.52380952,605824a5c79c7e261e281cc5,6598e6a5d84f07970b831e70,6598e724b14ee5c28bf479cb,0.0303,0.0303,0,97,97,149,1,seveneight,,,,,,,,,,,,,,,,,,,,,,,,,,,,,,,,,,,,,,,,,,,,,,,,,,,,,,,,,,,,,,,,,,,,,,,,,,,,,,,,,,,,,,,,,,,,,,,,,,,,,,,,,,,,,,,,,,,,,,,,,,,,,,,,,,,,,,,
,,605824a5c79c7e261e281cc5,2024-01-06_02h43.00.023,kallum_motion_pilot,2023.2.3,Win32,59.52380952,605824a5c79c7e261e281cc5,6598e6a5d84f07970b831e70,6598e724b14ee5c28bf479cb,0.0304,0.0304,0,98,98,123,1,sixeight,,,,,,,,,,,,,,,,,,,,,,,,,,,,,,,,,,,,,,,,,,,,,,,,,,,,,,,,,,,,,,,,,,,,,,,,,,,,,,,,,,,,,,,,,,,,,,,,,,,,,,,,,,,,,,,,,,,,,,,,,,,,,,,,,,,,,,,
,,605824a5c79c7e261e281cc5,2024-01-06_02h43.00.023,kallum_motion_pilot,2023.2.3,Win32,59.52380952,605824a5c79c7e261e281cc5,6598e6a5d84f07970b831e70,6598e724b14ee5c28bf479cb,0.0304,0.0305,0,99,99,55,1,fourthree,,,,,,,,,,,,,,,,,,,,,,,,,,,,,,,,,,,,,,,,,,,,,,,,,,,,,,,,,,,,,,,,,,,,,,,,,,,,,,,,,,,,,,,,,,,,,,,,,,,,,,,,,,,,,,,,,,,,,,,,,,,,,,,,,,,,,,,
,,605824a5c79c7e261e281cc5,2024-01-06_02h43.00.023,kallum_motion_pilot,2023.2.3,Win32,59.52380952,605824a5c79c7e261e281cc5,6598e6a5d84f07970b831e70,6598e724b14ee5c28bf479cb,0.0306,0.0306,0,100,100,125,1,seveneight,,,,,,,,,,,,,,,,,,,,,,,,,,,,,,,,,,,,,,,,,,,,,,,,,,,,,,,,,,,,,,,,,,,,,,,,,,,,,,,,,,,,,,,,,,,,,,,,,,,,,,,,,,,,,,,,,,,,,,,,,,,,,,,,,,,,,,,
,,605824a5c79c7e261e281cc5,2024-01-06_02h43.00.023,kallum_motion_pilot,2023.2.3,Win32,59.52380952,605824a5c79c7e261e281cc5,6598e6a5d84f07970b831e70,6598e724b14ee5c28bf479cb,0.0307,0.0307,0,101,101,155,1,sixeight,,,,,,,,,,,,,,,,,,,,,,,,,,,,,,,,,,,,,,,,,,,,,,,,,,,,,,,,,,,,,,,,,,,,,,,,,,,,,,,,,,,,,,,,,,,,,,,,,,,,,,,,,,,,,,,,,,,,,,,,,,,,,,,,,,,,,,,
,,605824a5c79c7e261e281cc5,2024-01-06_02h43.00.023,kallum_motion_pilot,2023.2.3,Win32,59.52380952,605824a5c79c7e261e281cc5,6598e6a5d84f07970b831e70,6598e724b14ee5c28bf479cb,0.0307,0.0308,0,102,102,114,1,sixfive,,,,,,,,,,,,,,,,,,,,,,,,,,,,,,,,,,,,,,,,,,,,,,,,,,,,,,,,,,,,,,,,,,,,,,,,,,,,,,,,,,,,,,,,,,,,,,,,,,,,,,,,,,,,,,,,,,,,,,,,,,,,,,,,,,,,,,,
,,605824a5c79c7e261e281cc5,2024-01-06_02h43.00.023,kallum_motion_pilot,2023.2.3,Win32,59.52380952,605824a5c79c7e261e281cc5,6598e6a5d84f07970b831e70,6598e724b14ee5c28bf479cb,0.0308,0.0308,0,103,103,25,1,onethree,,,,,,,,,,,,,,,,,,,,,,,,,,,,,,,,,,,,,,,,,,,,,,,,,,,,,,,,,,,,,,,,,,,,,,,,,,,,,,,,,,,,,,,,,,,,,,,,,,,,,,,,,,,,,,,,,,,,,,,,,,,,,,,,,,,,,,,
,,605824a5c79c7e261e281cc5,2024-01-06_02h43.00.023,kallum_motion_pilot,2023.2.3,Win32,59.52380952,605824a5c79c7e261e281cc5,6598e6a5d84f07970b831e70,6598e724b14ee5c28bf479cb,0.031,0.031,0,104,104,113,1,fiveseven,,,,,,,,,,,,,,,,,,,,,,,,,,,,,,,,,,,,,,,,,,,,,,,,,,,,,,,,,,,,,,,,,,,,,,,,,,,,,,,,,,,,,,,,,,,,,,,,,,,,,,,,,,,,,,,,,,,,,,,,,,,,,,,,,,,,,,,
,,605824a5c79c7e261e281cc5,2024-01-06_02h43.00.023,kallum_motion_pilot,2023.2.3,Win32,59.52380952,605824a5c79c7e261e281cc5,6598e6a5d84f07970b831e70,6598e724b14ee5c28bf479cb,0.0311,0.0311,0,105,105,77,1,threefour,,,,,,,,,,,,,,,,,,,,,,,,,,,,,,,,,,,,,,,,,,,,,,,,,,,,,,,,,,,,,,,,,,,,,,,,,,,,,,,,,,,,,,,,,,,,,,,,,,,,,,,,,,,,,,,,,,,,,,,,,,,,,,,,,,,,,,,
,,605824a5c79c7e261e281cc5,2024-01-06_02h43.00.023,kallum_motion_pilot,2023.2.3,Win32,59.52380952,605824a5c79c7e261e281cc5,6598e6a5d84f07970b831e70,6598e724b14ee5c28bf479cb,0.0312,0.0312,0,106,106,26,1,twoone,,,,,,,,,,,,,,,,,,,,,,,,,,,,,,,,,,,,,,,,,,,,,,,,,,,,,,,,,,,,,,,,,,,,,,,,,,,,,,,,,,,,,,,,,,,,,,,,,,,,,,,,,,,,,,,,,,,,,,,,,,,,,,,,,,,,,,,
,,605824a5c79c7e261e281cc5,2024-01-06_02h43.00.023,kallum_motion_pilot,2023.2.3,Win32,59.52380952,605824a5c79c7e261e281cc5,6598e6a5d84f07970b831e70,6598e724b14ee5c28bf479cb,0.0313,0.0314,0,107,107,16,1,onetwo,,,,,,,,,,,,,,,,,,,,,,,,,,,,,,,,,,,,,,,,,,,,,,,,,,,,,,,,,,,,,,,,,,,,,,,,,,,,,,,,,,,,,,,,,,,,,,,,,,,,,,,,,,,,,,,,,,,,,,,,,,,,,,,,,,,,,,,
,,605824a5c79c7e261e281cc5,2024-01-06_02h43.00.023,kallum_motion_pilot,2023.2.3,Win32,59.52380952,605824a5c79c7e261e281cc5,6598e6a5d84f07970b831e70,6598e724b14ee5c28bf479cb,0.0314,0.0314,0,108,108,9,1,onethree,,,,,,,,,,,,,,,,,,,,,,,,,,,,,,,,,,,,,,,,,,,,,,,,,,,,,,,,,,,,,,,,,,,,,,,,,,,,,,,,,,,,,,,,,,,,,,,,,,,,,,,,,,,,,,,,,,,,,,,,,,,,,,,,,,,,,,,
,,605824a5c79c7e261e281cc5,2024-01-06_02h43.00.023,kallum_motion_pilot,2023.2.3,Win32,59.52380952,605824a5c79c7e261e281cc5,6598e6a5d84f07970b831e70,6598e724b14ee5c28bf479cb,0.0315,0.0316,0,109,109,72,1,onetwo,,,,,,,,,,,,,,,,,,,,,,,,,,,,,,,,,,,,,,,,,,,,,,,,,,,,,,,,,,,,,,,,,,,,,,,,,,,,,,,,,,,,,,,,,,,,,,,,,,,,,,,,,,,,,,,,,,,,,,,,,,,,,,,,,,,,,,,
,,605824a5c79c7e261e281cc5,2024-01-06_02h43.00.023,kallum_motion_pilot,2023.2.3,Win32,59.52380952,605824a5c79c7e261e281cc5,6598e6a5d84f07970b831e70,6598e724b14ee5c28bf479cb,0.0317,0.0317,0,110,110,91,1,sixeight,,,,,,,,,,,,,,,,,,,,,,,,,,,,,,,,,,,,,,,,,,,,,,,,,,,,,,,,,,,,,,,,,,,,,,,,,,,,,,,,,,,,,,,,,,,,,,,,,,,,,,,,,,,,,,,,,,,,,,,,,,,,,,,,,,,,,,,
,,605824a5c79c7e261e281cc5,2024-01-06_02h43.00.023,kallum_motion_pilot,2023.2.3,Win32,59.52380952,605824a5c79c7e261e281cc5,6598e6a5d84f07970b831e70,6598e724b14ee5c28bf479cb,0.0318,0.0318,0,111,111,95,1,eightseven,,,,,,,,,,,,,,,,,,,,,,,,,,,,,,,,,,,,,,,,,,,,,,,,,,,,,,,,,,,,,,,,,,,,,,,,,,,,,,,,,,,,,,,,,,,,,,,,,,,,,,,,,,,,,,,,,,,,,,,,,,,,,,,,,,,,,,,
,,605824a5c79c7e261e281cc5,2024-01-06_02h43.00.023,kallum_motion_pilot,2023.2.3,Win32,59.52380952,605824a5c79c7e261e281cc5,6598e6a5d84f07970b831e70,6598e724b14ee5c28bf479cb,0.032,0.032,0,112,112,14,1,fourtwo,,,,,,,,,,,,,,,,,,,,,,,,,,,,,,,,,,,,,,,,,,,,,,,,,,,,,,,,,,,,,,,,,,,,,,,,,,,,,,,,,,,,,,,,,,,,,,,,,,,,,,,,,,,,,,,,,,,,,,,,,,,,,,,,,,,,,,,
,,605824a5c79c7e261e281cc5,2024-01-06_02h43.00.023,kallum_motion_pilot,2023.2.3,Win32,59.52380952,605824a5c79c7e261e281cc5,6598e6a5d84f07970b831e70,6598e724b14ee5c28bf479cb,0.0321,0.0322,0,113,113,144,1,fivesix,,,,,,,,,,,,,,,,,,,,,,,,,,,,,,,,,,,,,,,,,,,,,,,,,,,,,,,,,,,,,,,,,,,,,,,,,,,,,,,,,,,,,,,,,,,,,,,,,,,,,,,,,,,,,,,,,,,,,,,,,,,,,,,,,,,,,,,
,,605824a5c79c7e261e281cc5,2024-01-06_02h43.00.023,kallum_motion_pilot,2023.2.3,Win32,59.52380952,605824a5c79c7e261e281cc5,6598e6a5d84f07970b831e70,6598e724b14ee5c28bf479cb,0.0323,0.0324,0,114,114,101,1,seveneight,,,,,,,,,,,,,,,,,,,,,,,,,,,,,,,,,,,,,,,,,,,,,,,,,,,,,,,,,,,,,,,,,,,,,,,,,,,,,,,,,,,,,,,,,,,,,,,,,,,,,,,,,,,,,,,,,,,,,,,,,,,,,,,,,,,,,,,
,,605824a5c79c7e261e281cc5,2024-01-06_02h43.00.023,kallum_motion_pilot,2023.2.3,Win32,59.52380952,605824a5c79c7e261e281cc5,6598e6a5d84f07970b831e70,6598e724b14ee5c28bf479cb,0.0325,0.0326,0,115,115,135,1,eightseven,,,,,,,,,,,,,,,,,,,,,,,,,,,,,,,,,,,,,,,,,,,,,,,,,,,,,,,,,,,,,,,,,,,,,,,,,,,,,,,,,,,,,,,,,,,,,,,,,,,,,,,,,,,,,,,,,,,,,,,,,,,,,,,,,,,,,,,
,,605824a5c79c7e261e281cc5,2024-01-06_02h43.00.023,kallum_motion_pilot,2023.2.3,Win32,59.52380952,605824a5c79c7e261e281cc5,6598e6a5d84f07970b831e70,6598e724b14ee5c28bf479cb,0.0326,0.0327,0,116,116,102,1,eightsix,,,,,,,,,,,,,,,,,,,,,,,,,,,,,,,,,,,,,,,,,,,,,,,,,,,,,,,,,,,,,,,,,,,,,,,,,,,,,,,,,,,,,,,,,,,,,,,,,,,,,,,,,,,,,,,,,,,,,,,,,,,,,,,,,,,,,,,
,,605824a5c79c7e261e281cc5,2024-01-06_02h43.00.023,kallum_motion_pilot,2023.2.3,Win32,59.52380952,605824a5c79c7e261e281cc5,6598e6a5d84f07970b831e70,6598e724b14ee5c28bf479cb,0.0328,0.0328,0,117,117,1,1,onethree,,,,,,,,,,,,,,,,,,,,,,,,,,,,,,,,,,,,,,,,,,,,,,,,,,,,,,,,,,,,,,,,,,,,,,,,,,,,,,,,,,,,,,,,,,,,,,,,,,,,,,,,,,,,,,,,,,,,,,,,,,,,,,,,,,,,,,,
,,605824a5c79c7e261e281cc5,2024-01-06_02h43.00.023,kallum_motion_pilot,2023.2.3,Win32,59.52380952,605824a5c79c7e261e281cc5,6598e6a5d84f07970b831e70,6598e724b14ee5c28bf479cb,0.0329,0.033,0,118,118,145,1,fiveseven,,,,,,,,,,,,,,,,,,,,,,,,,,,,,,,,,,,,,,,,,,,,,,,,,,,,,,,,,,,,,,,,,,,,,,,,,,,,,,,,,,,,,,,,,,,,,,,,,,,,,,,,,,,,,,,,,,,,,,,,,,,,,,,,,,,,,,,
,,605824a5c79c7e261e281cc5,2024-01-06_02h43.00.023,kallum_motion_pilot,2023.2.3,Win32,59.52380952,605824a5c79c7e261e281cc5,6598e6a5d84f07970b831e70,6598e724b14ee5c28bf479cb,0.0331,0.0331,0,119,119,45,1,threefour,,,,,,,,,,,,,,,,,,,,,,,,,,,,,,,,,,,,,,,,,,,,,,,,,,,,,,,,,,,,,,,,,,,,,,,,,,,,,,,,,,,,,,,,,,,,,,,,,,,,,,,,,,,,,,,,,,,,,,,,,,,,,,,,,,,,,,,
,,605824a5c79c7e261e281cc5,2024-01-06_02h43.00.023,kallum_motion_pilot,2023.2.3,Win32,59.52380952,605824a5c79c7e261e281cc5,6598e6a5d84f07970b831e70,6598e724b14ee5c28bf479cb,0.0332,0.0333,0,120,120,124,1,sevenfive,,,,,,,,,,,,,,,,,,,,,,,,,,,,,,,,,,,,,,,,,,,,,,,,,,,,,,,,,,,,,,,,,,,,,,,,,,,,,,,,,,,,,,,,,,,,,,,,,,,,,,,,,,,,,,,,,,,,,,,,,,,,,,,,,,,,,,,
,,605824a5c79c7e261e281cc5,2024-01-06_02h43.00.023,kallum_motion_pilot,2023.2.3,Win32,59.52380952,605824a5c79c7e261e281cc5,6598e6a5d84f07970b831e70,6598e724b14ee5c28bf479cb,0.0333,0.0334,0,121,121,134,1,eightsix,,,,,,,,,,,,,,,,,,,,,,,,,,,,,,,,,,,,,,,,,,,,,,,,,,,,,,,,,,,,,,,,,,,,,,,,,,,,,,,,,,,,,,,,,,,,,,,,,,,,,,,,,,,,,,,,,,,,,,,,,,,,,,,,,,,,,,,
,,605824a5c79c7e261e281cc5,2024-01-06_02h43.00.023,kallum_motion_pilot,2023.2.3,Win32,59.52380952,605824a5c79c7e261e281cc5,6598e6a5d84f07970b831e70,6598e724b14ee5c28bf479cb,0.0335,0.0335,0,122,122,43,1,twofour,,,,,,,,,,,,,,,,,,,,,,,,,,,,,,,,,,,,,,,,,,,,,,,,,,,,,,,,,,,,,,,,,,,,,,,,,,,,,,,,,,,,,,,,,,,,,,,,,,,,,,,,,,,,,,,,,,,,,,,,,,,,,,,,,,,,,,,
,,605824a5c79c7e261e281cc5,2024-01-06_02h43.00.023,kallum_motion_pilot,2023.2.3,Win32,59.52380952,605824a5c79c7e261e281cc5,6598e6a5d84f07970b831e70,6598e724b14ee5c28bf479cb,0.0336,0.0336,0,123,123,13,1,threefour,,,,,,,,,,,,,,,,,,,,,,,,,,,,,,,,,,,,,,,,,,,,,,,,,,,,,,,,,,,,,,,,,,,,,,,,,,,,,,,,,,,,,,,,,,,,,,,,,,,,,,,,,,,,,,,,,,,,,,,,,,,,,,,,,,,,,,,
,,605824a5c79c7e261e281cc5,2024-01-06_02h43.00.023,kallum_motion_pilot,2023.2.3,Win32,59.52380952,605824a5c79c7e261e281cc5,6598e6a5d84f07970b831e70,6598e724b14ee5c28bf479cb,0.0337,0.0337,0,124,124,117,1,seveneight,,,,,,,,,,,,,,,,,,,,,,,,,,,,,,,,,,,,,,,,,,,,,,,,,,,,,,,,,,,,,,,,,,,,,,,,,,,,,,,,,,,,,,,,,,,,,,,,,,,,,,,,,,,,,,,,,,,,,,,,,,,,,,,,,,,,,,,
,,605824a5c79c7e261e281cc5,2024-01-06_02h43.00.023,kallum_motion_pilot,2023.2.3,Win32,59.52380952,605824a5c79c7e261e281cc5,6598e6a5d84f07970b831e70,6598e724b14ee5c28bf479cb,0.0338,0.0338,0,125,125,78,1,fourtwo,,,,,,,,,,,,,,,,,,,,,,,,,,,,,,,,,,,,,,,,,,,,,,,,,,,,,,,,,,,,,,,,,,,,,,,,,,,,,,,,,,,,,,,,,,,,,,,,,,,,,,,,,,,,,,,,,,,,,,,,,,,,,,,,,,,,,,,
,,605824a5c79c7e261e281cc5,2024-01-06_02h43.00.023,kallum_motion_pilot,2023.2.3,Win32,59.52380952,605824a5c79c7e261e281cc5,6598e6a5d84f07970b831e70,6598e724b14ee5c28bf479cb,0.034,0.034,0,126,126,137,1,fiveseven,,,,,,,,,,,,,,,,,,,,,,,,,,,,,,,,,,,,,,,,,,,,,,,,,,,,,,,,,,,,,,,,,,,,,,,,,,,,,,,,,,,,,,,,,,,,,,,,,,,,,,,,,,,,,,,,,,,,,,,,,,,,,,,,,,,,,,,
,,605824a5c79c7e261e281cc5,2024-01-06_02h43.00.023,kallum_motion_pilot,2023.2.3,Win32,59.52380952,605824a5c79c7e261e281cc5,6598e6a5d84f07970b831e70,6598e724b14ee5c28bf479cb,0.0341,0.0342,0,127,127,105,1,fiveseven,,,,,,,,,,,,,,,,,,,,,,,,,,,,,,,,,,,,,,,,,,,,,,,,,,,,,,,,,,,,,,,,,,,,,,,,,,,,,,,,,,,,,,,,,,,,,,,,,,,,,,,,,,,,,,,,,,,,,,,,,,,,,,,,,,,,,,,
,,605824a5c79c7e261e281cc5,2024-01-06_02h43.00.023,kallum_motion_pilot,2023.2.3,Win32,59.52380952,605824a5c79c7e261e281cc5,6598e6a5d84f07970b831e70,6598e724b14ee5c28bf479cb,0.0342,0.0343,0,128,128,40,1,onetwo,,,,,,,,,,,,,,,,,,,,,,,,,,,,,,,,,,,,,,,,,,,,,,,,,,,,,,,,,,,,,,,,,,,,,,,,,,,,,,,,,,,,,,,,,,,,,,,,,,,,,,,,,,,,,,,,,,,,,,,,,,,,,,,,,,,,,,,
,,605824a5c79c7e261e281cc5,2024-01-06_02h43.00.023,kallum_motion_pilot,2023.2.3,Win32,59.52380952,605824a5c79c7e261e281cc5,6598e6a5d84f07970b831e70,6598e724b14ee5c28bf479cb,0.0343,0.0344,0,129,129,88,1,fivesix,,,,,,,,,,,,,,,,,,,,,,,,,,,,,,,,,,,,,,,,,,,,,,,,,,,,,,,,,,,,,,,,,,,,,,,,,,,,,,,,,,,,,,,,,,,,,,,,,,,,,,,,,,,,,,,,,,,,,,,,,,,,,,,,,,,,,,,
,,605824a5c79c7e261e281cc5,2024-01-06_02h43.00.023,kallum_motion_pilot,2023.2.3,Win32,59.52380952,605824a5c79c7e261e281cc5,6598e6a5d84f07970b831e70,6598e724b14ee5c28bf479cb,0.0344,0.0345,0,130,130,70,1,fourtwo,,,,,,,,,,,,,,,,,,,,,,,,,,,,,,,,,,,,,,,,,,,,,,,,,,,,,,,,,,,,,,,,,,,,,,,,,,,,,,,,,,,,,,,,,,,,,,,,,,,,,,,,,,,,,,,,,,,,,,,,,,,,,,,,,,,,,,,
,,605824a5c79c7e261e281cc5,2024-01-06_02h43.00.023,kallum_motion_pilot,2023.2.3,Win32,59.52380952,605824a5c79c7e261e281cc5,6598e6a5d84f07970b831e70,6598e724b14ee5c28bf479cb,0.0345,0.0346,0,131,131,56,1,onetwo,,,,,,,,,,,,,,,,,,,,,,,,,,,,,,,,,,,,,,,,,,,,,,,,,,,,,,,,,,,,,,,,,,,,,,,,,,,,,,,,,,,,,,,,,,,,,,,,,,,,,,,,,,,,,,,,,,,,,,,,,,,,,,,,,,,,,,,
,,605824a5c79c7e261e281cc5,2024-01-06_02h43.00.023,kallum_motion_pilot,2023.2.3,Win32,59.52380952,605824a5c79c7e261e281cc5,6598e6a5d84f07970b831e70,6598e724b14ee5c28bf479cb,0.0347,0.0347,0,132,132,44,1,threeone,,,,,,,,,,,,,,,,,,,,,,,,,,,,,,,,,,,,,,,,,,,,,,,,,,,,,,,,,,,,,,,,,,,,,,,,,,,,,,,,,,,,,,,,,,,,,,,,,,,,,,,,,,,,,,,,,,,,,,,,,,,,,,,,,,,,,,,
,,605824a5c79c7e261e281cc5,2024-01-06_02h43.00.023,kallum_motion_pilot,2023.2.3,Win32,59.52380952,605824a5c79c7e261e281cc5,6598e6a5d84f07970b831e70,6598e724b14ee5c28bf479cb,0.0348,0.0348,0,133,133,138,1,sixfive,,,,,,,,,,,,,,,,,,,,,,,,,,,,,,,,,,,,,,,,,,,,,,,,,,,,,,,,,,,,,,,,,,,,,,,,,,,,,,,,,,,,,,,,,,,,,,,,,,,,,,,,,,,,,,,,,,,,,,,,,,,,,,,,,,,,,,,
,,605824a5c79c7e261e281cc5,2024-01-06_02h43.00.023,kallum_motion_pilot,2023.2.3,Win32,59.52380952,605824a5c79c7e261e281cc5,6598e6a5d84f07970b831e70,6598e724b14ee5c28bf479cb,0.035,0.035,0,134,134,46,1,fourtwo,,,,,,,,,,,,,,,,,,,,,,,,,,,,,,,,,,,,,,,,,,,,,,,,,,,,,,,,,,,,,,,,,,,,,,,,,,,,,,,,,,,,,,,,,,,,,,,,,,,,,,,,,,,,,,,,,,,,,,,,,,,,,,,,,,,,,,,
,,605824a5c79c7e261e281cc5,2024-01-06_02h43.00.023,kallum_motion_pilot,2023.2.3,Win32,59.52380952,605824a5c79c7e261e281cc5,6598e6a5d84f07970b831e70,6598e724b14ee5c28bf479cb,0.0351,0.0351,0,135,135,118,1,eightsix,,,,,,,,,,,,,,,,,,,,,,,,,,,,,,,,,,,,,,,,,,,,,,,,,,,,,,,,,,,,,,,,,,,,,,,,,,,,,,,,,,,,,,,,,,,,,,,,,,,,,,,,,,,,,,,,,,,,,,,,,,,,,,,,,,,,,,,
,,605824a5c79c7e261e281cc5,2024-01-06_02h43.00.023,kallum_motion_pilot,2023.2.3,Win32,59.52380952,605824a5c79c7e261e281cc5,6598e6a5d84f07970b831e70,6598e724b14ee5c28bf479cb,0.0352,0.0353,0,136,136,75,1,twofour,,,,,,,,,,,,,,,,,,,,,,,,,,,,,,,,,,,,,,,,,,,,,,,,,,,,,,,,,,,,,,,,,,,,,,,,,,,,,,,,,,,,,,,,,,,,,,,,,,,,,,,,,,,,,,,,,,,,,,,,,,,,,,,,,,,,,,,
,,605824a5c79c7e261e281cc5,2024-01-06_02h43.00.023,kallum_motion_pilot,2023.2.3,Win32,59.52380952,605824a5c79c7e261e281cc5,6598e6a5d84f07970b831e70,6598e724b14ee5c28bf479cb,0.0353,0.0354,0,137,137,68,1,threeone,,,,,,,,,,,,,,,,,,,,,,,,,,,,,,,,,,,,,,,,,,,,,,,,,,,,,,,,,,,,,,,,,,,,,,,,,,,,,,,,,,,,,,,,,,,,,,,,,,,,,,,,,,,,,,,,,,,,,,,,,,,,,,,,,,,,,,,
,,605824a5c79c7e261e281cc5,2024-01-06_02h43.00.023,kallum_motion_pilot,2023.2.3,Win32,59.52380952,605824a5c79c7e261e281cc5,6598e6a5d84f07970b831e70,6598e724b14ee5c28bf479cb,0.0354,0.0355,0,138,138,18,1,twoone,,,,,,,,,,,,,,,,,,,,,,,,,,,,,,,,,,,,,,,,,,,,,,,,,,,,,,,,,,,,,,,,,,,,,,,,,,,,,,,,,,,,,,,,,,,,,,,,,,,,,,,,,,,,,,,,,,,,,,,,,,,,,,,,,,,,,,,
,,605824a5c79c7e261e281cc5,2024-01-06_02h43.00.023,kallum_motion_pilot,2023.2.3,Win32,59.52380952,605824a5c79c7e261e281cc5,6598e6a5d84f07970b831e70,6598e724b14ee5c28bf479cb,0.0355,0.0356,0,139,139,80,1,fivesix,,,,,,,,,,,,,,,,,,,,,,,,,,,,,,,,,,,,,,,,,,,,,,,,,,,,,,,,,,,,,,,,,,,,,,,,,,,,,,,,,,,,,,,,,,,,,,,,,,,,,,,,,,,,,,,,,,,,,,,,,,,,,,,,,,,,,,,
,,605824a5c79c7e261e281cc5,2024-01-06_02h43.00.023,kallum_motion_pilot,2023.2.3,Win32,59.52380952,605824a5c79c7e261e281cc5,6598e6a5d84f07970b831e70,6598e724b14ee5c28bf479cb,0.0357,0.0358,0,140,140,21,1,threefour,,,,,,,,,,,,,,,,,,,,,,,,,,,,,,,,,,,,,,,,,,,,,,,,,,,,,,,,,,,,,,,,,,,,,,,,,,,,,,,,,,,,,,,,,,,,,,,,,,,,,,,,,,,,,,,,,,,,,,,,,,,,,,,,,,,,,,,
,,605824a5c79c7e261e281cc5,2024-01-06_02h43.00.023,kallum_motion_pilot,2023.2.3,Win32,59.52380952,605824a5c79c7e261e281cc5,6598e6a5d84f07970b831e70,6598e724b14ee5c28bf479cb,0.0358,0.0359,0,141,141,119,1,eightseven,,,,,,,,,,,,,,,,,,,,,,,,,,,,,,,,,,,,,,,,,,,,,,,,,,,,,,,,,,,,,,,,,,,,,,,,,,,,,,,,,,,,,,,,,,,,,,,,,,,,,,,,,,,,,,,,,,,,,,,,,,,,,,,,,,,,,,,
,,605824a5c79c7e261e281cc5,2024-01-06_02h43.00.023,kallum_motion_pilot,2023.2.3,Win32,59.52380952,605824a5c79c7e261e281cc5,6598e6a5d84f07970b831e70,6598e724b14ee5c28bf479cb,0.0359,0.036,0,142,142,161,1,fiveseven,,,,,,,,,,,,,,,,,,,,,,,,,,,,,,,,,,,,,,,,,,,,,,,,,,,,,,,,,,,,,,,,,,,,,,,,,,,,,,,,,,,,,,,,,,,,,,,,,,,,,,,,,,,,,,,,,,,,,,,,,,,,,,,,,,,,,,,
,,605824a5c79c7e261e281cc5,2024-01-06_02h43.00.023,kallum_motion_pilot,2023.2.3,Win32,59.52380952,605824a5c79c7e261e281cc5,6598e6a5d84f07970b831e70,6598e724b14ee5c28bf479cb,0.0366,0.0367,0,143,143,48,1,onetwo,,,,,,,,,,,,,,,,,,,,,,,,,,,,,,,,,,,,,,,,,,,,,,,,,,,,,,,,,,,,,,,,,,,,,,,,,,,,,,,,,,,,,,,,,,,,,,,,,,,,,,,,,,,,,,,,,,,,,,,,,,,,,,,,,,,,,,,
,,605824a5c79c7e261e281cc5,2024-01-06_02h43.00.023,kallum_motion_pilot,2023.2.3,Win32,59.52380952,605824a5c79c7e261e281cc5,6598e6a5d84f07970b831e70,6598e724b14ee5c28bf479cb,0.0367,0.0368,0,144,144,157,1,seveneight,,,,,,,,,,,,,,,,,,,,,,,,,,,,,,,,,,,,,,,,,,,,,,,,,,,,,,,,,,,,,,,,,,,,,,,,,,,,,,,,,,,,,,,,,,,,,,,,,,,,,,,,,,,,,,,,,,,,,,,,,,,,,,,,,,,,,,,
,,605824a5c79c7e261e281cc5,2024-01-06_02h43.00.023,kallum_motion_pilot,2023.2.3,Win32,59.52380952,605824a5c79c7e261e281cc5,6598e6a5d84f07970b831e70,6598e724b14ee5c28bf479cb,0.0368,0.0369,0,145,145,153,1,fiveseven,,,,,,,,,,,,,,,,,,,,,,,,,,,,,,,,,,,,,,,,,,,,,,,,,,,,,,,,,,,,,,,,,,,,,,,,,,,,,,,,,,,,,,,,,,,,,,,,,,,,,,,,,,,,,,,,,,,,,,,,,,,,,,,,,,,,,,,
,,605824a5c79c7e261e281cc5,2024-01-06_02h43.00.023,kallum_motion_pilot,2023.2.3,Win32,59.52380952,605824a5c79c7e261e281cc5,6598e6a5d84f07970b831e70,6598e724b14ee5c28bf479cb,0.037,0.037,0,146,146,58,1,twoone,,,,,,,,,,,,,,,,,,,,,,,,,,,,,,,,,,,,,,,,,,,,,,,,,,,,,,,,,,,,,,,,,,,,,,,,,,,,,,,,,,,,,,,,,,,,,,,,,,,,,,,,,,,,,,,,,,,,,,,,,,,,,,,,,,,,,,,
,,605824a5c79c7e261e281cc5,2024-01-06_02h43.00.023,kallum_motion_pilot,2023.2.3,Win32,59.52380952,605824a5c79c7e261e281cc5,6598e6a5d84f07970b831e70,6598e724b14ee5c28bf479cb,0.0371,0.0371,0,147,147,29,1,threefour,,,,,,,,,,,,,,,,,,,,,,,,,,,,,,,,,,,,,,,,,,,,,,,,,,,,,,,,,,,,,,,,,,,,,,,,,,,,,,,,,,,,,,,,,,,,,,,,,,,,,,,,,,,,,,,,,,,,,,,,,,,,,,,,,,,,,,,
,,605824a5c79c7e261e281cc5,2024-01-06_02h43.00.023,kallum_motion_pilot,2023.2.3,Win32,59.52380952,605824a5c79c7e261e281cc5,6598e6a5d84f07970b831e70,6598e724b14ee5c28bf479cb,0.0371,0.0372,0,148,148,129,1,fiveseven,,,,,,,,,,,,,,,,,,,,,,,,,,,,,,,,,,,,,,,,,,,,,,,,,,,,,,,,,,,,,,,,,,,,,,,,,,,,,,,,,,,,,,,,,,,,,,,,,,,,,,,,,,,,,,,,,,,,,,,,,,,,,,,,,,,,,,,
,,605824a5c79c7e261e281cc5,2024-01-06_02h43.00.023,kallum_motion_pilot,2023.2.3,Win32,59.52380952,605824a5c79c7e261e281cc5,6598e6a5d84f07970b831e70,6598e724b14ee5c28bf479cb,0.0372,0.0373,0,149,149,147,1,sixeight,,,,,,,,,,,,,,,,,,,,,,,,,,,,,,,,,,,,,,,,,,,,,,,,,,,,,,,,,,,,,,,,,,,,,,,,,,,,,,,,,,,,,,,,,,,,,,,,,,,,,,,,,,,,,,,,,,,,,,,,,,,,,,,,,,,,,,,
,,605824a5c79c7e261e281cc5,2024-01-06_02h43.00.023,kallum_motion_pilot,2023.2.3,Win32,59.52380952,605824a5c79c7e261e281cc5,6598e6a5d84f07970b831e70,6598e724b14ee5c28bf479cb,0.0373,0.0374,0,150,150,85,1,seveneight,,,,,,,,,,,,,,,,,,,,,,,,,,,,,,,,,,,,,,,,,,,,,,,,,,,,,,,,,,,,,,,,,,,,,,,,,,,,,,,,,,,,,,,,,,,,,,,,,,,,,,,,,,,,,,,,,,,,,,,,,,,,,,,,,,,,,,,
,,605824a5c79c7e261e281cc5,2024-01-06_02h43.00.023,kallum_motion_pilot,2023.2.3,Win32,59.52380952,605824a5c79c7e261e281cc5,6598e6a5d84f07970b831e70,6598e724b14ee5c28bf479cb,0.0375,0.0375,0,151,151,65,1,onethree,,,,,,,,,,,,,,,,,,,,,,,,,,,,,,,,,,,,,,,,,,,,,,,,,,,,,,,,,,,,,,,,,,,,,,,,,,,,,,,,,,,,,,,,,,,,,,,,,,,,,,,,,,,,,,,,,,,,,,,,,,,,,,,,,,,,,,,
,,605824a5c79c7e261e281cc5,2024-01-06_02h43.00.023,kallum_motion_pilot,2023.2.3,Win32,59.52380952,605824a5c79c7e261e281cc5,6598e6a5d84f07970b831e70,6598e724b14ee5c28bf479cb,0.0375,0.0376,0,152,152,63,1,fourthree,,,,,,,,,,,,,,,,,,,,,,,,,,,,,,,,,,,,,,,,,,,,,,,,,,,,,,,,,,,,,,,,,,,,,,,,,,,,,,,,,,,,,,,,,,,,,,,,,,,,,,,,,,,,,,,,,,,,,,,,,,,,,,,,,,,,,,,
,,605824a5c79c7e261e281cc5,2024-01-06_02h43.00.023,kallum_motion_pilot,2023.2.3,Win32,59.52380952,605824a5c79c7e261e281cc5,6598e6a5d84f07970b831e70,6598e724b14ee5c28bf479cb,0.0377,0.0377,0,153,153,71,1,fourthree,,,,,,,,,,,,,,,,,,,,,,,,,,,,,,,,,,,,,,,,,,,,,,,,,,,,,,,,,,,,,,,,,,,,,,,,,,,,,,,,,,,,,,,,,,,,,,,,,,,,,,,,,,,,,,,,,,,,,,,,,,,,,,,,,,,,,,,
,,605824a5c79c7e261e281cc5,2024-01-06_02h43.00.023,kallum_motion_pilot,2023.2.3,Win32,59.52380952,605824a5c79c7e261e281cc5,6598e6a5d84f07970b831e70,6598e724b14ee5c28bf479cb,0.0377,0.0378,0,154,154,35,1,twofour,,,,,,,,,,,,,,,,,,,,,,,,,,,,,,,,,,,,,,,,,,,,,,,,,,,,,,,,,,,,,,,,,,,,,,,,,,,,,,,,,,,,,,,,,,,,,,,,,,,,,,,,,,,,,,,,,,,,,,,,,,,,,,,,,,,,,,,
,,605824a5c79c7e261e281cc5,2024-01-06_02h43.00.023,kallum_motion_pilot,2023.2.3,Win32,59.52380952,605824a5c79c7e261e281cc5,6598e6a5d84f07970b831e70,6598e724b14ee5c28bf479cb,0.0379,0.0379,0,155,155,64,1,onetwo,,,,,,,,,,,,,,,,,,,,,,,,,,,,,,,,,,,,,,,,,,,,,,,,,,,,,,,,,,,,,,,,,,,,,,,,,,,,,,,,,,,,,,,,,,,,,,,,,,,,,,,,,,,,,,,,,,,,,,,,,,,,,,,,,,,,,,,
,,605824a5c79c7e261e281cc5,2024-01-06_02h43.00.023,kallum_motion_pilot,2023.2.3,Win32,59.52380952,605824a5c79c7e261e281cc5,6598e6a5d84f07970b831e70,6598e724b14ee5c28bf479cb,0.038,0.038,0,156,156,139,1,sixeight,,,,,,,,,,,,,,,,,,,,,,,,,,,,,,,,,,,,,,,,,,,,,,,,,,,,,,,,,,,,,,,,,,,,,,,,,,,,,,,,,,,,,,,,,,,,,,,,,,,,,,,,,,,,,,,,,,,,,,,,,,,,,,,,,,,,,,,
,,605824a5c79c7e261e281cc5,2024-01-06_02h43.00.023,kallum_motion_pilot,2023.2.3,Win32,59.52380952,605824a5c79c7e261e281cc5,6598e6a5d84f07970b831e70,6598e724b14ee5c28bf479cb,0.0381,0.0381,0,157,157,133,1,seveneight,,,,,,,,,,,,,,,,,,,,,,,,,,,,,,,,,,,,,,,,,,,,,,,,,,,,,,,,,,,,,,,,,,,,,,,,,,,,,,,,,,,,,,,,,,,,,,,,,,,,,,,,,,,,,,,,,,,,,,,,,,,,,,,,,,,,,,,
,,605824a5c79c7e261e281cc5,2024-01-06_02h43.00.023,kallum_motion_pilot,2023.2.3,Win32,59.52380952,605824a5c79c7e261e281cc5,6598e6a5d84f07970b831e70,6598e724b14ee5c28bf479cb,0.0382,0.0382,0,158,158,146,1,sixfive,,,,,,,,,,,,,,,,,,,,,,,,,,,,,,,,,,,,,,,,,,,,,,,,,,,,,,,,,,,,,,,,,,,,,,,,,,,,,,,,,,,,,,,,,,,,,,,,,,,,,,,,,,,,,,,,,,,,,,,,,,,,,,,,,,,,,,,
,,605824a5c79c7e261e281cc5,2024-01-06_02h43.00.023,kallum_motion_pilot,2023.2.3,Win32,59.52380952,605824a5c79c7e261e281cc5,6598e6a5d84f07970b831e70,6598e724b14ee5c28bf479cb,0.0383,0.0383,0,159,159,3,1,twofour,,,,,,,,,,,,,,,,,,,,,,,,,,,,,,,,,,,,,,,,,,,,,,,,,,,,,,,,,,,,,,,,,,,,,,,,,,,,,,,,,,,,,,,,,,,,,,,,,,,,,,,,,,,,,,,,,,,,,,,,,,,,,,,,,,,,,,,
,,605824a5c79c7e261e281cc5,2024-01-06_02h43.00.023,kallum_motion_pilot,2023.2.3,Win32,59.52380952,605824a5c79c7e261e281cc5,6598e6a5d84f07970b831e70,6598e724b14ee5c28bf479cb,0.0384,0.0384,0,160,160,38,1,fourtwo,,,,,,,,,,,,,,,,,,,,,,,,,,,,,,,,,,,,,,,,,,,,,,,,,,,,,,,,,,,,,,,,,,,,,,,,,,,,,,,,,,,,,,,,,,,,,,,,,,,,,,,,,,,,,,,,,,,,,,,,,,,,,,,,,,,,,,,
,,605824a5c79c7e261e281cc5,2024-01-06_02h43.00.023,kallum_motion_pilot,2023.2.3,Win32,59.52380952,605824a5c79c7e261e281cc5,6598e6a5d84f07970b831e70,6598e724b14ee5c28bf479cb,0.0384,0.0385,0,161,161,108,1,sevenfive,,,,,,,,,,,,,,,,,,,,,,,,,,,,,,,,,,,,,,,,,,,,,,,,,,,,,,,,,,,,,,,,,,,,,,,,,,,,,,,,,,,,,,,,,,,,,,,,,,,,,,,,,,,,,,,,,,,,,,,,,,,,,,,,,,,,,,,
,,605824a5c79c7e261e281cc5,2024-01-06_02h43.00.023,kallum_motion_pilot,2023.2.3,Win32,59.52380952,605824a5c79c7e261e281cc5,6598e6a5d84f07970b831e70,6598e724b14ee5c28bf479cb,0.0386,0.0386,1,0,162,94,1,eightsix,,,,,,,,,,,,,,,,,,,,,,,,,,,,,,,,,,,,,,,,,,,,,,,,,,,,,,,,,,,,,,,,,,,,,,,,,,,,,,,,,,,,,,,,,,,,,,,,,,,,,,,,,,,,,,,,,,,,,,,,,,,,,,,,,,,,,,,
,,605824a5c79c7e261e281cc5,2024-01-06_02h43.00.023,kallum_motion_pilot,2023.2.3,Win32,59.52380952,605824a5c79c7e261e281cc5,6598e6a5d84f07970b831e70,6598e724b14ee5c28bf479cb,0.0387,0.0387,1,1,163,62,1,fourtwo,,,,,,,,,,,,,,,,,,,,,,,,,,,,,,,,,,,,,,,,,,,,,,,,,,,,,,,,,,,,,,,,,,,,,,,,,,,,,,,,,,,,,,,,,,,,,,,,,,,,,,,,,,,,,,,,,,,,,,,,,,,,,,,,,,,,,,,
,,605824a5c79c7e261e281cc5,2024-01-06_02h43.00.023,kallum_motion_pilot,2023.2.3,Win32,59.52380952,605824a5c79c7e261e281cc5,6598e6a5d84f07970b831e70,6598e724b14ee5c28bf479cb,0.0388,0.0389,1,2,164,160,1,fivesix,,,,,,,,,,,,,,,,,,,,,,,,,,,,,,,,,,,,,,,,,,,,,,,,,,,,,,,,,,,,,,,,,,,,,,,,,,,,,,,,,,,,,,,,,,,,,,,,,,,,,,,,,,,,,,,,,,,,,,,,,,,,,,,,,,,,,,,
,,605824a5c79c7e261e281cc5,2024-01-06_02h43.00.023,kallum_motion_pilot,2023.2.3,Win32,59.52380952,605824a5c79c7e261e281cc5,6598e6a5d84f07970b831e70,6598e724b14ee5c28bf479cb,0.0389,0.0389,1,3,165,145,1,fiveseven,,,,,,,,,,,,,,,,,,,,,,,,,,,,,,,,,,,,,,,,,,,,,,,,,,,,,,,,,,,,,,,,,,,,,,,,,,,,,,,,,,,,,,,,,,,,,,,,,,,,,,,,,,,,,,,,,,,,,,,,,,,,,,,,,,,,,,,
,,605824a5c79c7e261e281cc5,2024-01-06_02h43.00.023,kallum_motion_pilot,2023.2.3,Win32,59.52380952,605824a5c79c7e261e281cc5,6598e6a5d84f07970b831e70,6598e724b14ee5c28bf479cb,0.0389,0.0389,1,4,166,24,1,onetwo,,,,,,,,,,,,,,,,,,,,,,,,,,,,,,,,,,,,,,,,,,,,,,,,,,,,,,,,,,,,,,,,,,,,,,,,,,,,,,,,,,,,,,,,,,,,,,,,,,,,,,,,,,,,,,,,,,,,,,,,,,,,,,,,,,,,,,,
,,605824a5c79c7e261e281cc5,2024-01-06_02h43.00.023,kallum_motion_pilot,2023.2.3,Win32,59.52380952,605824a5c79c7e261e281cc5,6598e6a5d84f07970b831e70,6598e724b14ee5c28bf479cb,0.0391,0.0391,1,5,167,135,1,eightseven,,,,,,,,,,,,,,,,,,,,,,,,,,,,,,,,,,,,,,,,,,,,,,,,,,,,,,,,,,,,,,,,,,,,,,,,,,,,,,,,,,,,,,,,,,,,,,,,,,,,,,,,,,,,,,,,,,,,,,,,,,,,,,,,,,,,,,,
,,605824a5c79c7e261e281cc5,2024-01-06_02h43.00.023,kallum_motion_pilot,2023.2.3,Win32,59.52380952,605824a5c79c7e261e281cc5,6598e6a5d84f07970b831e70,6598e724b14ee5c28bf479cb,0.0391,0.0392,1,6,168,113,1,fiveseven,,,,,,,,,,,,,,,,,,,,,,,,,,,,,,,,,,,,,,,,,,,,,,,,,,,,,,,,,,,,,,,,,,,,,,,,,,,,,,,,,,,,,,,,,,,,,,,,,,,,,,,,,,,,,,,,,,,,,,,,,,,,,,,,,,,,,,,
,,605824a5c79c7e261e281cc5,2024-01-06_02h43.00.023,kallum_motion_pilot,2023.2.3,Win32,59.52380952,605824a5c79c7e261e281cc5,6598e6a5d84f07970b831e70,6598e724b14ee5c28bf479cb,0.0393,0.0393,1,7,169,32,1,onetwo,,,,,,,,,,,,,,,,,,,,,,,,,,,,,,,,,,,,,,,,,,,,,,,,,,,,,,,,,,,,,,,,,,,,,,,,,,,,,,,,,,,,,,,,,,,,,,,,,,,,,,,,,,,,,,,,,,,,,,,,,,,,,,,,,,,,,,,
,,605824a5c79c7e261e281cc5,2024-01-06_02h43.00.023,kallum_motion_pilot,2023.2.3,Win32,59.52380952,605824a5c79c7e261e281cc5,6598e6a5d84f07970b831e70,6598e724b14ee5c28bf479cb,0.0394,0.0394,1,8,170,88,1,fivesix,,,,,,,,,,,,,,,,,,,,,,,,,,,,,,,,,,,,,,,,,,,,,,,,,,,,,,,,,,,,,,,,,,,,,,,,,,,,,,,,,,,,,,,,,,,,,,,,,,,,,,,,,,,,,,,,,,,,,,,,,,,,,,,,,,,,,,,
,,605824a5c79c7e261e281cc5,2024-01-06_02h43.00.023,kallum_motion_pilot,2023.2.3,Win32,59.52380952,605824a5c79c7e261e281cc5,6598e6a5d84f07970b831e70,6598e724b14ee5c28bf479cb,0.0394,0.0395,1,9,171,107,1,sixeight,,,,,,,,,,,,,,,,,,,,,,,,,,,,,,,,,,,,,,,,,,,,,,,,,,,,,,,,,,,,,,,,,,,,,,,,,,,,,,,,,,,,,,,,,,,,,,,,,,,,,,,,,,,,,,,,,,,,,,,,,,,,,,,,,,,,,,,
,,605824a5c79c7e261e281cc5,2024-01-06_02h43.00.023,kallum_motion_pilot,2023.2.3,Win32,59.52380952,605824a5c79c7e261e281cc5,6598e6a5d84f07970b831e70,6598e724b14ee5c28bf479cb,0.0396,0.0397,1,10,172,120,1,fivesix,,,,,,,,,,,,,,,,,,,,,,,,,,,,,,,,,,,,,,,,,,,,,,,,,,,,,,,,,,,,,,,,,,,,,,,,,,,,,,,,,,,,,,,,,,,,,,,,,,,,,,,,,,,,,,,,,,,,,,,,,,,,,,,,,,,,,,,
,,605824a5c79c7e261e281cc5,2024-01-06_02h43.00.023,kallum_motion_pilot,2023.2.3,Win32,59.52380952,605824a5c79c7e261e281cc5,6598e6a5d84f07970b831e70,6598e724b14ee5c28bf479cb,0.0397,0.0397,1,11,173,131,1,sixeight,,,,,,,,,,,,,,,,,,,,,,,,,,,,,,,,,,,,,,,,,,,,,,,,,,,,,,,,,,,,,,,,,,,,,,,,,,,,,,,,,,,,,,,,,,,,,,,,,,,,,,,,,,,,,,,,,,,,,,,,,,,,,,,,,,,,,,,
,,605824a5c79c7e261e281cc5,2024-01-06_02h43.00.023,kallum_motion_pilot,2023.2.3,Win32,59.52380952,605824a5c79c7e261e281cc5,6598e6a5d84f07970b831e70,6598e724b14ee5c28bf479cb,0.0398,0.0399,1,12,174,38,1,fourtwo,,,,,,,,,,,,,,,,,,,,,,,,,,,,,,,,,,,,,,,,,,,,,,,,,,,,,,,,,,,,,,,,,,,,,,,,,,,,,,,,,,,,,,,,,,,,,,,,,,,,,,,,,,,,,,,,,,,,,,,,,,,,,,,,,,,,,,,
,,605824a5c79c7e261e281cc5,2024-01-06_02h43.00.023,kallum_motion_pilot,2023.2.3,Win32,59.52380952,605824a5c79c7e261e281cc5,6598e6a5d84f07970b831e70,6598e724b14ee5c28bf479cb,0.0399,0.0399,1,13,175,10,1,twoone,,,,,,,,,,,,,,,,,,,,,,,,,,,,,,,,,,,,,,,,,,,,,,,,,,,,,,,,,,,,,,,,,,,,,,,,,,,,,,,,,,,,,,,,,,,,,,,,,,,,,,,,,,,,,,,,,,,,,,,,,,,,,,,,,,,,,,,
,,605824a5c79c7e261e281cc5,2024-01-06_02h43.00.023,kallum_motion_pilot,2023.2.3,Win32,59.52380952,605824a5c79c7e261e281cc5,6598e6a5d84f07970b831e70,6598e724b14ee5c28bf479cb,0.04,0.0401,1,14,176,96,1,fivesix,,,,,,,,,,,,,,,,,,,,,,,,,,,,,,,,,,,,,,,,,,,,,,,,,,,,,,,,,,,,,,,,,,,,,,,,,,,,,,,,,,,,,,,,,,,,,,,,,,,,,,,,,,,,,,,,,,,,,,,,,,,,,,,,,,,,,,,
,,605824a5c79c7e261e281cc5,2024-01-06_02h43.00.023,kallum_motion_pilot,2023.2.3,Win32,59.52380952,605824a5c79c7e261e281cc5,6598e6a5d84f07970b831e70,6598e724b14ee5c28bf479cb,0.0401,0.0401,1,15,177,63,1,fourthree,,,,,,,,,,,,,,,,,,,,,,,,,,,,,,,,,,,,,,,,,,,,,,,,,,,,,,,,,,,,,,,,,,,,,,,,,,,,,,,,,,,,,,,,,,,,,,,,,,,,,,,,,,,,,,,,,,,,,,,,,,,,,,,,,,,,,,,
,,605824a5c79c7e261e281cc5,2024-01-06_02h43.00.023,kallum_motion_pilot,2023.2.3,Win32,59.52380952,605824a5c79c7e261e281cc5,6598e6a5d84f07970b831e70,6598e724b14ee5c28bf479cb,0.0402,0.0403,1,16,178,20,1,threeone,,,,,,,,,,,,,,,,,,,,,,,,,,,,,,,,,,,,,,,,,,,,,,,,,,,,,,,,,,,,,,,,,,,,,,,,,,,,,,,,,,,,,,,,,,,,,,,,,,,,,,,,,,,,,,,,,,,,,,,,,,,,,,,,,,,,,,,
,,605824a5c79c7e261e281cc5,2024-01-06_02h43.00.023,kallum_motion_pilot,2023.2.3,Win32,59.52380952,605824a5c79c7e261e281cc5,6598e6a5d84f07970b831e70,6598e724b14ee5c28bf479cb,0.0403,0.0403,1,17,179,129,1,fiveseven,,,,,,,,,,,,,,,,,,,,,,,,,,,,,,,,,,,,,,,,,,,,,,,,,,,,,,,,,,,,,,,,,,,,,,,,,,,,,,,,,,,,,,,,,,,,,,,,,,,,,,,,,,,,,,,,,,,,,,,,,,,,,,,,,,,,,,,
,,605824a5c79c7e261e281cc5,2024-01-06_02h43.00.023,kallum_motion_pilot,2023.2.3,Win32,59.52380952,605824a5c79c7e261e281cc5,6598e6a5d84f07970b831e70,6598e724b14ee5c28bf479cb,0.0404,0.0405,1,18,180,103,1,eightseven,,,,,,,,,,,,,,,,,,,,,,,,,,,,,,,,,,,,,,,,,,,,,,,,,,,,,,,,,,,,,,,,,,,,,,,,,,,,,,,,,,,,,,,,,,,,,,,,,,,,,,,,,,,,,,,,,,,,,,,,,,,,,,,,,,,,,,,
,,605824a5c79c7e261e281cc5,2024-01-06_02h43.00.023,kallum_motion_pilot,2023.2.3,Win32,59.52380952,605824a5c79c7e261e281cc5,6598e6a5d84f07970b831e70,6598e724b14ee5c28bf479cb,0.0405,0.0405,1,19,181,152,1,fivesix,,,,,,,,,,,,,,,,,,,,,,,,,,,,,,,,,,,,,,,,,,,,,,,,,,,,,,,,,,,,,,,,,,,,,,,,,,,,,,,,,,,,,,,,,,,,,,,,,,,,,,,,,,,,,,,,,,,,,,,,,,,,,,,,,,,,,,,
,,605824a5c79c7e261e281cc5,2024-01-06_02h43.00.023,kallum_motion_pilot,2023.2.3,Win32,59.52380952,605824a5c79c7e261e281cc5,6598e6a5d84f07970b831e70,6598e724b14ee5c28bf479cb,0.0407,0.0407,1,20,182,23,1,fourthree,,,,,,,,,,,,,,,,,,,,,,,,,,,,,,,,,,,,,,,,,,,,,,,,,,,,,,,,,,,,,,,,,,,,,,,,,,,,,,,,,,,,,,,,,,,,,,,,,,,,,,,,,,,,,,,,,,,,,,,,,,,,,,,,,,,,,,,
,,605824a5c79c7e261e281cc5,2024-01-06_02h43.00.023,kallum_motion_pilot,2023.2.3,Win32,59.52380952,605824a5c79c7e261e281cc5,6598e6a5d84f07970b831e70,6598e724b14ee5c28bf479cb,0.0408,0.0408,1,21,183,27,1,twofour,,,,,,,,,,,,,,,,,,,,,,,,,,,,,,,,,,,,,,,,,,,,,,,,,,,,,,,,,,,,,,,,,,,,,,,,,,,,,,,,,,,,,,,,,,,,,,,,,,,,,,,,,,,,,,,,,,,,,,,,,,,,,,,,,,,,,,,
,,605824a5c79c7e261e281cc5,2024-01-06_02h43.00.023,kallum_motion_pilot,2023.2.3,Win32,59.52380952,605824a5c79c7e261e281cc5,6598e6a5d84f07970b831e70,6598e724b14ee5c28bf479cb,0.0409,0.041,1,22,184,17,1,onethree,,,,,,,,,,,,,,,,,,,,,,,,,,,,,,,,,,,,,,,,,,,,,,,,,,,,,,,,,,,,,,,,,,,,,,,,,,,,,,,,,,,,,,,,,,,,,,,,,,,,,,,,,,,,,,,,,,,,,,,,,,,,,,,,,,,,,,,
,,605824a5c79c7e261e281cc5,2024-01-06_02h43.00.023,kallum_motion_pilot,2023.2.3,Win32,59.52380952,605824a5c79c7e261e281cc5,6598e6a5d84f07970b831e70,6598e724b14ee5c28bf479cb,0.041,0.041,1,23,185,28,1,threeone,,,,,,,,,,,,,,,,,,,,,,,,,,,,,,,,,,,,,,,,,,,,,,,,,,,,,,,,,,,,,,,,,,,,,,,,,,,,,,,,,,,,,,,,,,,,,,,,,,,,,,,,,,,,,,,,,,,,,,,,,,,,,,,,,,,,,,,
,,605824a5c79c7e261e281cc5,2024-01-06_02h43.00.023,kallum_motion_pilot,2023.2.3,Win32,59.52380952,605824a5c79c7e261e281cc5,6598e6a5d84f07970b831e70,6598e724b14ee5c28bf479cb,0.0411,0.0411,1,24,186,102,1,eightsix,,,,,,,,,,,,,,,,,,,,,,,,,,,,,,,,,,,,,,,,,,,,,,,,,,,,,,,,,,,,,,,,,,,,,,,,,,,,,,,,,,,,,,,,,,,,,,,,,,,,,,,,,,,,,,,,,,,,,,,,,,,,,,,,,,,,,,,
,,605824a5c79c7e261e281cc5,2024-01-06_02h43.00.023,kallum_motion_pilot,2023.2.3,Win32,59.52380952,605824a5c79c7e261e281cc5,6598e6a5d84f07970b831e70,6598e724b14ee5c28bf479cb,0.0412,0.0413,1,25,187,9,1,onethree,,,,,,,,,,,,,,,,,,,,,,,,,,,,,,,,,,,,,,,,,,,,,,,,,,,,,,,,,,,,,,,,,,,,,,,,,,,,,,,,,,,,,,,,,,,,,,,,,,,,,,,,,,,,,,,,,,,,,,,,,,,,,,,,,,,,,,,
,,605824a5c79c7e261e281cc5,2024-01-06_02h43.00.023,kallum_motion_pilot,2023.2.3,Win32,59.52380952,605824a5c79c7e261e281cc5,6598e6a5d84f07970b831e70,6598e724b14ee5c28bf479cb,0.0414,0.0414,1,26,188,29,1,threefour,,,,,,,,,,,,,,,,,,,,,,,,,,,,,,,,,,,,,,,,,,,,,,,,,,,,,,,,,,,,,,,,,,,,,,,,,,,,,,,,,,,,,,,,,,,,,,,,,,,,,,,,,,,,,,,,,,,,,,,,,,,,,,,,,,,,,,,
,,605824a5c79c7e261e281cc5,2024-01-06_02h43.00.023,kallum_motion_pilot,2023.2.3,Win32,59.52380952,605824a5c79c7e261e281cc5,6598e6a5d84f07970b831e70,6598e724b14ee5c28bf479cb,0.0415,0.0415,1,27,189,73,1,onethree,,,,,,,,,,,,,,,,,,,,,,,,,,,,,,,,,,,,,,,,,,,,,,,,,,,,,,,,,,,,,,,,,,,,,,,,,,,,,,,,,,,,,,,,,,,,,,,,,,,,,,,,,,,,,,,,,,,,,,,,,,,,,,,,,,,,,,,
,,605824a5c79c7e261e281cc5,2024-01-06_02h43.00.023,kallum_motion_pilot,2023.2.3,Win32,59.52380952,605824a5c79c7e261e281cc5,6598e6a5d84f07970b831e70,6598e724b14ee5c28bf479cb,0.0416,0.0416,1,28,190,151,1,eightseven,,,,,,,,,,,,,,,,,,,,,,,,,,,,,,,,,,,,,,,,,,,,,,,,,,,,,,,,,,,,,,,,,,,,,,,,,,,,,,,,,,,,,,,,,,,,,,,,,,,,,,,,,,,,,,,,,,,,,,,,,,,,,,,,,,,,,,,
,,605824a5c79c7e261e281cc5,2024-01-06_02h43.00.023,kallum_motion_pilot,2023.2.3,Win32,59.52380952,605824a5c79c7e261e281cc5,6598e6a5d84f07970b831e70,6598e724b14ee5c28bf479cb,0.0417,0.0417,1,29,191,6,1,fourtwo,,,,,,,,,,,,,,,,,,,,,,,,,,,,,,,,,,,,,,,,,,,,,,,,,,,,,,,,,,,,,,,,,,,,,,,,,,,,,,,,,,,,,,,,,,,,,,,,,,,,,,,,,,,,,,,,,,,,,,,,,,,,,,,,,,,,,,,
,,605824a5c79c7e261e281cc5,2024-01-06_02h43.00.023,kallum_motion_pilot,2023.2.3,Win32,59.52380952,605824a5c79c7e261e281cc5,6598e6a5d84f07970b831e70,6598e724b14ee5c28bf479cb,0.0418,0.0419,1,30,192,109,1,seveneight,,,,,,,,,,,,,,,,,,,,,,,,,,,,,,,,,,,,,,,,,,,,,,,,,,,,,,,,,,,,,,,,,,,,,,,,,,,,,,,,,,,,,,,,,,,,,,,,,,,,,,,,,,,,,,,,,,,,,,,,,,,,,,,,,,,,,,,
,,605824a5c79c7e261e281cc5,2024-01-06_02h43.00.023,kallum_motion_pilot,2023.2.3,Win32,59.52380952,605824a5c79c7e261e281cc5,6598e6a5d84f07970b831e70,6598e724b14ee5c28bf479cb,0.0419,0.0419,1,31,193,52,1,threeone,,,,,,,,,,,,,,,,,,,,,,,,,,,,,,,,,,,,,,,,,,,,,,,,,,,,,,,,,,,,,,,,,,,,,,,,,,,,,,,,,,,,,,,,,,,,,,,,,,,,,,,,,,,,,,,,,,,,,,,,,,,,,,,,,,,,,,,
,,605824a5c79c7e261e281cc5,2024-01-06_02h43.00.023,kallum_motion_pilot,2023.2.3,Win32,59.52380952,605824a5c79c7e261e281cc5,6598e6a5d84f07970b831e70,6598e724b14ee5c28bf479cb,0.042,0.0421,1,32,194,84,1,sevenfive,,,,,,,,,,,,,,,,,,,,,,,,,,,,,,,,,,,,,,,,,,,,,,,,,,,,,,,,,,,,,,,,,,,,,,,,,,,,,,,,,,,,,,,,,,,,,,,,,,,,,,,,,,,,,,,,,,,,,,,,,,,,,,,,,,,,,,,
,,605824a5c79c7e261e281cc5,2024-01-06_02h43.00.023,kallum_motion_pilot,2023.2.3,Win32,59.52380952,605824a5c79c7e261e281cc5,6598e6a5d84f07970b831e70,6598e724b14ee5c28bf479cb,0.0421,0.0421,1,33,195,119,1,eightseven,,,,,,,,,,,,,,,,,,,,,,,,,,,,,,,,,,,,,,,,,,,,,,,,,,,,,,,,,,,,,,,,,,,,,,,,,,,,,,,,,,,,,,,,,,,,,,,,,,,,,,,,,,,,,,,,,,,,,,,,,,,,,,,,,,,,,,,
,,605824a5c79c7e261e281cc5,2024-01-06_02h43.00.023,kallum_motion_pilot,2023.2.3,Win32,59.52380952,605824a5c79c7e261e281cc5,6598e6a5d84f07970b831e70,6598e724b14ee5c28bf479cb,0.0422,0.0423,1,34,196,155,1,sixeight,,,,,,,,,,,,,,,,,,,,,,,,,,,,,,,,,,,,,,,,,,,,,,,,,,,,,,,,,,,,,,,,,,,,,,,,,,,,,,,,,,,,,,,,,,,,,,,,,,,,,,,,,,,,,,,,,,,,,,,,,,,,,,,,,,,,,,,
,,605824a5c79c7e261e281cc5,2024-01-06_02h43.00.023,kallum_motion_pilot,2023.2.3,Win32,59.52380952,605824a5c79c7e261e281cc5,6598e6a5d84f07970b831e70,6598e724b14ee5c28bf479cb,0.0423,0.0423,1,35,197,3,1,twofour,,,,,,,,,,,,,,,,,,,,,,,,,,,,,,,,,,,,,,,,,,,,,,,,,,,,,,,,,,,,,,,,,,,,,,,,,,,,,,,,,,,,,,,,,,,,,,,,,,,,,,,,,,,,,,,,,,,,,,,,,,,,,,,,,,,,,,,
,,605824a5c79c7e261e281cc5,2024-01-06_02h43.00.023,kallum_motion_pilot,2023.2.3,Win32,59.52380952,605824a5c79c7e261e281cc5,6598e6a5d84f07970b831e70,6598e724b14ee5c28bf479cb,0.0424,0.0425,1,36,198,83,1,sixeight,,,,,,,,,,,,,,,,,,,,,,,,,,,,,,,,,,,,,,,,,,,,,,,,,,,,,,,,,,,,,,,,,,,,,,,,,,,,,,,,,,,,,,,,,,,,,,,,,,,,,,,,,,,,,,,,,,,,,,,,,,,,,,,,,,,,,,,
,,605824a5c79c7e261e281cc5,2024-01-06_02h43.00.023,kallum_motion_pilot,2023.2.3,Win32,59.52380952,605824a5c79c7e261e281cc5,6598e6a5d84f07970b831e70,6598e724b14ee5c28bf479cb,0.0425,0.0426,1,37,199,2,1,twoone,,,,,,,,,,,,,,,,,,,,,,,,,,,,,,,,,,,,,,,,,,,,,,,,,,,,,,,,,,,,,,,,,,,,,,,,,,,,,,,,,,,,,,,,,,,,,,,,,,,,,,,,,,,,,,,,,,,,,,,,,,,,,,,,,,,,,,,
,,605824a5c79c7e261e281cc5,2024-01-06_02h43.00.023,kallum_motion_pilot,2023.2.3,Win32,59.52380952,605824a5c79c7e261e281cc5,6598e6a5d84f07970b831e70,6598e724b14ee5c28bf479cb,0.0427,0.0427,1,38,200,161,1,fiveseven,,,,,,,,,,,,,,,,,,,,,,,,,,,,,,,,,,,,,,,,,,,,,,,,,,,,,,,,,,,,,,,,,,,,,,,,,,,,,,,,,,,,,,,,,,,,,,,,,,,,,,,,,,,,,,,,,,,,,,,,,,,,,,,,,,,,,,,
,,605824a5c79c7e261e281cc5,2024-01-06_02h43.00.023,kallum_motion_pilot,2023.2.3,Win32,59.52380952,605824a5c79c7e261e281cc5,6598e6a5d84f07970b831e70,6598e724b14ee5c28bf479cb,0.0428,0.0428,1,39,201,45,1,threefour,,,,,,,,,,,,,,,,,,,,,,,,,,,,,,,,,,,,,,,,,,,,,,,,,,,,,,,,,,,,,,,,,,,,,,,,,,,,,,,,,,,,,,,,,,,,,,,,,,,,,,,,,,,,,,,,,,,,,,,,,,,,,,,,,,,,,,,
,,605824a5c79c7e261e281cc5,2024-01-06_02h43.00.023,kallum_motion_pilot,2023.2.3,Win32,59.52380952,605824a5c79c7e261e281cc5,6598e6a5d84f07970b831e70,6598e724b14ee5c28bf479cb,0.0429,0.0429,1,40,202,13,1,threefour,,,,,,,,,,,,,,,,,,,,,,,,,,,,,,,,,,,,,,,,,,,,,,,,,,,,,,,,,,,,,,,,,,,,,,,,,,,,,,,,,,,,,,,,,,,,,,,,,,,,,,,,,,,,,,,,,,,,,,,,,,,,,,,,,,,,,,,
,,605824a5c79c7e261e281cc5,2024-01-06_02h43.00.023,kallum_motion_pilot,2023.2.3,Win32,59.52380952,605824a5c79c7e261e281cc5,6598e6a5d84f07970b831e70,6598e724b14ee5c28bf479cb,0.043,0.043,1,41,203,122,1,sixfive,,,,,,,,,,,,,,,,,,,,,,,,,,,,,,,,,,,,,,,,,,,,,,,,,,,,,,,,,,,,,,,,,,,,,,,,,,,,,,,,,,,,,,,,,,,,,,,,,,,,,,,,,,,,,,,,,,,,,,,,,,,,,,,,,,,,,,,
,,605824a5c79c7e261e281cc5,2024-01-06_02h43.00.023,kallum_motion_pilot,2023.2.3,Win32,59.52380952,605824a5c79c7e261e281cc5,6598e6a5d84f07970b831e70,6598e724b14ee5c28bf479cb,0.043,0.0431,1,42,204,100,1,sevenfive,,,,,,,,,,,,,,,,,,,,,,,,,,,,,,,,,,,,,,,,,,,,,,,,,,,,,,,,,,,,,,,,,,,,,,,,,,,,,,,,,,,,,,,,,,,,,,,,,,,,,,,,,,,,,,,,,,,,,,,,,,,,,,,,,,,,,,,
,,605824a5c79c7e261e281cc5,2024-01-06_02h43.00.023,kallum_motion_pilot,2023.2.3,Win32,59.52380952,605824a5c79c7e261e281cc5,6598e6a5d84f07970b831e70,6598e724b14ee5c28bf479cb,0.0432,0.0432,1,43,205,82,1,sixfive,,,,,,,,,,,,,,,,,,,,,,,,,,,,,,,,,,,,,,,,,,,,,,,,,,,,,,,,,,,,,,,,,,,,,,,,,,,,,,,,,,,,,,,,,,,,,,,,,,,,,,,,,,,,,,,,,,,,,,,,,,,,,,,,,,,,,,,
,,605824a5c79c7e261e281cc5,2024-01-06_02h43.00.023,kallum_motion_pilot,2023.2.3,Win32,59.52380952,605824a5c79c7e261e281cc5,6598e6a5d84f07970b831e70,6598e724b14ee5c28bf479cb,0.0432,0.0433,1,44,206,130,1,sixfive,,,,,,,,,,,,,,,,,,,,,,,,,,,,,,,,,,,,,,,,,,,,,,,,,,,,,,,,,,,,,,,,,,,,,,,,,,,,,,,,,,,,,,,,,,,,,,,,,,,,,,,,,,,,,,,,,,,,,,,,,,,,,,,,,,,,,,,
,,605824a5c79c7e261e281cc5,2024-01-06_02h43.00.023,kallum_motion_pilot,2023.2.3,Win32,59.52380952,605824a5c79c7e261e281cc5,6598e6a5d84f07970b831e70,6598e724b14ee5c28bf479cb,0.0433,0.0434,1,45,207,58,1,twoone,,,,,,,,,,,,,,,,,,,,,,,,,,,,,,,,,,,,,,,,,,,,,,,,,,,,,,,,,,,,,,,,,,,,,,,,,,,,,,,,,,,,,,,,,,,,,,,,,,,,,,,,,,,,,,,,,,,,,,,,,,,,,,,,,,,,,,,
,,605824a5c79c7e261e281cc5,2024-01-06_02h43.00.023,kallum_motion_pilot,2023.2.3,Win32,59.52380952,605824a5c79c7e261e281cc5,6598e6a5d84f07970b831e70,6598e724b14ee5c28bf479cb,0.0434,0.0435,1,46,208,116,1,sevenfive,,,,,,,,,,,,,,,,,,,,,,,,,,,,,,,,,,,,,,,,,,,,,,,,,,,,,,,,,,,,,,,,,,,,,,,,,,,,,,,,,,,,,,,,,,,,,,,,,,,,,,,,,,,,,,,,,,,,,,,,,,,,,,,,,,,,,,,
,,605824a5c79c7e261e281cc5,2024-01-06_02h43.00.023,kallum_motion_pilot,2023.2.3,Win32,59.52380952,605824a5c79c7e261e281cc5,6598e6a5d84f07970b831e70,6598e724b14ee5c28bf479cb,0.0436,0.0437,1,47,209,35,1,twofour,,,,,,,,,,,,,,,,,,,,,,,,,,,,,,,,,,,,,,,,,,,,,,,,,,,,,,,,,,,,,,,,,,,,,,,,,,,,,,,,,,,,,,,,,,,,,,,,,,,,,,,,,,,,,,,,,,,,,,,,,,,,,,,,,,,,,,,
,,605824a5c79c7e261e281cc5,2024-01-06_02h43.00.023,kallum_motion_pilot,2023.2.3,Win32,59.52380952,605824a5c79c7e261e281cc5,6598e6a5d84f07970b831e70,6598e724b14ee5c28bf479cb,0.0437,0.0438,1,48,210,59,1,twofour,,,,,,,,,,,,,,,,,,,,,,,,,,,,,,,,,,,,,,,,,,,,,,,,,,,,,,,,,,,,,,,,,,,,,,,,,,,,,,,,,,,,,,,,,,,,,,,,,,,,,,,,,,,,,,,,,,,,,,,,,,,,,,,,,,,,,,,
,,605824a5c79c7e261e281cc5,2024-01-06_02h43.00.023,kallum_motion_pilot,2023.2.3,Win32,59.52380952,605824a5c79c7e261e281cc5,6598e6a5d84f07970b831e70,6598e724b14ee5c28bf479cb,0.0438,0.0438,1,49,211,156,1,sevenfive,,,,,,,,,,,,,,,,,,,,,,,,,,,,,,,,,,,,,,,,,,,,,,,,,,,,,,,,,,,,,,,,,,,,,,,,,,,,,,,,,,,,,,,,,,,,,,,,,,,,,,,,,,,,,,,,,,,,,,,,,,,,,,,,,,,,,,,
,,605824a5c79c7e261e281cc5,2024-01-06_02h43.00.023,kallum_motion_pilot,2023.2.3,Win32,59.52380952,605824a5c79c7e261e281cc5,6598e6a5d84f07970b831e70,6598e724b14ee5c28bf479cb,0.0439,0.0439,1,50,212,154,1,sixfive,,,,,,,,,,,,,,,,,,,,,,,,,,,,,,,,,,,,,,,,,,,,,,,,,,,,,,,,,,,,,,,,,,,,,,,,,,,,,,,,,,,,,,,,,,,,,,,,,,,,,,,,,,,,,,,,,,,,,,,,,,,,,,,,,,,,,,,
,,605824a5c79c7e261e281cc5,2024-01-06_02h43.00.023,kallum_motion_pilot,2023.2.3,Win32,59.52380952,605824a5c79c7e261e281cc5,6598e6a5d84f07970b831e70,6598e724b14ee5c28bf479cb,0.044,0.044,1,51,213,49,1,onethree,,,,,,,,,,,,,,,,,,,,,,,,,,,,,,,,,,,,,,,,,,,,,,,,,,,,,,,,,,,,,,,,,,,,,,,,,,,,,,,,,,,,,,,,,,,,,,,,,,,,,,,,,,,,,,,,,,,,,,,,,,,,,,,,,,,,,,,
,,605824a5c79c7e261e281cc5,2024-01-06_02h43.00.023,kallum_motion_pilot,2023.2.3,Win32,59.52380952,605824a5c79c7e261e281cc5,6598e6a5d84f07970b831e70,6598e724b14ee5c28bf479cb,0.0441,0.0441,1,52,214,48,1,onetwo,,,,,,,,,,,,,,,,,,,,,,,,,,,,,,,,,,,,,,,,,,,,,,,,,,,,,,,,,,,,,,,,,,,,,,,,,,,,,,,,,,,,,,,,,,,,,,,,,,,,,,,,,,,,,,,,,,,,,,,,,,,,,,,,,,,,,,,
,,605824a5c79c7e261e281cc5,2024-01-06_02h43.00.023,kallum_motion_pilot,2023.2.3,Win32,59.52380952,605824a5c79c7e261e281cc5,6598e6a5d84f07970b831e70,6598e724b14ee5c28bf479cb,0.0441,0.0442,1,53,215,93,1,seveneight,,,,,,,,,,,,,,,,,,,,,,,,,,,,,,,,,,,,,,,,,,,,,,,,,,,,,,,,,,,,,,,,,,,,,,,,,,,,,,,,,,,,,,,,,,,,,,,,,,,,,,,,,,,,,,,,,,,,,,,,,,,,,,,,,,,,,,,
,,605824a5c79c7e261e281cc5,2024-01-06_02h43.00.023,kallum_motion_pilot,2023.2.3,Win32,59.52380952,605824a5c79c7e261e281cc5,6598e6a5d84f07970b831e70,6598e724b14ee5c28bf479cb,0.0443,0.0443,1,54,216,85,1,seveneight,,,,,,,,,,,,,,,,,,,,,,,,,,,,,,,,,,,,,,,,,,,,,,,,,,,,,,,,,,,,,,,,,,,,,,,,,,,,,,,,,,,,,,,,,,,,,,,,,,,,,,,,,,,,,,,,,,,,,,,,,,,,,,,,,,,,,,,
,,605824a5c79c7e261e281cc5,2024-01-06_02h43.00.023,kallum_motion_pilot,2023.2.3,Win32,59.52380952,605824a5c79c7e261e281cc5,6598e6a5d84f07970b831e70,6598e724b14ee5c28bf479cb,0.0444,0.0445,1,55,217,65,1,onethree,,,,,,,,,,,,,,,,,,,,,,,,,,,,,,,,,,,,,,,,,,,,,,,,,,,,,,,,,,,,,,,,,,,,,,,,,,,,,,,,,,,,,,,,,,,,,,,,,,,,,,,,,,,,,,,,,,,,,,,,,,,,,,,,,,,,,,,
,,605824a5c79c7e261e281cc5,2024-01-06_02h43.00.023,kallum_motion_pilot,2023.2.3,Win32,59.52380952,605824a5c79c7e261e281cc5,6598e6a5d84f07970b831e70,6598e724b14ee5c28bf479cb,0.0445,0.0446,1,56,218,104,1,fivesix,,,,,,,,,,,,,,,,,,,,,,,,,,,,,,,,,,,,,,,,,,,,,,,,,,,,,,,,,,,,,,,,,,,,,,,,,,,,,,,,,,,,,,,,,,,,,,,,,,,,,,,,,,,,,,,,,,,,,,,,,,,,,,,,,,,,,,,
,,605824a5c79c7e261e281cc5,2024-01-06_02h43.00.023,kallum_motion_pilot,2023.2.3,Win32,59.52380952,605824a5c79c7e261e281cc5,6598e6a5d84f07970b831e70,6598e724b14ee5c28bf479cb,0.0447,0.0448,1,57,219,57,1,onethree,,,,,,,,,,,,,,,,,,,,,,,,,,,,,,,,,,,,,,,,,,,,,,,,,,,,,,,,,,,,,,,,,,,,,,,,,,,,,,,,,,,,,,,,,,,,,,,,,,,,,,,,,,,,,,,,,,,,,,,,,,,,,,,,,,,,,,,
,,605824a5c79c7e261e281cc5,2024-01-06_02h43.00.023,kallum_motion_pilot,2023.2.3,Win32,59.52380952,605824a5c79c7e261e281cc5,6598e6a5d84f07970b831e70,6598e724b14ee5c28bf479cb,0.0449,0.0449,1,58,220,133,1,seveneight,,,,,,,,,,,,,,,,,,,,,,,,,,,,,,,,,,,,,,,,,,,,,,,,,,,,,,,,,,,,,,,,,,,,,,,,,,,,,,,,,,,,,,,,,,,,,,,,,,,,,,,,,,,,,,,,,,,,,,,,,,,,,,,,,,,,,,,
,,605824a5c79c7e261e281cc5,2024-01-06_02h43.00.023,kallum_motion_pilot,2023.2.3,Win32,59.52380952,605824a5c79c7e261e281cc5,6598e6a5d84f07970b831e70,6598e724b14ee5c28bf479cb,0.0449,0.045,1,59,221,92,1,sevenfive,,,,,,,,,,,,,,,,,,,,,,,,,,,,,,,,,,,,,,,,,,,,,,,,,,,,,,,,,,,,,,,,,,,,,,,,,,,,,,,,,,,,,,,,,,,,,,,,,,,,,,,,,,,,,,,,,,,,,,,,,,,,,,,,,,,,,,,
,,605824a5c79c7e261e281cc5,2024-01-06_02h43.00.023,kallum_motion_pilot,2023.2.3,Win32,59.52380952,605824a5c79c7e261e281cc5,6598e6a5d84f07970b831e70,6598e724b14ee5c28bf479cb,0.045,0.0452,1,60,222,125,1,seveneight,,,,,,,,,,,,,,,,,,,,,,,,,,,,,,,,,,,,,,,,,,,,,,,,,,,,,,,,,,,,,,,,,,,,,,,,,,,,,,,,,,,,,,,,,,,,,,,,,,,,,,,,,,,,,,,,,,,,,,,,,,,,,,,,,,,,,,,
,,605824a5c79c7e261e281cc5,2024-01-06_02h43.00.023,kallum_motion_pilot,2023.2.3,Win32,59.52380952,605824a5c79c7e261e281cc5,6598e6a5d84f07970b831e70,6598e724b14ee5c28bf479cb,0.0452,0.0453,1,61,223,158,1,eightsix,,,,,,,,,,,,,,,,,,,,,,,,,,,,,,,,,,,,,,,,,,,,,,,,,,,,,,,,,,,,,,,,,,,,,,,,,,,,,,,,,,,,,,,,,,,,,,,,,,,,,,,,,,,,,,,,,,,,,,,,,,,,,,,,,,,,,,,
,,605824a5c79c7e261e281cc5,2024-01-06_02h43.00.023,kallum_motion_pilot,2023.2.3,Win32,59.52380952,605824a5c79c7e261e281cc5,6598e6a5d84f07970b831e70,6598e724b14ee5c28bf479cb,0.0454,0.0454,1,62,224,19,1,twofour,,,,,,,,,,,,,,,,,,,,,,,,,,,,,,,,,,,,,,,,,,,,,,,,,,,,,,,,,,,,,,,,,,,,,,,,,,,,,,,,,,,,,,,,,,,,,,,,,,,,,,,,,,,,,,,,,,,,,,,,,,,,,,,,,,,,,,,
,,605824a5c79c7e261e281cc5,2024-01-06_02h43.00.023,kallum_motion_pilot,2023.2.3,Win32,59.52380952,605824a5c79c7e261e281cc5,6598e6a5d84f07970b831e70,6598e724b14ee5c28bf479cb,0.0455,0.0455,1,63,225,118,1,eightsix,,,,,,,,,,,,,,,,,,,,,,,,,,,,,,,,,,,,,,,,,,,,,,,,,,,,,,,,,,,,,,,,,,,,,,,,,,,,,,,,,,,,,,,,,,,,,,,,,,,,,,,,,,,,,,,,,,,,,,,,,,,,,,,,,,,,,,,
,,605824a5c79c7e261e281cc5,2024-01-06_02h43.00.023,kallum_motion_pilot,2023.2.3,Win32,59.52380952,605824a5c79c7e261e281cc5,6598e6a5d84f07970b831e70,6598e724b14ee5c28bf479cb,0.0457,0.0457,1,64,226,50,1,twoone,,,,,,,,,,,,,,,,,,,,,,,,,,,,,,,,,,,,,,,,,,,,,,,,,,,,,,,,,,,,,,,,,,,,,,,,,,,,,,,,,,,,,,,,,,,,,,,,,,,,,,,,,,,,,,,,,,,,,,,,,,,,,,,,,,,,,,,
,,605824a5c79c7e261e281cc5,2024-01-06_02h43.00.023,kallum_motion_pilot,2023.2.3,Win32,59.52380952,605824a5c79c7e261e281cc5,6598e6a5d84f07970b831e70,6598e724b14ee5c28bf479cb,0.0458,0.0459,1,65,227,1,1,onethree,,,,,,,,,,,,,,,,,,,,,,,,,,,,,,,,,,,,,,,,,,,,,,,,,,,,,,,,,,,,,,,,,,,,,,,,,,,,,,,,,,,,,,,,,,,,,,,,,,,,,,,,,,,,,,,,,,,,,,,,,,,,,,,,,,,,,,,
,,605824a5c79c7e261e281cc5,2024-01-06_02h43.00.023,kallum_motion_pilot,2023.2.3,Win32,59.52380952,605824a5c79c7e261e281cc5,6598e6a5d84f07970b831e70,6598e724b14ee5c28bf479cb,0.0459,0.0459,1,66,228,53,1,threefour,,,,,,,,,,,,,,,,,,,,,,,,,,,,,,,,,,,,,,,,,,,,,,,,,,,,,,,,,,,,,,,,,,,,,,,,,,,,,,,,,,,,,,,,,,,,,,,,,,,,,,,,,,,,,,,,,,,,,,,,,,,,,,,,,,,,,,,
,,605824a5c79c7e261e281cc5,2024-01-06_02h43.00.023,kallum_motion_pilot,2023.2.3,Win32,59.52380952,605824a5c79c7e261e281cc5,6598e6a5d84f07970b831e70,6598e724b14ee5c28bf479cb,0.046,0.0461,1,67,229,74,1,twoone,,,,,,,,,,,,,,,,,,,,,,,,,,,,,,,,,,,,,,,,,,,,,,,,,,,,,,,,,,,,,,,,,,,,,,,,,,,,,,,,,,,,,,,,,,,,,,,,,,,,,,,,,,,,,,,,,,,,,,,,,,,,,,,,,,,,,,,
,,605824a5c79c7e261e281cc5,2024-01-06_02h43.00.023,kallum_motion_pilot,2023.2.3,Win32,59.52380952,605824a5c79c7e261e281cc5,6598e6a5d84f07970b831e70,6598e724b14ee5c28bf479cb,0.0462,0.0462,1,68,230,18,1,twoone,,,,,,,,,,,,,,,,,,,,,,,,,,,,,,,,,,,,,,,,,,,,,,,,,,,,,,,,,,,,,,,,,,,,,,,,,,,,,,,,,,,,,,,,,,,,,,,,,,,,,,,,,,,,,,,,,,,,,,,,,,,,,,,,,,,,,,,
,,605824a5c79c7e261e281cc5,2024-01-06_02h43.00.023,kallum_motion_pilot,2023.2.3,Win32,59.52380952,605824a5c79c7e261e281cc5,6598e6a5d84f07970b831e70,6598e724b14ee5c28bf479cb,0.0462,0.0463,1,69,231,153,1,fiveseven,,,,,,,,,,,,,,,,,,,,,,,,,,,,,,,,,,,,,,,,,,,,,,,,,,,,,,,,,,,,,,,,,,,,,,,,,,,,,,,,,,,,,,,,,,,,,,,,,,,,,,,,,,,,,,,,,,,,,,,,,,,,,,,,,,,,,,,
,,605824a5c79c7e261e281cc5,2024-01-06_02h43.00.023,kallum_motion_pilot,2023.2.3,Win32,59.52380952,605824a5c79c7e261e281cc5,6598e6a5d84f07970b831e70,6598e724b14ee5c28bf479cb,0.0464,0.0464,1,70,232,97,1,fiveseven,,,,,,,,,,,,,,,,,,,,,,,,,,,,,,,,,,,,,,,,,,,,,,,,,,,,,,,,,,,,,,,,,,,,,,,,,,,,,,,,,,,,,,,,,,,,,,,,,,,,,,,,,,,,,,,,,,,,,,,,,,,,,,,,,,,,,,,
,,605824a5c79c7e261e281cc5,2024-01-06_02h43.00.023,kallum_motion_pilot,2023.2.3,Win32,59.52380952,605824a5c79c7e261e281cc5,6598e6a5d84f07970b831e70,6598e724b14ee5c28bf479cb,0.0465,0.0465,1,71,233,147,1,sixeight,,,,,,,,,,,,,,,,,,,,,,,,,,,,,,,,,,,,,,,,,,,,,,,,,,,,,,,,,,,,,,,,,,,,,,,,,,,,,,,,,,,,,,,,,,,,,,,,,,,,,,,,,,,,,,,,,,,,,,,,,,,,,,,,,,,,,,,
,,605824a5c79c7e261e281cc5,2024-01-06_02h43.00.023,kallum_motion_pilot,2023.2.3,Win32,59.52380952,605824a5c79c7e261e281cc5,6598e6a5d84f07970b831e70,6598e724b14ee5c28bf479cb,0.0466,0.0466,1,72,234,71,1,fourthree,,,,,,,,,,,,,,,,,,,,,,,,,,,,,,,,,,,,,,,,,,,,,,,,,,,,,,,,,,,,,,,,,,,,,,,,,,,,,,,,,,,,,,,,,,,,,,,,,,,,,,,,,,,,,,,,,,,,,,,,,,,,,,,,,,,,,,,
,,605824a5c79c7e261e281cc5,2024-01-06_02h43.00.023,kallum_motion_pilot,2023.2.3,Win32,59.52380952,605824a5c79c7e261e281cc5,6598e6a5d84f07970b831e70,6598e724b14ee5c28bf479cb,0.0468,0.0468,1,73,235,136,1,fivesix,,,,,,,,,,,,,,,,,,,,,,,,,,,,,,,,,,,,,,,,,,,,,,,,,,,,,,,,,,,,,,,,,,,,,,,,,,,,,,,,,,,,,,,,,,,,,,,,,,,,,,,,,,,,,,,,,,,,,,,,,,,,,,,,,,,,,,,
,,605824a5c79c7e261e281cc5,2024-01-06_02h43.00.023,kallum_motion_pilot,2023.2.3,Win32,59.52380952,605824a5c79c7e261e281cc5,6598e6a5d84f07970b831e70,6598e724b14ee5c28bf479cb,0.0469,0.0469,1,74,236,140,1,sevenfive,,,,,,,,,,,,,,,,,,,,,,,,,,,,,,,,,,,,,,,,,,,,,,,,,,,,,,,,,,,,,,,,,,,,,,,,,,,,,,,,,,,,,,,,,,,,,,,,,,,,,,,,,,,,,,,,,,,,,,,,,,,,,,,,,,,,,,,
,,605824a5c79c7e261e281cc5,2024-01-06_02h43.00.023,kallum_motion_pilot,2023.2.3,Win32,59.52380952,605824a5c79c7e261e281cc5,6598e6a5d84f07970b831e70,6598e724b14ee5c28bf479cb,0.0471,0.0471,1,75,237,127,1,eightseven,,,,,,,,,,,,,,,,,,,,,,,,,,,,,,,,,,,,,,,,,,,,,,,,,,,,,,,,,,,,,,,,,,,,,,,,,,,,,,,,,,,,,,,,,,,,,,,,,,,,,,,,,,,,,,,,,,,,,,,,,,,,,,,,,,,,,,,
,,605824a5c79c7e261e281cc5,2024-01-06_02h43.00.023,kallum_motion_pilot,2023.2.3,Win32,59.52380952,605824a5c79c7e261e281cc5,6598e6a5d84f07970b831e70,6598e724b14ee5c28bf479cb,0.0472,0.0472,1,76,238,146,1,sixfive,,,,,,,,,,,,,,,,,,,,,,,,,,,,,,,,,,,,,,,,,,,,,,,,,,,,,,,,,,,,,,,,,,,,,,,,,,,,,,,,,,,,,,,,,,,,,,,,,,,,,,,,,,,,,,,,,,,,,,,,,,,,,,,,,,,,,,,
,,605824a5c79c7e261e281cc5,2024-01-06_02h43.00.023,kallum_motion_pilot,2023.2.3,Win32,59.52380952,605824a5c79c7e261e281cc5,6598e6a5d84f07970b831e70,6598e724b14ee5c28bf479cb,0.0473,0.0473,1,77,239,148,1,sevenfive,,,,,,,,,,,,,,,,,,,,,,,,,,,,,,,,,,,,,,,,,,,,,,,,,,,,,,,,,,,,,,,,,,,,,,,,,,,,,,,,,,,,,,,,,,,,,,,,,,,,,,,,,,,,,,,,,,,,,,,,,,,,,,,,,,,,,,,
,,605824a5c79c7e261e281cc5,2024-01-06_02h43.00.023,kallum_motion_pilot,2023.2.3,Win32,59.52380952,605824a5c79c7e261e281cc5,6598e6a5d84f07970b831e70,6598e724b14ee5c28bf479cb,0.0474,0.0474,1,78,240,22,1,fourtwo,,,,,,,,,,,,,,,,,,,,,,,,,,,,,,,,,,,,,,,,,,,,,,,,,,,,,,,,,,,,,,,,,,,,,,,,,,,,,,,,,,,,,,,,,,,,,,,,,,,,,,,,,,,,,,,,,,,,,,,,,,,,,,,,,,,,,,,
,,605824a5c79c7e261e281cc5,2024-01-06_02h43.00.023,kallum_motion_pilot,2023.2.3,Win32,59.52380952,605824a5c79c7e261e281cc5,6598e6a5d84f07970b831e70,6598e724b14ee5c28bf479cb,0.0475,0.0476,1,79,241,91,1,sixeight,,,,,,,,,,,,,,,,,,,,,,,,,,,,,,,,,,,,,,,,,,,,,,,,,,,,,,,,,,,,,,,,,,,,,,,,,,,,,,,,,,,,,,,,,,,,,,,,,,,,,,,,,,,,,,,,,,,,,,,,,,,,,,,,,,,,,,,
,,605824a5c79c7e261e281cc5,2024-01-06_02h43.00.023,kallum_motion_pilot,2023.2.3,Win32,59.52380952,605824a5c79c7e261e281cc5,6598e6a5d84f07970b831e70,6598e724b14ee5c28bf479cb,0.0477,0.0477,1,80,242,138,1,sixfive,,,,,,,,,,,,,,,,,,,,,,,,,,,,,,,,,,,,,,,,,,,,,,,,,,,,,,,,,,,,,,,,,,,,,,,,,,,,,,,,,,,,,,,,,,,,,,,,,,,,,,,,,,,,,,,,,,,,,,,,,,,,,,,,,,,,,,,
,,605824a5c79c7e261e281cc5,2024-01-06_02h43.00.023,kallum_motion_pilot,2023.2.3,Win32,59.52380952,605824a5c79c7e261e281cc5,6598e6a5d84f07970b831e70,6598e724b14ee5c28bf479cb,0.0478,0.0478,1,81,243,34,1,twoone,,,,,,,,,,,,,,,,,,,,,,,,,,,,,,,,,,,,,,,,,,,,,,,,,,,,,,,,,,,,,,,,,,,,,,,,,,,,,,,,,,,,,,,,,,,,,,,,,,,,,,,,,,,,,,,,,,,,,,,,,,,,,,,,,,,,,,,
,,605824a5c79c7e261e281cc5,2024-01-06_02h43.00.023,kallum_motion_pilot,2023.2.3,Win32,59.52380952,605824a5c79c7e261e281cc5,6598e6a5d84f07970b831e70,6598e724b14ee5c28bf479cb,0.048,0.048,1,82,244,141,1,seveneight,,,,,,,,,,,,,,,,,,,,,,,,,,,,,,,,,,,,,,,,,,,,,,,,,,,,,,,,,,,,,,,,,,,,,,,,,,,,,,,,,,,,,,,,,,,,,,,,,,,,,,,,,,,,,,,,,,,,,,,,,,,,,,,,,,,,,,,
,,605824a5c79c7e261e281cc5,2024-01-06_02h43.00.023,kallum_motion_pilot,2023.2.3,Win32,59.52380952,605824a5c79c7e261e281cc5,6598e6a5d84f07970b831e70,6598e724b14ee5c28bf479cb,0.0481,0.0481,1,83,245,30,1,fourtwo,,,,,,,,,,,,,,,,,,,,,,,,,,,,,,,,,,,,,,,,,,,,,,,,,,,,,,,,,,,,,,,,,,,,,,,,,,,,,,,,,,,,,,,,,,,,,,,,,,,,,,,,,,,,,,,,,,,,,,,,,,,,,,,,,,,,,,,
,,605824a5c79c7e261e281cc5,2024-01-06_02h43.00.023,kallum_motion_pilot,2023.2.3,Win32,59.52380952,605824a5c79c7e261e281cc5,6598e6a5d84f07970b831e70,6598e724b14ee5c28bf479cb,0.0482,0.0484,1,84,246,128,1,fivesix,,,,,,,,,,,,,,,,,,,,,,,,,,,,,,,,,,,,,,,,,,,,,,,,,,,,,,,,,,,,,,,,,,,,,,,,,,,,,,,,,,,,,,,,,,,,,,,,,,,,,,,,,,,,,,,,,,,,,,,,,,,,,,,,,,,,,,,
,,605824a5c79c7e261e281cc5,2024-01-06_02h43.00.023,kallum_motion_pilot,2023.2.3,Win32,59.52380952,605824a5c79c7e261e281cc5,6598e6a5d84f07970b831e70,6598e724b14ee5c28bf479cb,0.0485,0.0487,1,85,247,8,1,onetwo,,,,,,,,,,,,,,,,,,,,,,,,,,,,,,,,,,,,,,,,,,,,,,,,,,,,,,,,,,,,,,,,,,,,,,,,,,,,,,,,,,,,,,,,,,,,,,,,,,,,,,,,,,,,,,,,,,,,,,,,,,,,,,,,,,,,,,,
,,605824a5c79c7e261e281cc5,2024-01-06_02h43.00.023,kallum_motion_pilot,2023.2.3,Win32,59.52380952,605824a5c79c7e261e281cc5,6598e6a5d84f07970b831e70,6598e724b14ee5c28bf479cb,0.0487,0.0488,1,86,248,4,1,threeone,,,,,,,,,,,,,,,,,,,,,,,,,,,,,,,,,,,,,,,,,,,,,,,,,,,,,,,,,,,,,,,,,,,,,,,,,,,,,,,,,,,,,,,,,,,,,,,,,,,,,,,,,,,,,,,,,,,,,,,,,,,,,,,,,,,,,,,
,,605824a5c79c7e261e281cc5,2024-01-06_02h43.00.023,kallum_motion_pilot,2023.2.3,Win32,59.52380952,605824a5c79c7e261e281cc5,6598e6a5d84f07970b831e70,6598e724b14ee5c28bf479cb,0.049,0.049,1,87,249,123,1,sixeight,,,,,,,,,,,,,,,,,,,,,,,,,,,,,,,,,,,,,,,,,,,,,,,,,,,,,,,,,,,,,,,,,,,,,,,,,,,,,,,,,,,,,,,,,,,,,,,,,,,,,,,,,,,,,,,,,,,,,,,,,,,,,,,,,,,,,,,
,,605824a5c79c7e261e281cc5,2024-01-06_02h43.00.023,kallum_motion_pilot,2023.2.3,Win32,59.52380952,605824a5c79c7e261e281cc5,6598e6a5d84f07970b831e70,6598e724b14ee5c28bf479cb,0.0491,0.0491,1,88,250,157,1,seveneight,,,,,,,,,,,,,,,,,,,,,,,,,,,,,,,,,,,,,,,,,,,,,,,,,,,,,,,,,,,,,,,,,,,,,,,,,,,,,,,,,,,,,,,,,,,,,,,,,,,,,,,,,,,,,,,,,,,,,,,,,,,,,,,,,,,,,,,
,,605824a5c79c7e261e281cc5,2024-01-06_02h43.00.023,kallum_motion_pilot,2023.2.3,Win32,59.52380952,605824a5c79c7e261e281cc5,6598e6a5d84f07970b831e70,6598e724b14ee5c28bf479cb,0.0492,0.0494,1,89,251,126,1,eightsix,,,,,,,,,,,,,,,,,,,,,,,,,,,,,,,,,,,,,,,,,,,,,,,,,,,,,,,,,,,,,,,,,,,,,,,,,,,,,,,,,,,,,,,,,,,,,,,,,,,,,,,,,,,,,,,,,,,,,,,,,,,,,,,,,,,,,,,
,,605824a5c79c7e261e281cc5,2024-01-06_02h43.00.023,kallum_motion_pilot,2023.2.3,Win32,59.52380952,605824a5c79c7e261e281cc5,6598e6a5d84f07970b831e70,6598e724b14ee5c28bf479cb,0.0494,0.0495,1,90,252,80,1,fivesix,,,,,,,,,,,,,,,,,,,,,,,,,,,,,,,,,,,,,,,,,,,,,,,,,,,,,,,,,,,,,,,,,,,,,,,,,,,,,,,,,,,,,,,,,,,,,,,,,,,,,,,,,,,,,,,,,,,,,,,,,,,,,,,,,,,,,,,
,,605824a5c79c7e261e281cc5,2024-01-06_02h43.00.023,kallum_motion_pilot,2023.2.3,Win32,59.52380952,605824a5c79c7e261e281cc5,6598e6a5d84f07970b831e70,6598e724b14ee5c28bf479cb,0.0495,0.0496,1,91,253,149,1,seveneight,,,,,,,,,,,,,,,,,,,,,,,,,,,,,,,,,,,,,,,,,,,,,,,,,,,,,,,,,,,,,,,,,,,,,,,,,,,,,,,,,,,,,,,,,,,,,,,,,,,,,,,,,,,,,,,,,,,,,,,,,,,,,,,,,,,,,,,
,,605824a5c79c7e261e281cc5,2024-01-06_02h43.00.023,kallum_motion_pilot,2023.2.3,Win32,59.52380952,605824a5c79c7e261e281cc5,6598e6a5d84f07970b831e70,6598e724b14ee5c28bf479cb,0.0497,0.0498,1,92,254,79,1,eightseven,,,,,,,,,,,,,,,,,,,,,,,,,,,,,,,,,,,,,,,,,,,,,,,,,,,,,,,,,,,,,,,,,,,,,,,,,,,,,,,,,,,,,,,,,,,,,,,,,,,,,,,,,,,,,,,,,,,,,,,,,,,,,,,,,,,,,,,
,,605824a5c79c7e261e281cc5,2024-01-06_02h43.00.023,kallum_motion_pilot,2023.2.3,Win32,59.52380952,605824a5c79c7e261e281cc5,6598e6a5d84f07970b831e70,6598e724b14ee5c28bf479cb,0.0499,0.0501,1,93,255,90,1,sixfive,,,,,,,,,,,,,,,,,,,,,,,,,,,,,,,,,,,,,,,,,,,,,,,,,,,,,,,,,,,,,,,,,,,,,,,,,,,,,,,,,,,,,,,,,,,,,,,,,,,,,,,,,,,,,,,,,,,,,,,,,,,,,,,,,,,,,,,
,,605824a5c79c7e261e281cc5,2024-01-06_02h43.00.023,kallum_motion_pilot,2023.2.3,Win32,59.52380952,605824a5c79c7e261e281cc5,6598e6a5d84f07970b831e70,6598e724b14ee5c28bf479cb,0.0501,0.0502,1,94,256,98,1,sixfive,,,,,,,,,,,,,,,,,,,,,,,,,,,,,,,,,,,,,,,,,,,,,,,,,,,,,,,,,,,,,,,,,,,,,,,,,,,,,,,,,,,,,,,,,,,,,,,,,,,,,,,,,,,,,,,,,,,,,,,,,,,,,,,,,,,,,,,
,,605824a5c79c7e261e281cc5,2024-01-06_02h43.00.023,kallum_motion_pilot,2023.2.3,Win32,59.52380952,605824a5c79c7e261e281cc5,6598e6a5d84f07970b831e70,6598e724b14ee5c28bf479cb,0.0502,0.0503,1,95,257,86,1,eightsix,,,,,,,,,,,,,,,,,,,,,,,,,,,,,,,,,,,,,,,,,,,,,,,,,,,,,,,,,,,,,,,,,,,,,,,,,,,,,,,,,,,,,,,,,,,,,,,,,,,,,,,,,,,,,,,,,,,,,,,,,,,,,,,,,,,,,,,
,,605824a5c79c7e261e281cc5,2024-01-06_02h43.00.023,kallum_motion_pilot,2023.2.3,Win32,59.52380952,605824a5c79c7e261e281cc5,6598e6a5d84f07970b831e70,6598e724b14ee5c28bf479cb,0.0503,0.0504,1,96,258,69,1,threefour,,,,,,,,,,,,,,,,,,,,,,,,,,,,,,,,,,,,,,,,,,,,,,,,,,,,,,,,,,,,,,,,,,,,,,,,,,,,,,,,,,,,,,,,,,,,,,,,,,,,,,,,,,,,,,,,,,,,,,,,,,,,,,,,,,,,,,,
,,605824a5c79c7e261e281cc5,2024-01-06_02h43.00.023,kallum_motion_pilot,2023.2.3,Win32,59.52380952,605824a5c79c7e261e281cc5,6598e6a5d84f07970b831e70,6598e724b14ee5c28bf479cb,0.0504,0.0505,1,97,259,150,1,eightsix,,,,,,,,,,,,,,,,,,,,,,,,,,,,,,,,,,,,,,,,,,,,,,,,,,,,,,,,,,,,,,,,,,,,,,,,,,,,,,,,,,,,,,,,,,,,,,,,,,,,,,,,,,,,,,,,,,,,,,,,,,,,,,,,,,,,,,,
,,605824a5c79c7e261e281cc5,2024-01-06_02h43.00.023,kallum_motion_pilot,2023.2.3,Win32,59.52380952,605824a5c79c7e261e281cc5,6598e6a5d84f07970b831e70,6598e724b14ee5c28bf479cb,0.0506,0.0507,1,98,260,40,1,onetwo,,,,,,,,,,,,,,,,,,,,,,,,,,,,,,,,,,,,,,,,,,,,,,,,,,,,,,,,,,,,,,,,,,,,,,,,,,,,,,,,,,,,,,,,,,,,,,,,,,,,,,,,,,,,,,,,,,,,,,,,,,,,,,,,,,,,,,,
,,605824a5c79c7e261e281cc5,2024-01-06_02h43.00.023,kallum_motion_pilot,2023.2.3,Win32,59.52380952,605824a5c79c7e261e281cc5,6598e6a5d84f07970b831e70,6598e724b14ee5c28bf479cb,0.0508,0.0508,1,99,261,106,1,sixfive,,,,,,,,,,,,,,,,,,,,,,,,,,,,,,,,,,,,,,,,,,,,,,,,,,,,,,,,,,,,,,,,,,,,,,,,,,,,,,,,,,,,,,,,,,,,,,,,,,,,,,,,,,,,,,,,,,,,,,,,,,,,,,,,,,,,,,,
,,605824a5c79c7e261e281cc5,2024-01-06_02h43.00.023,kallum_motion_pilot,2023.2.3,Win32,59.52380952,605824a5c79c7e261e281cc5,6598e6a5d84f07970b831e70,6598e724b14ee5c28bf479cb,0.0509,0.0509,1,100,262,95,1,eightseven,,,,,,,,,,,,,,,,,,,,,,,,,,,,,,,,,,,,,,,,,,,,,,,,,,,,,,,,,,,,,,,,,,,,,,,,,,,,,,,,,,,,,,,,,,,,,,,,,,,,,,,,,,,,,,,,,,,,,,,,,,,,,,,,,,,,,,,
,,605824a5c79c7e261e281cc5,2024-01-06_02h43.00.023,kallum_motion_pilot,2023.2.3,Win32,59.52380952,605824a5c79c7e261e281cc5,6598e6a5d84f07970b831e70,6598e724b14ee5c28bf479cb,0.0509,0.0511,1,101,263,37,1,threefour,,,,,,,,,,,,,,,,,,,,,,,,,,,,,,,,,,,,,,,,,,,,,,,,,,,,,,,,,,,,,,,,,,,,,,,,,,,,,,,,,,,,,,,,,,,,,,,,,,,,,,,,,,,,,,,,,,,,,,,,,,,,,,,,,,,,,,,
,,605824a5c79c7e261e281cc5,2024-01-06_02h43.00.023,kallum_motion_pilot,2023.2.3,Win32,59.52380952,605824a5c79c7e261e281cc5,6598e6a5d84f07970b831e70,6598e724b14ee5c28bf479cb,0.0512,0.0512,1,102,264,60,1,threeone,,,,,,,,,,,,,,,,,,,,,,,,,,,,,,,,,,,,,,,,,,,,,,,,,,,,,,,,,,,,,,,,,,,,,,,,,,,,,,,,,,,,,,,,,,,,,,,,,,,,,,,,,,,,,,,,,,,,,,,,,,,,,,,,,,,,,,,
,,605824a5c79c7e261e281cc5,2024-01-06_02h43.00.023,kallum_motion_pilot,2023.2.3,Win32,59.52380952,605824a5c79c7e261e281cc5,6598e6a5d84f07970b831e70,6598e724b14ee5c28bf479cb,0.0512,0.0513,1,103,265,68,1,threeone,,,,,,,,,,,,,,,,,,,,,,,,,,,,,,,,,,,,,,,,,,,,,,,,,,,,,,,,,,,,,,,,,,,,,,,,,,,,,,,,,,,,,,,,,,,,,,,,,,,,,,,,,,,,,,,,,,,,,,,,,,,,,,,,,,,,,,,
,,605824a5c79c7e261e281cc5,2024-01-06_02h43.00.023,kallum_motion_pilot,2023.2.3,Win32,59.52380952,605824a5c79c7e261e281cc5,6598e6a5d84f07970b831e70,6598e724b14ee5c28bf479cb,0.0514,0.0514,1,104,266,46,1,fourtwo,,,,,,,,,,,,,,,,,,,,,,,,,,,,,,,,,,,,,,,,,,,,,,,,,,,,,,,,,,,,,,,,,,,,,,,,,,,,,,,,,,,,,,,,,,,,,,,,,,,,,,,,,,,,,,,,,,,,,,,,,,,,,,,,,,,,,,,
,,605824a5c79c7e261e281cc5,2024-01-06_02h43.00.023,kallum_motion_pilot,2023.2.3,Win32,59.52380952,605824a5c79c7e261e281cc5,6598e6a5d84f07970b831e70,6598e724b14ee5c28bf479cb,0.0515,0.0515,1,105,267,87,1,eightseven,,,,,,,,,,,,,,,,,,,,,,,,,,,,,,,,,,,,,,,,,,,,,,,,,,,,,,,,,,,,,,,,,,,,,,,,,,,,,,,,,,,,,,,,,,,,,,,,,,,,,,,,,,,,,,,,,,,,,,,,,,,,,,,,,,,,,,,
,,605824a5c79c7e261e281cc5,2024-01-06_02h43.00.023,kallum_motion_pilot,2023.2.3,Win32,59.52380952,605824a5c79c7e261e281cc5,6598e6a5d84f07970b831e70,6598e724b14ee5c28bf479cb,0.0516,0.0517,1,106,268,21,1,threefour,,,,,,,,,,,,,,,,,,,,,,,,,,,,,,,,,,,,,,,,,,,,,,,,,,,,,,,,,,,,,,,,,,,,,,,,,,,,,,,,,,,,,,,,,,,,,,,,,,,,,,,,,,,,,,,,,,,,,,,,,,,,,,,,,,,,,,,
,,605824a5c79c7e261e281cc5,2024-01-06_02h43.00.023,kallum_motion_pilot,2023.2.3,Win32,59.52380952,605824a5c79c7e261e281cc5,6598e6a5d84f07970b831e70,6598e724b14ee5c28bf479cb,0.0517,0.0518,1,107,269,26,1,twoone,,,,,,,,,,,,,,,,,,,,,,,,,,,,,,,,,,,,,,,,,,,,,,,,,,,,,,,,,,,,,,,,,,,,,,,,,,,,,,,,,,,,,,,,,,,,,,,,,,,,,,,,,,,,,,,,,,,,,,,,,,,,,,,,,,,,,,,
,,605824a5c79c7e261e281cc5,2024-01-06_02h43.00.023,kallum_motion_pilot,2023.2.3,Win32,59.52380952,605824a5c79c7e261e281cc5,6598e6a5d84f07970b831e70,6598e724b14ee5c28bf479cb,0.0518,0.052,1,108,270,36,1,threeone,,,,,,,,,,,,,,,,,,,,,,,,,,,,,,,,,,,,,,,,,,,,,,,,,,,,,,,,,,,,,,,,,,,,,,,,,,,,,,,,,,,,,,,,,,,,,,,,,,,,,,,,,,,,,,,,,,,,,,,,,,,,,,,,,,,,,,,
,,605824a5c79c7e261e281cc5,2024-01-06_02h43.00.023,kallum_motion_pilot,2023.2.3,Win32,59.52380952,605824a5c79c7e261e281cc5,6598e6a5d84f07970b831e70,6598e724b14ee5c28bf479cb,0.052,0.0521,1,109,271,76,1,threeone,,,,,,,,,,,,,,,,,,,,,,,,,,,,,,,,,,,,,,,,,,,,,,,,,,,,,,,,,,,,,,,,,,,,,,,,,,,,,,,,,,,,,,,,,,,,,,,,,,,,,,,,,,,,,,,,,,,,,,,,,,,,,,,,,,,,,,,
,,605824a5c79c7e261e281cc5,2024-01-06_02h43.00.023,kallum_motion_pilot,2023.2.3,Win32,59.52380952,605824a5c79c7e261e281cc5,6598e6a5d84f07970b831e70,6598e724b14ee5c28bf479cb,0.0522,0.0522,1,110,272,31,1,fourthree,,,,,,,,,,,,,,,,,,,,,,,,,,,,,,,,,,,,,,,,,,,,,,,,,,,,,,,,,,,,,,,,,,,,,,,,,,,,,,,,,,,,,,,,,,,,,,,,,,,,,,,,,,,,,,,,,,,,,,,,,,,,,,,,,,,,,,,
,,605824a5c79c7e261e281cc5,2024-01-06_02h43.00.023,kallum_motion_pilot,2023.2.3,Win32,59.52380952,605824a5c79c7e261e281cc5,6598e6a5d84f07970b831e70,6598e724b14ee5c28bf479cb,0.0523,0.0523,1,111,273,78,1,fourtwo,,,,,,,,,,,,,,,,,,,,,,,,,,,,,,,,,,,,,,,,,,,,,,,,,,,,,,,,,,,,,,,,,,,,,,,,,,,,,,,,,,,,,,,,,,,,,,,,,,,,,,,,,,,,,,,,,,,,,,,,,,,,,,,,,,,,,,,
,,605824a5c79c7e261e281cc5,2024-01-06_02h43.00.023,kallum_motion_pilot,2023.2.3,Win32,59.52380952,605824a5c79c7e261e281cc5,6598e6a5d84f07970b831e70,6598e724b14ee5c28bf479cb,0.0524,0.0525,1,112,274,7,1,fourthree,,,,,,,,,,,,,,,,,,,,,,,,,,,,,,,,,,,,,,,,,,,,,,,,,,,,,,,,,,,,,,,,,,,,,,,,,,,,,,,,,,,,,,,,,,,,,,,,,,,,,,,,,,,,,,,,,,,,,,,,,,,,,,,,,,,,,,,
,,605824a5c79c7e261e281cc5,2024-01-06_02h43.00.023,kallum_motion_pilot,2023.2.3,Win32,59.52380952,605824a5c79c7e261e281cc5,6598e6a5d84f07970b831e70,6598e724b14ee5c28bf479cb,0.0525,0.0527,1,113,275,143,1,eightseven,,,,,,,,,,,,,,,,,,,,,,,,,,,,,,,,,,,,,,,,,,,,,,,,,,,,,,,,,,,,,,,,,,,,,,,,,,,,,,,,,,,,,,,,,,,,,,,,,,,,,,,,,,,,,,,,,,,,,,,,,,,,,,,,,,,,,,,
,,605824a5c79c7e261e281cc5,2024-01-06_02h43.00.023,kallum_motion_pilot,2023.2.3,Win32,59.52380952,605824a5c79c7e261e281cc5,6598e6a5d84f07970b831e70,6598e724b14ee5c28bf479cb,0.0527,0.0527,1,114,276,41,1,onethree,,,,,,,,,,,,,,,,,,,,,,,,,,,,,,,,,,,,,,,,,,,,,,,,,,,,,,,,,,,,,,,,,,,,,,,,,,,,,,,,,,,,,,,,,,,,,,,,,,,,,,,,,,,,,,,,,,,,,,,,,,,,,,,,,,,,,,,
,,605824a5c79c7e261e281cc5,2024-01-06_02h43.00.023,kallum_motion_pilot,2023.2.3,Win32,59.52380952,605824a5c79c7e261e281cc5,6598e6a5d84f07970b831e70,6598e724b14ee5c28bf479cb,0.0528,0.0529,1,115,277,132,1,sevenfive,,,,,,,,,,,,,,,,,,,,,,,,,,,,,,,,,,,,,,,,,,,,,,,,,,,,,,,,,,,,,,,,,,,,,,,,,,,,,,,,,,,,,,,,,,,,,,,,,,,,,,,,,,,,,,,,,,,,,,,,,,,,,,,,,,,,,,,
,,605824a5c79c7e261e281cc5,2024-01-06_02h43.00.023,kallum_motion_pilot,2023.2.3,Win32,59.52380952,605824a5c79c7e261e281cc5,6598e6a5d84f07970b831e70,6598e724b14ee5c28bf479cb,0.0529,0.0531,1,116,278,70,1,fourtwo,,,,,,,,,,,,,,,,,,,,,,,,,,,,,,,,,,,,,,,,,,,,,,,,,,,,,,,,,,,,,,,,,,,,,,,,,,,,,,,,,,,,,,,,,,,,,,,,,,,,,,,,,,,,,,,,,,,,,,,,,,,,,,,,,,,,,,,
,,605824a5c79c7e261e281cc5,2024-01-06_02h43.00.023,kallum_motion_pilot,2023.2.3,Win32,59.52380952,605824a5c79c7e261e281cc5,6598e6a5d84f07970b831e70,6598e724b14ee5c28bf479cb,0.0531,0.0532,1,117,279,111,1,eightseven,,,,,,,,,,,,,,,,,,,,,,,,,,,,,,,,,,,,,,,,,,,,,,,,,,,,,,,,,,,,,,,,,,,,,,,,,,,,,,,,,,,,,,,,,,,,,,,,,,,,,,,,,,,,,,,,,,,,,,,,,,,,,,,,,,,,,,,
