startup.started,startup.stopped,Prolific ID*,date,expName,psychopyVersion,OS,frameRate,PROLIFIC_PID,STUDY_ID,SESSION_ID,stimpositions.started,stimpositions.stopped,hardcoded_stimulus_positions.thisRepN,hardcoded_stimulus_positions.thisTrialN,hardcoded_stimulus_positions.thisN,hardcoded_stimulus_positions.thisIndex,hardcoded_stimulus_positions.ran,StimulusPos,stimorientation.started,stimorientation.stopped,prac_stimorientation_import_loop.thisRepN,prac_stimorientation_import_loop.thisTrialN,prac_stimorientation_import_loop.thisN,prac_stimorientation_import_loop.thisIndex,prac_stimorientation_import_loop.ran,Stimorientation,welcome_instr.started,welcome_instr.stopped,key_resp.keys,key_resp.rt,key_resp.duration,response_steppedout_1.started,response_steppedout_1.stopped,key_resp_20.keys,key_resp_20.rt,key_resp_20.duration,response_steppedout_2.started,response_steppedout_2.stopped,key_resp_19.keys,key_resp_19.rt,key_resp_19.duration,stim_response_instr.started,stim_response_instr.stopped,key_resp_15.keys,key_resp_15.rt,key_resp_15.duration,direction_instr_2.started,direction_instr_2.stopped,key_resp_9.keys,key_resp_9.rt,key_resp_9.duration,instr_prac.started,instr_prac.stopped,key_resp_10.keys,key_resp_10.rt,key_resp_10.duration,Stim1_display_prac.started,Stim1_display_prac.stopped,Ecc,Circle1_ori,Circle2_ori,response_prac.started,similarity,response_time,response_prac.stopped,mouse_5.x,mouse_5.y,mouse_5.leftButton,mouse_5.midButton,mouse_5.rightButton,mouse_5.clicked_name,responseprac_feedback.started,responseprac_feedback.stopped,summary2_prac.started,summary2_prac.stopped,mouse_6.x,mouse_6.y,mouse_6.leftButton,mouse_6.midButton,mouse_6.rightButton,mouse_6.clicked_name,duringprac.thisRepN,duringprac.thisTrialN,duringprac.thisN,duringprac.thisIndex,duringprac.ran,begin.started,begin.stopped,key_resp_22.keys,key_resp_22.rt,key_resp_22.duration,Stim1_display.started,Stim1_display.stopped,circle1_ori,circle2_ori,blank.started,blank.stopped,response.started,response.stopped,mouse.x,mouse.y,mouse.leftButton,mouse.midButton,mouse.rightButton,mouse.clicked_name,response_2.started,response_2.stopped,mouse_2.x,mouse_2.y,mouse_2.leftButton,mouse_2.midButton,mouse_2.rightButton,mouse_2.clicked_name,special_trial.started,special_trial.stopped,catch_1.started,catch_1.stopped,mouse_3.x,mouse_3.y,mouse_3.leftButton,mouse_3.midButton,mouse_3.rightButton,catchresponse,catchnumber,response_time_catch,Catch,response_sum.started,response_sum.stopped,mouse_11.x,mouse_11.y,mouse_11.leftButton,mouse_11.midButton,mouse_11.rightButton,main_trial.thisRepN,main_trial.thisTrialN,main_trial.thisN,main_trial.thisIndex,main_trial.ran,Orientationtrialno,xcircle1_ori,xcircle2_ori,flip_presentation_sequence_for_double_pass.started,flip_presentation_sequence_for_double_pass.stopped,double_pass.thisRepN,double_pass.thisTrialN,double_pass.thisN,double_pass.thisIndex,double_pass.ran,goodbye.started,goodbye.stopped,key_resp_3.keys,key_resp_3.rt,key_resp_3.duration
0.0003,0.0014,5a520774eedc3200014206b4,2024-01-06_08h17.46.001,kallum_motion_pilot,2023.2.3,Win32,59.52380952,5a520774eedc3200014206b4,6598e6a5d84f07970b831e70,6598fdf73d07928cc1890c0d,,,,,,,,,,,,,,,,,,,,,,,,,,,,,,,,,,,,,,,,,,,,,,,,,,,,,,,,,,,,,,,,,,,,,,,,,,,,,,,,,,,,,,,,,,,,,,,,,,,,,,,,,,,,,,,,,,,,,,,,,,,,,,,,,,,,,,,,,,,,,,,
,,5a520774eedc3200014206b4,2024-01-06_08h17.46.001,kallum_motion_pilot,2023.2.3,Win32,59.52380952,5a520774eedc3200014206b4,6598e6a5d84f07970b831e70,6598fdf73d07928cc1890c0d,0.0169,0.017,0,0,0,105,1,fiveseven,,,,,,,,,,,,,,,,,,,,,,,,,,,,,,,,,,,,,,,,,,,,,,,,,,,,,,,,,,,,,,,,,,,,,,,,,,,,,,,,,,,,,,,,,,,,,,,,,,,,,,,,,,,,,,,,,,,,,,,,,,,,,,,,,,,,,,,
,,5a520774eedc3200014206b4,2024-01-06_08h17.46.001,kallum_motion_pilot,2023.2.3,Win32,59.52380952,5a520774eedc3200014206b4,6598e6a5d84f07970b831e70,6598fdf73d07928cc1890c0d,0.0171,0.0171,0,1,1,3,1,twofour,,,,,,,,,,,,,,,,,,,,,,,,,,,,,,,,,,,,,,,,,,,,,,,,,,,,,,,,,,,,,,,,,,,,,,,,,,,,,,,,,,,,,,,,,,,,,,,,,,,,,,,,,,,,,,,,,,,,,,,,,,,,,,,,,,,,,,,
,,5a520774eedc3200014206b4,2024-01-06_08h17.46.001,kallum_motion_pilot,2023.2.3,Win32,59.52380952,5a520774eedc3200014206b4,6598e6a5d84f07970b831e70,6598fdf73d07928cc1890c0d,0.0172,0.0172,0,2,2,59,1,twofour,,,,,,,,,,,,,,,,,,,,,,,,,,,,,,,,,,,,,,,,,,,,,,,,,,,,,,,,,,,,,,,,,,,,,,,,,,,,,,,,,,,,,,,,,,,,,,,,,,,,,,,,,,,,,,,,,,,,,,,,,,,,,,,,,,,,,,,
,,5a520774eedc3200014206b4,2024-01-06_08h17.46.001,kallum_motion_pilot,2023.2.3,Win32,59.52380952,5a520774eedc3200014206b4,6598e6a5d84f07970b831e70,6598fdf73d07928cc1890c0d,0.0173,0.0173,0,3,3,55,1,fourthree,,,,,,,,,,,,,,,,,,,,,,,,,,,,,,,,,,,,,,,,,,,,,,,,,,,,,,,,,,,,,,,,,,,,,,,,,,,,,,,,,,,,,,,,,,,,,,,,,,,,,,,,,,,,,,,,,,,,,,,,,,,,,,,,,,,,,,,
,,5a520774eedc3200014206b4,2024-01-06_08h17.46.001,kallum_motion_pilot,2023.2.3,Win32,59.52380952,5a520774eedc3200014206b4,6598e6a5d84f07970b831e70,6598fdf73d07928cc1890c0d,0.0175,0.0175,0,4,4,38,1,fourtwo,,,,,,,,,,,,,,,,,,,,,,,,,,,,,,,,,,,,,,,,,,,,,,,,,,,,,,,,,,,,,,,,,,,,,,,,,,,,,,,,,,,,,,,,,,,,,,,,,,,,,,,,,,,,,,,,,,,,,,,,,,,,,,,,,,,,,,,
,,5a520774eedc3200014206b4,2024-01-06_08h17.46.001,kallum_motion_pilot,2023.2.3,Win32,59.52380952,5a520774eedc3200014206b4,6598e6a5d84f07970b831e70,6598fdf73d07928cc1890c0d,0.0175,0.0176,0,5,5,143,1,eightseven,,,,,,,,,,,,,,,,,,,,,,,,,,,,,,,,,,,,,,,,,,,,,,,,,,,,,,,,,,,,,,,,,,,,,,,,,,,,,,,,,,,,,,,,,,,,,,,,,,,,,,,,,,,,,,,,,,,,,,,,,,,,,,,,,,,,,,,
,,5a520774eedc3200014206b4,2024-01-06_08h17.46.001,kallum_motion_pilot,2023.2.3,Win32,59.52380952,5a520774eedc3200014206b4,6598e6a5d84f07970b831e70,6598fdf73d07928cc1890c0d,0.0176,0.0176,0,6,6,58,1,twoone,,,,,,,,,,,,,,,,,,,,,,,,,,,,,,,,,,,,,,,,,,,,,,,,,,,,,,,,,,,,,,,,,,,,,,,,,,,,,,,,,,,,,,,,,,,,,,,,,,,,,,,,,,,,,,,,,,,,,,,,,,,,,,,,,,,,,,,
,,5a520774eedc3200014206b4,2024-01-06_08h17.46.001,kallum_motion_pilot,2023.2.3,Win32,59.52380952,5a520774eedc3200014206b4,6598e6a5d84f07970b831e70,6598fdf73d07928cc1890c0d,0.0177,0.0177,0,7,7,78,1,fourtwo,,,,,,,,,,,,,,,,,,,,,,,,,,,,,,,,,,,,,,,,,,,,,,,,,,,,,,,,,,,,,,,,,,,,,,,,,,,,,,,,,,,,,,,,,,,,,,,,,,,,,,,,,,,,,,,,,,,,,,,,,,,,,,,,,,,,,,,
,,5a520774eedc3200014206b4,2024-01-06_08h17.46.001,kallum_motion_pilot,2023.2.3,Win32,59.52380952,5a520774eedc3200014206b4,6598e6a5d84f07970b831e70,6598fdf73d07928cc1890c0d,0.0178,0.0178,0,8,8,161,1,fiveseven,,,,,,,,,,,,,,,,,,,,,,,,,,,,,,,,,,,,,,,,,,,,,,,,,,,,,,,,,,,,,,,,,,,,,,,,,,,,,,,,,,,,,,,,,,,,,,,,,,,,,,,,,,,,,,,,,,,,,,,,,,,,,,,,,,,,,,,
,,5a520774eedc3200014206b4,2024-01-06_08h17.46.001,kallum_motion_pilot,2023.2.3,Win32,59.52380952,5a520774eedc3200014206b4,6598e6a5d84f07970b831e70,6598fdf73d07928cc1890c0d,0.0178,0.0178,0,9,9,83,1,sixeight,,,,,,,,,,,,,,,,,,,,,,,,,,,,,,,,,,,,,,,,,,,,,,,,,,,,,,,,,,,,,,,,,,,,,,,,,,,,,,,,,,,,,,,,,,,,,,,,,,,,,,,,,,,,,,,,,,,,,,,,,,,,,,,,,,,,,,,
,,5a520774eedc3200014206b4,2024-01-06_08h17.46.001,kallum_motion_pilot,2023.2.3,Win32,59.52380952,5a520774eedc3200014206b4,6598e6a5d84f07970b831e70,6598fdf73d07928cc1890c0d,0.0179,0.0179,0,10,10,74,1,twoone,,,,,,,,,,,,,,,,,,,,,,,,,,,,,,,,,,,,,,,,,,,,,,,,,,,,,,,,,,,,,,,,,,,,,,,,,,,,,,,,,,,,,,,,,,,,,,,,,,,,,,,,,,,,,,,,,,,,,,,,,,,,,,,,,,,,,,,
,,5a520774eedc3200014206b4,2024-01-06_08h17.46.001,kallum_motion_pilot,2023.2.3,Win32,59.52380952,5a520774eedc3200014206b4,6598e6a5d84f07970b831e70,6598fdf73d07928cc1890c0d,0.018,0.018,0,11,11,93,1,seveneight,,,,,,,,,,,,,,,,,,,,,,,,,,,,,,,,,,,,,,,,,,,,,,,,,,,,,,,,,,,,,,,,,,,,,,,,,,,,,,,,,,,,,,,,,,,,,,,,,,,,,,,,,,,,,,,,,,,,,,,,,,,,,,,,,,,,,,,
,,5a520774eedc3200014206b4,2024-01-06_08h17.46.001,kallum_motion_pilot,2023.2.3,Win32,59.52380952,5a520774eedc3200014206b4,6598e6a5d84f07970b831e70,6598fdf73d07928cc1890c0d,0.018,0.018,0,12,12,77,1,threefour,,,,,,,,,,,,,,,,,,,,,,,,,,,,,,,,,,,,,,,,,,,,,,,,,,,,,,,,,,,,,,,,,,,,,,,,,,,,,,,,,,,,,,,,,,,,,,,,,,,,,,,,,,,,,,,,,,,,,,,,,,,,,,,,,,,,,,,
,,5a520774eedc3200014206b4,2024-01-06_08h17.46.001,kallum_motion_pilot,2023.2.3,Win32,59.52380952,5a520774eedc3200014206b4,6598e6a5d84f07970b831e70,6598fdf73d07928cc1890c0d,0.0181,0.0181,0,13,13,121,1,fiveseven,,,,,,,,,,,,,,,,,,,,,,,,,,,,,,,,,,,,,,,,,,,,,,,,,,,,,,,,,,,,,,,,,,,,,,,,,,,,,,,,,,,,,,,,,,,,,,,,,,,,,,,,,,,,,,,,,,,,,,,,,,,,,,,,,,,,,,,
,,5a520774eedc3200014206b4,2024-01-06_08h17.46.001,kallum_motion_pilot,2023.2.3,Win32,59.52380952,5a520774eedc3200014206b4,6598e6a5d84f07970b831e70,6598fdf73d07928cc1890c0d,0.0181,0.0182,0,14,14,27,1,twofour,,,,,,,,,,,,,,,,,,,,,,,,,,,,,,,,,,,,,,,,,,,,,,,,,,,,,,,,,,,,,,,,,,,,,,,,,,,,,,,,,,,,,,,,,,,,,,,,,,,,,,,,,,,,,,,,,,,,,,,,,,,,,,,,,,,,,,,
,,5a520774eedc3200014206b4,2024-01-06_08h17.46.001,kallum_motion_pilot,2023.2.3,Win32,59.52380952,5a520774eedc3200014206b4,6598e6a5d84f07970b831e70,6598fdf73d07928cc1890c0d,0.0182,0.0182,0,15,15,49,1,onethree,,,,,,,,,,,,,,,,,,,,,,,,,,,,,,,,,,,,,,,,,,,,,,,,,,,,,,,,,,,,,,,,,,,,,,,,,,,,,,,,,,,,,,,,,,,,,,,,,,,,,,,,,,,,,,,,,,,,,,,,,,,,,,,,,,,,,,,
,,5a520774eedc3200014206b4,2024-01-06_08h17.46.001,kallum_motion_pilot,2023.2.3,Win32,59.52380952,5a520774eedc3200014206b4,6598e6a5d84f07970b831e70,6598fdf73d07928cc1890c0d,0.0183,0.0183,0,16,16,98,1,sixfive,,,,,,,,,,,,,,,,,,,,,,,,,,,,,,,,,,,,,,,,,,,,,,,,,,,,,,,,,,,,,,,,,,,,,,,,,,,,,,,,,,,,,,,,,,,,,,,,,,,,,,,,,,,,,,,,,,,,,,,,,,,,,,,,,,,,,,,
,,5a520774eedc3200014206b4,2024-01-06_08h17.46.001,kallum_motion_pilot,2023.2.3,Win32,59.52380952,5a520774eedc3200014206b4,6598e6a5d84f07970b831e70,6598fdf73d07928cc1890c0d,0.0183,0.0183,0,17,17,64,1,onetwo,,,,,,,,,,,,,,,,,,,,,,,,,,,,,,,,,,,,,,,,,,,,,,,,,,,,,,,,,,,,,,,,,,,,,,,,,,,,,,,,,,,,,,,,,,,,,,,,,,,,,,,,,,,,,,,,,,,,,,,,,,,,,,,,,,,,,,,
,,5a520774eedc3200014206b4,2024-01-06_08h17.46.001,kallum_motion_pilot,2023.2.3,Win32,59.52380952,5a520774eedc3200014206b4,6598e6a5d84f07970b831e70,6598fdf73d07928cc1890c0d,0.0183,0.0183,0,18,18,62,1,fourtwo,,,,,,,,,,,,,,,,,,,,,,,,,,,,,,,,,,,,,,,,,,,,,,,,,,,,,,,,,,,,,,,,,,,,,,,,,,,,,,,,,,,,,,,,,,,,,,,,,,,,,,,,,,,,,,,,,,,,,,,,,,,,,,,,,,,,,,,
,,5a520774eedc3200014206b4,2024-01-06_08h17.46.001,kallum_motion_pilot,2023.2.3,Win32,59.52380952,5a520774eedc3200014206b4,6598e6a5d84f07970b831e70,6598fdf73d07928cc1890c0d,0.0184,0.0184,0,19,19,16,1,onetwo,,,,,,,,,,,,,,,,,,,,,,,,,,,,,,,,,,,,,,,,,,,,,,,,,,,,,,,,,,,,,,,,,,,,,,,,,,,,,,,,,,,,,,,,,,,,,,,,,,,,,,,,,,,,,,,,,,,,,,,,,,,,,,,,,,,,,,,
,,5a520774eedc3200014206b4,2024-01-06_08h17.46.001,kallum_motion_pilot,2023.2.3,Win32,59.52380952,5a520774eedc3200014206b4,6598e6a5d84f07970b831e70,6598fdf73d07928cc1890c0d,0.0185,0.0185,0,20,20,126,1,eightsix,,,,,,,,,,,,,,,,,,,,,,,,,,,,,,,,,,,,,,,,,,,,,,,,,,,,,,,,,,,,,,,,,,,,,,,,,,,,,,,,,,,,,,,,,,,,,,,,,,,,,,,,,,,,,,,,,,,,,,,,,,,,,,,,,,,,,,,
,,5a520774eedc3200014206b4,2024-01-06_08h17.46.001,kallum_motion_pilot,2023.2.3,Win32,59.52380952,5a520774eedc3200014206b4,6598e6a5d84f07970b831e70,6598fdf73d07928cc1890c0d,0.0185,0.0185,0,21,21,12,1,threeone,,,,,,,,,,,,,,,,,,,,,,,,,,,,,,,,,,,,,,,,,,,,,,,,,,,,,,,,,,,,,,,,,,,,,,,,,,,,,,,,,,,,,,,,,,,,,,,,,,,,,,,,,,,,,,,,,,,,,,,,,,,,,,,,,,,,,,,
,,5a520774eedc3200014206b4,2024-01-06_08h17.46.001,kallum_motion_pilot,2023.2.3,Win32,59.52380952,5a520774eedc3200014206b4,6598e6a5d84f07970b831e70,6598fdf73d07928cc1890c0d,0.0186,0.0186,0,22,22,129,1,fiveseven,,,,,,,,,,,,,,,,,,,,,,,,,,,,,,,,,,,,,,,,,,,,,,,,,,,,,,,,,,,,,,,,,,,,,,,,,,,,,,,,,,,,,,,,,,,,,,,,,,,,,,,,,,,,,,,,,,,,,,,,,,,,,,,,,,,,,,,
,,5a520774eedc3200014206b4,2024-01-06_08h17.46.001,kallum_motion_pilot,2023.2.3,Win32,59.52380952,5a520774eedc3200014206b4,6598e6a5d84f07970b831e70,6598fdf73d07928cc1890c0d,0.0186,0.0186,0,23,23,37,1,threefour,,,,,,,,,,,,,,,,,,,,,,,,,,,,,,,,,,,,,,,,,,,,,,,,,,,,,,,,,,,,,,,,,,,,,,,,,,,,,,,,,,,,,,,,,,,,,,,,,,,,,,,,,,,,,,,,,,,,,,,,,,,,,,,,,,,,,,,
,,5a520774eedc3200014206b4,2024-01-06_08h17.46.001,kallum_motion_pilot,2023.2.3,Win32,59.52380952,5a520774eedc3200014206b4,6598e6a5d84f07970b831e70,6598fdf73d07928cc1890c0d,0.0187,0.0187,0,24,24,28,1,threeone,,,,,,,,,,,,,,,,,,,,,,,,,,,,,,,,,,,,,,,,,,,,,,,,,,,,,,,,,,,,,,,,,,,,,,,,,,,,,,,,,,,,,,,,,,,,,,,,,,,,,,,,,,,,,,,,,,,,,,,,,,,,,,,,,,,,,,,
,,5a520774eedc3200014206b4,2024-01-06_08h17.46.001,kallum_motion_pilot,2023.2.3,Win32,59.52380952,5a520774eedc3200014206b4,6598e6a5d84f07970b831e70,6598fdf73d07928cc1890c0d,0.0187,0.0187,0,25,25,6,1,fourtwo,,,,,,,,,,,,,,,,,,,,,,,,,,,,,,,,,,,,,,,,,,,,,,,,,,,,,,,,,,,,,,,,,,,,,,,,,,,,,,,,,,,,,,,,,,,,,,,,,,,,,,,,,,,,,,,,,,,,,,,,,,,,,,,,,,,,,,,
,,5a520774eedc3200014206b4,2024-01-06_08h17.46.001,kallum_motion_pilot,2023.2.3,Win32,59.52380952,5a520774eedc3200014206b4,6598e6a5d84f07970b831e70,6598fdf73d07928cc1890c0d,0.0189,0.0189,0,26,26,91,1,sixeight,,,,,,,,,,,,,,,,,,,,,,,,,,,,,,,,,,,,,,,,,,,,,,,,,,,,,,,,,,,,,,,,,,,,,,,,,,,,,,,,,,,,,,,,,,,,,,,,,,,,,,,,,,,,,,,,,,,,,,,,,,,,,,,,,,,,,,,
,,5a520774eedc3200014206b4,2024-01-06_08h17.46.001,kallum_motion_pilot,2023.2.3,Win32,59.52380952,5a520774eedc3200014206b4,6598e6a5d84f07970b831e70,6598fdf73d07928cc1890c0d,0.0189,0.0189,0,27,27,46,1,fourtwo,,,,,,,,,,,,,,,,,,,,,,,,,,,,,,,,,,,,,,,,,,,,,,,,,,,,,,,,,,,,,,,,,,,,,,,,,,,,,,,,,,,,,,,,,,,,,,,,,,,,,,,,,,,,,,,,,,,,,,,,,,,,,,,,,,,,,,,
,,5a520774eedc3200014206b4,2024-01-06_08h17.46.001,kallum_motion_pilot,2023.2.3,Win32,59.52380952,5a520774eedc3200014206b4,6598e6a5d84f07970b831e70,6598fdf73d07928cc1890c0d,0.019,0.019,0,28,28,10,1,twoone,,,,,,,,,,,,,,,,,,,,,,,,,,,,,,,,,,,,,,,,,,,,,,,,,,,,,,,,,,,,,,,,,,,,,,,,,,,,,,,,,,,,,,,,,,,,,,,,,,,,,,,,,,,,,,,,,,,,,,,,,,,,,,,,,,,,,,,
,,5a520774eedc3200014206b4,2024-01-06_08h17.46.001,kallum_motion_pilot,2023.2.3,Win32,59.52380952,5a520774eedc3200014206b4,6598e6a5d84f07970b831e70,6598fdf73d07928cc1890c0d,0.019,0.019,0,29,29,140,1,sevenfive,,,,,,,,,,,,,,,,,,,,,,,,,,,,,,,,,,,,,,,,,,,,,,,,,,,,,,,,,,,,,,,,,,,,,,,,,,,,,,,,,,,,,,,,,,,,,,,,,,,,,,,,,,,,,,,,,,,,,,,,,,,,,,,,,,,,,,,
,,5a520774eedc3200014206b4,2024-01-06_08h17.46.001,kallum_motion_pilot,2023.2.3,Win32,59.52380952,5a520774eedc3200014206b4,6598e6a5d84f07970b831e70,6598fdf73d07928cc1890c0d,0.0191,0.0191,0,30,30,20,1,threeone,,,,,,,,,,,,,,,,,,,,,,,,,,,,,,,,,,,,,,,,,,,,,,,,,,,,,,,,,,,,,,,,,,,,,,,,,,,,,,,,,,,,,,,,,,,,,,,,,,,,,,,,,,,,,,,,,,,,,,,,,,,,,,,,,,,,,,,
,,5a520774eedc3200014206b4,2024-01-06_08h17.46.001,kallum_motion_pilot,2023.2.3,Win32,59.52380952,5a520774eedc3200014206b4,6598e6a5d84f07970b831e70,6598fdf73d07928cc1890c0d,0.0191,0.0191,0,31,31,157,1,seveneight,,,,,,,,,,,,,,,,,,,,,,,,,,,,,,,,,,,,,,,,,,,,,,,,,,,,,,,,,,,,,,,,,,,,,,,,,,,,,,,,,,,,,,,,,,,,,,,,,,,,,,,,,,,,,,,,,,,,,,,,,,,,,,,,,,,,,,,
,,5a520774eedc3200014206b4,2024-01-06_08h17.46.001,kallum_motion_pilot,2023.2.3,Win32,59.52380952,5a520774eedc3200014206b4,6598e6a5d84f07970b831e70,6598fdf73d07928cc1890c0d,0.0192,0.0192,0,32,32,56,1,onetwo,,,,,,,,,,,,,,,,,,,,,,,,,,,,,,,,,,,,,,,,,,,,,,,,,,,,,,,,,,,,,,,,,,,,,,,,,,,,,,,,,,,,,,,,,,,,,,,,,,,,,,,,,,,,,,,,,,,,,,,,,,,,,,,,,,,,,,,
,,5a520774eedc3200014206b4,2024-01-06_08h17.46.001,kallum_motion_pilot,2023.2.3,Win32,59.52380952,5a520774eedc3200014206b4,6598e6a5d84f07970b831e70,6598fdf73d07928cc1890c0d,0.0193,0.0193,0,33,33,158,1,eightsix,,,,,,,,,,,,,,,,,,,,,,,,,,,,,,,,,,,,,,,,,,,,,,,,,,,,,,,,,,,,,,,,,,,,,,,,,,,,,,,,,,,,,,,,,,,,,,,,,,,,,,,,,,,,,,,,,,,,,,,,,,,,,,,,,,,,,,,
,,5a520774eedc3200014206b4,2024-01-06_08h17.46.001,kallum_motion_pilot,2023.2.3,Win32,59.52380952,5a520774eedc3200014206b4,6598e6a5d84f07970b831e70,6598fdf73d07928cc1890c0d,0.0193,0.0193,0,34,34,72,1,onetwo,,,,,,,,,,,,,,,,,,,,,,,,,,,,,,,,,,,,,,,,,,,,,,,,,,,,,,,,,,,,,,,,,,,,,,,,,,,,,,,,,,,,,,,,,,,,,,,,,,,,,,,,,,,,,,,,,,,,,,,,,,,,,,,,,,,,,,,
,,5a520774eedc3200014206b4,2024-01-06_08h17.46.001,kallum_motion_pilot,2023.2.3,Win32,59.52380952,5a520774eedc3200014206b4,6598e6a5d84f07970b831e70,6598fdf73d07928cc1890c0d,0.0193,0.0193,0,35,35,51,1,twofour,,,,,,,,,,,,,,,,,,,,,,,,,,,,,,,,,,,,,,,,,,,,,,,,,,,,,,,,,,,,,,,,,,,,,,,,,,,,,,,,,,,,,,,,,,,,,,,,,,,,,,,,,,,,,,,,,,,,,,,,,,,,,,,,,,,,,,,
,,5a520774eedc3200014206b4,2024-01-06_08h17.46.001,kallum_motion_pilot,2023.2.3,Win32,59.52380952,5a520774eedc3200014206b4,6598e6a5d84f07970b831e70,6598fdf73d07928cc1890c0d,0.0194,0.0195,0,36,36,43,1,twofour,,,,,,,,,,,,,,,,,,,,,,,,,,,,,,,,,,,,,,,,,,,,,,,,,,,,,,,,,,,,,,,,,,,,,,,,,,,,,,,,,,,,,,,,,,,,,,,,,,,,,,,,,,,,,,,,,,,,,,,,,,,,,,,,,,,,,,,
,,5a520774eedc3200014206b4,2024-01-06_08h17.46.001,kallum_motion_pilot,2023.2.3,Win32,59.52380952,5a520774eedc3200014206b4,6598e6a5d84f07970b831e70,6598fdf73d07928cc1890c0d,0.0195,0.0195,0,37,37,25,1,onethree,,,,,,,,,,,,,,,,,,,,,,,,,,,,,,,,,,,,,,,,,,,,,,,,,,,,,,,,,,,,,,,,,,,,,,,,,,,,,,,,,,,,,,,,,,,,,,,,,,,,,,,,,,,,,,,,,,,,,,,,,,,,,,,,,,,,,,,
,,5a520774eedc3200014206b4,2024-01-06_08h17.46.001,kallum_motion_pilot,2023.2.3,Win32,59.52380952,5a520774eedc3200014206b4,6598e6a5d84f07970b831e70,6598fdf73d07928cc1890c0d,0.0195,0.0195,0,38,38,145,1,fiveseven,,,,,,,,,,,,,,,,,,,,,,,,,,,,,,,,,,,,,,,,,,,,,,,,,,,,,,,,,,,,,,,,,,,,,,,,,,,,,,,,,,,,,,,,,,,,,,,,,,,,,,,,,,,,,,,,,,,,,,,,,,,,,,,,,,,,,,,
,,5a520774eedc3200014206b4,2024-01-06_08h17.46.001,kallum_motion_pilot,2023.2.3,Win32,59.52380952,5a520774eedc3200014206b4,6598e6a5d84f07970b831e70,6598fdf73d07928cc1890c0d,0.0196,0.0196,0,39,39,147,1,sixeight,,,,,,,,,,,,,,,,,,,,,,,,,,,,,,,,,,,,,,,,,,,,,,,,,,,,,,,,,,,,,,,,,,,,,,,,,,,,,,,,,,,,,,,,,,,,,,,,,,,,,,,,,,,,,,,,,,,,,,,,,,,,,,,,,,,,,,,
,,5a520774eedc3200014206b4,2024-01-06_08h17.46.001,kallum_motion_pilot,2023.2.3,Win32,59.52380952,5a520774eedc3200014206b4,6598e6a5d84f07970b831e70,6598fdf73d07928cc1890c0d,0.0196,0.0196,0,40,40,79,1,eightseven,,,,,,,,,,,,,,,,,,,,,,,,,,,,,,,,,,,,,,,,,,,,,,,,,,,,,,,,,,,,,,,,,,,,,,,,,,,,,,,,,,,,,,,,,,,,,,,,,,,,,,,,,,,,,,,,,,,,,,,,,,,,,,,,,,,,,,,
,,5a520774eedc3200014206b4,2024-01-06_08h17.46.001,kallum_motion_pilot,2023.2.3,Win32,59.52380952,5a520774eedc3200014206b4,6598e6a5d84f07970b831e70,6598fdf73d07928cc1890c0d,0.0197,0.0197,0,41,41,130,1,sixfive,,,,,,,,,,,,,,,,,,,,,,,,,,,,,,,,,,,,,,,,,,,,,,,,,,,,,,,,,,,,,,,,,,,,,,,,,,,,,,,,,,,,,,,,,,,,,,,,,,,,,,,,,,,,,,,,,,,,,,,,,,,,,,,,,,,,,,,
,,5a520774eedc3200014206b4,2024-01-06_08h17.46.001,kallum_motion_pilot,2023.2.3,Win32,59.52380952,5a520774eedc3200014206b4,6598e6a5d84f07970b831e70,6598fdf73d07928cc1890c0d,0.0198,0.0198,0,42,42,5,1,threefour,,,,,,,,,,,,,,,,,,,,,,,,,,,,,,,,,,,,,,,,,,,,,,,,,,,,,,,,,,,,,,,,,,,,,,,,,,,,,,,,,,,,,,,,,,,,,,,,,,,,,,,,,,,,,,,,,,,,,,,,,,,,,,,,,,,,,,,
,,5a520774eedc3200014206b4,2024-01-06_08h17.46.001,kallum_motion_pilot,2023.2.3,Win32,59.52380952,5a520774eedc3200014206b4,6598e6a5d84f07970b831e70,6598fdf73d07928cc1890c0d,0.0198,0.0198,0,43,43,108,1,sevenfive,,,,,,,,,,,,,,,,,,,,,,,,,,,,,,,,,,,,,,,,,,,,,,,,,,,,,,,,,,,,,,,,,,,,,,,,,,,,,,,,,,,,,,,,,,,,,,,,,,,,,,,,,,,,,,,,,,,,,,,,,,,,,,,,,,,,,,,
,,5a520774eedc3200014206b4,2024-01-06_08h17.46.001,kallum_motion_pilot,2023.2.3,Win32,59.52380952,5a520774eedc3200014206b4,6598e6a5d84f07970b831e70,6598fdf73d07928cc1890c0d,0.0198,0.0199,0,44,44,1,1,onethree,,,,,,,,,,,,,,,,,,,,,,,,,,,,,,,,,,,,,,,,,,,,,,,,,,,,,,,,,,,,,,,,,,,,,,,,,,,,,,,,,,,,,,,,,,,,,,,,,,,,,,,,,,,,,,,,,,,,,,,,,,,,,,,,,,,,,,,
,,5a520774eedc3200014206b4,2024-01-06_08h17.46.001,kallum_motion_pilot,2023.2.3,Win32,59.52380952,5a520774eedc3200014206b4,6598e6a5d84f07970b831e70,6598fdf73d07928cc1890c0d,0.02,0.02,0,45,45,116,1,sevenfive,,,,,,,,,,,,,,,,,,,,,,,,,,,,,,,,,,,,,,,,,,,,,,,,,,,,,,,,,,,,,,,,,,,,,,,,,,,,,,,,,,,,,,,,,,,,,,,,,,,,,,,,,,,,,,,,,,,,,,,,,,,,,,,,,,,,,,,
,,5a520774eedc3200014206b4,2024-01-06_08h17.46.001,kallum_motion_pilot,2023.2.3,Win32,59.52380952,5a520774eedc3200014206b4,6598e6a5d84f07970b831e70,6598fdf73d07928cc1890c0d,0.0201,0.0201,0,46,46,84,1,sevenfive,,,,,,,,,,,,,,,,,,,,,,,,,,,,,,,,,,,,,,,,,,,,,,,,,,,,,,,,,,,,,,,,,,,,,,,,,,,,,,,,,,,,,,,,,,,,,,,,,,,,,,,,,,,,,,,,,,,,,,,,,,,,,,,,,,,,,,,
,,5a520774eedc3200014206b4,2024-01-06_08h17.46.001,kallum_motion_pilot,2023.2.3,Win32,59.52380952,5a520774eedc3200014206b4,6598e6a5d84f07970b831e70,6598fdf73d07928cc1890c0d,0.0201,0.0201,0,47,47,154,1,sixfive,,,,,,,,,,,,,,,,,,,,,,,,,,,,,,,,,,,,,,,,,,,,,,,,,,,,,,,,,,,,,,,,,,,,,,,,,,,,,,,,,,,,,,,,,,,,,,,,,,,,,,,,,,,,,,,,,,,,,,,,,,,,,,,,,,,,,,,
,,5a520774eedc3200014206b4,2024-01-06_08h17.46.001,kallum_motion_pilot,2023.2.3,Win32,59.52380952,5a520774eedc3200014206b4,6598e6a5d84f07970b831e70,6598fdf73d07928cc1890c0d,0.0201,0.0202,0,48,48,103,1,eightseven,,,,,,,,,,,,,,,,,,,,,,,,,,,,,,,,,,,,,,,,,,,,,,,,,,,,,,,,,,,,,,,,,,,,,,,,,,,,,,,,,,,,,,,,,,,,,,,,,,,,,,,,,,,,,,,,,,,,,,,,,,,,,,,,,,,,,,,
,,5a520774eedc3200014206b4,2024-01-06_08h17.46.001,kallum_motion_pilot,2023.2.3,Win32,59.52380952,5a520774eedc3200014206b4,6598e6a5d84f07970b831e70,6598fdf73d07928cc1890c0d,0.0202,0.0202,0,49,49,13,1,threefour,,,,,,,,,,,,,,,,,,,,,,,,,,,,,,,,,,,,,,,,,,,,,,,,,,,,,,,,,,,,,,,,,,,,,,,,,,,,,,,,,,,,,,,,,,,,,,,,,,,,,,,,,,,,,,,,,,,,,,,,,,,,,,,,,,,,,,,
,,5a520774eedc3200014206b4,2024-01-06_08h17.46.001,kallum_motion_pilot,2023.2.3,Win32,59.52380952,5a520774eedc3200014206b4,6598e6a5d84f07970b831e70,6598fdf73d07928cc1890c0d,0.0202,0.0203,0,50,50,66,1,twoone,,,,,,,,,,,,,,,,,,,,,,,,,,,,,,,,,,,,,,,,,,,,,,,,,,,,,,,,,,,,,,,,,,,,,,,,,,,,,,,,,,,,,,,,,,,,,,,,,,,,,,,,,,,,,,,,,,,,,,,,,,,,,,,,,,,,,,,
,,5a520774eedc3200014206b4,2024-01-06_08h17.46.001,kallum_motion_pilot,2023.2.3,Win32,59.52380952,5a520774eedc3200014206b4,6598e6a5d84f07970b831e70,6598fdf73d07928cc1890c0d,0.0203,0.0204,0,51,51,85,1,seveneight,,,,,,,,,,,,,,,,,,,,,,,,,,,,,,,,,,,,,,,,,,,,,,,,,,,,,,,,,,,,,,,,,,,,,,,,,,,,,,,,,,,,,,,,,,,,,,,,,,,,,,,,,,,,,,,,,,,,,,,,,,,,,,,,,,,,,,,
,,5a520774eedc3200014206b4,2024-01-06_08h17.46.001,kallum_motion_pilot,2023.2.3,Win32,59.52380952,5a520774eedc3200014206b4,6598e6a5d84f07970b831e70,6598fdf73d07928cc1890c0d,0.0204,0.0204,0,52,52,88,1,fivesix,,,,,,,,,,,,,,,,,,,,,,,,,,,,,,,,,,,,,,,,,,,,,,,,,,,,,,,,,,,,,,,,,,,,,,,,,,,,,,,,,,,,,,,,,,,,,,,,,,,,,,,,,,,,,,,,,,,,,,,,,,,,,,,,,,,,,,,
,,5a520774eedc3200014206b4,2024-01-06_08h17.46.001,kallum_motion_pilot,2023.2.3,Win32,59.52380952,5a520774eedc3200014206b4,6598e6a5d84f07970b831e70,6598fdf73d07928cc1890c0d,0.0205,0.0205,0,53,53,18,1,twoone,,,,,,,,,,,,,,,,,,,,,,,,,,,,,,,,,,,,,,,,,,,,,,,,,,,,,,,,,,,,,,,,,,,,,,,,,,,,,,,,,,,,,,,,,,,,,,,,,,,,,,,,,,,,,,,,,,,,,,,,,,,,,,,,,,,,,,,
,,5a520774eedc3200014206b4,2024-01-06_08h17.46.001,kallum_motion_pilot,2023.2.3,Win32,59.52380952,5a520774eedc3200014206b4,6598e6a5d84f07970b831e70,6598fdf73d07928cc1890c0d,0.0205,0.0205,0,54,54,131,1,sixeight,,,,,,,,,,,,,,,,,,,,,,,,,,,,,,,,,,,,,,,,,,,,,,,,,,,,,,,,,,,,,,,,,,,,,,,,,,,,,,,,,,,,,,,,,,,,,,,,,,,,,,,,,,,,,,,,,,,,,,,,,,,,,,,,,,,,,,,
,,5a520774eedc3200014206b4,2024-01-06_08h17.46.001,kallum_motion_pilot,2023.2.3,Win32,59.52380952,5a520774eedc3200014206b4,6598e6a5d84f07970b831e70,6598fdf73d07928cc1890c0d,0.0206,0.0206,0,55,55,97,1,fiveseven,,,,,,,,,,,,,,,,,,,,,,,,,,,,,,,,,,,,,,,,,,,,,,,,,,,,,,,,,,,,,,,,,,,,,,,,,,,,,,,,,,,,,,,,,,,,,,,,,,,,,,,,,,,,,,,,,,,,,,,,,,,,,,,,,,,,,,,
,,5a520774eedc3200014206b4,2024-01-06_08h17.46.001,kallum_motion_pilot,2023.2.3,Win32,59.52380952,5a520774eedc3200014206b4,6598e6a5d84f07970b831e70,6598fdf73d07928cc1890c0d,0.0207,0.0207,0,56,56,96,1,fivesix,,,,,,,,,,,,,,,,,,,,,,,,,,,,,,,,,,,,,,,,,,,,,,,,,,,,,,,,,,,,,,,,,,,,,,,,,,,,,,,,,,,,,,,,,,,,,,,,,,,,,,,,,,,,,,,,,,,,,,,,,,,,,,,,,,,,,,,
,,5a520774eedc3200014206b4,2024-01-06_08h17.46.001,kallum_motion_pilot,2023.2.3,Win32,59.52380952,5a520774eedc3200014206b4,6598e6a5d84f07970b831e70,6598fdf73d07928cc1890c0d,0.0207,0.0208,0,57,57,26,1,twoone,,,,,,,,,,,,,,,,,,,,,,,,,,,,,,,,,,,,,,,,,,,,,,,,,,,,,,,,,,,,,,,,,,,,,,,,,,,,,,,,,,,,,,,,,,,,,,,,,,,,,,,,,,,,,,,,,,,,,,,,,,,,,,,,,,,,,,,
,,5a520774eedc3200014206b4,2024-01-06_08h17.46.001,kallum_motion_pilot,2023.2.3,Win32,59.52380952,5a520774eedc3200014206b4,6598e6a5d84f07970b831e70,6598fdf73d07928cc1890c0d,0.0208,0.0209,0,58,58,24,1,onetwo,,,,,,,,,,,,,,,,,,,,,,,,,,,,,,,,,,,,,,,,,,,,,,,,,,,,,,,,,,,,,,,,,,,,,,,,,,,,,,,,,,,,,,,,,,,,,,,,,,,,,,,,,,,,,,,,,,,,,,,,,,,,,,,,,,,,,,,
,,5a520774eedc3200014206b4,2024-01-06_08h17.46.001,kallum_motion_pilot,2023.2.3,Win32,59.52380952,5a520774eedc3200014206b4,6598e6a5d84f07970b831e70,6598fdf73d07928cc1890c0d,0.0209,0.0209,0,59,59,50,1,twoone,,,,,,,,,,,,,,,,,,,,,,,,,,,,,,,,,,,,,,,,,,,,,,,,,,,,,,,,,,,,,,,,,,,,,,,,,,,,,,,,,,,,,,,,,,,,,,,,,,,,,,,,,,,,,,,,,,,,,,,,,,,,,,,,,,,,,,,
,,5a520774eedc3200014206b4,2024-01-06_08h17.46.001,kallum_motion_pilot,2023.2.3,Win32,59.52380952,5a520774eedc3200014206b4,6598e6a5d84f07970b831e70,6598fdf73d07928cc1890c0d,0.0209,0.021,0,60,60,120,1,fivesix,,,,,,,,,,,,,,,,,,,,,,,,,,,,,,,,,,,,,,,,,,,,,,,,,,,,,,,,,,,,,,,,,,,,,,,,,,,,,,,,,,,,,,,,,,,,,,,,,,,,,,,,,,,,,,,,,,,,,,,,,,,,,,,,,,,,,,,
,,5a520774eedc3200014206b4,2024-01-06_08h17.46.001,kallum_motion_pilot,2023.2.3,Win32,59.52380952,5a520774eedc3200014206b4,6598e6a5d84f07970b831e70,6598fdf73d07928cc1890c0d,0.0211,0.0211,0,61,61,21,1,threefour,,,,,,,,,,,,,,,,,,,,,,,,,,,,,,,,,,,,,,,,,,,,,,,,,,,,,,,,,,,,,,,,,,,,,,,,,,,,,,,,,,,,,,,,,,,,,,,,,,,,,,,,,,,,,,,,,,,,,,,,,,,,,,,,,,,,,,,
,,5a520774eedc3200014206b4,2024-01-06_08h17.46.001,kallum_motion_pilot,2023.2.3,Win32,59.52380952,5a520774eedc3200014206b4,6598e6a5d84f07970b831e70,6598fdf73d07928cc1890c0d,0.0211,0.0211,0,62,62,135,1,eightseven,,,,,,,,,,,,,,,,,,,,,,,,,,,,,,,,,,,,,,,,,,,,,,,,,,,,,,,,,,,,,,,,,,,,,,,,,,,,,,,,,,,,,,,,,,,,,,,,,,,,,,,,,,,,,,,,,,,,,,,,,,,,,,,,,,,,,,,
,,5a520774eedc3200014206b4,2024-01-06_08h17.46.001,kallum_motion_pilot,2023.2.3,Win32,59.52380952,5a520774eedc3200014206b4,6598e6a5d84f07970b831e70,6598fdf73d07928cc1890c0d,0.0212,0.0212,0,63,63,152,1,fivesix,,,,,,,,,,,,,,,,,,,,,,,,,,,,,,,,,,,,,,,,,,,,,,,,,,,,,,,,,,,,,,,,,,,,,,,,,,,,,,,,,,,,,,,,,,,,,,,,,,,,,,,,,,,,,,,,,,,,,,,,,,,,,,,,,,,,,,,
,,5a520774eedc3200014206b4,2024-01-06_08h17.46.001,kallum_motion_pilot,2023.2.3,Win32,59.52380952,5a520774eedc3200014206b4,6598e6a5d84f07970b831e70,6598fdf73d07928cc1890c0d,0.0308,0.0308,0,64,64,118,1,eightsix,,,,,,,,,,,,,,,,,,,,,,,,,,,,,,,,,,,,,,,,,,,,,,,,,,,,,,,,,,,,,,,,,,,,,,,,,,,,,,,,,,,,,,,,,,,,,,,,,,,,,,,,,,,,,,,,,,,,,,,,,,,,,,,,,,,,,,,
,,5a520774eedc3200014206b4,2024-01-06_08h17.46.001,kallum_motion_pilot,2023.2.3,Win32,59.52380952,5a520774eedc3200014206b4,6598e6a5d84f07970b831e70,6598fdf73d07928cc1890c0d,0.0311,0.0311,0,65,65,15,1,fourthree,,,,,,,,,,,,,,,,,,,,,,,,,,,,,,,,,,,,,,,,,,,,,,,,,,,,,,,,,,,,,,,,,,,,,,,,,,,,,,,,,,,,,,,,,,,,,,,,,,,,,,,,,,,,,,,,,,,,,,,,,,,,,,,,,,,,,,,
,,5a520774eedc3200014206b4,2024-01-06_08h17.46.001,kallum_motion_pilot,2023.2.3,Win32,59.52380952,5a520774eedc3200014206b4,6598e6a5d84f07970b831e70,6598fdf73d07928cc1890c0d,0.0311,0.0313,0,66,66,82,1,sixfive,,,,,,,,,,,,,,,,,,,,,,,,,,,,,,,,,,,,,,,,,,,,,,,,,,,,,,,,,,,,,,,,,,,,,,,,,,,,,,,,,,,,,,,,,,,,,,,,,,,,,,,,,,,,,,,,,,,,,,,,,,,,,,,,,,,,,,,
,,5a520774eedc3200014206b4,2024-01-06_08h17.46.001,kallum_motion_pilot,2023.2.3,Win32,59.52380952,5a520774eedc3200014206b4,6598e6a5d84f07970b831e70,6598fdf73d07928cc1890c0d,0.0313,0.0313,0,67,67,17,1,onethree,,,,,,,,,,,,,,,,,,,,,,,,,,,,,,,,,,,,,,,,,,,,,,,,,,,,,,,,,,,,,,,,,,,,,,,,,,,,,,,,,,,,,,,,,,,,,,,,,,,,,,,,,,,,,,,,,,,,,,,,,,,,,,,,,,,,,,,
,,5a520774eedc3200014206b4,2024-01-06_08h17.46.001,kallum_motion_pilot,2023.2.3,Win32,59.52380952,5a520774eedc3200014206b4,6598e6a5d84f07970b831e70,6598fdf73d07928cc1890c0d,0.0314,0.0314,0,68,68,80,1,fivesix,,,,,,,,,,,,,,,,,,,,,,,,,,,,,,,,,,,,,,,,,,,,,,,,,,,,,,,,,,,,,,,,,,,,,,,,,,,,,,,,,,,,,,,,,,,,,,,,,,,,,,,,,,,,,,,,,,,,,,,,,,,,,,,,,,,,,,,
,,5a520774eedc3200014206b4,2024-01-06_08h17.46.001,kallum_motion_pilot,2023.2.3,Win32,59.52380952,5a520774eedc3200014206b4,6598e6a5d84f07970b831e70,6598fdf73d07928cc1890c0d,0.0315,0.0315,0,69,69,155,1,sixeight,,,,,,,,,,,,,,,,,,,,,,,,,,,,,,,,,,,,,,,,,,,,,,,,,,,,,,,,,,,,,,,,,,,,,,,,,,,,,,,,,,,,,,,,,,,,,,,,,,,,,,,,,,,,,,,,,,,,,,,,,,,,,,,,,,,,,,,
,,5a520774eedc3200014206b4,2024-01-06_08h17.46.001,kallum_motion_pilot,2023.2.3,Win32,59.52380952,5a520774eedc3200014206b4,6598e6a5d84f07970b831e70,6598fdf73d07928cc1890c0d,0.0316,0.0316,0,70,70,73,1,onethree,,,,,,,,,,,,,,,,,,,,,,,,,,,,,,,,,,,,,,,,,,,,,,,,,,,,,,,,,,,,,,,,,,,,,,,,,,,,,,,,,,,,,,,,,,,,,,,,,,,,,,,,,,,,,,,,,,,,,,,,,,,,,,,,,,,,,,,
,,5a520774eedc3200014206b4,2024-01-06_08h17.46.001,kallum_motion_pilot,2023.2.3,Win32,59.52380952,5a520774eedc3200014206b4,6598e6a5d84f07970b831e70,6598fdf73d07928cc1890c0d,0.0317,0.0317,0,71,71,128,1,fivesix,,,,,,,,,,,,,,,,,,,,,,,,,,,,,,,,,,,,,,,,,,,,,,,,,,,,,,,,,,,,,,,,,,,,,,,,,,,,,,,,,,,,,,,,,,,,,,,,,,,,,,,,,,,,,,,,,,,,,,,,,,,,,,,,,,,,,,,
,,5a520774eedc3200014206b4,2024-01-06_08h17.46.001,kallum_motion_pilot,2023.2.3,Win32,59.52380952,5a520774eedc3200014206b4,6598e6a5d84f07970b831e70,6598fdf73d07928cc1890c0d,0.0317,0.0317,0,72,72,119,1,eightseven,,,,,,,,,,,,,,,,,,,,,,,,,,,,,,,,,,,,,,,,,,,,,,,,,,,,,,,,,,,,,,,,,,,,,,,,,,,,,,,,,,,,,,,,,,,,,,,,,,,,,,,,,,,,,,,,,,,,,,,,,,,,,,,,,,,,,,,
,,5a520774eedc3200014206b4,2024-01-06_08h17.46.001,kallum_motion_pilot,2023.2.3,Win32,59.52380952,5a520774eedc3200014206b4,6598e6a5d84f07970b831e70,6598fdf73d07928cc1890c0d,0.0318,0.0318,0,73,73,2,1,twoone,,,,,,,,,,,,,,,,,,,,,,,,,,,,,,,,,,,,,,,,,,,,,,,,,,,,,,,,,,,,,,,,,,,,,,,,,,,,,,,,,,,,,,,,,,,,,,,,,,,,,,,,,,,,,,,,,,,,,,,,,,,,,,,,,,,,,,,
,,5a520774eedc3200014206b4,2024-01-06_08h17.46.001,kallum_motion_pilot,2023.2.3,Win32,59.52380952,5a520774eedc3200014206b4,6598e6a5d84f07970b831e70,6598fdf73d07928cc1890c0d,0.0319,0.0319,0,74,74,139,1,sixeight,,,,,,,,,,,,,,,,,,,,,,,,,,,,,,,,,,,,,,,,,,,,,,,,,,,,,,,,,,,,,,,,,,,,,,,,,,,,,,,,,,,,,,,,,,,,,,,,,,,,,,,,,,,,,,,,,,,,,,,,,,,,,,,,,,,,,,,
,,5a520774eedc3200014206b4,2024-01-06_08h17.46.001,kallum_motion_pilot,2023.2.3,Win32,59.52380952,5a520774eedc3200014206b4,6598e6a5d84f07970b831e70,6598fdf73d07928cc1890c0d,0.0319,0.032,0,75,75,112,1,fivesix,,,,,,,,,,,,,,,,,,,,,,,,,,,,,,,,,,,,,,,,,,,,,,,,,,,,,,,,,,,,,,,,,,,,,,,,,,,,,,,,,,,,,,,,,,,,,,,,,,,,,,,,,,,,,,,,,,,,,,,,,,,,,,,,,,,,,,,
,,5a520774eedc3200014206b4,2024-01-06_08h17.46.001,kallum_motion_pilot,2023.2.3,Win32,59.52380952,5a520774eedc3200014206b4,6598e6a5d84f07970b831e70,6598fdf73d07928cc1890c0d,0.0321,0.0321,0,76,76,75,1,twofour,,,,,,,,,,,,,,,,,,,,,,,,,,,,,,,,,,,,,,,,,,,,,,,,,,,,,,,,,,,,,,,,,,,,,,,,,,,,,,,,,,,,,,,,,,,,,,,,,,,,,,,,,,,,,,,,,,,,,,,,,,,,,,,,,,,,,,,
,,5a520774eedc3200014206b4,2024-01-06_08h17.46.001,kallum_motion_pilot,2023.2.3,Win32,59.52380952,5a520774eedc3200014206b4,6598e6a5d84f07970b831e70,6598fdf73d07928cc1890c0d,0.0321,0.0322,0,77,77,11,1,twofour,,,,,,,,,,,,,,,,,,,,,,,,,,,,,,,,,,,,,,,,,,,,,,,,,,,,,,,,,,,,,,,,,,,,,,,,,,,,,,,,,,,,,,,,,,,,,,,,,,,,,,,,,,,,,,,,,,,,,,,,,,,,,,,,,,,,,,,
,,5a520774eedc3200014206b4,2024-01-06_08h17.46.001,kallum_motion_pilot,2023.2.3,Win32,59.52380952,5a520774eedc3200014206b4,6598e6a5d84f07970b831e70,6598fdf73d07928cc1890c0d,0.0322,0.0322,0,78,78,30,1,fourtwo,,,,,,,,,,,,,,,,,,,,,,,,,,,,,,,,,,,,,,,,,,,,,,,,,,,,,,,,,,,,,,,,,,,,,,,,,,,,,,,,,,,,,,,,,,,,,,,,,,,,,,,,,,,,,,,,,,,,,,,,,,,,,,,,,,,,,,,
,,5a520774eedc3200014206b4,2024-01-06_08h17.46.001,kallum_motion_pilot,2023.2.3,Win32,59.52380952,5a520774eedc3200014206b4,6598e6a5d84f07970b831e70,6598fdf73d07928cc1890c0d,0.0322,0.0324,0,79,79,22,1,fourtwo,,,,,,,,,,,,,,,,,,,,,,,,,,,,,,,,,,,,,,,,,,,,,,,,,,,,,,,,,,,,,,,,,,,,,,,,,,,,,,,,,,,,,,,,,,,,,,,,,,,,,,,,,,,,,,,,,,,,,,,,,,,,,,,,,,,,,,,
,,5a520774eedc3200014206b4,2024-01-06_08h17.46.001,kallum_motion_pilot,2023.2.3,Win32,59.52380952,5a520774eedc3200014206b4,6598e6a5d84f07970b831e70,6598fdf73d07928cc1890c0d,0.0324,0.0324,0,80,80,123,1,sixeight,,,,,,,,,,,,,,,,,,,,,,,,,,,,,,,,,,,,,,,,,,,,,,,,,,,,,,,,,,,,,,,,,,,,,,,,,,,,,,,,,,,,,,,,,,,,,,,,,,,,,,,,,,,,,,,,,,,,,,,,,,,,,,,,,,,,,,,
,,5a520774eedc3200014206b4,2024-01-06_08h17.46.001,kallum_motion_pilot,2023.2.3,Win32,59.52380952,5a520774eedc3200014206b4,6598e6a5d84f07970b831e70,6598fdf73d07928cc1890c0d,0.0324,0.0324,0,81,81,41,1,onethree,,,,,,,,,,,,,,,,,,,,,,,,,,,,,,,,,,,,,,,,,,,,,,,,,,,,,,,,,,,,,,,,,,,,,,,,,,,,,,,,,,,,,,,,,,,,,,,,,,,,,,,,,,,,,,,,,,,,,,,,,,,,,,,,,,,,,,,
,,5a520774eedc3200014206b4,2024-01-06_08h17.46.001,kallum_motion_pilot,2023.2.3,Win32,59.52380952,5a520774eedc3200014206b4,6598e6a5d84f07970b831e70,6598fdf73d07928cc1890c0d,0.0325,0.0325,0,82,82,134,1,eightsix,,,,,,,,,,,,,,,,,,,,,,,,,,,,,,,,,,,,,,,,,,,,,,,,,,,,,,,,,,,,,,,,,,,,,,,,,,,,,,,,,,,,,,,,,,,,,,,,,,,,,,,,,,,,,,,,,,,,,,,,,,,,,,,,,,,,,,,
,,5a520774eedc3200014206b4,2024-01-06_08h17.46.001,kallum_motion_pilot,2023.2.3,Win32,59.52380952,5a520774eedc3200014206b4,6598e6a5d84f07970b831e70,6598fdf73d07928cc1890c0d,0.0326,0.0326,0,83,83,53,1,threefour,,,,,,,,,,,,,,,,,,,,,,,,,,,,,,,,,,,,,,,,,,,,,,,,,,,,,,,,,,,,,,,,,,,,,,,,,,,,,,,,,,,,,,,,,,,,,,,,,,,,,,,,,,,,,,,,,,,,,,,,,,,,,,,,,,,,,,,
,,5a520774eedc3200014206b4,2024-01-06_08h17.46.001,kallum_motion_pilot,2023.2.3,Win32,59.52380952,5a520774eedc3200014206b4,6598e6a5d84f07970b831e70,6598fdf73d07928cc1890c0d,0.0326,0.0327,0,84,84,68,1,threeone,,,,,,,,,,,,,,,,,,,,,,,,,,,,,,,,,,,,,,,,,,,,,,,,,,,,,,,,,,,,,,,,,,,,,,,,,,,,,,,,,,,,,,,,,,,,,,,,,,,,,,,,,,,,,,,,,,,,,,,,,,,,,,,,,,,,,,,
,,5a520774eedc3200014206b4,2024-01-06_08h17.46.001,kallum_motion_pilot,2023.2.3,Win32,59.52380952,5a520774eedc3200014206b4,6598e6a5d84f07970b831e70,6598fdf73d07928cc1890c0d,0.0327,0.0327,0,85,85,76,1,threeone,,,,,,,,,,,,,,,,,,,,,,,,,,,,,,,,,,,,,,,,,,,,,,,,,,,,,,,,,,,,,,,,,,,,,,,,,,,,,,,,,,,,,,,,,,,,,,,,,,,,,,,,,,,,,,,,,,,,,,,,,,,,,,,,,,,,,,,
,,5a520774eedc3200014206b4,2024-01-06_08h17.46.001,kallum_motion_pilot,2023.2.3,Win32,59.52380952,5a520774eedc3200014206b4,6598e6a5d84f07970b831e70,6598fdf73d07928cc1890c0d,0.0328,0.0328,0,86,86,4,1,threeone,,,,,,,,,,,,,,,,,,,,,,,,,,,,,,,,,,,,,,,,,,,,,,,,,,,,,,,,,,,,,,,,,,,,,,,,,,,,,,,,,,,,,,,,,,,,,,,,,,,,,,,,,,,,,,,,,,,,,,,,,,,,,,,,,,,,,,,
,,5a520774eedc3200014206b4,2024-01-06_08h17.46.001,kallum_motion_pilot,2023.2.3,Win32,59.52380952,5a520774eedc3200014206b4,6598e6a5d84f07970b831e70,6598fdf73d07928cc1890c0d,0.0329,0.0329,0,87,87,19,1,twofour,,,,,,,,,,,,,,,,,,,,,,,,,,,,,,,,,,,,,,,,,,,,,,,,,,,,,,,,,,,,,,,,,,,,,,,,,,,,,,,,,,,,,,,,,,,,,,,,,,,,,,,,,,,,,,,,,,,,,,,,,,,,,,,,,,,,,,,
,,5a520774eedc3200014206b4,2024-01-06_08h17.46.001,kallum_motion_pilot,2023.2.3,Win32,59.52380952,5a520774eedc3200014206b4,6598e6a5d84f07970b831e70,6598fdf73d07928cc1890c0d,0.0329,0.0329,0,88,88,111,1,eightseven,,,,,,,,,,,,,,,,,,,,,,,,,,,,,,,,,,,,,,,,,,,,,,,,,,,,,,,,,,,,,,,,,,,,,,,,,,,,,,,,,,,,,,,,,,,,,,,,,,,,,,,,,,,,,,,,,,,,,,,,,,,,,,,,,,,,,,,
,,5a520774eedc3200014206b4,2024-01-06_08h17.46.001,kallum_motion_pilot,2023.2.3,Win32,59.52380952,5a520774eedc3200014206b4,6598e6a5d84f07970b831e70,6598fdf73d07928cc1890c0d,0.033,0.033,0,89,89,144,1,fivesix,,,,,,,,,,,,,,,,,,,,,,,,,,,,,,,,,,,,,,,,,,,,,,,,,,,,,,,,,,,,,,,,,,,,,,,,,,,,,,,,,,,,,,,,,,,,,,,,,,,,,,,,,,,,,,,,,,,,,,,,,,,,,,,,,,,,,,,
,,5a520774eedc3200014206b4,2024-01-06_08h17.46.001,kallum_motion_pilot,2023.2.3,Win32,59.52380952,5a520774eedc3200014206b4,6598e6a5d84f07970b831e70,6598fdf73d07928cc1890c0d,0.0331,0.0331,0,90,90,34,1,twoone,,,,,,,,,,,,,,,,,,,,,,,,,,,,,,,,,,,,,,,,,,,,,,,,,,,,,,,,,,,,,,,,,,,,,,,,,,,,,,,,,,,,,,,,,,,,,,,,,,,,,,,,,,,,,,,,,,,,,,,,,,,,,,,,,,,,,,,
,,5a520774eedc3200014206b4,2024-01-06_08h17.46.001,kallum_motion_pilot,2023.2.3,Win32,59.52380952,5a520774eedc3200014206b4,6598e6a5d84f07970b831e70,6598fdf73d07928cc1890c0d,0.0332,0.0332,0,91,91,141,1,seveneight,,,,,,,,,,,,,,,,,,,,,,,,,,,,,,,,,,,,,,,,,,,,,,,,,,,,,,,,,,,,,,,,,,,,,,,,,,,,,,,,,,,,,,,,,,,,,,,,,,,,,,,,,,,,,,,,,,,,,,,,,,,,,,,,,,,,,,,
,,5a520774eedc3200014206b4,2024-01-06_08h17.46.001,kallum_motion_pilot,2023.2.3,Win32,59.52380952,5a520774eedc3200014206b4,6598e6a5d84f07970b831e70,6598fdf73d07928cc1890c0d,0.0332,0.0333,0,92,92,137,1,fiveseven,,,,,,,,,,,,,,,,,,,,,,,,,,,,,,,,,,,,,,,,,,,,,,,,,,,,,,,,,,,,,,,,,,,,,,,,,,,,,,,,,,,,,,,,,,,,,,,,,,,,,,,,,,,,,,,,,,,,,,,,,,,,,,,,,,,,,,,
,,5a520774eedc3200014206b4,2024-01-06_08h17.46.001,kallum_motion_pilot,2023.2.3,Win32,59.52380952,5a520774eedc3200014206b4,6598e6a5d84f07970b831e70,6598fdf73d07928cc1890c0d,0.0333,0.0334,0,93,93,31,1,fourthree,,,,,,,,,,,,,,,,,,,,,,,,,,,,,,,,,,,,,,,,,,,,,,,,,,,,,,,,,,,,,,,,,,,,,,,,,,,,,,,,,,,,,,,,,,,,,,,,,,,,,,,,,,,,,,,,,,,,,,,,,,,,,,,,,,,,,,,
,,5a520774eedc3200014206b4,2024-01-06_08h17.46.001,kallum_motion_pilot,2023.2.3,Win32,59.52380952,5a520774eedc3200014206b4,6598e6a5d84f07970b831e70,6598fdf73d07928cc1890c0d,0.0335,0.0335,0,94,94,95,1,eightseven,,,,,,,,,,,,,,,,,,,,,,,,,,,,,,,,,,,,,,,,,,,,,,,,,,,,,,,,,,,,,,,,,,,,,,,,,,,,,,,,,,,,,,,,,,,,,,,,,,,,,,,,,,,,,,,,,,,,,,,,,,,,,,,,,,,,,,,
,,5a520774eedc3200014206b4,2024-01-06_08h17.46.001,kallum_motion_pilot,2023.2.3,Win32,59.52380952,5a520774eedc3200014206b4,6598e6a5d84f07970b831e70,6598fdf73d07928cc1890c0d,0.0335,0.0335,0,95,95,156,1,sevenfive,,,,,,,,,,,,,,,,,,,,,,,,,,,,,,,,,,,,,,,,,,,,,,,,,,,,,,,,,,,,,,,,,,,,,,,,,,,,,,,,,,,,,,,,,,,,,,,,,,,,,,,,,,,,,,,,,,,,,,,,,,,,,,,,,,,,,,,
,,5a520774eedc3200014206b4,2024-01-06_08h17.46.001,kallum_motion_pilot,2023.2.3,Win32,59.52380952,5a520774eedc3200014206b4,6598e6a5d84f07970b831e70,6598fdf73d07928cc1890c0d,0.0336,0.0336,0,96,96,109,1,seveneight,,,,,,,,,,,,,,,,,,,,,,,,,,,,,,,,,,,,,,,,,,,,,,,,,,,,,,,,,,,,,,,,,,,,,,,,,,,,,,,,,,,,,,,,,,,,,,,,,,,,,,,,,,,,,,,,,,,,,,,,,,,,,,,,,,,,,,,
,,5a520774eedc3200014206b4,2024-01-06_08h17.46.001,kallum_motion_pilot,2023.2.3,Win32,59.52380952,5a520774eedc3200014206b4,6598e6a5d84f07970b831e70,6598fdf73d07928cc1890c0d,0.0403,0.0404,0,97,97,14,1,fourtwo,,,,,,,,,,,,,,,,,,,,,,,,,,,,,,,,,,,,,,,,,,,,,,,,,,,,,,,,,,,,,,,,,,,,,,,,,,,,,,,,,,,,,,,,,,,,,,,,,,,,,,,,,,,,,,,,,,,,,,,,,,,,,,,,,,,,,,,
,,5a520774eedc3200014206b4,2024-01-06_08h17.46.001,kallum_motion_pilot,2023.2.3,Win32,59.52380952,5a520774eedc3200014206b4,6598e6a5d84f07970b831e70,6598fdf73d07928cc1890c0d,0.0405,0.0405,0,98,98,29,1,threefour,,,,,,,,,,,,,,,,,,,,,,,,,,,,,,,,,,,,,,,,,,,,,,,,,,,,,,,,,,,,,,,,,,,,,,,,,,,,,,,,,,,,,,,,,,,,,,,,,,,,,,,,,,,,,,,,,,,,,,,,,,,,,,,,,,,,,,,
,,5a520774eedc3200014206b4,2024-01-06_08h17.46.001,kallum_motion_pilot,2023.2.3,Win32,59.52380952,5a520774eedc3200014206b4,6598e6a5d84f07970b831e70,6598fdf73d07928cc1890c0d,0.0406,0.0406,0,99,99,40,1,onetwo,,,,,,,,,,,,,,,,,,,,,,,,,,,,,,,,,,,,,,,,,,,,,,,,,,,,,,,,,,,,,,,,,,,,,,,,,,,,,,,,,,,,,,,,,,,,,,,,,,,,,,,,,,,,,,,,,,,,,,,,,,,,,,,,,,,,,,,
,,5a520774eedc3200014206b4,2024-01-06_08h17.46.001,kallum_motion_pilot,2023.2.3,Win32,59.52380952,5a520774eedc3200014206b4,6598e6a5d84f07970b831e70,6598fdf73d07928cc1890c0d,0.0407,0.0408,0,100,100,151,1,eightseven,,,,,,,,,,,,,,,,,,,,,,,,,,,,,,,,,,,,,,,,,,,,,,,,,,,,,,,,,,,,,,,,,,,,,,,,,,,,,,,,,,,,,,,,,,,,,,,,,,,,,,,,,,,,,,,,,,,,,,,,,,,,,,,,,,,,,,,
,,5a520774eedc3200014206b4,2024-01-06_08h17.46.001,kallum_motion_pilot,2023.2.3,Win32,59.52380952,5a520774eedc3200014206b4,6598e6a5d84f07970b831e70,6598fdf73d07928cc1890c0d,0.0408,0.0408,0,101,101,106,1,sixfive,,,,,,,,,,,,,,,,,,,,,,,,,,,,,,,,,,,,,,,,,,,,,,,,,,,,,,,,,,,,,,,,,,,,,,,,,,,,,,,,,,,,,,,,,,,,,,,,,,,,,,,,,,,,,,,,,,,,,,,,,,,,,,,,,,,,,,,
,,5a520774eedc3200014206b4,2024-01-06_08h17.46.001,kallum_motion_pilot,2023.2.3,Win32,59.52380952,5a520774eedc3200014206b4,6598e6a5d84f07970b831e70,6598fdf73d07928cc1890c0d,0.0408,0.0408,0,102,102,138,1,sixfive,,,,,,,,,,,,,,,,,,,,,,,,,,,,,,,,,,,,,,,,,,,,,,,,,,,,,,,,,,,,,,,,,,,,,,,,,,,,,,,,,,,,,,,,,,,,,,,,,,,,,,,,,,,,,,,,,,,,,,,,,,,,,,,,,,,,,,,
,,5a520774eedc3200014206b4,2024-01-06_08h17.46.001,kallum_motion_pilot,2023.2.3,Win32,59.52380952,5a520774eedc3200014206b4,6598e6a5d84f07970b831e70,6598fdf73d07928cc1890c0d,0.0409,0.041,0,103,103,122,1,sixfive,,,,,,,,,,,,,,,,,,,,,,,,,,,,,,,,,,,,,,,,,,,,,,,,,,,,,,,,,,,,,,,,,,,,,,,,,,,,,,,,,,,,,,,,,,,,,,,,,,,,,,,,,,,,,,,,,,,,,,,,,,,,,,,,,,,,,,,
,,5a520774eedc3200014206b4,2024-01-06_08h17.46.001,kallum_motion_pilot,2023.2.3,Win32,59.52380952,5a520774eedc3200014206b4,6598e6a5d84f07970b831e70,6598fdf73d07928cc1890c0d,0.041,0.041,0,104,104,9,1,onethree,,,,,,,,,,,,,,,,,,,,,,,,,,,,,,,,,,,,,,,,,,,,,,,,,,,,,,,,,,,,,,,,,,,,,,,,,,,,,,,,,,,,,,,,,,,,,,,,,,,,,,,,,,,,,,,,,,,,,,,,,,,,,,,,,,,,,,,
,,5a520774eedc3200014206b4,2024-01-06_08h17.46.001,kallum_motion_pilot,2023.2.3,Win32,59.52380952,5a520774eedc3200014206b4,6598e6a5d84f07970b831e70,6598fdf73d07928cc1890c0d,0.0411,0.0411,0,105,105,117,1,seveneight,,,,,,,,,,,,,,,,,,,,,,,,,,,,,,,,,,,,,,,,,,,,,,,,,,,,,,,,,,,,,,,,,,,,,,,,,,,,,,,,,,,,,,,,,,,,,,,,,,,,,,,,,,,,,,,,,,,,,,,,,,,,,,,,,,,,,,,
,,5a520774eedc3200014206b4,2024-01-06_08h17.46.001,kallum_motion_pilot,2023.2.3,Win32,59.52380952,5a520774eedc3200014206b4,6598e6a5d84f07970b831e70,6598fdf73d07928cc1890c0d,0.0412,0.0412,0,106,106,44,1,threeone,,,,,,,,,,,,,,,,,,,,,,,,,,,,,,,,,,,,,,,,,,,,,,,,,,,,,,,,,,,,,,,,,,,,,,,,,,,,,,,,,,,,,,,,,,,,,,,,,,,,,,,,,,,,,,,,,,,,,,,,,,,,,,,,,,,,,,,
,,5a520774eedc3200014206b4,2024-01-06_08h17.46.001,kallum_motion_pilot,2023.2.3,Win32,59.52380952,5a520774eedc3200014206b4,6598e6a5d84f07970b831e70,6598fdf73d07928cc1890c0d,0.0413,0.0413,0,107,107,136,1,fivesix,,,,,,,,,,,,,,,,,,,,,,,,,,,,,,,,,,,,,,,,,,,,,,,,,,,,,,,,,,,,,,,,,,,,,,,,,,,,,,,,,,,,,,,,,,,,,,,,,,,,,,,,,,,,,,,,,,,,,,,,,,,,,,,,,,,,,,,
,,5a520774eedc3200014206b4,2024-01-06_08h17.46.001,kallum_motion_pilot,2023.2.3,Win32,59.52380952,5a520774eedc3200014206b4,6598e6a5d84f07970b831e70,6598fdf73d07928cc1890c0d,0.0413,0.0414,0,108,108,42,1,twoone,,,,,,,,,,,,,,,,,,,,,,,,,,,,,,,,,,,,,,,,,,,,,,,,,,,,,,,,,,,,,,,,,,,,,,,,,,,,,,,,,,,,,,,,,,,,,,,,,,,,,,,,,,,,,,,,,,,,,,,,,,,,,,,,,,,,,,,
,,5a520774eedc3200014206b4,2024-01-06_08h17.46.001,kallum_motion_pilot,2023.2.3,Win32,59.52380952,5a520774eedc3200014206b4,6598e6a5d84f07970b831e70,6598fdf73d07928cc1890c0d,0.0414,0.0415,0,109,109,132,1,sevenfive,,,,,,,,,,,,,,,,,,,,,,,,,,,,,,,,,,,,,,,,,,,,,,,,,,,,,,,,,,,,,,,,,,,,,,,,,,,,,,,,,,,,,,,,,,,,,,,,,,,,,,,,,,,,,,,,,,,,,,,,,,,,,,,,,,,,,,,
,,5a520774eedc3200014206b4,2024-01-06_08h17.46.001,kallum_motion_pilot,2023.2.3,Win32,59.52380952,5a520774eedc3200014206b4,6598e6a5d84f07970b831e70,6598fdf73d07928cc1890c0d,0.0415,0.0415,0,110,110,70,1,fourtwo,,,,,,,,,,,,,,,,,,,,,,,,,,,,,,,,,,,,,,,,,,,,,,,,,,,,,,,,,,,,,,,,,,,,,,,,,,,,,,,,,,,,,,,,,,,,,,,,,,,,,,,,,,,,,,,,,,,,,,,,,,,,,,,,,,,,,,,
,,5a520774eedc3200014206b4,2024-01-06_08h17.46.001,kallum_motion_pilot,2023.2.3,Win32,59.52380952,5a520774eedc3200014206b4,6598e6a5d84f07970b831e70,6598fdf73d07928cc1890c0d,0.0415,0.0416,0,111,111,33,1,onethree,,,,,,,,,,,,,,,,,,,,,,,,,,,,,,,,,,,,,,,,,,,,,,,,,,,,,,,,,,,,,,,,,,,,,,,,,,,,,,,,,,,,,,,,,,,,,,,,,,,,,,,,,,,,,,,,,,,,,,,,,,,,,,,,,,,,,,,
,,5a520774eedc3200014206b4,2024-01-06_08h17.46.001,kallum_motion_pilot,2023.2.3,Win32,59.52380952,5a520774eedc3200014206b4,6598e6a5d84f07970b831e70,6598fdf73d07928cc1890c0d,0.0417,0.0417,0,112,112,71,1,fourthree,,,,,,,,,,,,,,,,,,,,,,,,,,,,,,,,,,,,,,,,,,,,,,,,,,,,,,,,,,,,,,,,,,,,,,,,,,,,,,,,,,,,,,,,,,,,,,,,,,,,,,,,,,,,,,,,,,,,,,,,,,,,,,,,,,,,,,,
,,5a520774eedc3200014206b4,2024-01-06_08h17.46.001,kallum_motion_pilot,2023.2.3,Win32,59.52380952,5a520774eedc3200014206b4,6598e6a5d84f07970b831e70,6598fdf73d07928cc1890c0d,0.0417,0.0417,0,113,113,48,1,onetwo,,,,,,,,,,,,,,,,,,,,,,,,,,,,,,,,,,,,,,,,,,,,,,,,,,,,,,,,,,,,,,,,,,,,,,,,,,,,,,,,,,,,,,,,,,,,,,,,,,,,,,,,,,,,,,,,,,,,,,,,,,,,,,,,,,,,,,,
,,5a520774eedc3200014206b4,2024-01-06_08h17.46.001,kallum_motion_pilot,2023.2.3,Win32,59.52380952,5a520774eedc3200014206b4,6598e6a5d84f07970b831e70,6598fdf73d07928cc1890c0d,0.0418,0.0418,0,114,114,52,1,threeone,,,,,,,,,,,,,,,,,,,,,,,,,,,,,,,,,,,,,,,,,,,,,,,,,,,,,,,,,,,,,,,,,,,,,,,,,,,,,,,,,,,,,,,,,,,,,,,,,,,,,,,,,,,,,,,,,,,,,,,,,,,,,,,,,,,,,,,
,,5a520774eedc3200014206b4,2024-01-06_08h17.46.001,kallum_motion_pilot,2023.2.3,Win32,59.52380952,5a520774eedc3200014206b4,6598e6a5d84f07970b831e70,6598fdf73d07928cc1890c0d,0.0418,0.0419,0,115,115,94,1,eightsix,,,,,,,,,,,,,,,,,,,,,,,,,,,,,,,,,,,,,,,,,,,,,,,,,,,,,,,,,,,,,,,,,,,,,,,,,,,,,,,,,,,,,,,,,,,,,,,,,,,,,,,,,,,,,,,,,,,,,,,,,,,,,,,,,,,,,,,
,,5a520774eedc3200014206b4,2024-01-06_08h17.46.001,kallum_motion_pilot,2023.2.3,Win32,59.52380952,5a520774eedc3200014206b4,6598e6a5d84f07970b831e70,6598fdf73d07928cc1890c0d,0.042,0.042,0,116,116,133,1,seveneight,,,,,,,,,,,,,,,,,,,,,,,,,,,,,,,,,,,,,,,,,,,,,,,,,,,,,,,,,,,,,,,,,,,,,,,,,,,,,,,,,,,,,,,,,,,,,,,,,,,,,,,,,,,,,,,,,,,,,,,,,,,,,,,,,,,,,,,
,,5a520774eedc3200014206b4,2024-01-06_08h17.46.001,kallum_motion_pilot,2023.2.3,Win32,59.52380952,5a520774eedc3200014206b4,6598e6a5d84f07970b831e70,6598fdf73d07928cc1890c0d,0.042,0.042,0,117,117,87,1,eightseven,,,,,,,,,,,,,,,,,,,,,,,,,,,,,,,,,,,,,,,,,,,,,,,,,,,,,,,,,,,,,,,,,,,,,,,,,,,,,,,,,,,,,,,,,,,,,,,,,,,,,,,,,,,,,,,,,,,,,,,,,,,,,,,,,,,,,,,
,,5a520774eedc3200014206b4,2024-01-06_08h17.46.001,kallum_motion_pilot,2023.2.3,Win32,59.52380952,5a520774eedc3200014206b4,6598e6a5d84f07970b831e70,6598fdf73d07928cc1890c0d,0.042,0.0421,0,118,118,115,1,sixeight,,,,,,,,,,,,,,,,,,,,,,,,,,,,,,,,,,,,,,,,,,,,,,,,,,,,,,,,,,,,,,,,,,,,,,,,,,,,,,,,,,,,,,,,,,,,,,,,,,,,,,,,,,,,,,,,,,,,,,,,,,,,,,,,,,,,,,,
,,5a520774eedc3200014206b4,2024-01-06_08h17.46.001,kallum_motion_pilot,2023.2.3,Win32,59.52380952,5a520774eedc3200014206b4,6598e6a5d84f07970b831e70,6598fdf73d07928cc1890c0d,0.0422,0.0422,0,119,119,113,1,fiveseven,,,,,,,,,,,,,,,,,,,,,,,,,,,,,,,,,,,,,,,,,,,,,,,,,,,,,,,,,,,,,,,,,,,,,,,,,,,,,,,,,,,,,,,,,,,,,,,,,,,,,,,,,,,,,,,,,,,,,,,,,,,,,,,,,,,,,,,
,,5a520774eedc3200014206b4,2024-01-06_08h17.46.001,kallum_motion_pilot,2023.2.3,Win32,59.52380952,5a520774eedc3200014206b4,6598e6a5d84f07970b831e70,6598fdf73d07928cc1890c0d,0.0422,0.0423,0,120,120,107,1,sixeight,,,,,,,,,,,,,,,,,,,,,,,,,,,,,,,,,,,,,,,,,,,,,,,,,,,,,,,,,,,,,,,,,,,,,,,,,,,,,,,,,,,,,,,,,,,,,,,,,,,,,,,,,,,,,,,,,,,,,,,,,,,,,,,,,,,,,,,
,,5a520774eedc3200014206b4,2024-01-06_08h17.46.001,kallum_motion_pilot,2023.2.3,Win32,59.52380952,5a520774eedc3200014206b4,6598e6a5d84f07970b831e70,6598fdf73d07928cc1890c0d,0.0424,0.0424,0,121,121,110,1,eightsix,,,,,,,,,,,,,,,,,,,,,,,,,,,,,,,,,,,,,,,,,,,,,,,,,,,,,,,,,,,,,,,,,,,,,,,,,,,,,,,,,,,,,,,,,,,,,,,,,,,,,,,,,,,,,,,,,,,,,,,,,,,,,,,,,,,,,,,
,,5a520774eedc3200014206b4,2024-01-06_08h17.46.001,kallum_motion_pilot,2023.2.3,Win32,59.52380952,5a520774eedc3200014206b4,6598e6a5d84f07970b831e70,6598fdf73d07928cc1890c0d,0.0424,0.0424,0,122,122,81,1,fiveseven,,,,,,,,,,,,,,,,,,,,,,,,,,,,,,,,,,,,,,,,,,,,,,,,,,,,,,,,,,,,,,,,,,,,,,,,,,,,,,,,,,,,,,,,,,,,,,,,,,,,,,,,,,,,,,,,,,,,,,,,,,,,,,,,,,,,,,,
,,5a520774eedc3200014206b4,2024-01-06_08h17.46.001,kallum_motion_pilot,2023.2.3,Win32,59.52380952,5a520774eedc3200014206b4,6598e6a5d84f07970b831e70,6598fdf73d07928cc1890c0d,0.0425,0.0425,0,123,123,149,1,seveneight,,,,,,,,,,,,,,,,,,,,,,,,,,,,,,,,,,,,,,,,,,,,,,,,,,,,,,,,,,,,,,,,,,,,,,,,,,,,,,,,,,,,,,,,,,,,,,,,,,,,,,,,,,,,,,,,,,,,,,,,,,,,,,,,,,,,,,,
,,5a520774eedc3200014206b4,2024-01-06_08h17.46.001,kallum_motion_pilot,2023.2.3,Win32,59.52380952,5a520774eedc3200014206b4,6598e6a5d84f07970b831e70,6598fdf73d07928cc1890c0d,0.0426,0.0426,0,124,124,54,1,fourtwo,,,,,,,,,,,,,,,,,,,,,,,,,,,,,,,,,,,,,,,,,,,,,,,,,,,,,,,,,,,,,,,,,,,,,,,,,,,,,,,,,,,,,,,,,,,,,,,,,,,,,,,,,,,,,,,,,,,,,,,,,,,,,,,,,,,,,,,
,,5a520774eedc3200014206b4,2024-01-06_08h17.46.001,kallum_motion_pilot,2023.2.3,Win32,59.52380952,5a520774eedc3200014206b4,6598e6a5d84f07970b831e70,6598fdf73d07928cc1890c0d,0.0426,0.0427,0,125,125,89,1,fiveseven,,,,,,,,,,,,,,,,,,,,,,,,,,,,,,,,,,,,,,,,,,,,,,,,,,,,,,,,,,,,,,,,,,,,,,,,,,,,,,,,,,,,,,,,,,,,,,,,,,,,,,,,,,,,,,,,,,,,,,,,,,,,,,,,,,,,,,,
,,5a520774eedc3200014206b4,2024-01-06_08h17.46.001,kallum_motion_pilot,2023.2.3,Win32,59.52380952,5a520774eedc3200014206b4,6598e6a5d84f07970b831e70,6598fdf73d07928cc1890c0d,0.0427,0.0428,0,126,126,150,1,eightsix,,,,,,,,,,,,,,,,,,,,,,,,,,,,,,,,,,,,,,,,,,,,,,,,,,,,,,,,,,,,,,,,,,,,,,,,,,,,,,,,,,,,,,,,,,,,,,,,,,,,,,,,,,,,,,,,,,,,,,,,,,,,,,,,,,,,,,,
,,5a520774eedc3200014206b4,2024-01-06_08h17.46.001,kallum_motion_pilot,2023.2.3,Win32,59.52380952,5a520774eedc3200014206b4,6598e6a5d84f07970b831e70,6598fdf73d07928cc1890c0d,0.0428,0.0428,0,127,127,100,1,sevenfive,,,,,,,,,,,,,,,,,,,,,,,,,,,,,,,,,,,,,,,,,,,,,,,,,,,,,,,,,,,,,,,,,,,,,,,,,,,,,,,,,,,,,,,,,,,,,,,,,,,,,,,,,,,,,,,,,,,,,,,,,,,,,,,,,,,,,,,
,,5a520774eedc3200014206b4,2024-01-06_08h17.46.001,kallum_motion_pilot,2023.2.3,Win32,59.52380952,5a520774eedc3200014206b4,6598e6a5d84f07970b831e70,6598fdf73d07928cc1890c0d,0.0429,0.0429,0,128,128,57,1,onethree,,,,,,,,,,,,,,,,,,,,,,,,,,,,,,,,,,,,,,,,,,,,,,,,,,,,,,,,,,,,,,,,,,,,,,,,,,,,,,,,,,,,,,,,,,,,,,,,,,,,,,,,,,,,,,,,,,,,,,,,,,,,,,,,,,,,,,,
,,5a520774eedc3200014206b4,2024-01-06_08h17.46.001,kallum_motion_pilot,2023.2.3,Win32,59.52380952,5a520774eedc3200014206b4,6598e6a5d84f07970b831e70,6598fdf73d07928cc1890c0d,0.043,0.043,0,129,129,67,1,twofour,,,,,,,,,,,,,,,,,,,,,,,,,,,,,,,,,,,,,,,,,,,,,,,,,,,,,,,,,,,,,,,,,,,,,,,,,,,,,,,,,,,,,,,,,,,,,,,,,,,,,,,,,,,,,,,,,,,,,,,,,,,,,,,,,,,,,,,
,,5a520774eedc3200014206b4,2024-01-06_08h17.46.001,kallum_motion_pilot,2023.2.3,Win32,59.52380952,5a520774eedc3200014206b4,6598e6a5d84f07970b831e70,6598fdf73d07928cc1890c0d,0.0431,0.0431,0,130,130,114,1,sixfive,,,,,,,,,,,,,,,,,,,,,,,,,,,,,,,,,,,,,,,,,,,,,,,,,,,,,,,,,,,,,,,,,,,,,,,,,,,,,,,,,,,,,,,,,,,,,,,,,,,,,,,,,,,,,,,,,,,,,,,,,,,,,,,,,,,,,,,
,,5a520774eedc3200014206b4,2024-01-06_08h17.46.001,kallum_motion_pilot,2023.2.3,Win32,59.52380952,5a520774eedc3200014206b4,6598e6a5d84f07970b831e70,6598fdf73d07928cc1890c0d,0.0431,0.0432,0,131,131,90,1,sixfive,,,,,,,,,,,,,,,,,,,,,,,,,,,,,,,,,,,,,,,,,,,,,,,,,,,,,,,,,,,,,,,,,,,,,,,,,,,,,,,,,,,,,,,,,,,,,,,,,,,,,,,,,,,,,,,,,,,,,,,,,,,,,,,,,,,,,,,
,,5a520774eedc3200014206b4,2024-01-06_08h17.46.001,kallum_motion_pilot,2023.2.3,Win32,59.52380952,5a520774eedc3200014206b4,6598e6a5d84f07970b831e70,6598fdf73d07928cc1890c0d,0.0432,0.0432,0,132,132,63,1,fourthree,,,,,,,,,,,,,,,,,,,,,,,,,,,,,,,,,,,,,,,,,,,,,,,,,,,,,,,,,,,,,,,,,,,,,,,,,,,,,,,,,,,,,,,,,,,,,,,,,,,,,,,,,,,,,,,,,,,,,,,,,,,,,,,,,,,,,,,
,,5a520774eedc3200014206b4,2024-01-06_08h17.46.001,kallum_motion_pilot,2023.2.3,Win32,59.52380952,5a520774eedc3200014206b4,6598e6a5d84f07970b831e70,6598fdf73d07928cc1890c0d,0.0433,0.0433,0,133,133,148,1,sevenfive,,,,,,,,,,,,,,,,,,,,,,,,,,,,,,,,,,,,,,,,,,,,,,,,,,,,,,,,,,,,,,,,,,,,,,,,,,,,,,,,,,,,,,,,,,,,,,,,,,,,,,,,,,,,,,,,,,,,,,,,,,,,,,,,,,,,,,,
,,5a520774eedc3200014206b4,2024-01-06_08h17.46.001,kallum_motion_pilot,2023.2.3,Win32,59.52380952,5a520774eedc3200014206b4,6598e6a5d84f07970b831e70,6598fdf73d07928cc1890c0d,0.0434,0.0434,0,134,134,36,1,threeone,,,,,,,,,,,,,,,,,,,,,,,,,,,,,,,,,,,,,,,,,,,,,,,,,,,,,,,,,,,,,,,,,,,,,,,,,,,,,,,,,,,,,,,,,,,,,,,,,,,,,,,,,,,,,,,,,,,,,,,,,,,,,,,,,,,,,,,
,,5a520774eedc3200014206b4,2024-01-06_08h17.46.001,kallum_motion_pilot,2023.2.3,Win32,59.52380952,5a520774eedc3200014206b4,6598e6a5d84f07970b831e70,6598fdf73d07928cc1890c0d,0.0435,0.0435,0,135,135,104,1,fivesix,,,,,,,,,,,,,,,,,,,,,,,,,,,,,,,,,,,,,,,,,,,,,,,,,,,,,,,,,,,,,,,,,,,,,,,,,,,,,,,,,,,,,,,,,,,,,,,,,,,,,,,,,,,,,,,,,,,,,,,,,,,,,,,,,,,,,,,
,,5a520774eedc3200014206b4,2024-01-06_08h17.46.001,kallum_motion_pilot,2023.2.3,Win32,59.52380952,5a520774eedc3200014206b4,6598e6a5d84f07970b831e70,6598fdf73d07928cc1890c0d,0.0435,0.0435,0,136,136,153,1,fiveseven,,,,,,,,,,,,,,,,,,,,,,,,,,,,,,,,,,,,,,,,,,,,,,,,,,,,,,,,,,,,,,,,,,,,,,,,,,,,,,,,,,,,,,,,,,,,,,,,,,,,,,,,,,,,,,,,,,,,,,,,,,,,,,,,,,,,,,,
,,5a520774eedc3200014206b4,2024-01-06_08h17.46.001,kallum_motion_pilot,2023.2.3,Win32,59.52380952,5a520774eedc3200014206b4,6598e6a5d84f07970b831e70,6598fdf73d07928cc1890c0d,0.0436,0.0436,0,137,137,86,1,eightsix,,,,,,,,,,,,,,,,,,,,,,,,,,,,,,,,,,,,,,,,,,,,,,,,,,,,,,,,,,,,,,,,,,,,,,,,,,,,,,,,,,,,,,,,,,,,,,,,,,,,,,,,,,,,,,,,,,,,,,,,,,,,,,,,,,,,,,,
,,5a520774eedc3200014206b4,2024-01-06_08h17.46.001,kallum_motion_pilot,2023.2.3,Win32,59.52380952,5a520774eedc3200014206b4,6598e6a5d84f07970b831e70,6598fdf73d07928cc1890c0d,0.0437,0.0437,0,138,138,160,1,fivesix,,,,,,,,,,,,,,,,,,,,,,,,,,,,,,,,,,,,,,,,,,,,,,,,,,,,,,,,,,,,,,,,,,,,,,,,,,,,,,,,,,,,,,,,,,,,,,,,,,,,,,,,,,,,,,,,,,,,,,,,,,,,,,,,,,,,,,,
,,5a520774eedc3200014206b4,2024-01-06_08h17.46.001,kallum_motion_pilot,2023.2.3,Win32,59.52380952,5a520774eedc3200014206b4,6598e6a5d84f07970b831e70,6598fdf73d07928cc1890c0d,0.0438,0.0438,0,139,139,65,1,onethree,,,,,,,,,,,,,,,,,,,,,,,,,,,,,,,,,,,,,,,,,,,,,,,,,,,,,,,,,,,,,,,,,,,,,,,,,,,,,,,,,,,,,,,,,,,,,,,,,,,,,,,,,,,,,,,,,,,,,,,,,,,,,,,,,,,,,,,
,,5a520774eedc3200014206b4,2024-01-06_08h17.46.001,kallum_motion_pilot,2023.2.3,Win32,59.52380952,5a520774eedc3200014206b4,6598e6a5d84f07970b831e70,6598fdf73d07928cc1890c0d,0.0438,0.0439,0,140,140,23,1,fourthree,,,,,,,,,,,,,,,,,,,,,,,,,,,,,,,,,,,,,,,,,,,,,,,,,,,,,,,,,,,,,,,,,,,,,,,,,,,,,,,,,,,,,,,,,,,,,,,,,,,,,,,,,,,,,,,,,,,,,,,,,,,,,,,,,,,,,,,
,,5a520774eedc3200014206b4,2024-01-06_08h17.46.001,kallum_motion_pilot,2023.2.3,Win32,59.52380952,5a520774eedc3200014206b4,6598e6a5d84f07970b831e70,6598fdf73d07928cc1890c0d,0.0439,0.044,0,141,141,32,1,onetwo,,,,,,,,,,,,,,,,,,,,,,,,,,,,,,,,,,,,,,,,,,,,,,,,,,,,,,,,,,,,,,,,,,,,,,,,,,,,,,,,,,,,,,,,,,,,,,,,,,,,,,,,,,,,,,,,,,,,,,,,,,,,,,,,,,,,,,,
,,5a520774eedc3200014206b4,2024-01-06_08h17.46.001,kallum_motion_pilot,2023.2.3,Win32,59.52380952,5a520774eedc3200014206b4,6598e6a5d84f07970b831e70,6598fdf73d07928cc1890c0d,0.044,0.044,0,142,142,0,1,onetwo,,,,,,,,,,,,,,,,,,,,,,,,,,,,,,,,,,,,,,,,,,,,,,,,,,,,,,,,,,,,,,,,,,,,,,,,,,,,,,,,,,,,,,,,,,,,,,,,,,,,,,,,,,,,,,,,,,,,,,,,,,,,,,,,,,,,,,,
,,5a520774eedc3200014206b4,2024-01-06_08h17.46.001,kallum_motion_pilot,2023.2.3,Win32,59.52380952,5a520774eedc3200014206b4,6598e6a5d84f07970b831e70,6598fdf73d07928cc1890c0d,0.0441,0.0441,0,143,143,8,1,onetwo,,,,,,,,,,,,,,,,,,,,,,,,,,,,,,,,,,,,,,,,,,,,,,,,,,,,,,,,,,,,,,,,,,,,,,,,,,,,,,,,,,,,,,,,,,,,,,,,,,,,,,,,,,,,,,,,,,,,,,,,,,,,,,,,,,,,,,,
,,5a520774eedc3200014206b4,2024-01-06_08h17.46.001,kallum_motion_pilot,2023.2.3,Win32,59.52380952,5a520774eedc3200014206b4,6598e6a5d84f07970b831e70,6598fdf73d07928cc1890c0d,0.0442,0.0442,0,144,144,7,1,fourthree,,,,,,,,,,,,,,,,,,,,,,,,,,,,,,,,,,,,,,,,,,,,,,,,,,,,,,,,,,,,,,,,,,,,,,,,,,,,,,,,,,,,,,,,,,,,,,,,,,,,,,,,,,,,,,,,,,,,,,,,,,,,,,,,,,,,,,,
,,5a520774eedc3200014206b4,2024-01-06_08h17.46.001,kallum_motion_pilot,2023.2.3,Win32,59.52380952,5a520774eedc3200014206b4,6598e6a5d84f07970b831e70,6598fdf73d07928cc1890c0d,0.0442,0.0443,0,145,145,146,1,sixfive,,,,,,,,,,,,,,,,,,,,,,,,,,,,,,,,,,,,,,,,,,,,,,,,,,,,,,,,,,,,,,,,,,,,,,,,,,,,,,,,,,,,,,,,,,,,,,,,,,,,,,,,,,,,,,,,,,,,,,,,,,,,,,,,,,,,,,,
,,5a520774eedc3200014206b4,2024-01-06_08h17.46.001,kallum_motion_pilot,2023.2.3,Win32,59.52380952,5a520774eedc3200014206b4,6598e6a5d84f07970b831e70,6598fdf73d07928cc1890c0d,0.0443,0.0443,0,146,146,60,1,threeone,,,,,,,,,,,,,,,,,,,,,,,,,,,,,,,,,,,,,,,,,,,,,,,,,,,,,,,,,,,,,,,,,,,,,,,,,,,,,,,,,,,,,,,,,,,,,,,,,,,,,,,,,,,,,,,,,,,,,,,,,,,,,,,,,,,,,,,
,,5a520774eedc3200014206b4,2024-01-06_08h17.46.001,kallum_motion_pilot,2023.2.3,Win32,59.52380952,5a520774eedc3200014206b4,6598e6a5d84f07970b831e70,6598fdf73d07928cc1890c0d,0.0444,0.0444,0,147,147,39,1,fourthree,,,,,,,,,,,,,,,,,,,,,,,,,,,,,,,,,,,,,,,,,,,,,,,,,,,,,,,,,,,,,,,,,,,,,,,,,,,,,,,,,,,,,,,,,,,,,,,,,,,,,,,,,,,,,,,,,,,,,,,,,,,,,,,,,,,,,,,
,,5a520774eedc3200014206b4,2024-01-06_08h17.46.001,kallum_motion_pilot,2023.2.3,Win32,59.52380952,5a520774eedc3200014206b4,6598e6a5d84f07970b831e70,6598fdf73d07928cc1890c0d,0.0445,0.0445,0,148,148,101,1,seveneight,,,,,,,,,,,,,,,,,,,,,,,,,,,,,,,,,,,,,,,,,,,,,,,,,,,,,,,,,,,,,,,,,,,,,,,,,,,,,,,,,,,,,,,,,,,,,,,,,,,,,,,,,,,,,,,,,,,,,,,,,,,,,,,,,,,,,,,
,,5a520774eedc3200014206b4,2024-01-06_08h17.46.001,kallum_motion_pilot,2023.2.3,Win32,59.52380952,5a520774eedc3200014206b4,6598e6a5d84f07970b831e70,6598fdf73d07928cc1890c0d,0.0446,0.0446,0,149,149,102,1,eightsix,,,,,,,,,,,,,,,,,,,,,,,,,,,,,,,,,,,,,,,,,,,,,,,,,,,,,,,,,,,,,,,,,,,,,,,,,,,,,,,,,,,,,,,,,,,,,,,,,,,,,,,,,,,,,,,,,,,,,,,,,,,,,,,,,,,,,,,
,,5a520774eedc3200014206b4,2024-01-06_08h17.46.001,kallum_motion_pilot,2023.2.3,Win32,59.52380952,5a520774eedc3200014206b4,6598e6a5d84f07970b831e70,6598fdf73d07928cc1890c0d,0.0446,0.0447,0,150,150,92,1,sevenfive,,,,,,,,,,,,,,,,,,,,,,,,,,,,,,,,,,,,,,,,,,,,,,,,,,,,,,,,,,,,,,,,,,,,,,,,,,,,,,,,,,,,,,,,,,,,,,,,,,,,,,,,,,,,,,,,,,,,,,,,,,,,,,,,,,,,,,,
,,5a520774eedc3200014206b4,2024-01-06_08h17.46.001,kallum_motion_pilot,2023.2.3,Win32,59.52380952,5a520774eedc3200014206b4,6598e6a5d84f07970b831e70,6598fdf73d07928cc1890c0d,0.0447,0.0447,0,151,151,69,1,threefour,,,,,,,,,,,,,,,,,,,,,,,,,,,,,,,,,,,,,,,,,,,,,,,,,,,,,,,,,,,,,,,,,,,,,,,,,,,,,,,,,,,,,,,,,,,,,,,,,,,,,,,,,,,,,,,,,,,,,,,,,,,,,,,,,,,,,,,
,,5a520774eedc3200014206b4,2024-01-06_08h17.46.001,kallum_motion_pilot,2023.2.3,Win32,59.52380952,5a520774eedc3200014206b4,6598e6a5d84f07970b831e70,6598fdf73d07928cc1890c0d,0.0448,0.0448,0,152,152,47,1,fourthree,,,,,,,,,,,,,,,,,,,,,,,,,,,,,,,,,,,,,,,,,,,,,,,,,,,,,,,,,,,,,,,,,,,,,,,,,,,,,,,,,,,,,,,,,,,,,,,,,,,,,,,,,,,,,,,,,,,,,,,,,,,,,,,,,,,,,,,
,,5a520774eedc3200014206b4,2024-01-06_08h17.46.001,kallum_motion_pilot,2023.2.3,Win32,59.52380952,5a520774eedc3200014206b4,6598e6a5d84f07970b831e70,6598fdf73d07928cc1890c0d,0.0449,0.0449,0,153,153,127,1,eightseven,,,,,,,,,,,,,,,,,,,,,,,,,,,,,,,,,,,,,,,,,,,,,,,,,,,,,,,,,,,,,,,,,,,,,,,,,,,,,,,,,,,,,,,,,,,,,,,,,,,,,,,,,,,,,,,,,,,,,,,,,,,,,,,,,,,,,,,
,,5a520774eedc3200014206b4,2024-01-06_08h17.46.001,kallum_motion_pilot,2023.2.3,Win32,59.52380952,5a520774eedc3200014206b4,6598e6a5d84f07970b831e70,6598fdf73d07928cc1890c0d,0.0449,0.0449,0,154,154,159,1,eightseven,,,,,,,,,,,,,,,,,,,,,,,,,,,,,,,,,,,,,,,,,,,,,,,,,,,,,,,,,,,,,,,,,,,,,,,,,,,,,,,,,,,,,,,,,,,,,,,,,,,,,,,,,,,,,,,,,,,,,,,,,,,,,,,,,,,,,,,
,,5a520774eedc3200014206b4,2024-01-06_08h17.46.001,kallum_motion_pilot,2023.2.3,Win32,59.52380952,5a520774eedc3200014206b4,6598e6a5d84f07970b831e70,6598fdf73d07928cc1890c0d,0.045,0.045,0,155,155,45,1,threefour,,,,,,,,,,,,,,,,,,,,,,,,,,,,,,,,,,,,,,,,,,,,,,,,,,,,,,,,,,,,,,,,,,,,,,,,,,,,,,,,,,,,,,,,,,,,,,,,,,,,,,,,,,,,,,,,,,,,,,,,,,,,,,,,,,,,,,,
,,5a520774eedc3200014206b4,2024-01-06_08h17.46.001,kallum_motion_pilot,2023.2.3,Win32,59.52380952,5a520774eedc3200014206b4,6598e6a5d84f07970b831e70,6598fdf73d07928cc1890c0d,0.0451,0.0451,0,156,156,124,1,sevenfive,,,,,,,,,,,,,,,,,,,,,,,,,,,,,,,,,,,,,,,,,,,,,,,,,,,,,,,,,,,,,,,,,,,,,,,,,,,,,,,,,,,,,,,,,,,,,,,,,,,,,,,,,,,,,,,,,,,,,,,,,,,,,,,,,,,,,,,
,,5a520774eedc3200014206b4,2024-01-06_08h17.46.001,kallum_motion_pilot,2023.2.3,Win32,59.52380952,5a520774eedc3200014206b4,6598e6a5d84f07970b831e70,6598fdf73d07928cc1890c0d,0.0452,0.0452,0,157,157,125,1,seveneight,,,,,,,,,,,,,,,,,,,,,,,,,,,,,,,,,,,,,,,,,,,,,,,,,,,,,,,,,,,,,,,,,,,,,,,,,,,,,,,,,,,,,,,,,,,,,,,,,,,,,,,,,,,,,,,,,,,,,,,,,,,,,,,,,,,,,,,
,,5a520774eedc3200014206b4,2024-01-06_08h17.46.001,kallum_motion_pilot,2023.2.3,Win32,59.52380952,5a520774eedc3200014206b4,6598e6a5d84f07970b831e70,6598fdf73d07928cc1890c0d,0.0457,0.0458,0,158,158,61,1,threefour,,,,,,,,,,,,,,,,,,,,,,,,,,,,,,,,,,,,,,,,,,,,,,,,,,,,,,,,,,,,,,,,,,,,,,,,,,,,,,,,,,,,,,,,,,,,,,,,,,,,,,,,,,,,,,,,,,,,,,,,,,,,,,,,,,,,,,,
,,5a520774eedc3200014206b4,2024-01-06_08h17.46.001,kallum_motion_pilot,2023.2.3,Win32,59.52380952,5a520774eedc3200014206b4,6598e6a5d84f07970b831e70,6598fdf73d07928cc1890c0d,0.0458,0.0459,0,159,159,99,1,sixeight,,,,,,,,,,,,,,,,,,,,,,,,,,,,,,,,,,,,,,,,,,,,,,,,,,,,,,,,,,,,,,,,,,,,,,,,,,,,,,,,,,,,,,,,,,,,,,,,,,,,,,,,,,,,,,,,,,,,,,,,,,,,,,,,,,,,,,,
,,5a520774eedc3200014206b4,2024-01-06_08h17.46.001,kallum_motion_pilot,2023.2.3,Win32,59.52380952,5a520774eedc3200014206b4,6598e6a5d84f07970b831e70,6598fdf73d07928cc1890c0d,0.046,0.046,0,160,160,35,1,twofour,,,,,,,,,,,,,,,,,,,,,,,,,,,,,,,,,,,,,,,,,,,,,,,,,,,,,,,,,,,,,,,,,,,,,,,,,,,,,,,,,,,,,,,,,,,,,,,,,,,,,,,,,,,,,,,,,,,,,,,,,,,,,,,,,,,,,,,
,,5a520774eedc3200014206b4,2024-01-06_08h17.46.001,kallum_motion_pilot,2023.2.3,Win32,59.52380952,5a520774eedc3200014206b4,6598e6a5d84f07970b831e70,6598fdf73d07928cc1890c0d,0.0461,0.0461,0,161,161,142,1,eightsix,,,,,,,,,,,,,,,,,,,,,,,,,,,,,,,,,,,,,,,,,,,,,,,,,,,,,,,,,,,,,,,,,,,,,,,,,,,,,,,,,,,,,,,,,,,,,,,,,,,,,,,,,,,,,,,,,,,,,,,,,,,,,,,,,,,,,,,
,,5a520774eedc3200014206b4,2024-01-06_08h17.46.001,kallum_motion_pilot,2023.2.3,Win32,59.52380952,5a520774eedc3200014206b4,6598e6a5d84f07970b831e70,6598fdf73d07928cc1890c0d,0.0462,0.0462,1,0,162,101,1,seveneight,,,,,,,,,,,,,,,,,,,,,,,,,,,,,,,,,,,,,,,,,,,,,,,,,,,,,,,,,,,,,,,,,,,,,,,,,,,,,,,,,,,,,,,,,,,,,,,,,,,,,,,,,,,,,,,,,,,,,,,,,,,,,,,,,,,,,,,
,,5a520774eedc3200014206b4,2024-01-06_08h17.46.001,kallum_motion_pilot,2023.2.3,Win32,59.52380952,5a520774eedc3200014206b4,6598e6a5d84f07970b831e70,6598fdf73d07928cc1890c0d,0.0463,0.0463,1,1,163,85,1,seveneight,,,,,,,,,,,,,,,,,,,,,,,,,,,,,,,,,,,,,,,,,,,,,,,,,,,,,,,,,,,,,,,,,,,,,,,,,,,,,,,,,,,,,,,,,,,,,,,,,,,,,,,,,,,,,,,,,,,,,,,,,,,,,,,,,,,,,,,
,,5a520774eedc3200014206b4,2024-01-06_08h17.46.001,kallum_motion_pilot,2023.2.3,Win32,59.52380952,5a520774eedc3200014206b4,6598e6a5d84f07970b831e70,6598fdf73d07928cc1890c0d,0.0464,0.0464,1,2,164,82,1,sixfive,,,,,,,,,,,,,,,,,,,,,,,,,,,,,,,,,,,,,,,,,,,,,,,,,,,,,,,,,,,,,,,,,,,,,,,,,,,,,,,,,,,,,,,,,,,,,,,,,,,,,,,,,,,,,,,,,,,,,,,,,,,,,,,,,,,,,,,
,,5a520774eedc3200014206b4,2024-01-06_08h17.46.001,kallum_motion_pilot,2023.2.3,Win32,59.52380952,5a520774eedc3200014206b4,6598e6a5d84f07970b831e70,6598fdf73d07928cc1890c0d,0.0465,0.0465,1,3,165,130,1,sixfive,,,,,,,,,,,,,,,,,,,,,,,,,,,,,,,,,,,,,,,,,,,,,,,,,,,,,,,,,,,,,,,,,,,,,,,,,,,,,,,,,,,,,,,,,,,,,,,,,,,,,,,,,,,,,,,,,,,,,,,,,,,,,,,,,,,,,,,
,,5a520774eedc3200014206b4,2024-01-06_08h17.46.001,kallum_motion_pilot,2023.2.3,Win32,59.52380952,5a520774eedc3200014206b4,6598e6a5d84f07970b831e70,6598fdf73d07928cc1890c0d,0.0465,0.0465,1,4,166,50,1,twoone,,,,,,,,,,,,,,,,,,,,,,,,,,,,,,,,,,,,,,,,,,,,,,,,,,,,,,,,,,,,,,,,,,,,,,,,,,,,,,,,,,,,,,,,,,,,,,,,,,,,,,,,,,,,,,,,,,,,,,,,,,,,,,,,,,,,,,,
,,5a520774eedc3200014206b4,2024-01-06_08h17.46.001,kallum_motion_pilot,2023.2.3,Win32,59.52380952,5a520774eedc3200014206b4,6598e6a5d84f07970b831e70,6598fdf73d07928cc1890c0d,0.0466,0.0466,1,5,167,93,1,seveneight,,,,,,,,,,,,,,,,,,,,,,,,,,,,,,,,,,,,,,,,,,,,,,,,,,,,,,,,,,,,,,,,,,,,,,,,,,,,,,,,,,,,,,,,,,,,,,,,,,,,,,,,,,,,,,,,,,,,,,,,,,,,,,,,,,,,,,,
,,5a520774eedc3200014206b4,2024-01-06_08h17.46.001,kallum_motion_pilot,2023.2.3,Win32,59.52380952,5a520774eedc3200014206b4,6598e6a5d84f07970b831e70,6598fdf73d07928cc1890c0d,0.0467,0.0468,1,6,168,57,1,onethree,,,,,,,,,,,,,,,,,,,,,,,,,,,,,,,,,,,,,,,,,,,,,,,,,,,,,,,,,,,,,,,,,,,,,,,,,,,,,,,,,,,,,,,,,,,,,,,,,,,,,,,,,,,,,,,,,,,,,,,,,,,,,,,,,,,,,,,
,,5a520774eedc3200014206b4,2024-01-06_08h17.46.001,kallum_motion_pilot,2023.2.3,Win32,59.52380952,5a520774eedc3200014206b4,6598e6a5d84f07970b831e70,6598fdf73d07928cc1890c0d,0.0468,0.0468,1,7,169,30,1,fourtwo,,,,,,,,,,,,,,,,,,,,,,,,,,,,,,,,,,,,,,,,,,,,,,,,,,,,,,,,,,,,,,,,,,,,,,,,,,,,,,,,,,,,,,,,,,,,,,,,,,,,,,,,,,,,,,,,,,,,,,,,,,,,,,,,,,,,,,,
,,5a520774eedc3200014206b4,2024-01-06_08h17.46.001,kallum_motion_pilot,2023.2.3,Win32,59.52380952,5a520774eedc3200014206b4,6598e6a5d84f07970b831e70,6598fdf73d07928cc1890c0d,0.0468,0.0468,1,8,170,134,1,eightsix,,,,,,,,,,,,,,,,,,,,,,,,,,,,,,,,,,,,,,,,,,,,,,,,,,,,,,,,,,,,,,,,,,,,,,,,,,,,,,,,,,,,,,,,,,,,,,,,,,,,,,,,,,,,,,,,,,,,,,,,,,,,,,,,,,,,,,,
,,5a520774eedc3200014206b4,2024-01-06_08h17.46.001,kallum_motion_pilot,2023.2.3,Win32,59.52380952,5a520774eedc3200014206b4,6598e6a5d84f07970b831e70,6598fdf73d07928cc1890c0d,0.0535,0.0536,1,9,171,13,1,threefour,,,,,,,,,,,,,,,,,,,,,,,,,,,,,,,,,,,,,,,,,,,,,,,,,,,,,,,,,,,,,,,,,,,,,,,,,,,,,,,,,,,,,,,,,,,,,,,,,,,,,,,,,,,,,,,,,,,,,,,,,,,,,,,,,,,,,,,
,,5a520774eedc3200014206b4,2024-01-06_08h17.46.001,kallum_motion_pilot,2023.2.3,Win32,59.52380952,5a520774eedc3200014206b4,6598e6a5d84f07970b831e70,6598fdf73d07928cc1890c0d,0.0538,0.0539,1,10,172,33,1,onethree,,,,,,,,,,,,,,,,,,,,,,,,,,,,,,,,,,,,,,,,,,,,,,,,,,,,,,,,,,,,,,,,,,,,,,,,,,,,,,,,,,,,,,,,,,,,,,,,,,,,,,,,,,,,,,,,,,,,,,,,,,,,,,,,,,,,,,,
,,5a520774eedc3200014206b4,2024-01-06_08h17.46.001,kallum_motion_pilot,2023.2.3,Win32,59.52380952,5a520774eedc3200014206b4,6598e6a5d84f07970b831e70,6598fdf73d07928cc1890c0d,0.054,0.054,1,11,173,97,1,fiveseven,,,,,,,,,,,,,,,,,,,,,,,,,,,,,,,,,,,,,,,,,,,,,,,,,,,,,,,,,,,,,,,,,,,,,,,,,,,,,,,,,,,,,,,,,,,,,,,,,,,,,,,,,,,,,,,,,,,,,,,,,,,,,,,,,,,,,,,
,,5a520774eedc3200014206b4,2024-01-06_08h17.46.001,kallum_motion_pilot,2023.2.3,Win32,59.52380952,5a520774eedc3200014206b4,6598e6a5d84f07970b831e70,6598fdf73d07928cc1890c0d,0.0542,0.0542,1,12,174,72,1,onetwo,,,,,,,,,,,,,,,,,,,,,,,,,,,,,,,,,,,,,,,,,,,,,,,,,,,,,,,,,,,,,,,,,,,,,,,,,,,,,,,,,,,,,,,,,,,,,,,,,,,,,,,,,,,,,,,,,,,,,,,,,,,,,,,,,,,,,,,
,,5a520774eedc3200014206b4,2024-01-06_08h17.46.001,kallum_motion_pilot,2023.2.3,Win32,59.52380952,5a520774eedc3200014206b4,6598e6a5d84f07970b831e70,6598fdf73d07928cc1890c0d,0.0544,0.0544,1,13,175,49,1,onethree,,,,,,,,,,,,,,,,,,,,,,,,,,,,,,,,,,,,,,,,,,,,,,,,,,,,,,,,,,,,,,,,,,,,,,,,,,,,,,,,,,,,,,,,,,,,,,,,,,,,,,,,,,,,,,,,,,,,,,,,,,,,,,,,,,,,,,,
,,5a520774eedc3200014206b4,2024-01-06_08h17.46.001,kallum_motion_pilot,2023.2.3,Win32,59.52380952,5a520774eedc3200014206b4,6598e6a5d84f07970b831e70,6598fdf73d07928cc1890c0d,0.0544,0.0545,1,14,176,106,1,sixfive,,,,,,,,,,,,,,,,,,,,,,,,,,,,,,,,,,,,,,,,,,,,,,,,,,,,,,,,,,,,,,,,,,,,,,,,,,,,,,,,,,,,,,,,,,,,,,,,,,,,,,,,,,,,,,,,,,,,,,,,,,,,,,,,,,,,,,,
,,5a520774eedc3200014206b4,2024-01-06_08h17.46.001,kallum_motion_pilot,2023.2.3,Win32,59.52380952,5a520774eedc3200014206b4,6598e6a5d84f07970b831e70,6598fdf73d07928cc1890c0d,0.0546,0.0546,1,15,177,89,1,fiveseven,,,,,,,,,,,,,,,,,,,,,,,,,,,,,,,,,,,,,,,,,,,,,,,,,,,,,,,,,,,,,,,,,,,,,,,,,,,,,,,,,,,,,,,,,,,,,,,,,,,,,,,,,,,,,,,,,,,,,,,,,,,,,,,,,,,,,,,
,,5a520774eedc3200014206b4,2024-01-06_08h17.46.001,kallum_motion_pilot,2023.2.3,Win32,59.52380952,5a520774eedc3200014206b4,6598e6a5d84f07970b831e70,6598fdf73d07928cc1890c0d,0.0547,0.0547,1,16,178,158,1,eightsix,,,,,,,,,,,,,,,,,,,,,,,,,,,,,,,,,,,,,,,,,,,,,,,,,,,,,,,,,,,,,,,,,,,,,,,,,,,,,,,,,,,,,,,,,,,,,,,,,,,,,,,,,,,,,,,,,,,,,,,,,,,,,,,,,,,,,,,
,,5a520774eedc3200014206b4,2024-01-06_08h17.46.001,kallum_motion_pilot,2023.2.3,Win32,59.52380952,5a520774eedc3200014206b4,6598e6a5d84f07970b831e70,6598fdf73d07928cc1890c0d,0.0548,0.0549,1,17,179,59,1,twofour,,,,,,,,,,,,,,,,,,,,,,,,,,,,,,,,,,,,,,,,,,,,,,,,,,,,,,,,,,,,,,,,,,,,,,,,,,,,,,,,,,,,,,,,,,,,,,,,,,,,,,,,,,,,,,,,,,,,,,,,,,,,,,,,,,,,,,,
,,5a520774eedc3200014206b4,2024-01-06_08h17.46.001,kallum_motion_pilot,2023.2.3,Win32,59.52380952,5a520774eedc3200014206b4,6598e6a5d84f07970b831e70,6598fdf73d07928cc1890c0d,0.0549,0.0549,1,18,180,64,1,onetwo,,,,,,,,,,,,,,,,,,,,,,,,,,,,,,,,,,,,,,,,,,,,,,,,,,,,,,,,,,,,,,,,,,,,,,,,,,,,,,,,,,,,,,,,,,,,,,,,,,,,,,,,,,,,,,,,,,,,,,,,,,,,,,,,,,,,,,,
,,5a520774eedc3200014206b4,2024-01-06_08h17.46.001,kallum_motion_pilot,2023.2.3,Win32,59.52380952,5a520774eedc3200014206b4,6598e6a5d84f07970b831e70,6598fdf73d07928cc1890c0d,0.055,0.0551,1,19,181,84,1,sevenfive,,,,,,,,,,,,,,,,,,,,,,,,,,,,,,,,,,,,,,,,,,,,,,,,,,,,,,,,,,,,,,,,,,,,,,,,,,,,,,,,,,,,,,,,,,,,,,,,,,,,,,,,,,,,,,,,,,,,,,,,,,,,,,,,,,,,,,,
,,5a520774eedc3200014206b4,2024-01-06_08h17.46.001,kallum_motion_pilot,2023.2.3,Win32,59.52380952,5a520774eedc3200014206b4,6598e6a5d84f07970b831e70,6598fdf73d07928cc1890c0d,0.0552,0.0552,1,20,182,1,1,onethree,,,,,,,,,,,,,,,,,,,,,,,,,,,,,,,,,,,,,,,,,,,,,,,,,,,,,,,,,,,,,,,,,,,,,,,,,,,,,,,,,,,,,,,,,,,,,,,,,,,,,,,,,,,,,,,,,,,,,,,,,,,,,,,,,,,,,,,
,,5a520774eedc3200014206b4,2024-01-06_08h17.46.001,kallum_motion_pilot,2023.2.3,Win32,59.52380952,5a520774eedc3200014206b4,6598e6a5d84f07970b831e70,6598fdf73d07928cc1890c0d,0.0553,0.0553,1,21,183,122,1,sixfive,,,,,,,,,,,,,,,,,,,,,,,,,,,,,,,,,,,,,,,,,,,,,,,,,,,,,,,,,,,,,,,,,,,,,,,,,,,,,,,,,,,,,,,,,,,,,,,,,,,,,,,,,,,,,,,,,,,,,,,,,,,,,,,,,,,,,,,
,,5a520774eedc3200014206b4,2024-01-06_08h17.46.001,kallum_motion_pilot,2023.2.3,Win32,59.52380952,5a520774eedc3200014206b4,6598e6a5d84f07970b831e70,6598fdf73d07928cc1890c0d,0.0555,0.0555,1,22,184,60,1,threeone,,,,,,,,,,,,,,,,,,,,,,,,,,,,,,,,,,,,,,,,,,,,,,,,,,,,,,,,,,,,,,,,,,,,,,,,,,,,,,,,,,,,,,,,,,,,,,,,,,,,,,,,,,,,,,,,,,,,,,,,,,,,,,,,,,,,,,,
,,5a520774eedc3200014206b4,2024-01-06_08h17.46.001,kallum_motion_pilot,2023.2.3,Win32,59.52380952,5a520774eedc3200014206b4,6598e6a5d84f07970b831e70,6598fdf73d07928cc1890c0d,0.0555,0.0556,1,23,185,105,1,fiveseven,,,,,,,,,,,,,,,,,,,,,,,,,,,,,,,,,,,,,,,,,,,,,,,,,,,,,,,,,,,,,,,,,,,,,,,,,,,,,,,,,,,,,,,,,,,,,,,,,,,,,,,,,,,,,,,,,,,,,,,,,,,,,,,,,,,,,,,
,,5a520774eedc3200014206b4,2024-01-06_08h17.46.001,kallum_motion_pilot,2023.2.3,Win32,59.52380952,5a520774eedc3200014206b4,6598e6a5d84f07970b831e70,6598fdf73d07928cc1890c0d,0.0557,0.0557,1,24,186,46,1,fourtwo,,,,,,,,,,,,,,,,,,,,,,,,,,,,,,,,,,,,,,,,,,,,,,,,,,,,,,,,,,,,,,,,,,,,,,,,,,,,,,,,,,,,,,,,,,,,,,,,,,,,,,,,,,,,,,,,,,,,,,,,,,,,,,,,,,,,,,,
,,5a520774eedc3200014206b4,2024-01-06_08h17.46.001,kallum_motion_pilot,2023.2.3,Win32,59.52380952,5a520774eedc3200014206b4,6598e6a5d84f07970b831e70,6598fdf73d07928cc1890c0d,0.0558,0.0559,1,25,187,113,1,fiveseven,,,,,,,,,,,,,,,,,,,,,,,,,,,,,,,,,,,,,,,,,,,,,,,,,,,,,,,,,,,,,,,,,,,,,,,,,,,,,,,,,,,,,,,,,,,,,,,,,,,,,,,,,,,,,,,,,,,,,,,,,,,,,,,,,,,,,,,
,,5a520774eedc3200014206b4,2024-01-06_08h17.46.001,kallum_motion_pilot,2023.2.3,Win32,59.52380952,5a520774eedc3200014206b4,6598e6a5d84f07970b831e70,6598fdf73d07928cc1890c0d,0.0559,0.056,1,26,188,47,1,fourthree,,,,,,,,,,,,,,,,,,,,,,,,,,,,,,,,,,,,,,,,,,,,,,,,,,,,,,,,,,,,,,,,,,,,,,,,,,,,,,,,,,,,,,,,,,,,,,,,,,,,,,,,,,,,,,,,,,,,,,,,,,,,,,,,,,,,,,,
,,5a520774eedc3200014206b4,2024-01-06_08h17.46.001,kallum_motion_pilot,2023.2.3,Win32,59.52380952,5a520774eedc3200014206b4,6598e6a5d84f07970b831e70,6598fdf73d07928cc1890c0d,0.0561,0.0561,1,27,189,0,1,onetwo,,,,,,,,,,,,,,,,,,,,,,,,,,,,,,,,,,,,,,,,,,,,,,,,,,,,,,,,,,,,,,,,,,,,,,,,,,,,,,,,,,,,,,,,,,,,,,,,,,,,,,,,,,,,,,,,,,,,,,,,,,,,,,,,,,,,,,,
,,5a520774eedc3200014206b4,2024-01-06_08h17.46.001,kallum_motion_pilot,2023.2.3,Win32,59.52380952,5a520774eedc3200014206b4,6598e6a5d84f07970b831e70,6598fdf73d07928cc1890c0d,0.0562,0.0562,1,28,190,87,1,eightseven,,,,,,,,,,,,,,,,,,,,,,,,,,,,,,,,,,,,,,,,,,,,,,,,,,,,,,,,,,,,,,,,,,,,,,,,,,,,,,,,,,,,,,,,,,,,,,,,,,,,,,,,,,,,,,,,,,,,,,,,,,,,,,,,,,,,,,,
,,5a520774eedc3200014206b4,2024-01-06_08h17.46.001,kallum_motion_pilot,2023.2.3,Win32,59.52380952,5a520774eedc3200014206b4,6598e6a5d84f07970b831e70,6598fdf73d07928cc1890c0d,0.0562,0.0563,1,29,191,152,1,fivesix,,,,,,,,,,,,,,,,,,,,,,,,,,,,,,,,,,,,,,,,,,,,,,,,,,,,,,,,,,,,,,,,,,,,,,,,,,,,,,,,,,,,,,,,,,,,,,,,,,,,,,,,,,,,,,,,,,,,,,,,,,,,,,,,,,,,,,,
,,5a520774eedc3200014206b4,2024-01-06_08h17.46.001,kallum_motion_pilot,2023.2.3,Win32,59.52380952,5a520774eedc3200014206b4,6598e6a5d84f07970b831e70,6598fdf73d07928cc1890c0d,0.0564,0.0564,1,30,192,23,1,fourthree,,,,,,,,,,,,,,,,,,,,,,,,,,,,,,,,,,,,,,,,,,,,,,,,,,,,,,,,,,,,,,,,,,,,,,,,,,,,,,,,,,,,,,,,,,,,,,,,,,,,,,,,,,,,,,,,,,,,,,,,,,,,,,,,,,,,,,,
,,5a520774eedc3200014206b4,2024-01-06_08h17.46.001,kallum_motion_pilot,2023.2.3,Win32,59.52380952,5a520774eedc3200014206b4,6598e6a5d84f07970b831e70,6598fdf73d07928cc1890c0d,0.0565,0.0565,1,31,193,154,1,sixfive,,,,,,,,,,,,,,,,,,,,,,,,,,,,,,,,,,,,,,,,,,,,,,,,,,,,,,,,,,,,,,,,,,,,,,,,,,,,,,,,,,,,,,,,,,,,,,,,,,,,,,,,,,,,,,,,,,,,,,,,,,,,,,,,,,,,,,,
,,5a520774eedc3200014206b4,2024-01-06_08h17.46.001,kallum_motion_pilot,2023.2.3,Win32,59.52380952,5a520774eedc3200014206b4,6598e6a5d84f07970b831e70,6598fdf73d07928cc1890c0d,0.0565,0.0566,1,32,194,19,1,twofour,,,,,,,,,,,,,,,,,,,,,,,,,,,,,,,,,,,,,,,,,,,,,,,,,,,,,,,,,,,,,,,,,,,,,,,,,,,,,,,,,,,,,,,,,,,,,,,,,,,,,,,,,,,,,,,,,,,,,,,,,,,,,,,,,,,,,,,
,,5a520774eedc3200014206b4,2024-01-06_08h17.46.001,kallum_motion_pilot,2023.2.3,Win32,59.52380952,5a520774eedc3200014206b4,6598e6a5d84f07970b831e70,6598fdf73d07928cc1890c0d,0.0567,0.0568,1,33,195,135,1,eightseven,,,,,,,,,,,,,,,,,,,,,,,,,,,,,,,,,,,,,,,,,,,,,,,,,,,,,,,,,,,,,,,,,,,,,,,,,,,,,,,,,,,,,,,,,,,,,,,,,,,,,,,,,,,,,,,,,,,,,,,,,,,,,,,,,,,,,,,
,,5a520774eedc3200014206b4,2024-01-06_08h17.46.001,kallum_motion_pilot,2023.2.3,Win32,59.52380952,5a520774eedc3200014206b4,6598e6a5d84f07970b831e70,6598fdf73d07928cc1890c0d,0.0568,0.0569,1,34,196,29,1,threefour,,,,,,,,,,,,,,,,,,,,,,,,,,,,,,,,,,,,,,,,,,,,,,,,,,,,,,,,,,,,,,,,,,,,,,,,,,,,,,,,,,,,,,,,,,,,,,,,,,,,,,,,,,,,,,,,,,,,,,,,,,,,,,,,,,,,,,,
,,5a520774eedc3200014206b4,2024-01-06_08h17.46.001,kallum_motion_pilot,2023.2.3,Win32,59.52380952,5a520774eedc3200014206b4,6598e6a5d84f07970b831e70,6598fdf73d07928cc1890c0d,0.0569,0.0569,1,35,197,141,1,seveneight,,,,,,,,,,,,,,,,,,,,,,,,,,,,,,,,,,,,,,,,,,,,,,,,,,,,,,,,,,,,,,,,,,,,,,,,,,,,,,,,,,,,,,,,,,,,,,,,,,,,,,,,,,,,,,,,,,,,,,,,,,,,,,,,,,,,,,,
,,5a520774eedc3200014206b4,2024-01-06_08h17.46.001,kallum_motion_pilot,2023.2.3,Win32,59.52380952,5a520774eedc3200014206b4,6598e6a5d84f07970b831e70,6598fdf73d07928cc1890c0d,0.057,0.0571,1,36,198,140,1,sevenfive,,,,,,,,,,,,,,,,,,,,,,,,,,,,,,,,,,,,,,,,,,,,,,,,,,,,,,,,,,,,,,,,,,,,,,,,,,,,,,,,,,,,,,,,,,,,,,,,,,,,,,,,,,,,,,,,,,,,,,,,,,,,,,,,,,,,,,,
,,5a520774eedc3200014206b4,2024-01-06_08h17.46.001,kallum_motion_pilot,2023.2.3,Win32,59.52380952,5a520774eedc3200014206b4,6598e6a5d84f07970b831e70,6598fdf73d07928cc1890c0d,0.0571,0.0572,1,37,199,110,1,eightsix,,,,,,,,,,,,,,,,,,,,,,,,,,,,,,,,,,,,,,,,,,,,,,,,,,,,,,,,,,,,,,,,,,,,,,,,,,,,,,,,,,,,,,,,,,,,,,,,,,,,,,,,,,,,,,,,,,,,,,,,,,,,,,,,,,,,,,,
,,5a520774eedc3200014206b4,2024-01-06_08h17.46.001,kallum_motion_pilot,2023.2.3,Win32,59.52380952,5a520774eedc3200014206b4,6598e6a5d84f07970b831e70,6598fdf73d07928cc1890c0d,0.0572,0.0572,1,38,200,118,1,eightsix,,,,,,,,,,,,,,,,,,,,,,,,,,,,,,,,,,,,,,,,,,,,,,,,,,,,,,,,,,,,,,,,,,,,,,,,,,,,,,,,,,,,,,,,,,,,,,,,,,,,,,,,,,,,,,,,,,,,,,,,,,,,,,,,,,,,,,,
,,5a520774eedc3200014206b4,2024-01-06_08h17.46.001,kallum_motion_pilot,2023.2.3,Win32,59.52380952,5a520774eedc3200014206b4,6598e6a5d84f07970b831e70,6598fdf73d07928cc1890c0d,0.0574,0.0574,1,39,201,39,1,fourthree,,,,,,,,,,,,,,,,,,,,,,,,,,,,,,,,,,,,,,,,,,,,,,,,,,,,,,,,,,,,,,,,,,,,,,,,,,,,,,,,,,,,,,,,,,,,,,,,,,,,,,,,,,,,,,,,,,,,,,,,,,,,,,,,,,,,,,,
,,5a520774eedc3200014206b4,2024-01-06_08h17.46.001,kallum_motion_pilot,2023.2.3,Win32,59.52380952,5a520774eedc3200014206b4,6598e6a5d84f07970b831e70,6598fdf73d07928cc1890c0d,0.0575,0.0575,1,40,202,71,1,fourthree,,,,,,,,,,,,,,,,,,,,,,,,,,,,,,,,,,,,,,,,,,,,,,,,,,,,,,,,,,,,,,,,,,,,,,,,,,,,,,,,,,,,,,,,,,,,,,,,,,,,,,,,,,,,,,,,,,,,,,,,,,,,,,,,,,,,,,,
,,5a520774eedc3200014206b4,2024-01-06_08h17.46.001,kallum_motion_pilot,2023.2.3,Win32,59.52380952,5a520774eedc3200014206b4,6598e6a5d84f07970b831e70,6598fdf73d07928cc1890c0d,0.0575,0.0576,1,41,203,24,1,onetwo,,,,,,,,,,,,,,,,,,,,,,,,,,,,,,,,,,,,,,,,,,,,,,,,,,,,,,,,,,,,,,,,,,,,,,,,,,,,,,,,,,,,,,,,,,,,,,,,,,,,,,,,,,,,,,,,,,,,,,,,,,,,,,,,,,,,,,,
,,5a520774eedc3200014206b4,2024-01-06_08h17.46.001,kallum_motion_pilot,2023.2.3,Win32,59.52380952,5a520774eedc3200014206b4,6598e6a5d84f07970b831e70,6598fdf73d07928cc1890c0d,0.0577,0.0577,1,42,204,56,1,onetwo,,,,,,,,,,,,,,,,,,,,,,,,,,,,,,,,,,,,,,,,,,,,,,,,,,,,,,,,,,,,,,,,,,,,,,,,,,,,,,,,,,,,,,,,,,,,,,,,,,,,,,,,,,,,,,,,,,,,,,,,,,,,,,,,,,,,,,,
,,5a520774eedc3200014206b4,2024-01-06_08h17.46.001,kallum_motion_pilot,2023.2.3,Win32,59.52380952,5a520774eedc3200014206b4,6598e6a5d84f07970b831e70,6598fdf73d07928cc1890c0d,0.0578,0.0579,1,43,205,145,1,fiveseven,,,,,,,,,,,,,,,,,,,,,,,,,,,,,,,,,,,,,,,,,,,,,,,,,,,,,,,,,,,,,,,,,,,,,,,,,,,,,,,,,,,,,,,,,,,,,,,,,,,,,,,,,,,,,,,,,,,,,,,,,,,,,,,,,,,,,,,
,,5a520774eedc3200014206b4,2024-01-06_08h17.46.001,kallum_motion_pilot,2023.2.3,Win32,59.52380952,5a520774eedc3200014206b4,6598e6a5d84f07970b831e70,6598fdf73d07928cc1890c0d,0.0579,0.058,1,44,206,79,1,eightseven,,,,,,,,,,,,,,,,,,,,,,,,,,,,,,,,,,,,,,,,,,,,,,,,,,,,,,,,,,,,,,,,,,,,,,,,,,,,,,,,,,,,,,,,,,,,,,,,,,,,,,,,,,,,,,,,,,,,,,,,,,,,,,,,,,,,,,,
,,5a520774eedc3200014206b4,2024-01-06_08h17.46.001,kallum_motion_pilot,2023.2.3,Win32,59.52380952,5a520774eedc3200014206b4,6598e6a5d84f07970b831e70,6598fdf73d07928cc1890c0d,0.058,0.058,1,45,207,150,1,eightsix,,,,,,,,,,,,,,,,,,,,,,,,,,,,,,,,,,,,,,,,,,,,,,,,,,,,,,,,,,,,,,,,,,,,,,,,,,,,,,,,,,,,,,,,,,,,,,,,,,,,,,,,,,,,,,,,,,,,,,,,,,,,,,,,,,,,,,,
,,5a520774eedc3200014206b4,2024-01-06_08h17.46.001,kallum_motion_pilot,2023.2.3,Win32,59.52380952,5a520774eedc3200014206b4,6598e6a5d84f07970b831e70,6598fdf73d07928cc1890c0d,0.0581,0.0582,1,46,208,51,1,twofour,,,,,,,,,,,,,,,,,,,,,,,,,,,,,,,,,,,,,,,,,,,,,,,,,,,,,,,,,,,,,,,,,,,,,,,,,,,,,,,,,,,,,,,,,,,,,,,,,,,,,,,,,,,,,,,,,,,,,,,,,,,,,,,,,,,,,,,
,,5a520774eedc3200014206b4,2024-01-06_08h17.46.001,kallum_motion_pilot,2023.2.3,Win32,59.52380952,5a520774eedc3200014206b4,6598e6a5d84f07970b831e70,6598fdf73d07928cc1890c0d,0.0582,0.0582,1,47,209,120,1,fivesix,,,,,,,,,,,,,,,,,,,,,,,,,,,,,,,,,,,,,,,,,,,,,,,,,,,,,,,,,,,,,,,,,,,,,,,,,,,,,,,,,,,,,,,,,,,,,,,,,,,,,,,,,,,,,,,,,,,,,,,,,,,,,,,,,,,,,,,
,,5a520774eedc3200014206b4,2024-01-06_08h17.46.001,kallum_motion_pilot,2023.2.3,Win32,59.52380952,5a520774eedc3200014206b4,6598e6a5d84f07970b831e70,6598fdf73d07928cc1890c0d,0.0583,0.0584,1,48,210,15,1,fourthree,,,,,,,,,,,,,,,,,,,,,,,,,,,,,,,,,,,,,,,,,,,,,,,,,,,,,,,,,,,,,,,,,,,,,,,,,,,,,,,,,,,,,,,,,,,,,,,,,,,,,,,,,,,,,,,,,,,,,,,,,,,,,,,,,,,,,,,
,,5a520774eedc3200014206b4,2024-01-06_08h17.46.001,kallum_motion_pilot,2023.2.3,Win32,59.52380952,5a520774eedc3200014206b4,6598e6a5d84f07970b831e70,6598fdf73d07928cc1890c0d,0.0584,0.0586,1,49,211,8,1,onetwo,,,,,,,,,,,,,,,,,,,,,,,,,,,,,,,,,,,,,,,,,,,,,,,,,,,,,,,,,,,,,,,,,,,,,,,,,,,,,,,,,,,,,,,,,,,,,,,,,,,,,,,,,,,,,,,,,,,,,,,,,,,,,,,,,,,,,,,
,,5a520774eedc3200014206b4,2024-01-06_08h17.46.001,kallum_motion_pilot,2023.2.3,Win32,59.52380952,5a520774eedc3200014206b4,6598e6a5d84f07970b831e70,6598fdf73d07928cc1890c0d,0.0586,0.0587,1,50,212,26,1,twoone,,,,,,,,,,,,,,,,,,,,,,,,,,,,,,,,,,,,,,,,,,,,,,,,,,,,,,,,,,,,,,,,,,,,,,,,,,,,,,,,,,,,,,,,,,,,,,,,,,,,,,,,,,,,,,,,,,,,,,,,,,,,,,,,,,,,,,,
,,5a520774eedc3200014206b4,2024-01-06_08h17.46.001,kallum_motion_pilot,2023.2.3,Win32,59.52380952,5a520774eedc3200014206b4,6598e6a5d84f07970b831e70,6598fdf73d07928cc1890c0d,0.0587,0.0587,1,51,213,43,1,twofour,,,,,,,,,,,,,,,,,,,,,,,,,,,,,,,,,,,,,,,,,,,,,,,,,,,,,,,,,,,,,,,,,,,,,,,,,,,,,,,,,,,,,,,,,,,,,,,,,,,,,,,,,,,,,,,,,,,,,,,,,,,,,,,,,,,,,,,
,,5a520774eedc3200014206b4,2024-01-06_08h17.46.001,kallum_motion_pilot,2023.2.3,Win32,59.52380952,5a520774eedc3200014206b4,6598e6a5d84f07970b831e70,6598fdf73d07928cc1890c0d,0.0588,0.0589,1,52,214,116,1,sevenfive,,,,,,,,,,,,,,,,,,,,,,,,,,,,,,,,,,,,,,,,,,,,,,,,,,,,,,,,,,,,,,,,,,,,,,,,,,,,,,,,,,,,,,,,,,,,,,,,,,,,,,,,,,,,,,,,,,,,,,,,,,,,,,,,,,,,,,,
,,5a520774eedc3200014206b4,2024-01-06_08h17.46.001,kallum_motion_pilot,2023.2.3,Win32,59.52380952,5a520774eedc3200014206b4,6598e6a5d84f07970b831e70,6598fdf73d07928cc1890c0d,0.0589,0.059,1,53,215,121,1,fiveseven,,,,,,,,,,,,,,,,,,,,,,,,,,,,,,,,,,,,,,,,,,,,,,,,,,,,,,,,,,,,,,,,,,,,,,,,,,,,,,,,,,,,,,,,,,,,,,,,,,,,,,,,,,,,,,,,,,,,,,,,,,,,,,,,,,,,,,,
,,5a520774eedc3200014206b4,2024-01-06_08h17.46.001,kallum_motion_pilot,2023.2.3,Win32,59.52380952,5a520774eedc3200014206b4,6598e6a5d84f07970b831e70,6598fdf73d07928cc1890c0d,0.059,0.0591,1,54,216,21,1,threefour,,,,,,,,,,,,,,,,,,,,,,,,,,,,,,,,,,,,,,,,,,,,,,,,,,,,,,,,,,,,,,,,,,,,,,,,,,,,,,,,,,,,,,,,,,,,,,,,,,,,,,,,,,,,,,,,,,,,,,,,,,,,,,,,,,,,,,,
,,5a520774eedc3200014206b4,2024-01-06_08h17.46.001,kallum_motion_pilot,2023.2.3,Win32,59.52380952,5a520774eedc3200014206b4,6598e6a5d84f07970b831e70,6598fdf73d07928cc1890c0d,0.0591,0.0592,1,55,217,66,1,twoone,,,,,,,,,,,,,,,,,,,,,,,,,,,,,,,,,,,,,,,,,,,,,,,,,,,,,,,,,,,,,,,,,,,,,,,,,,,,,,,,,,,,,,,,,,,,,,,,,,,,,,,,,,,,,,,,,,,,,,,,,,,,,,,,,,,,,,,
,,5a520774eedc3200014206b4,2024-01-06_08h17.46.001,kallum_motion_pilot,2023.2.3,Win32,59.52380952,5a520774eedc3200014206b4,6598e6a5d84f07970b831e70,6598fdf73d07928cc1890c0d,0.0592,0.0593,1,56,218,34,1,twoone,,,,,,,,,,,,,,,,,,,,,,,,,,,,,,,,,,,,,,,,,,,,,,,,,,,,,,,,,,,,,,,,,,,,,,,,,,,,,,,,,,,,,,,,,,,,,,,,,,,,,,,,,,,,,,,,,,,,,,,,,,,,,,,,,,,,,,,
,,5a520774eedc3200014206b4,2024-01-06_08h17.46.001,kallum_motion_pilot,2023.2.3,Win32,59.52380952,5a520774eedc3200014206b4,6598e6a5d84f07970b831e70,6598fdf73d07928cc1890c0d,0.0593,0.0594,1,57,219,108,1,sevenfive,,,,,,,,,,,,,,,,,,,,,,,,,,,,,,,,,,,,,,,,,,,,,,,,,,,,,,,,,,,,,,,,,,,,,,,,,,,,,,,,,,,,,,,,,,,,,,,,,,,,,,,,,,,,,,,,,,,,,,,,,,,,,,,,,,,,,,,
,,5a520774eedc3200014206b4,2024-01-06_08h17.46.001,kallum_motion_pilot,2023.2.3,Win32,59.52380952,5a520774eedc3200014206b4,6598e6a5d84f07970b831e70,6598fdf73d07928cc1890c0d,0.0595,0.0596,1,58,220,11,1,twofour,,,,,,,,,,,,,,,,,,,,,,,,,,,,,,,,,,,,,,,,,,,,,,,,,,,,,,,,,,,,,,,,,,,,,,,,,,,,,,,,,,,,,,,,,,,,,,,,,,,,,,,,,,,,,,,,,,,,,,,,,,,,,,,,,,,,,,,
,,5a520774eedc3200014206b4,2024-01-06_08h17.46.001,kallum_motion_pilot,2023.2.3,Win32,59.52380952,5a520774eedc3200014206b4,6598e6a5d84f07970b831e70,6598fdf73d07928cc1890c0d,0.0596,0.0596,1,59,221,146,1,sixfive,,,,,,,,,,,,,,,,,,,,,,,,,,,,,,,,,,,,,,,,,,,,,,,,,,,,,,,,,,,,,,,,,,,,,,,,,,,,,,,,,,,,,,,,,,,,,,,,,,,,,,,,,,,,,,,,,,,,,,,,,,,,,,,,,,,,,,,
,,5a520774eedc3200014206b4,2024-01-06_08h17.46.001,kallum_motion_pilot,2023.2.3,Win32,59.52380952,5a520774eedc3200014206b4,6598e6a5d84f07970b831e70,6598fdf73d07928cc1890c0d,0.0597,0.0598,1,60,222,86,1,eightsix,,,,,,,,,,,,,,,,,,,,,,,,,,,,,,,,,,,,,,,,,,,,,,,,,,,,,,,,,,,,,,,,,,,,,,,,,,,,,,,,,,,,,,,,,,,,,,,,,,,,,,,,,,,,,,,,,,,,,,,,,,,,,,,,,,,,,,,
,,5a520774eedc3200014206b4,2024-01-06_08h17.46.001,kallum_motion_pilot,2023.2.3,Win32,59.52380952,5a520774eedc3200014206b4,6598e6a5d84f07970b831e70,6598fdf73d07928cc1890c0d,0.0599,0.0599,1,61,223,18,1,twoone,,,,,,,,,,,,,,,,,,,,,,,,,,,,,,,,,,,,,,,,,,,,,,,,,,,,,,,,,,,,,,,,,,,,,,,,,,,,,,,,,,,,,,,,,,,,,,,,,,,,,,,,,,,,,,,,,,,,,,,,,,,,,,,,,,,,,,,
,,5a520774eedc3200014206b4,2024-01-06_08h17.46.001,kallum_motion_pilot,2023.2.3,Win32,59.52380952,5a520774eedc3200014206b4,6598e6a5d84f07970b831e70,6598fdf73d07928cc1890c0d,0.0599,0.06,1,62,224,62,1,fourtwo,,,,,,,,,,,,,,,,,,,,,,,,,,,,,,,,,,,,,,,,,,,,,,,,,,,,,,,,,,,,,,,,,,,,,,,,,,,,,,,,,,,,,,,,,,,,,,,,,,,,,,,,,,,,,,,,,,,,,,,,,,,,,,,,,,,,,,,
,,5a520774eedc3200014206b4,2024-01-06_08h17.46.001,kallum_motion_pilot,2023.2.3,Win32,59.52380952,5a520774eedc3200014206b4,6598e6a5d84f07970b831e70,6598fdf73d07928cc1890c0d,0.06,0.0602,1,63,225,88,1,fivesix,,,,,,,,,,,,,,,,,,,,,,,,,,,,,,,,,,,,,,,,,,,,,,,,,,,,,,,,,,,,,,,,,,,,,,,,,,,,,,,,,,,,,,,,,,,,,,,,,,,,,,,,,,,,,,,,,,,,,,,,,,,,,,,,,,,,,,,
,,5a520774eedc3200014206b4,2024-01-06_08h17.46.001,kallum_motion_pilot,2023.2.3,Win32,59.52380952,5a520774eedc3200014206b4,6598e6a5d84f07970b831e70,6598fdf73d07928cc1890c0d,0.0602,0.0602,1,64,226,40,1,onetwo,,,,,,,,,,,,,,,,,,,,,,,,,,,,,,,,,,,,,,,,,,,,,,,,,,,,,,,,,,,,,,,,,,,,,,,,,,,,,,,,,,,,,,,,,,,,,,,,,,,,,,,,,,,,,,,,,,,,,,,,,,,,,,,,,,,,,,,
,,5a520774eedc3200014206b4,2024-01-06_08h17.46.001,kallum_motion_pilot,2023.2.3,Win32,59.52380952,5a520774eedc3200014206b4,6598e6a5d84f07970b831e70,6598fdf73d07928cc1890c0d,0.0604,0.0604,1,65,227,27,1,twofour,,,,,,,,,,,,,,,,,,,,,,,,,,,,,,,,,,,,,,,,,,,,,,,,,,,,,,,,,,,,,,,,,,,,,,,,,,,,,,,,,,,,,,,,,,,,,,,,,,,,,,,,,,,,,,,,,,,,,,,,,,,,,,,,,,,,,,,
,,5a520774eedc3200014206b4,2024-01-06_08h17.46.001,kallum_motion_pilot,2023.2.3,Win32,59.52380952,5a520774eedc3200014206b4,6598e6a5d84f07970b831e70,6598fdf73d07928cc1890c0d,0.0604,0.0605,1,66,228,143,1,eightseven,,,,,,,,,,,,,,,,,,,,,,,,,,,,,,,,,,,,,,,,,,,,,,,,,,,,,,,,,,,,,,,,,,,,,,,,,,,,,,,,,,,,,,,,,,,,,,,,,,,,,,,,,,,,,,,,,,,,,,,,,,,,,,,,,,,,,,,
,,5a520774eedc3200014206b4,2024-01-06_08h17.46.001,kallum_motion_pilot,2023.2.3,Win32,59.52380952,5a520774eedc3200014206b4,6598e6a5d84f07970b831e70,6598fdf73d07928cc1890c0d,0.0606,0.0606,1,67,229,41,1,onethree,,,,,,,,,,,,,,,,,,,,,,,,,,,,,,,,,,,,,,,,,,,,,,,,,,,,,,,,,,,,,,,,,,,,,,,,,,,,,,,,,,,,,,,,,,,,,,,,,,,,,,,,,,,,,,,,,,,,,,,,,,,,,,,,,,,,,,,
,,5a520774eedc3200014206b4,2024-01-06_08h17.46.001,kallum_motion_pilot,2023.2.3,Win32,59.52380952,5a520774eedc3200014206b4,6598e6a5d84f07970b831e70,6598fdf73d07928cc1890c0d,0.0607,0.0607,1,68,230,133,1,seveneight,,,,,,,,,,,,,,,,,,,,,,,,,,,,,,,,,,,,,,,,,,,,,,,,,,,,,,,,,,,,,,,,,,,,,,,,,,,,,,,,,,,,,,,,,,,,,,,,,,,,,,,,,,,,,,,,,,,,,,,,,,,,,,,,,,,,,,,
,,5a520774eedc3200014206b4,2024-01-06_08h17.46.001,kallum_motion_pilot,2023.2.3,Win32,59.52380952,5a520774eedc3200014206b4,6598e6a5d84f07970b831e70,6598fdf73d07928cc1890c0d,0.0608,0.0608,1,69,231,151,1,eightseven,,,,,,,,,,,,,,,,,,,,,,,,,,,,,,,,,,,,,,,,,,,,,,,,,,,,,,,,,,,,,,,,,,,,,,,,,,,,,,,,,,,,,,,,,,,,,,,,,,,,,,,,,,,,,,,,,,,,,,,,,,,,,,,,,,,,,,,
,,5a520774eedc3200014206b4,2024-01-06_08h17.46.001,kallum_motion_pilot,2023.2.3,Win32,59.52380952,5a520774eedc3200014206b4,6598e6a5d84f07970b831e70,6598fdf73d07928cc1890c0d,0.0608,0.061,1,70,232,67,1,twofour,,,,,,,,,,,,,,,,,,,,,,,,,,,,,,,,,,,,,,,,,,,,,,,,,,,,,,,,,,,,,,,,,,,,,,,,,,,,,,,,,,,,,,,,,,,,,,,,,,,,,,,,,,,,,,,,,,,,,,,,,,,,,,,,,,,,,,,
,,5a520774eedc3200014206b4,2024-01-06_08h17.46.001,kallum_motion_pilot,2023.2.3,Win32,59.52380952,5a520774eedc3200014206b4,6598e6a5d84f07970b831e70,6598fdf73d07928cc1890c0d,0.061,0.0611,1,71,233,31,1,fourthree,,,,,,,,,,,,,,,,,,,,,,,,,,,,,,,,,,,,,,,,,,,,,,,,,,,,,,,,,,,,,,,,,,,,,,,,,,,,,,,,,,,,,,,,,,,,,,,,,,,,,,,,,,,,,,,,,,,,,,,,,,,,,,,,,,,,,,,
,,5a520774eedc3200014206b4,2024-01-06_08h17.46.001,kallum_motion_pilot,2023.2.3,Win32,59.52380952,5a520774eedc3200014206b4,6598e6a5d84f07970b831e70,6598fdf73d07928cc1890c0d,0.0611,0.0612,1,72,234,52,1,threeone,,,,,,,,,,,,,,,,,,,,,,,,,,,,,,,,,,,,,,,,,,,,,,,,,,,,,,,,,,,,,,,,,,,,,,,,,,,,,,,,,,,,,,,,,,,,,,,,,,,,,,,,,,,,,,,,,,,,,,,,,,,,,,,,,,,,,,,
,,5a520774eedc3200014206b4,2024-01-06_08h17.46.001,kallum_motion_pilot,2023.2.3,Win32,59.52380952,5a520774eedc3200014206b4,6598e6a5d84f07970b831e70,6598fdf73d07928cc1890c0d,0.0613,0.0613,1,73,235,5,1,threefour,,,,,,,,,,,,,,,,,,,,,,,,,,,,,,,,,,,,,,,,,,,,,,,,,,,,,,,,,,,,,,,,,,,,,,,,,,,,,,,,,,,,,,,,,,,,,,,,,,,,,,,,,,,,,,,,,,,,,,,,,,,,,,,,,,,,,,,
,,5a520774eedc3200014206b4,2024-01-06_08h17.46.001,kallum_motion_pilot,2023.2.3,Win32,59.52380952,5a520774eedc3200014206b4,6598e6a5d84f07970b831e70,6598fdf73d07928cc1890c0d,0.0613,0.0614,1,74,236,112,1,fivesix,,,,,,,,,,,,,,,,,,,,,,,,,,,,,,,,,,,,,,,,,,,,,,,,,,,,,,,,,,,,,,,,,,,,,,,,,,,,,,,,,,,,,,,,,,,,,,,,,,,,,,,,,,,,,,,,,,,,,,,,,,,,,,,,,,,,,,,
,,5a520774eedc3200014206b4,2024-01-06_08h17.46.001,kallum_motion_pilot,2023.2.3,Win32,59.52380952,5a520774eedc3200014206b4,6598e6a5d84f07970b831e70,6598fdf73d07928cc1890c0d,0.0615,0.0615,1,75,237,129,1,fiveseven,,,,,,,,,,,,,,,,,,,,,,,,,,,,,,,,,,,,,,,,,,,,,,,,,,,,,,,,,,,,,,,,,,,,,,,,,,,,,,,,,,,,,,,,,,,,,,,,,,,,,,,,,,,,,,,,,,,,,,,,,,,,,,,,,,,,,,,
,,5a520774eedc3200014206b4,2024-01-06_08h17.46.001,kallum_motion_pilot,2023.2.3,Win32,59.52380952,5a520774eedc3200014206b4,6598e6a5d84f07970b831e70,6598fdf73d07928cc1890c0d,0.0616,0.0617,1,76,238,9,1,onethree,,,,,,,,,,,,,,,,,,,,,,,,,,,,,,,,,,,,,,,,,,,,,,,,,,,,,,,,,,,,,,,,,,,,,,,,,,,,,,,,,,,,,,,,,,,,,,,,,,,,,,,,,,,,,,,,,,,,,,,,,,,,,,,,,,,,,,,
,,5a520774eedc3200014206b4,2024-01-06_08h17.46.001,kallum_motion_pilot,2023.2.3,Win32,59.52380952,5a520774eedc3200014206b4,6598e6a5d84f07970b831e70,6598fdf73d07928cc1890c0d,0.0618,0.0618,1,77,239,94,1,eightsix,,,,,,,,,,,,,,,,,,,,,,,,,,,,,,,,,,,,,,,,,,,,,,,,,,,,,,,,,,,,,,,,,,,,,,,,,,,,,,,,,,,,,,,,,,,,,,,,,,,,,,,,,,,,,,,,,,,,,,,,,,,,,,,,,,,,,,,
,,5a520774eedc3200014206b4,2024-01-06_08h17.46.001,kallum_motion_pilot,2023.2.3,Win32,59.52380952,5a520774eedc3200014206b4,6598e6a5d84f07970b831e70,6598fdf73d07928cc1890c0d,0.0619,0.0619,1,78,240,77,1,threefour,,,,,,,,,,,,,,,,,,,,,,,,,,,,,,,,,,,,,,,,,,,,,,,,,,,,,,,,,,,,,,,,,,,,,,,,,,,,,,,,,,,,,,,,,,,,,,,,,,,,,,,,,,,,,,,,,,,,,,,,,,,,,,,,,,,,,,,
,,5a520774eedc3200014206b4,2024-01-06_08h17.46.001,kallum_motion_pilot,2023.2.3,Win32,59.52380952,5a520774eedc3200014206b4,6598e6a5d84f07970b831e70,6598fdf73d07928cc1890c0d,0.062,0.062,1,79,241,25,1,onethree,,,,,,,,,,,,,,,,,,,,,,,,,,,,,,,,,,,,,,,,,,,,,,,,,,,,,,,,,,,,,,,,,,,,,,,,,,,,,,,,,,,,,,,,,,,,,,,,,,,,,,,,,,,,,,,,,,,,,,,,,,,,,,,,,,,,,,,
,,5a520774eedc3200014206b4,2024-01-06_08h17.46.001,kallum_motion_pilot,2023.2.3,Win32,59.52380952,5a520774eedc3200014206b4,6598e6a5d84f07970b831e70,6598fdf73d07928cc1890c0d,0.062,0.062,1,80,242,38,1,fourtwo,,,,,,,,,,,,,,,,,,,,,,,,,,,,,,,,,,,,,,,,,,,,,,,,,,,,,,,,,,,,,,,,,,,,,,,,,,,,,,,,,,,,,,,,,,,,,,,,,,,,,,,,,,,,,,,,,,,,,,,,,,,,,,,,,,,,,,,
,,5a520774eedc3200014206b4,2024-01-06_08h17.46.001,kallum_motion_pilot,2023.2.3,Win32,59.52380952,5a520774eedc3200014206b4,6598e6a5d84f07970b831e70,6598fdf73d07928cc1890c0d,0.0621,0.0622,1,81,243,102,1,eightsix,,,,,,,,,,,,,,,,,,,,,,,,,,,,,,,,,,,,,,,,,,,,,,,,,,,,,,,,,,,,,,,,,,,,,,,,,,,,,,,,,,,,,,,,,,,,,,,,,,,,,,,,,,,,,,,,,,,,,,,,,,,,,,,,,,,,,,,
,,5a520774eedc3200014206b4,2024-01-06_08h17.46.001,kallum_motion_pilot,2023.2.3,Win32,59.52380952,5a520774eedc3200014206b4,6598e6a5d84f07970b831e70,6598fdf73d07928cc1890c0d,0.0623,0.0623,1,82,244,104,1,fivesix,,,,,,,,,,,,,,,,,,,,,,,,,,,,,,,,,,,,,,,,,,,,,,,,,,,,,,,,,,,,,,,,,,,,,,,,,,,,,,,,,,,,,,,,,,,,,,,,,,,,,,,,,,,,,,,,,,,,,,,,,,,,,,,,,,,,,,,
,,5a520774eedc3200014206b4,2024-01-06_08h17.46.001,kallum_motion_pilot,2023.2.3,Win32,59.52380952,5a520774eedc3200014206b4,6598e6a5d84f07970b831e70,6598fdf73d07928cc1890c0d,0.0623,0.0623,1,83,245,147,1,sixeight,,,,,,,,,,,,,,,,,,,,,,,,,,,,,,,,,,,,,,,,,,,,,,,,,,,,,,,,,,,,,,,,,,,,,,,,,,,,,,,,,,,,,,,,,,,,,,,,,,,,,,,,,,,,,,,,,,,,,,,,,,,,,,,,,,,,,,,
,,5a520774eedc3200014206b4,2024-01-06_08h17.46.001,kallum_motion_pilot,2023.2.3,Win32,59.52380952,5a520774eedc3200014206b4,6598e6a5d84f07970b831e70,6598fdf73d07928cc1890c0d,0.0624,0.0624,1,84,246,44,1,threeone,,,,,,,,,,,,,,,,,,,,,,,,,,,,,,,,,,,,,,,,,,,,,,,,,,,,,,,,,,,,,,,,,,,,,,,,,,,,,,,,,,,,,,,,,,,,,,,,,,,,,,,,,,,,,,,,,,,,,,,,,,,,,,,,,,,,,,,
,,5a520774eedc3200014206b4,2024-01-06_08h17.46.001,kallum_motion_pilot,2023.2.3,Win32,59.52380952,5a520774eedc3200014206b4,6598e6a5d84f07970b831e70,6598fdf73d07928cc1890c0d,0.0625,0.0625,1,85,247,63,1,fourthree,,,,,,,,,,,,,,,,,,,,,,,,,,,,,,,,,,,,,,,,,,,,,,,,,,,,,,,,,,,,,,,,,,,,,,,,,,,,,,,,,,,,,,,,,,,,,,,,,,,,,,,,,,,,,,,,,,,,,,,,,,,,,,,,,,,,,,,
,,5a520774eedc3200014206b4,2024-01-06_08h17.46.001,kallum_motion_pilot,2023.2.3,Win32,59.52380952,5a520774eedc3200014206b4,6598e6a5d84f07970b831e70,6598fdf73d07928cc1890c0d,0.0626,0.0626,1,86,248,91,1,sixeight,,,,,,,,,,,,,,,,,,,,,,,,,,,,,,,,,,,,,,,,,,,,,,,,,,,,,,,,,,,,,,,,,,,,,,,,,,,,,,,,,,,,,,,,,,,,,,,,,,,,,,,,,,,,,,,,,,,,,,,,,,,,,,,,,,,,,,,
,,5a520774eedc3200014206b4,2024-01-06_08h17.46.001,kallum_motion_pilot,2023.2.3,Win32,59.52380952,5a520774eedc3200014206b4,6598e6a5d84f07970b831e70,6598fdf73d07928cc1890c0d,0.0627,0.0628,1,87,249,155,1,sixeight,,,,,,,,,,,,,,,,,,,,,,,,,,,,,,,,,,,,,,,,,,,,,,,,,,,,,,,,,,,,,,,,,,,,,,,,,,,,,,,,,,,,,,,,,,,,,,,,,,,,,,,,,,,,,,,,,,,,,,,,,,,,,,,,,,,,,,,
,,5a520774eedc3200014206b4,2024-01-06_08h17.46.001,kallum_motion_pilot,2023.2.3,Win32,59.52380952,5a520774eedc3200014206b4,6598e6a5d84f07970b831e70,6598fdf73d07928cc1890c0d,0.0628,0.0629,1,88,250,16,1,onetwo,,,,,,,,,,,,,,,,,,,,,,,,,,,,,,,,,,,,,,,,,,,,,,,,,,,,,,,,,,,,,,,,,,,,,,,,,,,,,,,,,,,,,,,,,,,,,,,,,,,,,,,,,,,,,,,,,,,,,,,,,,,,,,,,,,,,,,,
,,5a520774eedc3200014206b4,2024-01-06_08h17.46.001,kallum_motion_pilot,2023.2.3,Win32,59.52380952,5a520774eedc3200014206b4,6598e6a5d84f07970b831e70,6598fdf73d07928cc1890c0d,0.0629,0.0629,1,89,251,99,1,sixeight,,,,,,,,,,,,,,,,,,,,,,,,,,,,,,,,,,,,,,,,,,,,,,,,,,,,,,,,,,,,,,,,,,,,,,,,,,,,,,,,,,,,,,,,,,,,,,,,,,,,,,,,,,,,,,,,,,,,,,,,,,,,,,,,,,,,,,,
,,5a520774eedc3200014206b4,2024-01-06_08h17.46.001,kallum_motion_pilot,2023.2.3,Win32,59.52380952,5a520774eedc3200014206b4,6598e6a5d84f07970b831e70,6598fdf73d07928cc1890c0d,0.063,0.063,1,90,252,12,1,threeone,,,,,,,,,,,,,,,,,,,,,,,,,,,,,,,,,,,,,,,,,,,,,,,,,,,,,,,,,,,,,,,,,,,,,,,,,,,,,,,,,,,,,,,,,,,,,,,,,,,,,,,,,,,,,,,,,,,,,,,,,,,,,,,,,,,,,,,
,,5a520774eedc3200014206b4,2024-01-06_08h17.46.001,kallum_motion_pilot,2023.2.3,Win32,59.52380952,5a520774eedc3200014206b4,6598e6a5d84f07970b831e70,6598fdf73d07928cc1890c0d,0.063,0.0631,1,91,253,128,1,fivesix,,,,,,,,,,,,,,,,,,,,,,,,,,,,,,,,,,,,,,,,,,,,,,,,,,,,,,,,,,,,,,,,,,,,,,,,,,,,,,,,,,,,,,,,,,,,,,,,,,,,,,,,,,,,,,,,,,,,,,,,,,,,,,,,,,,,,,,
,,5a520774eedc3200014206b4,2024-01-06_08h17.46.001,kallum_motion_pilot,2023.2.3,Win32,59.52380952,5a520774eedc3200014206b4,6598e6a5d84f07970b831e70,6598fdf73d07928cc1890c0d,0.0631,0.0632,1,92,254,156,1,sevenfive,,,,,,,,,,,,,,,,,,,,,,,,,,,,,,,,,,,,,,,,,,,,,,,,,,,,,,,,,,,,,,,,,,,,,,,,,,,,,,,,,,,,,,,,,,,,,,,,,,,,,,,,,,,,,,,,,,,,,,,,,,,,,,,,,,,,,,,
,,5a520774eedc3200014206b4,2024-01-06_08h17.46.001,kallum_motion_pilot,2023.2.3,Win32,59.52380952,5a520774eedc3200014206b4,6598e6a5d84f07970b831e70,6598fdf73d07928cc1890c0d,0.0632,0.0632,1,93,255,35,1,twofour,,,,,,,,,,,,,,,,,,,,,,,,,,,,,,,,,,,,,,,,,,,,,,,,,,,,,,,,,,,,,,,,,,,,,,,,,,,,,,,,,,,,,,,,,,,,,,,,,,,,,,,,,,,,,,,,,,,,,,,,,,,,,,,,,,,,,,,
,,5a520774eedc3200014206b4,2024-01-06_08h17.46.001,kallum_motion_pilot,2023.2.3,Win32,59.52380952,5a520774eedc3200014206b4,6598e6a5d84f07970b831e70,6598fdf73d07928cc1890c0d,0.0634,0.0634,1,94,256,73,1,onethree,,,,,,,,,,,,,,,,,,,,,,,,,,,,,,,,,,,,,,,,,,,,,,,,,,,,,,,,,,,,,,,,,,,,,,,,,,,,,,,,,,,,,,,,,,,,,,,,,,,,,,,,,,,,,,,,,,,,,,,,,,,,,,,,,,,,,,,
,,5a520774eedc3200014206b4,2024-01-06_08h17.46.001,kallum_motion_pilot,2023.2.3,Win32,59.52380952,5a520774eedc3200014206b4,6598e6a5d84f07970b831e70,6598fdf73d07928cc1890c0d,0.0634,0.0634,1,95,257,96,1,fivesix,,,,,,,,,,,,,,,,,,,,,,,,,,,,,,,,,,,,,,,,,,,,,,,,,,,,,,,,,,,,,,,,,,,,,,,,,,,,,,,,,,,,,,,,,,,,,,,,,,,,,,,,,,,,,,,,,,,,,,,,,,,,,,,,,,,,,,,
,,5a520774eedc3200014206b4,2024-01-06_08h17.46.001,kallum_motion_pilot,2023.2.3,Win32,59.52380952,5a520774eedc3200014206b4,6598e6a5d84f07970b831e70,6598fdf73d07928cc1890c0d,0.0635,0.0635,1,96,258,48,1,onetwo,,,,,,,,,,,,,,,,,,,,,,,,,,,,,,,,,,,,,,,,,,,,,,,,,,,,,,,,,,,,,,,,,,,,,,,,,,,,,,,,,,,,,,,,,,,,,,,,,,,,,,,,,,,,,,,,,,,,,,,,,,,,,,,,,,,,,,,
,,5a520774eedc3200014206b4,2024-01-06_08h17.46.001,kallum_motion_pilot,2023.2.3,Win32,59.52380952,5a520774eedc3200014206b4,6598e6a5d84f07970b831e70,6598fdf73d07928cc1890c0d,0.0637,0.0637,1,97,259,100,1,sevenfive,,,,,,,,,,,,,,,,,,,,,,,,,,,,,,,,,,,,,,,,,,,,,,,,,,,,,,,,,,,,,,,,,,,,,,,,,,,,,,,,,,,,,,,,,,,,,,,,,,,,,,,,,,,,,,,,,,,,,,,,,,,,,,,,,,,,,,,
,,5a520774eedc3200014206b4,2024-01-06_08h17.46.001,kallum_motion_pilot,2023.2.3,Win32,59.52380952,5a520774eedc3200014206b4,6598e6a5d84f07970b831e70,6598fdf73d07928cc1890c0d,0.064,0.0641,1,98,260,20,1,threeone,,,,,,,,,,,,,,,,,,,,,,,,,,,,,,,,,,,,,,,,,,,,,,,,,,,,,,,,,,,,,,,,,,,,,,,,,,,,,,,,,,,,,,,,,,,,,,,,,,,,,,,,,,,,,,,,,,,,,,,,,,,,,,,,,,,,,,,
,,5a520774eedc3200014206b4,2024-01-06_08h17.46.001,kallum_motion_pilot,2023.2.3,Win32,59.52380952,5a520774eedc3200014206b4,6598e6a5d84f07970b831e70,6598fdf73d07928cc1890c0d,0.0642,0.0642,1,99,261,98,1,sixfive,,,,,,,,,,,,,,,,,,,,,,,,,,,,,,,,,,,,,,,,,,,,,,,,,,,,,,,,,,,,,,,,,,,,,,,,,,,,,,,,,,,,,,,,,,,,,,,,,,,,,,,,,,,,,,,,,,,,,,,,,,,,,,,,,,,,,,,
,,5a520774eedc3200014206b4,2024-01-06_08h17.46.001,kallum_motion_pilot,2023.2.3,Win32,59.52380952,5a520774eedc3200014206b4,6598e6a5d84f07970b831e70,6598fdf73d07928cc1890c0d,0.0643,0.0643,1,100,262,149,1,seveneight,,,,,,,,,,,,,,,,,,,,,,,,,,,,,,,,,,,,,,,,,,,,,,,,,,,,,,,,,,,,,,,,,,,,,,,,,,,,,,,,,,,,,,,,,,,,,,,,,,,,,,,,,,,,,,,,,,,,,,,,,,,,,,,,,,,,,,,
,,5a520774eedc3200014206b4,2024-01-06_08h17.46.001,kallum_motion_pilot,2023.2.3,Win32,59.52380952,5a520774eedc3200014206b4,6598e6a5d84f07970b831e70,6598fdf73d07928cc1890c0d,0.0643,0.0644,1,101,263,55,1,fourthree,,,,,,,,,,,,,,,,,,,,,,,,,,,,,,,,,,,,,,,,,,,,,,,,,,,,,,,,,,,,,,,,,,,,,,,,,,,,,,,,,,,,,,,,,,,,,,,,,,,,,,,,,,,,,,,,,,,,,,,,,,,,,,,,,,,,,,,
,,5a520774eedc3200014206b4,2024-01-06_08h17.46.001,kallum_motion_pilot,2023.2.3,Win32,59.52380952,5a520774eedc3200014206b4,6598e6a5d84f07970b831e70,6598fdf73d07928cc1890c0d,0.0644,0.0645,1,102,264,136,1,fivesix,,,,,,,,,,,,,,,,,,,,,,,,,,,,,,,,,,,,,,,,,,,,,,,,,,,,,,,,,,,,,,,,,,,,,,,,,,,,,,,,,,,,,,,,,,,,,,,,,,,,,,,,,,,,,,,,,,,,,,,,,,,,,,,,,,,,,,,
,,5a520774eedc3200014206b4,2024-01-06_08h17.46.001,kallum_motion_pilot,2023.2.3,Win32,59.52380952,5a520774eedc3200014206b4,6598e6a5d84f07970b831e70,6598fdf73d07928cc1890c0d,0.0645,0.0645,1,103,265,144,1,fivesix,,,,,,,,,,,,,,,,,,,,,,,,,,,,,,,,,,,,,,,,,,,,,,,,,,,,,,,,,,,,,,,,,,,,,,,,,,,,,,,,,,,,,,,,,,,,,,,,,,,,,,,,,,,,,,,,,,,,,,,,,,,,,,,,,,,,,,,
,,5a520774eedc3200014206b4,2024-01-06_08h17.46.001,kallum_motion_pilot,2023.2.3,Win32,59.52380952,5a520774eedc3200014206b4,6598e6a5d84f07970b831e70,6598fdf73d07928cc1890c0d,0.0646,0.0647,1,104,266,74,1,twoone,,,,,,,,,,,,,,,,,,,,,,,,,,,,,,,,,,,,,,,,,,,,,,,,,,,,,,,,,,,,,,,,,,,,,,,,,,,,,,,,,,,,,,,,,,,,,,,,,,,,,,,,,,,,,,,,,,,,,,,,,,,,,,,,,,,,,,,
,,5a520774eedc3200014206b4,2024-01-06_08h17.46.001,kallum_motion_pilot,2023.2.3,Win32,59.52380952,5a520774eedc3200014206b4,6598e6a5d84f07970b831e70,6598fdf73d07928cc1890c0d,0.0647,0.0647,1,105,267,6,1,fourtwo,,,,,,,,,,,,,,,,,,,,,,,,,,,,,,,,,,,,,,,,,,,,,,,,,,,,,,,,,,,,,,,,,,,,,,,,,,,,,,,,,,,,,,,,,,,,,,,,,,,,,,,,,,,,,,,,,,,,,,,,,,,,,,,,,,,,,,,
,,5a520774eedc3200014206b4,2024-01-06_08h17.46.001,kallum_motion_pilot,2023.2.3,Win32,59.52380952,5a520774eedc3200014206b4,6598e6a5d84f07970b831e70,6598fdf73d07928cc1890c0d,0.0647,0.0648,1,106,268,3,1,twofour,,,,,,,,,,,,,,,,,,,,,,,,,,,,,,,,,,,,,,,,,,,,,,,,,,,,,,,,,,,,,,,,,,,,,,,,,,,,,,,,,,,,,,,,,,,,,,,,,,,,,,,,,,,,,,,,,,,,,,,,,,,,,,,,,,,,,,,
,,5a520774eedc3200014206b4,2024-01-06_08h17.46.001,kallum_motion_pilot,2023.2.3,Win32,59.52380952,5a520774eedc3200014206b4,6598e6a5d84f07970b831e70,6598fdf73d07928cc1890c0d,0.0648,0.0649,1,107,269,139,1,sixeight,,,,,,,,,,,,,,,,,,,,,,,,,,,,,,,,,,,,,,,,,,,,,,,,,,,,,,,,,,,,,,,,,,,,,,,,,,,,,,,,,,,,,,,,,,,,,,,,,,,,,,,,,,,,,,,,,,,,,,,,,,,,,,,,,,,,,,,
,,5a520774eedc3200014206b4,2024-01-06_08h17.46.001,kallum_motion_pilot,2023.2.3,Win32,59.52380952,5a520774eedc3200014206b4,6598e6a5d84f07970b831e70,6598fdf73d07928cc1890c0d,0.0649,0.0651,1,108,270,10,1,twoone,,,,,,,,,,,,,,,,,,,,,,,,,,,,,,,,,,,,,,,,,,,,,,,,,,,,,,,,,,,,,,,,,,,,,,,,,,,,,,,,,,,,,,,,,,,,,,,,,,,,,,,,,,,,,,,,,,,,,,,,,,,,,,,,,,,,,,,
,,5a520774eedc3200014206b4,2024-01-06_08h17.46.001,kallum_motion_pilot,2023.2.3,Win32,59.52380952,5a520774eedc3200014206b4,6598e6a5d84f07970b831e70,6598fdf73d07928cc1890c0d,0.0651,0.0651,1,109,271,80,1,fivesix,,,,,,,,,,,,,,,,,,,,,,,,,,,,,,,,,,,,,,,,,,,,,,,,,,,,,,,,,,,,,,,,,,,,,,,,,,,,,,,,,,,,,,,,,,,,,,,,,,,,,,,,,,,,,,,,,,,,,,,,,,,,,,,,,,,,,,,
,,5a520774eedc3200014206b4,2024-01-06_08h17.46.001,kallum_motion_pilot,2023.2.3,Win32,59.52380952,5a520774eedc3200014206b4,6598e6a5d84f07970b831e70,6598fdf73d07928cc1890c0d,0.0651,0.0652,1,110,272,53,1,threefour,,,,,,,,,,,,,,,,,,,,,,,,,,,,,,,,,,,,,,,,,,,,,,,,,,,,,,,,,,,,,,,,,,,,,,,,,,,,,,,,,,,,,,,,,,,,,,,,,,,,,,,,,,,,,,,,,,,,,,,,,,,,,,,,,,,,,,,
,,5a520774eedc3200014206b4,2024-01-06_08h17.46.001,kallum_motion_pilot,2023.2.3,Win32,59.52380952,5a520774eedc3200014206b4,6598e6a5d84f07970b831e70,6598fdf73d07928cc1890c0d,0.0653,0.0654,1,111,273,28,1,threeone,,,,,,,,,,,,,,,,,,,,,,,,,,,,,,,,,,,,,,,,,,,,,,,,,,,,,,,,,,,,,,,,,,,,,,,,,,,,,,,,,,,,,,,,,,,,,,,,,,,,,,,,,,,,,,,,,,,,,,,,,,,,,,,,,,,,,,,
,,5a520774eedc3200014206b4,2024-01-06_08h17.46.001,kallum_motion_pilot,2023.2.3,Win32,59.52380952,5a520774eedc3200014206b4,6598e6a5d84f07970b831e70,6598fdf73d07928cc1890c0d,0.0654,0.0655,1,112,274,17,1,onethree,,,,,,,,,,,,,,,,,,,,,,,,,,,,,,,,,,,,,,,,,,,,,,,,,,,,,,,,,,,,,,,,,,,,,,,,,,,,,,,,,,,,,,,,,,,,,,,,,,,,,,,,,,,,,,,,,,,,,,,,,,,,,,,,,,,,,,,
,,5a520774eedc3200014206b4,2024-01-06_08h17.46.001,kallum_motion_pilot,2023.2.3,Win32,59.52380952,5a520774eedc3200014206b4,6598e6a5d84f07970b831e70,6598fdf73d07928cc1890c0d,0.0655,0.0655,1,113,275,117,1,seveneight,,,,,,,,,,,,,,,,,,,,,,,,,,,,,,,,,,,,,,,,,,,,,,,,,,,,,,,,,,,,,,,,,,,,,,,,,,,,,,,,,,,,,,,,,,,,,,,,,,,,,,,,,,,,,,,,,,,,,,,,,,,,,,,,,,,,,,,
,,5a520774eedc3200014206b4,2024-01-06_08h17.46.001,kallum_motion_pilot,2023.2.3,Win32,59.52380952,5a520774eedc3200014206b4,6598e6a5d84f07970b831e70,6598fdf73d07928cc1890c0d,0.0656,0.0656,1,114,276,32,1,onetwo,,,,,,,,,,,,,,,,,,,,,,,,,,,,,,,,,,,,,,,,,,,,,,,,,,,,,,,,,,,,,,,,,,,,,,,,,,,,,,,,,,,,,,,,,,,,,,,,,,,,,,,,,,,,,,,,,,,,,,,,,,,,,,,,,,,,,,,
,,5a520774eedc3200014206b4,2024-01-06_08h17.46.001,kallum_motion_pilot,2023.2.3,Win32,59.52380952,5a520774eedc3200014206b4,6598e6a5d84f07970b831e70,6598fdf73d07928cc1890c0d,0.0657,0.0657,1,115,277,22,1,fourtwo,,,,,,,,,,,,,,,,,,,,,,,,,,,,,,,,,,,,,,,,,,,,,,,,,,,,,,,,,,,,,,,,,,,,,,,,,,,,,,,,,,,,,,,,,,,,,,,,,,,,,,,,,,,,,,,,,,,,,,,,,,,,,,,,,,,,,,,
,,5a520774eedc3200014206b4,2024-01-06_08h17.46.001,kallum_motion_pilot,2023.2.3,Win32,59.52380952,5a520774eedc3200014206b4,6598e6a5d84f07970b831e70,6598fdf73d07928cc1890c0d,0.0657,0.0658,1,116,278,161,1,fiveseven,,,,,,,,,,,,,,,,,,,,,,,,,,,,,,,,,,,,,,,,,,,,,,,,,,,,,,,,,,,,,,,,,,,,,,,,,,,,,,,,,,,,,,,,,,,,,,,,,,,,,,,,,,,,,,,,,,,,,,,,,,,,,,,,,,,,,,,
,,5a520774eedc3200014206b4,2024-01-06_08h17.46.001,kallum_motion_pilot,2023.2.3,Win32,59.52380952,5a520774eedc3200014206b4,6598e6a5d84f07970b831e70,6598fdf73d07928cc1890c0d,0.0658,0.0659,1,117,279,107,1,sixeight,,,,,,,,,,,,,,,,,,,,,,,,,,,,,,,,,,,,,,,,,,,,,,,,,,,,,,,,,,,,,,,,,,,,,,,,,,,,,,,,,,,,,,,,,,,,,,,,,,,,,,,,,,,,,,,,,,,,,,,,,,,,,,,,,,,,,,,
