startup.started,startup.stopped,Prolific ID*,date,expName,psychopyVersion,OS,frameRate,PROLIFIC_PID,STUDY_ID,SESSION_ID,stimpositions.started,stimpositions.stopped,hardcoded_stimulus_positions.thisRepN,hardcoded_stimulus_positions.thisTrialN,hardcoded_stimulus_positions.thisN,hardcoded_stimulus_positions.thisIndex,hardcoded_stimulus_positions.ran,StimulusPos,stimorientation.started,stimorientation.stopped,prac_stimorientation_import_loop.thisRepN,prac_stimorientation_import_loop.thisTrialN,prac_stimorientation_import_loop.thisN,prac_stimorientation_import_loop.thisIndex,prac_stimorientation_import_loop.ran,Stimorientation,welcome_instr.started,welcome_instr.stopped,key_resp.keys,key_resp.rt,key_resp.duration,response_steppedout_1.started,response_steppedout_1.stopped,key_resp_20.keys,key_resp_20.rt,key_resp_20.duration,response_steppedout_2.started,response_steppedout_2.stopped,key_resp_19.keys,key_resp_19.rt,key_resp_19.duration,stim_response_instr.started,stim_response_instr.stopped,key_resp_15.keys,key_resp_15.rt,key_resp_15.duration,direction_instr_2.started,direction_instr_2.stopped,key_resp_9.keys,key_resp_9.rt,key_resp_9.duration,instr_prac.started,instr_prac.stopped,key_resp_10.keys,key_resp_10.rt,key_resp_10.duration,Stim1_display_prac.started,Stim1_display_prac.stopped,Ecc,Circle1_ori,Circle2_ori,response_prac.started,similarity,response_time,response_prac.stopped,mouse_5.x,mouse_5.y,mouse_5.leftButton,mouse_5.midButton,mouse_5.rightButton,mouse_5.clicked_name,responseprac_feedback.started,responseprac_feedback.stopped,summary2_prac.started,summary2_prac.stopped,mouse_6.x,mouse_6.y,mouse_6.leftButton,mouse_6.midButton,mouse_6.rightButton,mouse_6.clicked_name,duringprac.thisRepN,duringprac.thisTrialN,duringprac.thisN,duringprac.thisIndex,duringprac.ran,begin.started,begin.stopped,key_resp_22.keys,key_resp_22.rt,key_resp_22.duration,Stim1_display.started,Stim1_display.stopped,circle1_ori,circle2_ori,blank.started,blank.stopped,response.started,response.stopped,mouse.x,mouse.y,mouse.leftButton,mouse.midButton,mouse.rightButton,mouse.clicked_name,response_2.started,response_2.stopped,mouse_2.x,mouse_2.y,mouse_2.leftButton,mouse_2.midButton,mouse_2.rightButton,mouse_2.clicked_name,special_trial.started,special_trial.stopped,catch_1.started,catch_1.stopped,mouse_3.x,mouse_3.y,mouse_3.leftButton,mouse_3.midButton,mouse_3.rightButton,catchresponse,catchnumber,response_time_catch,Catch,response_sum.started,response_sum.stopped,mouse_11.x,mouse_11.y,mouse_11.leftButton,mouse_11.midButton,mouse_11.rightButton,main_trial.thisRepN,main_trial.thisTrialN,main_trial.thisN,main_trial.thisIndex,main_trial.ran,Orientationtrialno,xcircle1_ori,xcircle2_ori,flip_presentation_sequence_for_double_pass.started,flip_presentation_sequence_for_double_pass.stopped,double_pass.thisRepN,double_pass.thisTrialN,double_pass.thisN,double_pass.thisIndex,double_pass.ran,goodbye.started,goodbye.stopped,key_resp_3.keys,key_resp_3.rt,key_resp_3.duration
0,0,5ec24766fd704d00089a80af,2024-01-06_07h37.33.502,kallum_motion_pilot,2023.2.3,Win32,60.0240096,5ec24766fd704d00089a80af,6598e6a5d84f07970b831e70,6598e7101661eb4a6cf477b8,,,,,,,,,,,,,,,,,,,,,,,,,,,,,,,,,,,,,,,,,,,,,,,,,,,,,,,,,,,,,,,,,,,,,,,,,,,,,,,,,,,,,,,,,,,,,,,,,,,,,,,,,,,,,,,,,,,,,,,,,,,,,,,,,,,,,,,,,,,,,,,
,,5ec24766fd704d00089a80af,2024-01-06_07h37.33.502,kallum_motion_pilot,2023.2.3,Win32,60.0240096,5ec24766fd704d00089a80af,6598e6a5d84f07970b831e70,6598e7101661eb4a6cf477b8,0.015,0.015,0,0,0,139,1,sixeight,,,,,,,,,,,,,,,,,,,,,,,,,,,,,,,,,,,,,,,,,,,,,,,,,,,,,,,,,,,,,,,,,,,,,,,,,,,,,,,,,,,,,,,,,,,,,,,,,,,,,,,,,,,,,,,,,,,,,,,,,,,,,,,,,,,,,,,
,,5ec24766fd704d00089a80af,2024-01-06_07h37.33.502,kallum_motion_pilot,2023.2.3,Win32,60.0240096,5ec24766fd704d00089a80af,6598e6a5d84f07970b831e70,6598e7101661eb4a6cf477b8,0.015,0.015,0,1,1,55,1,fourthree,,,,,,,,,,,,,,,,,,,,,,,,,,,,,,,,,,,,,,,,,,,,,,,,,,,,,,,,,,,,,,,,,,,,,,,,,,,,,,,,,,,,,,,,,,,,,,,,,,,,,,,,,,,,,,,,,,,,,,,,,,,,,,,,,,,,,,,
,,5ec24766fd704d00089a80af,2024-01-06_07h37.33.502,kallum_motion_pilot,2023.2.3,Win32,60.0240096,5ec24766fd704d00089a80af,6598e6a5d84f07970b831e70,6598e7101661eb4a6cf477b8,0.015,0.015,0,2,2,17,1,onethree,,,,,,,,,,,,,,,,,,,,,,,,,,,,,,,,,,,,,,,,,,,,,,,,,,,,,,,,,,,,,,,,,,,,,,,,,,,,,,,,,,,,,,,,,,,,,,,,,,,,,,,,,,,,,,,,,,,,,,,,,,,,,,,,,,,,,,,
,,5ec24766fd704d00089a80af,2024-01-06_07h37.33.502,kallum_motion_pilot,2023.2.3,Win32,60.0240096,5ec24766fd704d00089a80af,6598e6a5d84f07970b831e70,6598e7101661eb4a6cf477b8,0.016,0.016,0,3,3,74,1,twoone,,,,,,,,,,,,,,,,,,,,,,,,,,,,,,,,,,,,,,,,,,,,,,,,,,,,,,,,,,,,,,,,,,,,,,,,,,,,,,,,,,,,,,,,,,,,,,,,,,,,,,,,,,,,,,,,,,,,,,,,,,,,,,,,,,,,,,,
,,5ec24766fd704d00089a80af,2024-01-06_07h37.33.502,kallum_motion_pilot,2023.2.3,Win32,60.0240096,5ec24766fd704d00089a80af,6598e6a5d84f07970b831e70,6598e7101661eb4a6cf477b8,0.016,0.016,0,4,4,44,1,threeone,,,,,,,,,,,,,,,,,,,,,,,,,,,,,,,,,,,,,,,,,,,,,,,,,,,,,,,,,,,,,,,,,,,,,,,,,,,,,,,,,,,,,,,,,,,,,,,,,,,,,,,,,,,,,,,,,,,,,,,,,,,,,,,,,,,,,,,
,,5ec24766fd704d00089a80af,2024-01-06_07h37.33.502,kallum_motion_pilot,2023.2.3,Win32,60.0240096,5ec24766fd704d00089a80af,6598e6a5d84f07970b831e70,6598e7101661eb4a6cf477b8,0.016,0.016,0,5,5,7,1,fourthree,,,,,,,,,,,,,,,,,,,,,,,,,,,,,,,,,,,,,,,,,,,,,,,,,,,,,,,,,,,,,,,,,,,,,,,,,,,,,,,,,,,,,,,,,,,,,,,,,,,,,,,,,,,,,,,,,,,,,,,,,,,,,,,,,,,,,,,
,,5ec24766fd704d00089a80af,2024-01-06_07h37.33.502,kallum_motion_pilot,2023.2.3,Win32,60.0240096,5ec24766fd704d00089a80af,6598e6a5d84f07970b831e70,6598e7101661eb4a6cf477b8,0.016,0.016,0,6,6,146,1,sixfive,,,,,,,,,,,,,,,,,,,,,,,,,,,,,,,,,,,,,,,,,,,,,,,,,,,,,,,,,,,,,,,,,,,,,,,,,,,,,,,,,,,,,,,,,,,,,,,,,,,,,,,,,,,,,,,,,,,,,,,,,,,,,,,,,,,,,,,
,,5ec24766fd704d00089a80af,2024-01-06_07h37.33.502,kallum_motion_pilot,2023.2.3,Win32,60.0240096,5ec24766fd704d00089a80af,6598e6a5d84f07970b831e70,6598e7101661eb4a6cf477b8,0.021,0.021,0,7,7,32,1,onetwo,,,,,,,,,,,,,,,,,,,,,,,,,,,,,,,,,,,,,,,,,,,,,,,,,,,,,,,,,,,,,,,,,,,,,,,,,,,,,,,,,,,,,,,,,,,,,,,,,,,,,,,,,,,,,,,,,,,,,,,,,,,,,,,,,,,,,,,
,,5ec24766fd704d00089a80af,2024-01-06_07h37.33.502,kallum_motion_pilot,2023.2.3,Win32,60.0240096,5ec24766fd704d00089a80af,6598e6a5d84f07970b831e70,6598e7101661eb4a6cf477b8,0.021,0.021,0,8,8,45,1,threefour,,,,,,,,,,,,,,,,,,,,,,,,,,,,,,,,,,,,,,,,,,,,,,,,,,,,,,,,,,,,,,,,,,,,,,,,,,,,,,,,,,,,,,,,,,,,,,,,,,,,,,,,,,,,,,,,,,,,,,,,,,,,,,,,,,,,,,,
,,5ec24766fd704d00089a80af,2024-01-06_07h37.33.502,kallum_motion_pilot,2023.2.3,Win32,60.0240096,5ec24766fd704d00089a80af,6598e6a5d84f07970b831e70,6598e7101661eb4a6cf477b8,0.021,0.021,0,9,9,87,1,eightseven,,,,,,,,,,,,,,,,,,,,,,,,,,,,,,,,,,,,,,,,,,,,,,,,,,,,,,,,,,,,,,,,,,,,,,,,,,,,,,,,,,,,,,,,,,,,,,,,,,,,,,,,,,,,,,,,,,,,,,,,,,,,,,,,,,,,,,,
,,5ec24766fd704d00089a80af,2024-01-06_07h37.33.502,kallum_motion_pilot,2023.2.3,Win32,60.0240096,5ec24766fd704d00089a80af,6598e6a5d84f07970b831e70,6598e7101661eb4a6cf477b8,0.021,0.021,0,10,10,9,1,onethree,,,,,,,,,,,,,,,,,,,,,,,,,,,,,,,,,,,,,,,,,,,,,,,,,,,,,,,,,,,,,,,,,,,,,,,,,,,,,,,,,,,,,,,,,,,,,,,,,,,,,,,,,,,,,,,,,,,,,,,,,,,,,,,,,,,,,,,
,,5ec24766fd704d00089a80af,2024-01-06_07h37.33.502,kallum_motion_pilot,2023.2.3,Win32,60.0240096,5ec24766fd704d00089a80af,6598e6a5d84f07970b831e70,6598e7101661eb4a6cf477b8,0.022,0.022,0,11,11,108,1,sevenfive,,,,,,,,,,,,,,,,,,,,,,,,,,,,,,,,,,,,,,,,,,,,,,,,,,,,,,,,,,,,,,,,,,,,,,,,,,,,,,,,,,,,,,,,,,,,,,,,,,,,,,,,,,,,,,,,,,,,,,,,,,,,,,,,,,,,,,,
,,5ec24766fd704d00089a80af,2024-01-06_07h37.33.502,kallum_motion_pilot,2023.2.3,Win32,60.0240096,5ec24766fd704d00089a80af,6598e6a5d84f07970b831e70,6598e7101661eb4a6cf477b8,0.022,0.022,0,12,12,66,1,twoone,,,,,,,,,,,,,,,,,,,,,,,,,,,,,,,,,,,,,,,,,,,,,,,,,,,,,,,,,,,,,,,,,,,,,,,,,,,,,,,,,,,,,,,,,,,,,,,,,,,,,,,,,,,,,,,,,,,,,,,,,,,,,,,,,,,,,,,
,,5ec24766fd704d00089a80af,2024-01-06_07h37.33.502,kallum_motion_pilot,2023.2.3,Win32,60.0240096,5ec24766fd704d00089a80af,6598e6a5d84f07970b831e70,6598e7101661eb4a6cf477b8,0.022,0.022,0,13,13,109,1,seveneight,,,,,,,,,,,,,,,,,,,,,,,,,,,,,,,,,,,,,,,,,,,,,,,,,,,,,,,,,,,,,,,,,,,,,,,,,,,,,,,,,,,,,,,,,,,,,,,,,,,,,,,,,,,,,,,,,,,,,,,,,,,,,,,,,,,,,,,
,,5ec24766fd704d00089a80af,2024-01-06_07h37.33.502,kallum_motion_pilot,2023.2.3,Win32,60.0240096,5ec24766fd704d00089a80af,6598e6a5d84f07970b831e70,6598e7101661eb4a6cf477b8,0.022,0.022,0,14,14,116,1,sevenfive,,,,,,,,,,,,,,,,,,,,,,,,,,,,,,,,,,,,,,,,,,,,,,,,,,,,,,,,,,,,,,,,,,,,,,,,,,,,,,,,,,,,,,,,,,,,,,,,,,,,,,,,,,,,,,,,,,,,,,,,,,,,,,,,,,,,,,,
,,5ec24766fd704d00089a80af,2024-01-06_07h37.33.502,kallum_motion_pilot,2023.2.3,Win32,60.0240096,5ec24766fd704d00089a80af,6598e6a5d84f07970b831e70,6598e7101661eb4a6cf477b8,0.022,0.022,0,15,15,114,1,sixfive,,,,,,,,,,,,,,,,,,,,,,,,,,,,,,,,,,,,,,,,,,,,,,,,,,,,,,,,,,,,,,,,,,,,,,,,,,,,,,,,,,,,,,,,,,,,,,,,,,,,,,,,,,,,,,,,,,,,,,,,,,,,,,,,,,,,,,,
,,5ec24766fd704d00089a80af,2024-01-06_07h37.33.502,kallum_motion_pilot,2023.2.3,Win32,60.0240096,5ec24766fd704d00089a80af,6598e6a5d84f07970b831e70,6598e7101661eb4a6cf477b8,0.022,0.022,0,16,16,37,1,threefour,,,,,,,,,,,,,,,,,,,,,,,,,,,,,,,,,,,,,,,,,,,,,,,,,,,,,,,,,,,,,,,,,,,,,,,,,,,,,,,,,,,,,,,,,,,,,,,,,,,,,,,,,,,,,,,,,,,,,,,,,,,,,,,,,,,,,,,
,,5ec24766fd704d00089a80af,2024-01-06_07h37.33.502,kallum_motion_pilot,2023.2.3,Win32,60.0240096,5ec24766fd704d00089a80af,6598e6a5d84f07970b831e70,6598e7101661eb4a6cf477b8,0.022,0.022,0,17,17,95,1,eightseven,,,,,,,,,,,,,,,,,,,,,,,,,,,,,,,,,,,,,,,,,,,,,,,,,,,,,,,,,,,,,,,,,,,,,,,,,,,,,,,,,,,,,,,,,,,,,,,,,,,,,,,,,,,,,,,,,,,,,,,,,,,,,,,,,,,,,,,
,,5ec24766fd704d00089a80af,2024-01-06_07h37.33.502,kallum_motion_pilot,2023.2.3,Win32,60.0240096,5ec24766fd704d00089a80af,6598e6a5d84f07970b831e70,6598e7101661eb4a6cf477b8,0.022,0.022,0,18,18,157,1,seveneight,,,,,,,,,,,,,,,,,,,,,,,,,,,,,,,,,,,,,,,,,,,,,,,,,,,,,,,,,,,,,,,,,,,,,,,,,,,,,,,,,,,,,,,,,,,,,,,,,,,,,,,,,,,,,,,,,,,,,,,,,,,,,,,,,,,,,,,
,,5ec24766fd704d00089a80af,2024-01-06_07h37.33.502,kallum_motion_pilot,2023.2.3,Win32,60.0240096,5ec24766fd704d00089a80af,6598e6a5d84f07970b831e70,6598e7101661eb4a6cf477b8,0.022,0.022,0,19,19,98,1,sixfive,,,,,,,,,,,,,,,,,,,,,,,,,,,,,,,,,,,,,,,,,,,,,,,,,,,,,,,,,,,,,,,,,,,,,,,,,,,,,,,,,,,,,,,,,,,,,,,,,,,,,,,,,,,,,,,,,,,,,,,,,,,,,,,,,,,,,,,
,,5ec24766fd704d00089a80af,2024-01-06_07h37.33.502,kallum_motion_pilot,2023.2.3,Win32,60.0240096,5ec24766fd704d00089a80af,6598e6a5d84f07970b831e70,6598e7101661eb4a6cf477b8,0.022,0.022,0,20,20,119,1,eightseven,,,,,,,,,,,,,,,,,,,,,,,,,,,,,,,,,,,,,,,,,,,,,,,,,,,,,,,,,,,,,,,,,,,,,,,,,,,,,,,,,,,,,,,,,,,,,,,,,,,,,,,,,,,,,,,,,,,,,,,,,,,,,,,,,,,,,,,
,,5ec24766fd704d00089a80af,2024-01-06_07h37.33.502,kallum_motion_pilot,2023.2.3,Win32,60.0240096,5ec24766fd704d00089a80af,6598e6a5d84f07970b831e70,6598e7101661eb4a6cf477b8,0.022,0.022,0,21,21,76,1,threeone,,,,,,,,,,,,,,,,,,,,,,,,,,,,,,,,,,,,,,,,,,,,,,,,,,,,,,,,,,,,,,,,,,,,,,,,,,,,,,,,,,,,,,,,,,,,,,,,,,,,,,,,,,,,,,,,,,,,,,,,,,,,,,,,,,,,,,,
,,5ec24766fd704d00089a80af,2024-01-06_07h37.33.502,kallum_motion_pilot,2023.2.3,Win32,60.0240096,5ec24766fd704d00089a80af,6598e6a5d84f07970b831e70,6598e7101661eb4a6cf477b8,0.022,0.022,0,22,22,93,1,seveneight,,,,,,,,,,,,,,,,,,,,,,,,,,,,,,,,,,,,,,,,,,,,,,,,,,,,,,,,,,,,,,,,,,,,,,,,,,,,,,,,,,,,,,,,,,,,,,,,,,,,,,,,,,,,,,,,,,,,,,,,,,,,,,,,,,,,,,,
,,5ec24766fd704d00089a80af,2024-01-06_07h37.33.502,kallum_motion_pilot,2023.2.3,Win32,60.0240096,5ec24766fd704d00089a80af,6598e6a5d84f07970b831e70,6598e7101661eb4a6cf477b8,0.022,0.022,0,23,23,21,1,threefour,,,,,,,,,,,,,,,,,,,,,,,,,,,,,,,,,,,,,,,,,,,,,,,,,,,,,,,,,,,,,,,,,,,,,,,,,,,,,,,,,,,,,,,,,,,,,,,,,,,,,,,,,,,,,,,,,,,,,,,,,,,,,,,,,,,,,,,
,,5ec24766fd704d00089a80af,2024-01-06_07h37.33.502,kallum_motion_pilot,2023.2.3,Win32,60.0240096,5ec24766fd704d00089a80af,6598e6a5d84f07970b831e70,6598e7101661eb4a6cf477b8,0.022,0.022,0,24,24,155,1,sixeight,,,,,,,,,,,,,,,,,,,,,,,,,,,,,,,,,,,,,,,,,,,,,,,,,,,,,,,,,,,,,,,,,,,,,,,,,,,,,,,,,,,,,,,,,,,,,,,,,,,,,,,,,,,,,,,,,,,,,,,,,,,,,,,,,,,,,,,
,,5ec24766fd704d00089a80af,2024-01-06_07h37.33.502,kallum_motion_pilot,2023.2.3,Win32,60.0240096,5ec24766fd704d00089a80af,6598e6a5d84f07970b831e70,6598e7101661eb4a6cf477b8,0.022,0.022,0,25,25,75,1,twofour,,,,,,,,,,,,,,,,,,,,,,,,,,,,,,,,,,,,,,,,,,,,,,,,,,,,,,,,,,,,,,,,,,,,,,,,,,,,,,,,,,,,,,,,,,,,,,,,,,,,,,,,,,,,,,,,,,,,,,,,,,,,,,,,,,,,,,,
,,5ec24766fd704d00089a80af,2024-01-06_07h37.33.502,kallum_motion_pilot,2023.2.3,Win32,60.0240096,5ec24766fd704d00089a80af,6598e6a5d84f07970b831e70,6598e7101661eb4a6cf477b8,0.022,0.022,0,26,26,53,1,threefour,,,,,,,,,,,,,,,,,,,,,,,,,,,,,,,,,,,,,,,,,,,,,,,,,,,,,,,,,,,,,,,,,,,,,,,,,,,,,,,,,,,,,,,,,,,,,,,,,,,,,,,,,,,,,,,,,,,,,,,,,,,,,,,,,,,,,,,
,,5ec24766fd704d00089a80af,2024-01-06_07h37.33.502,kallum_motion_pilot,2023.2.3,Win32,60.0240096,5ec24766fd704d00089a80af,6598e6a5d84f07970b831e70,6598e7101661eb4a6cf477b8,0.022,0.022,0,27,27,88,1,fivesix,,,,,,,,,,,,,,,,,,,,,,,,,,,,,,,,,,,,,,,,,,,,,,,,,,,,,,,,,,,,,,,,,,,,,,,,,,,,,,,,,,,,,,,,,,,,,,,,,,,,,,,,,,,,,,,,,,,,,,,,,,,,,,,,,,,,,,,
,,5ec24766fd704d00089a80af,2024-01-06_07h37.33.502,kallum_motion_pilot,2023.2.3,Win32,60.0240096,5ec24766fd704d00089a80af,6598e6a5d84f07970b831e70,6598e7101661eb4a6cf477b8,0.022,0.022,0,28,28,62,1,fourtwo,,,,,,,,,,,,,,,,,,,,,,,,,,,,,,,,,,,,,,,,,,,,,,,,,,,,,,,,,,,,,,,,,,,,,,,,,,,,,,,,,,,,,,,,,,,,,,,,,,,,,,,,,,,,,,,,,,,,,,,,,,,,,,,,,,,,,,,
,,5ec24766fd704d00089a80af,2024-01-06_07h37.33.502,kallum_motion_pilot,2023.2.3,Win32,60.0240096,5ec24766fd704d00089a80af,6598e6a5d84f07970b831e70,6598e7101661eb4a6cf477b8,0.022,0.022,0,29,29,22,1,fourtwo,,,,,,,,,,,,,,,,,,,,,,,,,,,,,,,,,,,,,,,,,,,,,,,,,,,,,,,,,,,,,,,,,,,,,,,,,,,,,,,,,,,,,,,,,,,,,,,,,,,,,,,,,,,,,,,,,,,,,,,,,,,,,,,,,,,,,,,
,,5ec24766fd704d00089a80af,2024-01-06_07h37.33.502,kallum_motion_pilot,2023.2.3,Win32,60.0240096,5ec24766fd704d00089a80af,6598e6a5d84f07970b831e70,6598e7101661eb4a6cf477b8,0.022,0.022,0,30,30,124,1,sevenfive,,,,,,,,,,,,,,,,,,,,,,,,,,,,,,,,,,,,,,,,,,,,,,,,,,,,,,,,,,,,,,,,,,,,,,,,,,,,,,,,,,,,,,,,,,,,,,,,,,,,,,,,,,,,,,,,,,,,,,,,,,,,,,,,,,,,,,,
,,5ec24766fd704d00089a80af,2024-01-06_07h37.33.502,kallum_motion_pilot,2023.2.3,Win32,60.0240096,5ec24766fd704d00089a80af,6598e6a5d84f07970b831e70,6598e7101661eb4a6cf477b8,0.022,0.022,0,31,31,130,1,sixfive,,,,,,,,,,,,,,,,,,,,,,,,,,,,,,,,,,,,,,,,,,,,,,,,,,,,,,,,,,,,,,,,,,,,,,,,,,,,,,,,,,,,,,,,,,,,,,,,,,,,,,,,,,,,,,,,,,,,,,,,,,,,,,,,,,,,,,,
,,5ec24766fd704d00089a80af,2024-01-06_07h37.33.502,kallum_motion_pilot,2023.2.3,Win32,60.0240096,5ec24766fd704d00089a80af,6598e6a5d84f07970b831e70,6598e7101661eb4a6cf477b8,0.023,0.023,0,32,32,105,1,fiveseven,,,,,,,,,,,,,,,,,,,,,,,,,,,,,,,,,,,,,,,,,,,,,,,,,,,,,,,,,,,,,,,,,,,,,,,,,,,,,,,,,,,,,,,,,,,,,,,,,,,,,,,,,,,,,,,,,,,,,,,,,,,,,,,,,,,,,,,
,,5ec24766fd704d00089a80af,2024-01-06_07h37.33.502,kallum_motion_pilot,2023.2.3,Win32,60.0240096,5ec24766fd704d00089a80af,6598e6a5d84f07970b831e70,6598e7101661eb4a6cf477b8,0.023,0.023,0,33,33,78,1,fourtwo,,,,,,,,,,,,,,,,,,,,,,,,,,,,,,,,,,,,,,,,,,,,,,,,,,,,,,,,,,,,,,,,,,,,,,,,,,,,,,,,,,,,,,,,,,,,,,,,,,,,,,,,,,,,,,,,,,,,,,,,,,,,,,,,,,,,,,,
,,5ec24766fd704d00089a80af,2024-01-06_07h37.33.502,kallum_motion_pilot,2023.2.3,Win32,60.0240096,5ec24766fd704d00089a80af,6598e6a5d84f07970b831e70,6598e7101661eb4a6cf477b8,0.023,0.023,0,34,34,144,1,fivesix,,,,,,,,,,,,,,,,,,,,,,,,,,,,,,,,,,,,,,,,,,,,,,,,,,,,,,,,,,,,,,,,,,,,,,,,,,,,,,,,,,,,,,,,,,,,,,,,,,,,,,,,,,,,,,,,,,,,,,,,,,,,,,,,,,,,,,,
,,5ec24766fd704d00089a80af,2024-01-06_07h37.33.502,kallum_motion_pilot,2023.2.3,Win32,60.0240096,5ec24766fd704d00089a80af,6598e6a5d84f07970b831e70,6598e7101661eb4a6cf477b8,0.023,0.023,0,35,35,79,1,eightseven,,,,,,,,,,,,,,,,,,,,,,,,,,,,,,,,,,,,,,,,,,,,,,,,,,,,,,,,,,,,,,,,,,,,,,,,,,,,,,,,,,,,,,,,,,,,,,,,,,,,,,,,,,,,,,,,,,,,,,,,,,,,,,,,,,,,,,,
,,5ec24766fd704d00089a80af,2024-01-06_07h37.33.502,kallum_motion_pilot,2023.2.3,Win32,60.0240096,5ec24766fd704d00089a80af,6598e6a5d84f07970b831e70,6598e7101661eb4a6cf477b8,0.023,0.023,0,36,36,8,1,onetwo,,,,,,,,,,,,,,,,,,,,,,,,,,,,,,,,,,,,,,,,,,,,,,,,,,,,,,,,,,,,,,,,,,,,,,,,,,,,,,,,,,,,,,,,,,,,,,,,,,,,,,,,,,,,,,,,,,,,,,,,,,,,,,,,,,,,,,,
,,5ec24766fd704d00089a80af,2024-01-06_07h37.33.502,kallum_motion_pilot,2023.2.3,Win32,60.0240096,5ec24766fd704d00089a80af,6598e6a5d84f07970b831e70,6598e7101661eb4a6cf477b8,0.023,0.023,0,37,37,31,1,fourthree,,,,,,,,,,,,,,,,,,,,,,,,,,,,,,,,,,,,,,,,,,,,,,,,,,,,,,,,,,,,,,,,,,,,,,,,,,,,,,,,,,,,,,,,,,,,,,,,,,,,,,,,,,,,,,,,,,,,,,,,,,,,,,,,,,,,,,,
,,5ec24766fd704d00089a80af,2024-01-06_07h37.33.502,kallum_motion_pilot,2023.2.3,Win32,60.0240096,5ec24766fd704d00089a80af,6598e6a5d84f07970b831e70,6598e7101661eb4a6cf477b8,0.023,0.023,0,38,38,1,1,onethree,,,,,,,,,,,,,,,,,,,,,,,,,,,,,,,,,,,,,,,,,,,,,,,,,,,,,,,,,,,,,,,,,,,,,,,,,,,,,,,,,,,,,,,,,,,,,,,,,,,,,,,,,,,,,,,,,,,,,,,,,,,,,,,,,,,,,,,
,,5ec24766fd704d00089a80af,2024-01-06_07h37.33.502,kallum_motion_pilot,2023.2.3,Win32,60.0240096,5ec24766fd704d00089a80af,6598e6a5d84f07970b831e70,6598e7101661eb4a6cf477b8,0.023,0.023,0,39,39,6,1,fourtwo,,,,,,,,,,,,,,,,,,,,,,,,,,,,,,,,,,,,,,,,,,,,,,,,,,,,,,,,,,,,,,,,,,,,,,,,,,,,,,,,,,,,,,,,,,,,,,,,,,,,,,,,,,,,,,,,,,,,,,,,,,,,,,,,,,,,,,,
,,5ec24766fd704d00089a80af,2024-01-06_07h37.33.502,kallum_motion_pilot,2023.2.3,Win32,60.0240096,5ec24766fd704d00089a80af,6598e6a5d84f07970b831e70,6598e7101661eb4a6cf477b8,0.023,0.023,0,40,40,13,1,threefour,,,,,,,,,,,,,,,,,,,,,,,,,,,,,,,,,,,,,,,,,,,,,,,,,,,,,,,,,,,,,,,,,,,,,,,,,,,,,,,,,,,,,,,,,,,,,,,,,,,,,,,,,,,,,,,,,,,,,,,,,,,,,,,,,,,,,,,
,,5ec24766fd704d00089a80af,2024-01-06_07h37.33.502,kallum_motion_pilot,2023.2.3,Win32,60.0240096,5ec24766fd704d00089a80af,6598e6a5d84f07970b831e70,6598e7101661eb4a6cf477b8,0.023,0.023,0,41,41,118,1,eightsix,,,,,,,,,,,,,,,,,,,,,,,,,,,,,,,,,,,,,,,,,,,,,,,,,,,,,,,,,,,,,,,,,,,,,,,,,,,,,,,,,,,,,,,,,,,,,,,,,,,,,,,,,,,,,,,,,,,,,,,,,,,,,,,,,,,,,,,
,,5ec24766fd704d00089a80af,2024-01-06_07h37.33.502,kallum_motion_pilot,2023.2.3,Win32,60.0240096,5ec24766fd704d00089a80af,6598e6a5d84f07970b831e70,6598e7101661eb4a6cf477b8,0.023,0.023,0,42,42,160,1,fivesix,,,,,,,,,,,,,,,,,,,,,,,,,,,,,,,,,,,,,,,,,,,,,,,,,,,,,,,,,,,,,,,,,,,,,,,,,,,,,,,,,,,,,,,,,,,,,,,,,,,,,,,,,,,,,,,,,,,,,,,,,,,,,,,,,,,,,,,
,,5ec24766fd704d00089a80af,2024-01-06_07h37.33.502,kallum_motion_pilot,2023.2.3,Win32,60.0240096,5ec24766fd704d00089a80af,6598e6a5d84f07970b831e70,6598e7101661eb4a6cf477b8,0.024,0.024,0,43,43,149,1,seveneight,,,,,,,,,,,,,,,,,,,,,,,,,,,,,,,,,,,,,,,,,,,,,,,,,,,,,,,,,,,,,,,,,,,,,,,,,,,,,,,,,,,,,,,,,,,,,,,,,,,,,,,,,,,,,,,,,,,,,,,,,,,,,,,,,,,,,,,
,,5ec24766fd704d00089a80af,2024-01-06_07h37.33.502,kallum_motion_pilot,2023.2.3,Win32,60.0240096,5ec24766fd704d00089a80af,6598e6a5d84f07970b831e70,6598e7101661eb4a6cf477b8,0.024,0.024,0,44,44,57,1,onethree,,,,,,,,,,,,,,,,,,,,,,,,,,,,,,,,,,,,,,,,,,,,,,,,,,,,,,,,,,,,,,,,,,,,,,,,,,,,,,,,,,,,,,,,,,,,,,,,,,,,,,,,,,,,,,,,,,,,,,,,,,,,,,,,,,,,,,,
,,5ec24766fd704d00089a80af,2024-01-06_07h37.33.502,kallum_motion_pilot,2023.2.3,Win32,60.0240096,5ec24766fd704d00089a80af,6598e6a5d84f07970b831e70,6598e7101661eb4a6cf477b8,0.024,0.024,0,45,45,12,1,threeone,,,,,,,,,,,,,,,,,,,,,,,,,,,,,,,,,,,,,,,,,,,,,,,,,,,,,,,,,,,,,,,,,,,,,,,,,,,,,,,,,,,,,,,,,,,,,,,,,,,,,,,,,,,,,,,,,,,,,,,,,,,,,,,,,,,,,,,
,,5ec24766fd704d00089a80af,2024-01-06_07h37.33.502,kallum_motion_pilot,2023.2.3,Win32,60.0240096,5ec24766fd704d00089a80af,6598e6a5d84f07970b831e70,6598e7101661eb4a6cf477b8,0.024,0.024,0,46,46,4,1,threeone,,,,,,,,,,,,,,,,,,,,,,,,,,,,,,,,,,,,,,,,,,,,,,,,,,,,,,,,,,,,,,,,,,,,,,,,,,,,,,,,,,,,,,,,,,,,,,,,,,,,,,,,,,,,,,,,,,,,,,,,,,,,,,,,,,,,,,,
,,5ec24766fd704d00089a80af,2024-01-06_07h37.33.502,kallum_motion_pilot,2023.2.3,Win32,60.0240096,5ec24766fd704d00089a80af,6598e6a5d84f07970b831e70,6598e7101661eb4a6cf477b8,0.024,0.024,0,47,47,25,1,onethree,,,,,,,,,,,,,,,,,,,,,,,,,,,,,,,,,,,,,,,,,,,,,,,,,,,,,,,,,,,,,,,,,,,,,,,,,,,,,,,,,,,,,,,,,,,,,,,,,,,,,,,,,,,,,,,,,,,,,,,,,,,,,,,,,,,,,,,
,,5ec24766fd704d00089a80af,2024-01-06_07h37.33.502,kallum_motion_pilot,2023.2.3,Win32,60.0240096,5ec24766fd704d00089a80af,6598e6a5d84f07970b831e70,6598e7101661eb4a6cf477b8,0.024,0.024,0,48,48,142,1,eightsix,,,,,,,,,,,,,,,,,,,,,,,,,,,,,,,,,,,,,,,,,,,,,,,,,,,,,,,,,,,,,,,,,,,,,,,,,,,,,,,,,,,,,,,,,,,,,,,,,,,,,,,,,,,,,,,,,,,,,,,,,,,,,,,,,,,,,,,
,,5ec24766fd704d00089a80af,2024-01-06_07h37.33.502,kallum_motion_pilot,2023.2.3,Win32,60.0240096,5ec24766fd704d00089a80af,6598e6a5d84f07970b831e70,6598e7101661eb4a6cf477b8,0.024,0.024,0,49,49,20,1,threeone,,,,,,,,,,,,,,,,,,,,,,,,,,,,,,,,,,,,,,,,,,,,,,,,,,,,,,,,,,,,,,,,,,,,,,,,,,,,,,,,,,,,,,,,,,,,,,,,,,,,,,,,,,,,,,,,,,,,,,,,,,,,,,,,,,,,,,,
,,5ec24766fd704d00089a80af,2024-01-06_07h37.33.502,kallum_motion_pilot,2023.2.3,Win32,60.0240096,5ec24766fd704d00089a80af,6598e6a5d84f07970b831e70,6598e7101661eb4a6cf477b8,0.024,0.024,0,50,50,81,1,fiveseven,,,,,,,,,,,,,,,,,,,,,,,,,,,,,,,,,,,,,,,,,,,,,,,,,,,,,,,,,,,,,,,,,,,,,,,,,,,,,,,,,,,,,,,,,,,,,,,,,,,,,,,,,,,,,,,,,,,,,,,,,,,,,,,,,,,,,,,
,,5ec24766fd704d00089a80af,2024-01-06_07h37.33.502,kallum_motion_pilot,2023.2.3,Win32,60.0240096,5ec24766fd704d00089a80af,6598e6a5d84f07970b831e70,6598e7101661eb4a6cf477b8,0.024,0.024,0,51,51,3,1,twofour,,,,,,,,,,,,,,,,,,,,,,,,,,,,,,,,,,,,,,,,,,,,,,,,,,,,,,,,,,,,,,,,,,,,,,,,,,,,,,,,,,,,,,,,,,,,,,,,,,,,,,,,,,,,,,,,,,,,,,,,,,,,,,,,,,,,,,,
,,5ec24766fd704d00089a80af,2024-01-06_07h37.33.502,kallum_motion_pilot,2023.2.3,Win32,60.0240096,5ec24766fd704d00089a80af,6598e6a5d84f07970b831e70,6598e7101661eb4a6cf477b8,0.024,0.024,0,52,52,153,1,fiveseven,,,,,,,,,,,,,,,,,,,,,,,,,,,,,,,,,,,,,,,,,,,,,,,,,,,,,,,,,,,,,,,,,,,,,,,,,,,,,,,,,,,,,,,,,,,,,,,,,,,,,,,,,,,,,,,,,,,,,,,,,,,,,,,,,,,,,,,
,,5ec24766fd704d00089a80af,2024-01-06_07h37.33.502,kallum_motion_pilot,2023.2.3,Win32,60.0240096,5ec24766fd704d00089a80af,6598e6a5d84f07970b831e70,6598e7101661eb4a6cf477b8,0.024,0.024,0,53,53,56,1,onetwo,,,,,,,,,,,,,,,,,,,,,,,,,,,,,,,,,,,,,,,,,,,,,,,,,,,,,,,,,,,,,,,,,,,,,,,,,,,,,,,,,,,,,,,,,,,,,,,,,,,,,,,,,,,,,,,,,,,,,,,,,,,,,,,,,,,,,,,
,,5ec24766fd704d00089a80af,2024-01-06_07h37.33.502,kallum_motion_pilot,2023.2.3,Win32,60.0240096,5ec24766fd704d00089a80af,6598e6a5d84f07970b831e70,6598e7101661eb4a6cf477b8,0.024,0.024,0,54,54,103,1,eightseven,,,,,,,,,,,,,,,,,,,,,,,,,,,,,,,,,,,,,,,,,,,,,,,,,,,,,,,,,,,,,,,,,,,,,,,,,,,,,,,,,,,,,,,,,,,,,,,,,,,,,,,,,,,,,,,,,,,,,,,,,,,,,,,,,,,,,,,
,,5ec24766fd704d00089a80af,2024-01-06_07h37.33.502,kallum_motion_pilot,2023.2.3,Win32,60.0240096,5ec24766fd704d00089a80af,6598e6a5d84f07970b831e70,6598e7101661eb4a6cf477b8,0.025,0.025,0,55,55,100,1,sevenfive,,,,,,,,,,,,,,,,,,,,,,,,,,,,,,,,,,,,,,,,,,,,,,,,,,,,,,,,,,,,,,,,,,,,,,,,,,,,,,,,,,,,,,,,,,,,,,,,,,,,,,,,,,,,,,,,,,,,,,,,,,,,,,,,,,,,,,,
,,5ec24766fd704d00089a80af,2024-01-06_07h37.33.502,kallum_motion_pilot,2023.2.3,Win32,60.0240096,5ec24766fd704d00089a80af,6598e6a5d84f07970b831e70,6598e7101661eb4a6cf477b8,0.025,0.025,0,56,56,35,1,twofour,,,,,,,,,,,,,,,,,,,,,,,,,,,,,,,,,,,,,,,,,,,,,,,,,,,,,,,,,,,,,,,,,,,,,,,,,,,,,,,,,,,,,,,,,,,,,,,,,,,,,,,,,,,,,,,,,,,,,,,,,,,,,,,,,,,,,,,
,,5ec24766fd704d00089a80af,2024-01-06_07h37.33.502,kallum_motion_pilot,2023.2.3,Win32,60.0240096,5ec24766fd704d00089a80af,6598e6a5d84f07970b831e70,6598e7101661eb4a6cf477b8,0.025,0.025,0,57,57,138,1,sixfive,,,,,,,,,,,,,,,,,,,,,,,,,,,,,,,,,,,,,,,,,,,,,,,,,,,,,,,,,,,,,,,,,,,,,,,,,,,,,,,,,,,,,,,,,,,,,,,,,,,,,,,,,,,,,,,,,,,,,,,,,,,,,,,,,,,,,,,
,,5ec24766fd704d00089a80af,2024-01-06_07h37.33.502,kallum_motion_pilot,2023.2.3,Win32,60.0240096,5ec24766fd704d00089a80af,6598e6a5d84f07970b831e70,6598e7101661eb4a6cf477b8,0.025,0.025,0,58,58,54,1,fourtwo,,,,,,,,,,,,,,,,,,,,,,,,,,,,,,,,,,,,,,,,,,,,,,,,,,,,,,,,,,,,,,,,,,,,,,,,,,,,,,,,,,,,,,,,,,,,,,,,,,,,,,,,,,,,,,,,,,,,,,,,,,,,,,,,,,,,,,,
,,5ec24766fd704d00089a80af,2024-01-06_07h37.33.502,kallum_motion_pilot,2023.2.3,Win32,60.0240096,5ec24766fd704d00089a80af,6598e6a5d84f07970b831e70,6598e7101661eb4a6cf477b8,0.025,0.025,0,59,59,58,1,twoone,,,,,,,,,,,,,,,,,,,,,,,,,,,,,,,,,,,,,,,,,,,,,,,,,,,,,,,,,,,,,,,,,,,,,,,,,,,,,,,,,,,,,,,,,,,,,,,,,,,,,,,,,,,,,,,,,,,,,,,,,,,,,,,,,,,,,,,
,,5ec24766fd704d00089a80af,2024-01-06_07h37.33.502,kallum_motion_pilot,2023.2.3,Win32,60.0240096,5ec24766fd704d00089a80af,6598e6a5d84f07970b831e70,6598e7101661eb4a6cf477b8,0.025,0.025,0,60,60,33,1,onethree,,,,,,,,,,,,,,,,,,,,,,,,,,,,,,,,,,,,,,,,,,,,,,,,,,,,,,,,,,,,,,,,,,,,,,,,,,,,,,,,,,,,,,,,,,,,,,,,,,,,,,,,,,,,,,,,,,,,,,,,,,,,,,,,,,,,,,,
,,5ec24766fd704d00089a80af,2024-01-06_07h37.33.502,kallum_motion_pilot,2023.2.3,Win32,60.0240096,5ec24766fd704d00089a80af,6598e6a5d84f07970b831e70,6598e7101661eb4a6cf477b8,0.025,0.025,0,61,61,158,1,eightsix,,,,,,,,,,,,,,,,,,,,,,,,,,,,,,,,,,,,,,,,,,,,,,,,,,,,,,,,,,,,,,,,,,,,,,,,,,,,,,,,,,,,,,,,,,,,,,,,,,,,,,,,,,,,,,,,,,,,,,,,,,,,,,,,,,,,,,,
,,5ec24766fd704d00089a80af,2024-01-06_07h37.33.502,kallum_motion_pilot,2023.2.3,Win32,60.0240096,5ec24766fd704d00089a80af,6598e6a5d84f07970b831e70,6598e7101661eb4a6cf477b8,0.025,0.025,0,62,62,89,1,fiveseven,,,,,,,,,,,,,,,,,,,,,,,,,,,,,,,,,,,,,,,,,,,,,,,,,,,,,,,,,,,,,,,,,,,,,,,,,,,,,,,,,,,,,,,,,,,,,,,,,,,,,,,,,,,,,,,,,,,,,,,,,,,,,,,,,,,,,,,
,,5ec24766fd704d00089a80af,2024-01-06_07h37.33.502,kallum_motion_pilot,2023.2.3,Win32,60.0240096,5ec24766fd704d00089a80af,6598e6a5d84f07970b831e70,6598e7101661eb4a6cf477b8,0.025,0.025,0,63,63,122,1,sixfive,,,,,,,,,,,,,,,,,,,,,,,,,,,,,,,,,,,,,,,,,,,,,,,,,,,,,,,,,,,,,,,,,,,,,,,,,,,,,,,,,,,,,,,,,,,,,,,,,,,,,,,,,,,,,,,,,,,,,,,,,,,,,,,,,,,,,,,
,,5ec24766fd704d00089a80af,2024-01-06_07h37.33.502,kallum_motion_pilot,2023.2.3,Win32,60.0240096,5ec24766fd704d00089a80af,6598e6a5d84f07970b831e70,6598e7101661eb4a6cf477b8,0.025,0.025,0,64,64,107,1,sixeight,,,,,,,,,,,,,,,,,,,,,,,,,,,,,,,,,,,,,,,,,,,,,,,,,,,,,,,,,,,,,,,,,,,,,,,,,,,,,,,,,,,,,,,,,,,,,,,,,,,,,,,,,,,,,,,,,,,,,,,,,,,,,,,,,,,,,,,
,,5ec24766fd704d00089a80af,2024-01-06_07h37.33.502,kallum_motion_pilot,2023.2.3,Win32,60.0240096,5ec24766fd704d00089a80af,6598e6a5d84f07970b831e70,6598e7101661eb4a6cf477b8,0.025,0.025,0,65,65,51,1,twofour,,,,,,,,,,,,,,,,,,,,,,,,,,,,,,,,,,,,,,,,,,,,,,,,,,,,,,,,,,,,,,,,,,,,,,,,,,,,,,,,,,,,,,,,,,,,,,,,,,,,,,,,,,,,,,,,,,,,,,,,,,,,,,,,,,,,,,,
,,5ec24766fd704d00089a80af,2024-01-06_07h37.33.502,kallum_motion_pilot,2023.2.3,Win32,60.0240096,5ec24766fd704d00089a80af,6598e6a5d84f07970b831e70,6598e7101661eb4a6cf477b8,0.025,0.025,0,66,66,111,1,eightseven,,,,,,,,,,,,,,,,,,,,,,,,,,,,,,,,,,,,,,,,,,,,,,,,,,,,,,,,,,,,,,,,,,,,,,,,,,,,,,,,,,,,,,,,,,,,,,,,,,,,,,,,,,,,,,,,,,,,,,,,,,,,,,,,,,,,,,,
,,5ec24766fd704d00089a80af,2024-01-06_07h37.33.502,kallum_motion_pilot,2023.2.3,Win32,60.0240096,5ec24766fd704d00089a80af,6598e6a5d84f07970b831e70,6598e7101661eb4a6cf477b8,0.025,0.025,0,67,67,90,1,sixfive,,,,,,,,,,,,,,,,,,,,,,,,,,,,,,,,,,,,,,,,,,,,,,,,,,,,,,,,,,,,,,,,,,,,,,,,,,,,,,,,,,,,,,,,,,,,,,,,,,,,,,,,,,,,,,,,,,,,,,,,,,,,,,,,,,,,,,,
,,5ec24766fd704d00089a80af,2024-01-06_07h37.33.502,kallum_motion_pilot,2023.2.3,Win32,60.0240096,5ec24766fd704d00089a80af,6598e6a5d84f07970b831e70,6598e7101661eb4a6cf477b8,0.025,0.025,0,68,68,159,1,eightseven,,,,,,,,,,,,,,,,,,,,,,,,,,,,,,,,,,,,,,,,,,,,,,,,,,,,,,,,,,,,,,,,,,,,,,,,,,,,,,,,,,,,,,,,,,,,,,,,,,,,,,,,,,,,,,,,,,,,,,,,,,,,,,,,,,,,,,,
,,5ec24766fd704d00089a80af,2024-01-06_07h37.33.502,kallum_motion_pilot,2023.2.3,Win32,60.0240096,5ec24766fd704d00089a80af,6598e6a5d84f07970b831e70,6598e7101661eb4a6cf477b8,0.025,0.025,0,69,69,128,1,fivesix,,,,,,,,,,,,,,,,,,,,,,,,,,,,,,,,,,,,,,,,,,,,,,,,,,,,,,,,,,,,,,,,,,,,,,,,,,,,,,,,,,,,,,,,,,,,,,,,,,,,,,,,,,,,,,,,,,,,,,,,,,,,,,,,,,,,,,,
,,5ec24766fd704d00089a80af,2024-01-06_07h37.33.502,kallum_motion_pilot,2023.2.3,Win32,60.0240096,5ec24766fd704d00089a80af,6598e6a5d84f07970b831e70,6598e7101661eb4a6cf477b8,0.025,0.026,0,70,70,73,1,onethree,,,,,,,,,,,,,,,,,,,,,,,,,,,,,,,,,,,,,,,,,,,,,,,,,,,,,,,,,,,,,,,,,,,,,,,,,,,,,,,,,,,,,,,,,,,,,,,,,,,,,,,,,,,,,,,,,,,,,,,,,,,,,,,,,,,,,,,
,,5ec24766fd704d00089a80af,2024-01-06_07h37.33.502,kallum_motion_pilot,2023.2.3,Win32,60.0240096,5ec24766fd704d00089a80af,6598e6a5d84f07970b831e70,6598e7101661eb4a6cf477b8,0.026,0.026,0,71,71,84,1,sevenfive,,,,,,,,,,,,,,,,,,,,,,,,,,,,,,,,,,,,,,,,,,,,,,,,,,,,,,,,,,,,,,,,,,,,,,,,,,,,,,,,,,,,,,,,,,,,,,,,,,,,,,,,,,,,,,,,,,,,,,,,,,,,,,,,,,,,,,,
,,5ec24766fd704d00089a80af,2024-01-06_07h37.33.502,kallum_motion_pilot,2023.2.3,Win32,60.0240096,5ec24766fd704d00089a80af,6598e6a5d84f07970b831e70,6598e7101661eb4a6cf477b8,0.026,0.026,0,72,72,152,1,fivesix,,,,,,,,,,,,,,,,,,,,,,,,,,,,,,,,,,,,,,,,,,,,,,,,,,,,,,,,,,,,,,,,,,,,,,,,,,,,,,,,,,,,,,,,,,,,,,,,,,,,,,,,,,,,,,,,,,,,,,,,,,,,,,,,,,,,,,,
,,5ec24766fd704d00089a80af,2024-01-06_07h37.33.502,kallum_motion_pilot,2023.2.3,Win32,60.0240096,5ec24766fd704d00089a80af,6598e6a5d84f07970b831e70,6598e7101661eb4a6cf477b8,0.026,0.026,0,73,73,46,1,fourtwo,,,,,,,,,,,,,,,,,,,,,,,,,,,,,,,,,,,,,,,,,,,,,,,,,,,,,,,,,,,,,,,,,,,,,,,,,,,,,,,,,,,,,,,,,,,,,,,,,,,,,,,,,,,,,,,,,,,,,,,,,,,,,,,,,,,,,,,
,,5ec24766fd704d00089a80af,2024-01-06_07h37.33.502,kallum_motion_pilot,2023.2.3,Win32,60.0240096,5ec24766fd704d00089a80af,6598e6a5d84f07970b831e70,6598e7101661eb4a6cf477b8,0.026,0.026,0,74,74,60,1,threeone,,,,,,,,,,,,,,,,,,,,,,,,,,,,,,,,,,,,,,,,,,,,,,,,,,,,,,,,,,,,,,,,,,,,,,,,,,,,,,,,,,,,,,,,,,,,,,,,,,,,,,,,,,,,,,,,,,,,,,,,,,,,,,,,,,,,,,,
,,5ec24766fd704d00089a80af,2024-01-06_07h37.33.502,kallum_motion_pilot,2023.2.3,Win32,60.0240096,5ec24766fd704d00089a80af,6598e6a5d84f07970b831e70,6598e7101661eb4a6cf477b8,0.026,0.026,0,75,75,27,1,twofour,,,,,,,,,,,,,,,,,,,,,,,,,,,,,,,,,,,,,,,,,,,,,,,,,,,,,,,,,,,,,,,,,,,,,,,,,,,,,,,,,,,,,,,,,,,,,,,,,,,,,,,,,,,,,,,,,,,,,,,,,,,,,,,,,,,,,,,
,,5ec24766fd704d00089a80af,2024-01-06_07h37.33.502,kallum_motion_pilot,2023.2.3,Win32,60.0240096,5ec24766fd704d00089a80af,6598e6a5d84f07970b831e70,6598e7101661eb4a6cf477b8,0.026,0.026,0,76,76,83,1,sixeight,,,,,,,,,,,,,,,,,,,,,,,,,,,,,,,,,,,,,,,,,,,,,,,,,,,,,,,,,,,,,,,,,,,,,,,,,,,,,,,,,,,,,,,,,,,,,,,,,,,,,,,,,,,,,,,,,,,,,,,,,,,,,,,,,,,,,,,
,,5ec24766fd704d00089a80af,2024-01-06_07h37.33.502,kallum_motion_pilot,2023.2.3,Win32,60.0240096,5ec24766fd704d00089a80af,6598e6a5d84f07970b831e70,6598e7101661eb4a6cf477b8,0.026,0.026,0,77,77,135,1,eightseven,,,,,,,,,,,,,,,,,,,,,,,,,,,,,,,,,,,,,,,,,,,,,,,,,,,,,,,,,,,,,,,,,,,,,,,,,,,,,,,,,,,,,,,,,,,,,,,,,,,,,,,,,,,,,,,,,,,,,,,,,,,,,,,,,,,,,,,
,,5ec24766fd704d00089a80af,2024-01-06_07h37.33.502,kallum_motion_pilot,2023.2.3,Win32,60.0240096,5ec24766fd704d00089a80af,6598e6a5d84f07970b831e70,6598e7101661eb4a6cf477b8,0.026,0.026,0,78,78,77,1,threefour,,,,,,,,,,,,,,,,,,,,,,,,,,,,,,,,,,,,,,,,,,,,,,,,,,,,,,,,,,,,,,,,,,,,,,,,,,,,,,,,,,,,,,,,,,,,,,,,,,,,,,,,,,,,,,,,,,,,,,,,,,,,,,,,,,,,,,,
,,5ec24766fd704d00089a80af,2024-01-06_07h37.33.502,kallum_motion_pilot,2023.2.3,Win32,60.0240096,5ec24766fd704d00089a80af,6598e6a5d84f07970b831e70,6598e7101661eb4a6cf477b8,0.026,0.026,0,79,79,64,1,onetwo,,,,,,,,,,,,,,,,,,,,,,,,,,,,,,,,,,,,,,,,,,,,,,,,,,,,,,,,,,,,,,,,,,,,,,,,,,,,,,,,,,,,,,,,,,,,,,,,,,,,,,,,,,,,,,,,,,,,,,,,,,,,,,,,,,,,,,,
,,5ec24766fd704d00089a80af,2024-01-06_07h37.33.502,kallum_motion_pilot,2023.2.3,Win32,60.0240096,5ec24766fd704d00089a80af,6598e6a5d84f07970b831e70,6598e7101661eb4a6cf477b8,0.027,0.027,0,80,80,102,1,eightsix,,,,,,,,,,,,,,,,,,,,,,,,,,,,,,,,,,,,,,,,,,,,,,,,,,,,,,,,,,,,,,,,,,,,,,,,,,,,,,,,,,,,,,,,,,,,,,,,,,,,,,,,,,,,,,,,,,,,,,,,,,,,,,,,,,,,,,,
,,5ec24766fd704d00089a80af,2024-01-06_07h37.33.502,kallum_motion_pilot,2023.2.3,Win32,60.0240096,5ec24766fd704d00089a80af,6598e6a5d84f07970b831e70,6598e7101661eb4a6cf477b8,0.027,0.027,0,81,81,63,1,fourthree,,,,,,,,,,,,,,,,,,,,,,,,,,,,,,,,,,,,,,,,,,,,,,,,,,,,,,,,,,,,,,,,,,,,,,,,,,,,,,,,,,,,,,,,,,,,,,,,,,,,,,,,,,,,,,,,,,,,,,,,,,,,,,,,,,,,,,,
,,5ec24766fd704d00089a80af,2024-01-06_07h37.33.502,kallum_motion_pilot,2023.2.3,Win32,60.0240096,5ec24766fd704d00089a80af,6598e6a5d84f07970b831e70,6598e7101661eb4a6cf477b8,0.027,0.027,0,82,82,30,1,fourtwo,,,,,,,,,,,,,,,,,,,,,,,,,,,,,,,,,,,,,,,,,,,,,,,,,,,,,,,,,,,,,,,,,,,,,,,,,,,,,,,,,,,,,,,,,,,,,,,,,,,,,,,,,,,,,,,,,,,,,,,,,,,,,,,,,,,,,,,
,,5ec24766fd704d00089a80af,2024-01-06_07h37.33.502,kallum_motion_pilot,2023.2.3,Win32,60.0240096,5ec24766fd704d00089a80af,6598e6a5d84f07970b831e70,6598e7101661eb4a6cf477b8,0.027,0.027,0,83,83,38,1,fourtwo,,,,,,,,,,,,,,,,,,,,,,,,,,,,,,,,,,,,,,,,,,,,,,,,,,,,,,,,,,,,,,,,,,,,,,,,,,,,,,,,,,,,,,,,,,,,,,,,,,,,,,,,,,,,,,,,,,,,,,,,,,,,,,,,,,,,,,,
,,5ec24766fd704d00089a80af,2024-01-06_07h37.33.502,kallum_motion_pilot,2023.2.3,Win32,60.0240096,5ec24766fd704d00089a80af,6598e6a5d84f07970b831e70,6598e7101661eb4a6cf477b8,0.027,0.027,0,84,84,15,1,fourthree,,,,,,,,,,,,,,,,,,,,,,,,,,,,,,,,,,,,,,,,,,,,,,,,,,,,,,,,,,,,,,,,,,,,,,,,,,,,,,,,,,,,,,,,,,,,,,,,,,,,,,,,,,,,,,,,,,,,,,,,,,,,,,,,,,,,,,,
,,5ec24766fd704d00089a80af,2024-01-06_07h37.33.502,kallum_motion_pilot,2023.2.3,Win32,60.0240096,5ec24766fd704d00089a80af,6598e6a5d84f07970b831e70,6598e7101661eb4a6cf477b8,0.028,0.028,0,85,85,86,1,eightsix,,,,,,,,,,,,,,,,,,,,,,,,,,,,,,,,,,,,,,,,,,,,,,,,,,,,,,,,,,,,,,,,,,,,,,,,,,,,,,,,,,,,,,,,,,,,,,,,,,,,,,,,,,,,,,,,,,,,,,,,,,,,,,,,,,,,,,,
,,5ec24766fd704d00089a80af,2024-01-06_07h37.33.502,kallum_motion_pilot,2023.2.3,Win32,60.0240096,5ec24766fd704d00089a80af,6598e6a5d84f07970b831e70,6598e7101661eb4a6cf477b8,0.028,0.028,0,86,86,43,1,twofour,,,,,,,,,,,,,,,,,,,,,,,,,,,,,,,,,,,,,,,,,,,,,,,,,,,,,,,,,,,,,,,,,,,,,,,,,,,,,,,,,,,,,,,,,,,,,,,,,,,,,,,,,,,,,,,,,,,,,,,,,,,,,,,,,,,,,,,
,,5ec24766fd704d00089a80af,2024-01-06_07h37.33.502,kallum_motion_pilot,2023.2.3,Win32,60.0240096,5ec24766fd704d00089a80af,6598e6a5d84f07970b831e70,6598e7101661eb4a6cf477b8,0.028,0.028,0,87,87,136,1,fivesix,,,,,,,,,,,,,,,,,,,,,,,,,,,,,,,,,,,,,,,,,,,,,,,,,,,,,,,,,,,,,,,,,,,,,,,,,,,,,,,,,,,,,,,,,,,,,,,,,,,,,,,,,,,,,,,,,,,,,,,,,,,,,,,,,,,,,,,
,,5ec24766fd704d00089a80af,2024-01-06_07h37.33.502,kallum_motion_pilot,2023.2.3,Win32,60.0240096,5ec24766fd704d00089a80af,6598e6a5d84f07970b831e70,6598e7101661eb4a6cf477b8,0.028,0.028,0,88,88,150,1,eightsix,,,,,,,,,,,,,,,,,,,,,,,,,,,,,,,,,,,,,,,,,,,,,,,,,,,,,,,,,,,,,,,,,,,,,,,,,,,,,,,,,,,,,,,,,,,,,,,,,,,,,,,,,,,,,,,,,,,,,,,,,,,,,,,,,,,,,,,
,,5ec24766fd704d00089a80af,2024-01-06_07h37.33.502,kallum_motion_pilot,2023.2.3,Win32,60.0240096,5ec24766fd704d00089a80af,6598e6a5d84f07970b831e70,6598e7101661eb4a6cf477b8,0.028,0.028,0,89,89,70,1,fourtwo,,,,,,,,,,,,,,,,,,,,,,,,,,,,,,,,,,,,,,,,,,,,,,,,,,,,,,,,,,,,,,,,,,,,,,,,,,,,,,,,,,,,,,,,,,,,,,,,,,,,,,,,,,,,,,,,,,,,,,,,,,,,,,,,,,,,,,,
,,5ec24766fd704d00089a80af,2024-01-06_07h37.33.502,kallum_motion_pilot,2023.2.3,Win32,60.0240096,5ec24766fd704d00089a80af,6598e6a5d84f07970b831e70,6598e7101661eb4a6cf477b8,0.028,0.028,0,90,90,52,1,threeone,,,,,,,,,,,,,,,,,,,,,,,,,,,,,,,,,,,,,,,,,,,,,,,,,,,,,,,,,,,,,,,,,,,,,,,,,,,,,,,,,,,,,,,,,,,,,,,,,,,,,,,,,,,,,,,,,,,,,,,,,,,,,,,,,,,,,,,
,,5ec24766fd704d00089a80af,2024-01-06_07h37.33.502,kallum_motion_pilot,2023.2.3,Win32,60.0240096,5ec24766fd704d00089a80af,6598e6a5d84f07970b831e70,6598e7101661eb4a6cf477b8,0.028,0.028,0,91,91,18,1,twoone,,,,,,,,,,,,,,,,,,,,,,,,,,,,,,,,,,,,,,,,,,,,,,,,,,,,,,,,,,,,,,,,,,,,,,,,,,,,,,,,,,,,,,,,,,,,,,,,,,,,,,,,,,,,,,,,,,,,,,,,,,,,,,,,,,,,,,,
,,5ec24766fd704d00089a80af,2024-01-06_07h37.33.502,kallum_motion_pilot,2023.2.3,Win32,60.0240096,5ec24766fd704d00089a80af,6598e6a5d84f07970b831e70,6598e7101661eb4a6cf477b8,0.028,0.028,0,92,92,137,1,fiveseven,,,,,,,,,,,,,,,,,,,,,,,,,,,,,,,,,,,,,,,,,,,,,,,,,,,,,,,,,,,,,,,,,,,,,,,,,,,,,,,,,,,,,,,,,,,,,,,,,,,,,,,,,,,,,,,,,,,,,,,,,,,,,,,,,,,,,,,
,,5ec24766fd704d00089a80af,2024-01-06_07h37.33.502,kallum_motion_pilot,2023.2.3,Win32,60.0240096,5ec24766fd704d00089a80af,6598e6a5d84f07970b831e70,6598e7101661eb4a6cf477b8,0.028,0.028,0,93,93,120,1,fivesix,,,,,,,,,,,,,,,,,,,,,,,,,,,,,,,,,,,,,,,,,,,,,,,,,,,,,,,,,,,,,,,,,,,,,,,,,,,,,,,,,,,,,,,,,,,,,,,,,,,,,,,,,,,,,,,,,,,,,,,,,,,,,,,,,,,,,,,
,,5ec24766fd704d00089a80af,2024-01-06_07h37.33.502,kallum_motion_pilot,2023.2.3,Win32,60.0240096,5ec24766fd704d00089a80af,6598e6a5d84f07970b831e70,6598e7101661eb4a6cf477b8,0.028,0.028,0,94,94,61,1,threefour,,,,,,,,,,,,,,,,,,,,,,,,,,,,,,,,,,,,,,,,,,,,,,,,,,,,,,,,,,,,,,,,,,,,,,,,,,,,,,,,,,,,,,,,,,,,,,,,,,,,,,,,,,,,,,,,,,,,,,,,,,,,,,,,,,,,,,,
,,5ec24766fd704d00089a80af,2024-01-06_07h37.33.502,kallum_motion_pilot,2023.2.3,Win32,60.0240096,5ec24766fd704d00089a80af,6598e6a5d84f07970b831e70,6598e7101661eb4a6cf477b8,0.028,0.028,0,95,95,67,1,twofour,,,,,,,,,,,,,,,,,,,,,,,,,,,,,,,,,,,,,,,,,,,,,,,,,,,,,,,,,,,,,,,,,,,,,,,,,,,,,,,,,,,,,,,,,,,,,,,,,,,,,,,,,,,,,,,,,,,,,,,,,,,,,,,,,,,,,,,
,,5ec24766fd704d00089a80af,2024-01-06_07h37.33.502,kallum_motion_pilot,2023.2.3,Win32,60.0240096,5ec24766fd704d00089a80af,6598e6a5d84f07970b831e70,6598e7101661eb4a6cf477b8,0.028,0.028,0,96,96,39,1,fourthree,,,,,,,,,,,,,,,,,,,,,,,,,,,,,,,,,,,,,,,,,,,,,,,,,,,,,,,,,,,,,,,,,,,,,,,,,,,,,,,,,,,,,,,,,,,,,,,,,,,,,,,,,,,,,,,,,,,,,,,,,,,,,,,,,,,,,,,
,,5ec24766fd704d00089a80af,2024-01-06_07h37.33.502,kallum_motion_pilot,2023.2.3,Win32,60.0240096,5ec24766fd704d00089a80af,6598e6a5d84f07970b831e70,6598e7101661eb4a6cf477b8,0.028,0.028,0,97,97,47,1,fourthree,,,,,,,,,,,,,,,,,,,,,,,,,,,,,,,,,,,,,,,,,,,,,,,,,,,,,,,,,,,,,,,,,,,,,,,,,,,,,,,,,,,,,,,,,,,,,,,,,,,,,,,,,,,,,,,,,,,,,,,,,,,,,,,,,,,,,,,
,,5ec24766fd704d00089a80af,2024-01-06_07h37.33.502,kallum_motion_pilot,2023.2.3,Win32,60.0240096,5ec24766fd704d00089a80af,6598e6a5d84f07970b831e70,6598e7101661eb4a6cf477b8,0.028,0.028,0,98,98,115,1,sixeight,,,,,,,,,,,,,,,,,,,,,,,,,,,,,,,,,,,,,,,,,,,,,,,,,,,,,,,,,,,,,,,,,,,,,,,,,,,,,,,,,,,,,,,,,,,,,,,,,,,,,,,,,,,,,,,,,,,,,,,,,,,,,,,,,,,,,,,
,,5ec24766fd704d00089a80af,2024-01-06_07h37.33.502,kallum_motion_pilot,2023.2.3,Win32,60.0240096,5ec24766fd704d00089a80af,6598e6a5d84f07970b831e70,6598e7101661eb4a6cf477b8,0.028,0.028,0,99,99,117,1,seveneight,,,,,,,,,,,,,,,,,,,,,,,,,,,,,,,,,,,,,,,,,,,,,,,,,,,,,,,,,,,,,,,,,,,,,,,,,,,,,,,,,,,,,,,,,,,,,,,,,,,,,,,,,,,,,,,,,,,,,,,,,,,,,,,,,,,,,,,
,,5ec24766fd704d00089a80af,2024-01-06_07h37.33.502,kallum_motion_pilot,2023.2.3,Win32,60.0240096,5ec24766fd704d00089a80af,6598e6a5d84f07970b831e70,6598e7101661eb4a6cf477b8,0.028,0.028,0,100,100,96,1,fivesix,,,,,,,,,,,,,,,,,,,,,,,,,,,,,,,,,,,,,,,,,,,,,,,,,,,,,,,,,,,,,,,,,,,,,,,,,,,,,,,,,,,,,,,,,,,,,,,,,,,,,,,,,,,,,,,,,,,,,,,,,,,,,,,,,,,,,,,
,,5ec24766fd704d00089a80af,2024-01-06_07h37.33.502,kallum_motion_pilot,2023.2.3,Win32,60.0240096,5ec24766fd704d00089a80af,6598e6a5d84f07970b831e70,6598e7101661eb4a6cf477b8,0.028,0.028,0,101,101,161,1,fiveseven,,,,,,,,,,,,,,,,,,,,,,,,,,,,,,,,,,,,,,,,,,,,,,,,,,,,,,,,,,,,,,,,,,,,,,,,,,,,,,,,,,,,,,,,,,,,,,,,,,,,,,,,,,,,,,,,,,,,,,,,,,,,,,,,,,,,,,,
,,5ec24766fd704d00089a80af,2024-01-06_07h37.33.502,kallum_motion_pilot,2023.2.3,Win32,60.0240096,5ec24766fd704d00089a80af,6598e6a5d84f07970b831e70,6598e7101661eb4a6cf477b8,0.028,0.028,0,102,102,72,1,onetwo,,,,,,,,,,,,,,,,,,,,,,,,,,,,,,,,,,,,,,,,,,,,,,,,,,,,,,,,,,,,,,,,,,,,,,,,,,,,,,,,,,,,,,,,,,,,,,,,,,,,,,,,,,,,,,,,,,,,,,,,,,,,,,,,,,,,,,,
,,5ec24766fd704d00089a80af,2024-01-06_07h37.33.502,kallum_motion_pilot,2023.2.3,Win32,60.0240096,5ec24766fd704d00089a80af,6598e6a5d84f07970b831e70,6598e7101661eb4a6cf477b8,0.028,0.028,0,103,103,36,1,threeone,,,,,,,,,,,,,,,,,,,,,,,,,,,,,,,,,,,,,,,,,,,,,,,,,,,,,,,,,,,,,,,,,,,,,,,,,,,,,,,,,,,,,,,,,,,,,,,,,,,,,,,,,,,,,,,,,,,,,,,,,,,,,,,,,,,,,,,
,,5ec24766fd704d00089a80af,2024-01-06_07h37.33.502,kallum_motion_pilot,2023.2.3,Win32,60.0240096,5ec24766fd704d00089a80af,6598e6a5d84f07970b831e70,6598e7101661eb4a6cf477b8,0.028,0.028,0,104,104,23,1,fourthree,,,,,,,,,,,,,,,,,,,,,,,,,,,,,,,,,,,,,,,,,,,,,,,,,,,,,,,,,,,,,,,,,,,,,,,,,,,,,,,,,,,,,,,,,,,,,,,,,,,,,,,,,,,,,,,,,,,,,,,,,,,,,,,,,,,,,,,
,,5ec24766fd704d00089a80af,2024-01-06_07h37.33.502,kallum_motion_pilot,2023.2.3,Win32,60.0240096,5ec24766fd704d00089a80af,6598e6a5d84f07970b831e70,6598e7101661eb4a6cf477b8,0.028,0.028,0,105,105,123,1,sixeight,,,,,,,,,,,,,,,,,,,,,,,,,,,,,,,,,,,,,,,,,,,,,,,,,,,,,,,,,,,,,,,,,,,,,,,,,,,,,,,,,,,,,,,,,,,,,,,,,,,,,,,,,,,,,,,,,,,,,,,,,,,,,,,,,,,,,,,
,,5ec24766fd704d00089a80af,2024-01-06_07h37.33.502,kallum_motion_pilot,2023.2.3,Win32,60.0240096,5ec24766fd704d00089a80af,6598e6a5d84f07970b831e70,6598e7101661eb4a6cf477b8,0.029,0.029,0,106,106,82,1,sixfive,,,,,,,,,,,,,,,,,,,,,,,,,,,,,,,,,,,,,,,,,,,,,,,,,,,,,,,,,,,,,,,,,,,,,,,,,,,,,,,,,,,,,,,,,,,,,,,,,,,,,,,,,,,,,,,,,,,,,,,,,,,,,,,,,,,,,,,
,,5ec24766fd704d00089a80af,2024-01-06_07h37.33.502,kallum_motion_pilot,2023.2.3,Win32,60.0240096,5ec24766fd704d00089a80af,6598e6a5d84f07970b831e70,6598e7101661eb4a6cf477b8,0.029,0.029,0,107,107,68,1,threeone,,,,,,,,,,,,,,,,,,,,,,,,,,,,,,,,,,,,,,,,,,,,,,,,,,,,,,,,,,,,,,,,,,,,,,,,,,,,,,,,,,,,,,,,,,,,,,,,,,,,,,,,,,,,,,,,,,,,,,,,,,,,,,,,,,,,,,,
,,5ec24766fd704d00089a80af,2024-01-06_07h37.33.502,kallum_motion_pilot,2023.2.3,Win32,60.0240096,5ec24766fd704d00089a80af,6598e6a5d84f07970b831e70,6598e7101661eb4a6cf477b8,0.029,0.029,0,108,108,11,1,twofour,,,,,,,,,,,,,,,,,,,,,,,,,,,,,,,,,,,,,,,,,,,,,,,,,,,,,,,,,,,,,,,,,,,,,,,,,,,,,,,,,,,,,,,,,,,,,,,,,,,,,,,,,,,,,,,,,,,,,,,,,,,,,,,,,,,,,,,
,,5ec24766fd704d00089a80af,2024-01-06_07h37.33.502,kallum_motion_pilot,2023.2.3,Win32,60.0240096,5ec24766fd704d00089a80af,6598e6a5d84f07970b831e70,6598e7101661eb4a6cf477b8,0.029,0.029,0,109,109,129,1,fiveseven,,,,,,,,,,,,,,,,,,,,,,,,,,,,,,,,,,,,,,,,,,,,,,,,,,,,,,,,,,,,,,,,,,,,,,,,,,,,,,,,,,,,,,,,,,,,,,,,,,,,,,,,,,,,,,,,,,,,,,,,,,,,,,,,,,,,,,,
,,5ec24766fd704d00089a80af,2024-01-06_07h37.33.502,kallum_motion_pilot,2023.2.3,Win32,60.0240096,5ec24766fd704d00089a80af,6598e6a5d84f07970b831e70,6598e7101661eb4a6cf477b8,0.029,0.029,0,110,110,5,1,threefour,,,,,,,,,,,,,,,,,,,,,,,,,,,,,,,,,,,,,,,,,,,,,,,,,,,,,,,,,,,,,,,,,,,,,,,,,,,,,,,,,,,,,,,,,,,,,,,,,,,,,,,,,,,,,,,,,,,,,,,,,,,,,,,,,,,,,,,
,,5ec24766fd704d00089a80af,2024-01-06_07h37.33.502,kallum_motion_pilot,2023.2.3,Win32,60.0240096,5ec24766fd704d00089a80af,6598e6a5d84f07970b831e70,6598e7101661eb4a6cf477b8,0.029,0.029,0,111,111,69,1,threefour,,,,,,,,,,,,,,,,,,,,,,,,,,,,,,,,,,,,,,,,,,,,,,,,,,,,,,,,,,,,,,,,,,,,,,,,,,,,,,,,,,,,,,,,,,,,,,,,,,,,,,,,,,,,,,,,,,,,,,,,,,,,,,,,,,,,,,,
,,5ec24766fd704d00089a80af,2024-01-06_07h37.33.502,kallum_motion_pilot,2023.2.3,Win32,60.0240096,5ec24766fd704d00089a80af,6598e6a5d84f07970b831e70,6598e7101661eb4a6cf477b8,0.029,0.029,0,112,112,125,1,seveneight,,,,,,,,,,,,,,,,,,,,,,,,,,,,,,,,,,,,,,,,,,,,,,,,,,,,,,,,,,,,,,,,,,,,,,,,,,,,,,,,,,,,,,,,,,,,,,,,,,,,,,,,,,,,,,,,,,,,,,,,,,,,,,,,,,,,,,,
,,5ec24766fd704d00089a80af,2024-01-06_07h37.33.502,kallum_motion_pilot,2023.2.3,Win32,60.0240096,5ec24766fd704d00089a80af,6598e6a5d84f07970b831e70,6598e7101661eb4a6cf477b8,0.029,0.029,0,113,113,26,1,twoone,,,,,,,,,,,,,,,,,,,,,,,,,,,,,,,,,,,,,,,,,,,,,,,,,,,,,,,,,,,,,,,,,,,,,,,,,,,,,,,,,,,,,,,,,,,,,,,,,,,,,,,,,,,,,,,,,,,,,,,,,,,,,,,,,,,,,,,
,,5ec24766fd704d00089a80af,2024-01-06_07h37.33.502,kallum_motion_pilot,2023.2.3,Win32,60.0240096,5ec24766fd704d00089a80af,6598e6a5d84f07970b831e70,6598e7101661eb4a6cf477b8,0.029,0.029,0,114,114,151,1,eightseven,,,,,,,,,,,,,,,,,,,,,,,,,,,,,,,,,,,,,,,,,,,,,,,,,,,,,,,,,,,,,,,,,,,,,,,,,,,,,,,,,,,,,,,,,,,,,,,,,,,,,,,,,,,,,,,,,,,,,,,,,,,,,,,,,,,,,,,
,,5ec24766fd704d00089a80af,2024-01-06_07h37.33.502,kallum_motion_pilot,2023.2.3,Win32,60.0240096,5ec24766fd704d00089a80af,6598e6a5d84f07970b831e70,6598e7101661eb4a6cf477b8,0.029,0.029,0,115,115,143,1,eightseven,,,,,,,,,,,,,,,,,,,,,,,,,,,,,,,,,,,,,,,,,,,,,,,,,,,,,,,,,,,,,,,,,,,,,,,,,,,,,,,,,,,,,,,,,,,,,,,,,,,,,,,,,,,,,,,,,,,,,,,,,,,,,,,,,,,,,,,
,,5ec24766fd704d00089a80af,2024-01-06_07h37.33.502,kallum_motion_pilot,2023.2.3,Win32,60.0240096,5ec24766fd704d00089a80af,6598e6a5d84f07970b831e70,6598e7101661eb4a6cf477b8,0.029,0.029,0,116,116,10,1,twoone,,,,,,,,,,,,,,,,,,,,,,,,,,,,,,,,,,,,,,,,,,,,,,,,,,,,,,,,,,,,,,,,,,,,,,,,,,,,,,,,,,,,,,,,,,,,,,,,,,,,,,,,,,,,,,,,,,,,,,,,,,,,,,,,,,,,,,,
,,5ec24766fd704d00089a80af,2024-01-06_07h37.33.502,kallum_motion_pilot,2023.2.3,Win32,60.0240096,5ec24766fd704d00089a80af,6598e6a5d84f07970b831e70,6598e7101661eb4a6cf477b8,0.029,0.029,0,117,117,71,1,fourthree,,,,,,,,,,,,,,,,,,,,,,,,,,,,,,,,,,,,,,,,,,,,,,,,,,,,,,,,,,,,,,,,,,,,,,,,,,,,,,,,,,,,,,,,,,,,,,,,,,,,,,,,,,,,,,,,,,,,,,,,,,,,,,,,,,,,,,,
,,5ec24766fd704d00089a80af,2024-01-06_07h37.33.502,kallum_motion_pilot,2023.2.3,Win32,60.0240096,5ec24766fd704d00089a80af,6598e6a5d84f07970b831e70,6598e7101661eb4a6cf477b8,0.029,0.029,0,118,118,91,1,sixeight,,,,,,,,,,,,,,,,,,,,,,,,,,,,,,,,,,,,,,,,,,,,,,,,,,,,,,,,,,,,,,,,,,,,,,,,,,,,,,,,,,,,,,,,,,,,,,,,,,,,,,,,,,,,,,,,,,,,,,,,,,,,,,,,,,,,,,,
,,5ec24766fd704d00089a80af,2024-01-06_07h37.33.502,kallum_motion_pilot,2023.2.3,Win32,60.0240096,5ec24766fd704d00089a80af,6598e6a5d84f07970b831e70,6598e7101661eb4a6cf477b8,0.029,0.029,0,119,119,24,1,onetwo,,,,,,,,,,,,,,,,,,,,,,,,,,,,,,,,,,,,,,,,,,,,,,,,,,,,,,,,,,,,,,,,,,,,,,,,,,,,,,,,,,,,,,,,,,,,,,,,,,,,,,,,,,,,,,,,,,,,,,,,,,,,,,,,,,,,,,,
,,5ec24766fd704d00089a80af,2024-01-06_07h37.33.502,kallum_motion_pilot,2023.2.3,Win32,60.0240096,5ec24766fd704d00089a80af,6598e6a5d84f07970b831e70,6598e7101661eb4a6cf477b8,0.029,0.029,0,120,120,14,1,fourtwo,,,,,,,,,,,,,,,,,,,,,,,,,,,,,,,,,,,,,,,,,,,,,,,,,,,,,,,,,,,,,,,,,,,,,,,,,,,,,,,,,,,,,,,,,,,,,,,,,,,,,,,,,,,,,,,,,,,,,,,,,,,,,,,,,,,,,,,
,,5ec24766fd704d00089a80af,2024-01-06_07h37.33.502,kallum_motion_pilot,2023.2.3,Win32,60.0240096,5ec24766fd704d00089a80af,6598e6a5d84f07970b831e70,6598e7101661eb4a6cf477b8,0.029,0.029,0,121,121,112,1,fivesix,,,,,,,,,,,,,,,,,,,,,,,,,,,,,,,,,,,,,,,,,,,,,,,,,,,,,,,,,,,,,,,,,,,,,,,,,,,,,,,,,,,,,,,,,,,,,,,,,,,,,,,,,,,,,,,,,,,,,,,,,,,,,,,,,,,,,,,
,,5ec24766fd704d00089a80af,2024-01-06_07h37.33.502,kallum_motion_pilot,2023.2.3,Win32,60.0240096,5ec24766fd704d00089a80af,6598e6a5d84f07970b831e70,6598e7101661eb4a6cf477b8,0.03,0.03,0,122,122,80,1,fivesix,,,,,,,,,,,,,,,,,,,,,,,,,,,,,,,,,,,,,,,,,,,,,,,,,,,,,,,,,,,,,,,,,,,,,,,,,,,,,,,,,,,,,,,,,,,,,,,,,,,,,,,,,,,,,,,,,,,,,,,,,,,,,,,,,,,,,,,
,,5ec24766fd704d00089a80af,2024-01-06_07h37.33.502,kallum_motion_pilot,2023.2.3,Win32,60.0240096,5ec24766fd704d00089a80af,6598e6a5d84f07970b831e70,6598e7101661eb4a6cf477b8,0.03,0.03,0,123,123,154,1,sixfive,,,,,,,,,,,,,,,,,,,,,,,,,,,,,,,,,,,,,,,,,,,,,,,,,,,,,,,,,,,,,,,,,,,,,,,,,,,,,,,,,,,,,,,,,,,,,,,,,,,,,,,,,,,,,,,,,,,,,,,,,,,,,,,,,,,,,,,
,,5ec24766fd704d00089a80af,2024-01-06_07h37.33.502,kallum_motion_pilot,2023.2.3,Win32,60.0240096,5ec24766fd704d00089a80af,6598e6a5d84f07970b831e70,6598e7101661eb4a6cf477b8,0.03,0.03,0,124,124,50,1,twoone,,,,,,,,,,,,,,,,,,,,,,,,,,,,,,,,,,,,,,,,,,,,,,,,,,,,,,,,,,,,,,,,,,,,,,,,,,,,,,,,,,,,,,,,,,,,,,,,,,,,,,,,,,,,,,,,,,,,,,,,,,,,,,,,,,,,,,,
,,5ec24766fd704d00089a80af,2024-01-06_07h37.33.502,kallum_motion_pilot,2023.2.3,Win32,60.0240096,5ec24766fd704d00089a80af,6598e6a5d84f07970b831e70,6598e7101661eb4a6cf477b8,0.03,0.03,0,125,125,59,1,twofour,,,,,,,,,,,,,,,,,,,,,,,,,,,,,,,,,,,,,,,,,,,,,,,,,,,,,,,,,,,,,,,,,,,,,,,,,,,,,,,,,,,,,,,,,,,,,,,,,,,,,,,,,,,,,,,,,,,,,,,,,,,,,,,,,,,,,,,
,,5ec24766fd704d00089a80af,2024-01-06_07h37.33.502,kallum_motion_pilot,2023.2.3,Win32,60.0240096,5ec24766fd704d00089a80af,6598e6a5d84f07970b831e70,6598e7101661eb4a6cf477b8,0.03,0.03,0,126,126,34,1,twoone,,,,,,,,,,,,,,,,,,,,,,,,,,,,,,,,,,,,,,,,,,,,,,,,,,,,,,,,,,,,,,,,,,,,,,,,,,,,,,,,,,,,,,,,,,,,,,,,,,,,,,,,,,,,,,,,,,,,,,,,,,,,,,,,,,,,,,,
,,5ec24766fd704d00089a80af,2024-01-06_07h37.33.502,kallum_motion_pilot,2023.2.3,Win32,60.0240096,5ec24766fd704d00089a80af,6598e6a5d84f07970b831e70,6598e7101661eb4a6cf477b8,0.03,0.03,0,127,127,94,1,eightsix,,,,,,,,,,,,,,,,,,,,,,,,,,,,,,,,,,,,,,,,,,,,,,,,,,,,,,,,,,,,,,,,,,,,,,,,,,,,,,,,,,,,,,,,,,,,,,,,,,,,,,,,,,,,,,,,,,,,,,,,,,,,,,,,,,,,,,,
,,5ec24766fd704d00089a80af,2024-01-06_07h37.33.502,kallum_motion_pilot,2023.2.3,Win32,60.0240096,5ec24766fd704d00089a80af,6598e6a5d84f07970b831e70,6598e7101661eb4a6cf477b8,0.03,0.03,0,128,128,132,1,sevenfive,,,,,,,,,,,,,,,,,,,,,,,,,,,,,,,,,,,,,,,,,,,,,,,,,,,,,,,,,,,,,,,,,,,,,,,,,,,,,,,,,,,,,,,,,,,,,,,,,,,,,,,,,,,,,,,,,,,,,,,,,,,,,,,,,,,,,,,
,,5ec24766fd704d00089a80af,2024-01-06_07h37.33.502,kallum_motion_pilot,2023.2.3,Win32,60.0240096,5ec24766fd704d00089a80af,6598e6a5d84f07970b831e70,6598e7101661eb4a6cf477b8,0.03,0.03,0,129,129,101,1,seveneight,,,,,,,,,,,,,,,,,,,,,,,,,,,,,,,,,,,,,,,,,,,,,,,,,,,,,,,,,,,,,,,,,,,,,,,,,,,,,,,,,,,,,,,,,,,,,,,,,,,,,,,,,,,,,,,,,,,,,,,,,,,,,,,,,,,,,,,
,,5ec24766fd704d00089a80af,2024-01-06_07h37.33.502,kallum_motion_pilot,2023.2.3,Win32,60.0240096,5ec24766fd704d00089a80af,6598e6a5d84f07970b831e70,6598e7101661eb4a6cf477b8,0.031,0.031,0,130,130,126,1,eightsix,,,,,,,,,,,,,,,,,,,,,,,,,,,,,,,,,,,,,,,,,,,,,,,,,,,,,,,,,,,,,,,,,,,,,,,,,,,,,,,,,,,,,,,,,,,,,,,,,,,,,,,,,,,,,,,,,,,,,,,,,,,,,,,,,,,,,,,
,,5ec24766fd704d00089a80af,2024-01-06_07h37.33.502,kallum_motion_pilot,2023.2.3,Win32,60.0240096,5ec24766fd704d00089a80af,6598e6a5d84f07970b831e70,6598e7101661eb4a6cf477b8,0.031,0.031,0,131,131,2,1,twoone,,,,,,,,,,,,,,,,,,,,,,,,,,,,,,,,,,,,,,,,,,,,,,,,,,,,,,,,,,,,,,,,,,,,,,,,,,,,,,,,,,,,,,,,,,,,,,,,,,,,,,,,,,,,,,,,,,,,,,,,,,,,,,,,,,,,,,,
,,5ec24766fd704d00089a80af,2024-01-06_07h37.33.502,kallum_motion_pilot,2023.2.3,Win32,60.0240096,5ec24766fd704d00089a80af,6598e6a5d84f07970b831e70,6598e7101661eb4a6cf477b8,0.031,0.031,0,132,132,99,1,sixeight,,,,,,,,,,,,,,,,,,,,,,,,,,,,,,,,,,,,,,,,,,,,,,,,,,,,,,,,,,,,,,,,,,,,,,,,,,,,,,,,,,,,,,,,,,,,,,,,,,,,,,,,,,,,,,,,,,,,,,,,,,,,,,,,,,,,,,,
,,5ec24766fd704d00089a80af,2024-01-06_07h37.33.502,kallum_motion_pilot,2023.2.3,Win32,60.0240096,5ec24766fd704d00089a80af,6598e6a5d84f07970b831e70,6598e7101661eb4a6cf477b8,0.031,0.031,0,133,133,133,1,seveneight,,,,,,,,,,,,,,,,,,,,,,,,,,,,,,,,,,,,,,,,,,,,,,,,,,,,,,,,,,,,,,,,,,,,,,,,,,,,,,,,,,,,,,,,,,,,,,,,,,,,,,,,,,,,,,,,,,,,,,,,,,,,,,,,,,,,,,,
,,5ec24766fd704d00089a80af,2024-01-06_07h37.33.502,kallum_motion_pilot,2023.2.3,Win32,60.0240096,5ec24766fd704d00089a80af,6598e6a5d84f07970b831e70,6598e7101661eb4a6cf477b8,0.031,0.031,0,134,134,104,1,fivesix,,,,,,,,,,,,,,,,,,,,,,,,,,,,,,,,,,,,,,,,,,,,,,,,,,,,,,,,,,,,,,,,,,,,,,,,,,,,,,,,,,,,,,,,,,,,,,,,,,,,,,,,,,,,,,,,,,,,,,,,,,,,,,,,,,,,,,,
,,5ec24766fd704d00089a80af,2024-01-06_07h37.33.502,kallum_motion_pilot,2023.2.3,Win32,60.0240096,5ec24766fd704d00089a80af,6598e6a5d84f07970b831e70,6598e7101661eb4a6cf477b8,0.031,0.031,0,135,135,42,1,twoone,,,,,,,,,,,,,,,,,,,,,,,,,,,,,,,,,,,,,,,,,,,,,,,,,,,,,,,,,,,,,,,,,,,,,,,,,,,,,,,,,,,,,,,,,,,,,,,,,,,,,,,,,,,,,,,,,,,,,,,,,,,,,,,,,,,,,,,
,,5ec24766fd704d00089a80af,2024-01-06_07h37.33.502,kallum_motion_pilot,2023.2.3,Win32,60.0240096,5ec24766fd704d00089a80af,6598e6a5d84f07970b831e70,6598e7101661eb4a6cf477b8,0.031,0.031,0,136,136,121,1,fiveseven,,,,,,,,,,,,,,,,,,,,,,,,,,,,,,,,,,,,,,,,,,,,,,,,,,,,,,,,,,,,,,,,,,,,,,,,,,,,,,,,,,,,,,,,,,,,,,,,,,,,,,,,,,,,,,,,,,,,,,,,,,,,,,,,,,,,,,,
,,5ec24766fd704d00089a80af,2024-01-06_07h37.33.502,kallum_motion_pilot,2023.2.3,Win32,60.0240096,5ec24766fd704d00089a80af,6598e6a5d84f07970b831e70,6598e7101661eb4a6cf477b8,0.031,0.031,0,137,137,85,1,seveneight,,,,,,,,,,,,,,,,,,,,,,,,,,,,,,,,,,,,,,,,,,,,,,,,,,,,,,,,,,,,,,,,,,,,,,,,,,,,,,,,,,,,,,,,,,,,,,,,,,,,,,,,,,,,,,,,,,,,,,,,,,,,,,,,,,,,,,,
,,5ec24766fd704d00089a80af,2024-01-06_07h37.33.502,kallum_motion_pilot,2023.2.3,Win32,60.0240096,5ec24766fd704d00089a80af,6598e6a5d84f07970b831e70,6598e7101661eb4a6cf477b8,0.031,0.031,0,138,138,131,1,sixeight,,,,,,,,,,,,,,,,,,,,,,,,,,,,,,,,,,,,,,,,,,,,,,,,,,,,,,,,,,,,,,,,,,,,,,,,,,,,,,,,,,,,,,,,,,,,,,,,,,,,,,,,,,,,,,,,,,,,,,,,,,,,,,,,,,,,,,,
,,5ec24766fd704d00089a80af,2024-01-06_07h37.33.502,kallum_motion_pilot,2023.2.3,Win32,60.0240096,5ec24766fd704d00089a80af,6598e6a5d84f07970b831e70,6598e7101661eb4a6cf477b8,0.031,0.031,0,139,139,41,1,onethree,,,,,,,,,,,,,,,,,,,,,,,,,,,,,,,,,,,,,,,,,,,,,,,,,,,,,,,,,,,,,,,,,,,,,,,,,,,,,,,,,,,,,,,,,,,,,,,,,,,,,,,,,,,,,,,,,,,,,,,,,,,,,,,,,,,,,,,
,,5ec24766fd704d00089a80af,2024-01-06_07h37.33.502,kallum_motion_pilot,2023.2.3,Win32,60.0240096,5ec24766fd704d00089a80af,6598e6a5d84f07970b831e70,6598e7101661eb4a6cf477b8,0.031,0.031,0,140,140,16,1,onetwo,,,,,,,,,,,,,,,,,,,,,,,,,,,,,,,,,,,,,,,,,,,,,,,,,,,,,,,,,,,,,,,,,,,,,,,,,,,,,,,,,,,,,,,,,,,,,,,,,,,,,,,,,,,,,,,,,,,,,,,,,,,,,,,,,,,,,,,
,,5ec24766fd704d00089a80af,2024-01-06_07h37.33.502,kallum_motion_pilot,2023.2.3,Win32,60.0240096,5ec24766fd704d00089a80af,6598e6a5d84f07970b831e70,6598e7101661eb4a6cf477b8,0.031,0.031,0,141,141,127,1,eightseven,,,,,,,,,,,,,,,,,,,,,,,,,,,,,,,,,,,,,,,,,,,,,,,,,,,,,,,,,,,,,,,,,,,,,,,,,,,,,,,,,,,,,,,,,,,,,,,,,,,,,,,,,,,,,,,,,,,,,,,,,,,,,,,,,,,,,,,
,,5ec24766fd704d00089a80af,2024-01-06_07h37.33.502,kallum_motion_pilot,2023.2.3,Win32,60.0240096,5ec24766fd704d00089a80af,6598e6a5d84f07970b831e70,6598e7101661eb4a6cf477b8,0.031,0.031,0,142,142,28,1,threeone,,,,,,,,,,,,,,,,,,,,,,,,,,,,,,,,,,,,,,,,,,,,,,,,,,,,,,,,,,,,,,,,,,,,,,,,,,,,,,,,,,,,,,,,,,,,,,,,,,,,,,,,,,,,,,,,,,,,,,,,,,,,,,,,,,,,,,,
,,5ec24766fd704d00089a80af,2024-01-06_07h37.33.502,kallum_motion_pilot,2023.2.3,Win32,60.0240096,5ec24766fd704d00089a80af,6598e6a5d84f07970b831e70,6598e7101661eb4a6cf477b8,0.031,0.031,0,143,143,140,1,sevenfive,,,,,,,,,,,,,,,,,,,,,,,,,,,,,,,,,,,,,,,,,,,,,,,,,,,,,,,,,,,,,,,,,,,,,,,,,,,,,,,,,,,,,,,,,,,,,,,,,,,,,,,,,,,,,,,,,,,,,,,,,,,,,,,,,,,,,,,
,,5ec24766fd704d00089a80af,2024-01-06_07h37.33.502,kallum_motion_pilot,2023.2.3,Win32,60.0240096,5ec24766fd704d00089a80af,6598e6a5d84f07970b831e70,6598e7101661eb4a6cf477b8,0.031,0.031,0,144,144,148,1,sevenfive,,,,,,,,,,,,,,,,,,,,,,,,,,,,,,,,,,,,,,,,,,,,,,,,,,,,,,,,,,,,,,,,,,,,,,,,,,,,,,,,,,,,,,,,,,,,,,,,,,,,,,,,,,,,,,,,,,,,,,,,,,,,,,,,,,,,,,,
,,5ec24766fd704d00089a80af,2024-01-06_07h37.33.502,kallum_motion_pilot,2023.2.3,Win32,60.0240096,5ec24766fd704d00089a80af,6598e6a5d84f07970b831e70,6598e7101661eb4a6cf477b8,0.031,0.031,0,145,145,110,1,eightsix,,,,,,,,,,,,,,,,,,,,,,,,,,,,,,,,,,,,,,,,,,,,,,,,,,,,,,,,,,,,,,,,,,,,,,,,,,,,,,,,,,,,,,,,,,,,,,,,,,,,,,,,,,,,,,,,,,,,,,,,,,,,,,,,,,,,,,,
,,5ec24766fd704d00089a80af,2024-01-06_07h37.33.502,kallum_motion_pilot,2023.2.3,Win32,60.0240096,5ec24766fd704d00089a80af,6598e6a5d84f07970b831e70,6598e7101661eb4a6cf477b8,0.031,0.031,0,146,146,40,1,onetwo,,,,,,,,,,,,,,,,,,,,,,,,,,,,,,,,,,,,,,,,,,,,,,,,,,,,,,,,,,,,,,,,,,,,,,,,,,,,,,,,,,,,,,,,,,,,,,,,,,,,,,,,,,,,,,,,,,,,,,,,,,,,,,,,,,,,,,,
,,5ec24766fd704d00089a80af,2024-01-06_07h37.33.502,kallum_motion_pilot,2023.2.3,Win32,60.0240096,5ec24766fd704d00089a80af,6598e6a5d84f07970b831e70,6598e7101661eb4a6cf477b8,0.031,0.031,0,147,147,145,1,fiveseven,,,,,,,,,,,,,,,,,,,,,,,,,,,,,,,,,,,,,,,,,,,,,,,,,,,,,,,,,,,,,,,,,,,,,,,,,,,,,,,,,,,,,,,,,,,,,,,,,,,,,,,,,,,,,,,,,,,,,,,,,,,,,,,,,,,,,,,
,,5ec24766fd704d00089a80af,2024-01-06_07h37.33.502,kallum_motion_pilot,2023.2.3,Win32,60.0240096,5ec24766fd704d00089a80af,6598e6a5d84f07970b831e70,6598e7101661eb4a6cf477b8,0.031,0.031,0,148,148,97,1,fiveseven,,,,,,,,,,,,,,,,,,,,,,,,,,,,,,,,,,,,,,,,,,,,,,,,,,,,,,,,,,,,,,,,,,,,,,,,,,,,,,,,,,,,,,,,,,,,,,,,,,,,,,,,,,,,,,,,,,,,,,,,,,,,,,,,,,,,,,,
,,5ec24766fd704d00089a80af,2024-01-06_07h37.33.502,kallum_motion_pilot,2023.2.3,Win32,60.0240096,5ec24766fd704d00089a80af,6598e6a5d84f07970b831e70,6598e7101661eb4a6cf477b8,0.032,0.032,0,149,149,92,1,sevenfive,,,,,,,,,,,,,,,,,,,,,,,,,,,,,,,,,,,,,,,,,,,,,,,,,,,,,,,,,,,,,,,,,,,,,,,,,,,,,,,,,,,,,,,,,,,,,,,,,,,,,,,,,,,,,,,,,,,,,,,,,,,,,,,,,,,,,,,
,,5ec24766fd704d00089a80af,2024-01-06_07h37.33.502,kallum_motion_pilot,2023.2.3,Win32,60.0240096,5ec24766fd704d00089a80af,6598e6a5d84f07970b831e70,6598e7101661eb4a6cf477b8,0.032,0.032,0,150,150,48,1,onetwo,,,,,,,,,,,,,,,,,,,,,,,,,,,,,,,,,,,,,,,,,,,,,,,,,,,,,,,,,,,,,,,,,,,,,,,,,,,,,,,,,,,,,,,,,,,,,,,,,,,,,,,,,,,,,,,,,,,,,,,,,,,,,,,,,,,,,,,
,,5ec24766fd704d00089a80af,2024-01-06_07h37.33.502,kallum_motion_pilot,2023.2.3,Win32,60.0240096,5ec24766fd704d00089a80af,6598e6a5d84f07970b831e70,6598e7101661eb4a6cf477b8,0.032,0.032,0,151,151,147,1,sixeight,,,,,,,,,,,,,,,,,,,,,,,,,,,,,,,,,,,,,,,,,,,,,,,,,,,,,,,,,,,,,,,,,,,,,,,,,,,,,,,,,,,,,,,,,,,,,,,,,,,,,,,,,,,,,,,,,,,,,,,,,,,,,,,,,,,,,,,
,,5ec24766fd704d00089a80af,2024-01-06_07h37.33.502,kallum_motion_pilot,2023.2.3,Win32,60.0240096,5ec24766fd704d00089a80af,6598e6a5d84f07970b831e70,6598e7101661eb4a6cf477b8,0.032,0.032,0,152,152,156,1,sevenfive,,,,,,,,,,,,,,,,,,,,,,,,,,,,,,,,,,,,,,,,,,,,,,,,,,,,,,,,,,,,,,,,,,,,,,,,,,,,,,,,,,,,,,,,,,,,,,,,,,,,,,,,,,,,,,,,,,,,,,,,,,,,,,,,,,,,,,,
,,5ec24766fd704d00089a80af,2024-01-06_07h37.33.502,kallum_motion_pilot,2023.2.3,Win32,60.0240096,5ec24766fd704d00089a80af,6598e6a5d84f07970b831e70,6598e7101661eb4a6cf477b8,0.032,0.032,0,153,153,65,1,onethree,,,,,,,,,,,,,,,,,,,,,,,,,,,,,,,,,,,,,,,,,,,,,,,,,,,,,,,,,,,,,,,,,,,,,,,,,,,,,,,,,,,,,,,,,,,,,,,,,,,,,,,,,,,,,,,,,,,,,,,,,,,,,,,,,,,,,,,
,,5ec24766fd704d00089a80af,2024-01-06_07h37.33.502,kallum_motion_pilot,2023.2.3,Win32,60.0240096,5ec24766fd704d00089a80af,6598e6a5d84f07970b831e70,6598e7101661eb4a6cf477b8,0.032,0.032,0,154,154,106,1,sixfive,,,,,,,,,,,,,,,,,,,,,,,,,,,,,,,,,,,,,,,,,,,,,,,,,,,,,,,,,,,,,,,,,,,,,,,,,,,,,,,,,,,,,,,,,,,,,,,,,,,,,,,,,,,,,,,,,,,,,,,,,,,,,,,,,,,,,,,
,,5ec24766fd704d00089a80af,2024-01-06_07h37.33.502,kallum_motion_pilot,2023.2.3,Win32,60.0240096,5ec24766fd704d00089a80af,6598e6a5d84f07970b831e70,6598e7101661eb4a6cf477b8,0.032,0.032,0,155,155,134,1,eightsix,,,,,,,,,,,,,,,,,,,,,,,,,,,,,,,,,,,,,,,,,,,,,,,,,,,,,,,,,,,,,,,,,,,,,,,,,,,,,,,,,,,,,,,,,,,,,,,,,,,,,,,,,,,,,,,,,,,,,,,,,,,,,,,,,,,,,,,
,,5ec24766fd704d00089a80af,2024-01-06_07h37.33.502,kallum_motion_pilot,2023.2.3,Win32,60.0240096,5ec24766fd704d00089a80af,6598e6a5d84f07970b831e70,6598e7101661eb4a6cf477b8,0.032,0.032,0,156,156,29,1,threefour,,,,,,,,,,,,,,,,,,,,,,,,,,,,,,,,,,,,,,,,,,,,,,,,,,,,,,,,,,,,,,,,,,,,,,,,,,,,,,,,,,,,,,,,,,,,,,,,,,,,,,,,,,,,,,,,,,,,,,,,,,,,,,,,,,,,,,,
,,5ec24766fd704d00089a80af,2024-01-06_07h37.33.502,kallum_motion_pilot,2023.2.3,Win32,60.0240096,5ec24766fd704d00089a80af,6598e6a5d84f07970b831e70,6598e7101661eb4a6cf477b8,0.032,0.032,0,157,157,0,1,onetwo,,,,,,,,,,,,,,,,,,,,,,,,,,,,,,,,,,,,,,,,,,,,,,,,,,,,,,,,,,,,,,,,,,,,,,,,,,,,,,,,,,,,,,,,,,,,,,,,,,,,,,,,,,,,,,,,,,,,,,,,,,,,,,,,,,,,,,,
,,5ec24766fd704d00089a80af,2024-01-06_07h37.33.502,kallum_motion_pilot,2023.2.3,Win32,60.0240096,5ec24766fd704d00089a80af,6598e6a5d84f07970b831e70,6598e7101661eb4a6cf477b8,0.032,0.032,0,158,158,49,1,onethree,,,,,,,,,,,,,,,,,,,,,,,,,,,,,,,,,,,,,,,,,,,,,,,,,,,,,,,,,,,,,,,,,,,,,,,,,,,,,,,,,,,,,,,,,,,,,,,,,,,,,,,,,,,,,,,,,,,,,,,,,,,,,,,,,,,,,,,
,,5ec24766fd704d00089a80af,2024-01-06_07h37.33.502,kallum_motion_pilot,2023.2.3,Win32,60.0240096,5ec24766fd704d00089a80af,6598e6a5d84f07970b831e70,6598e7101661eb4a6cf477b8,0.032,0.032,0,159,159,141,1,seveneight,,,,,,,,,,,,,,,,,,,,,,,,,,,,,,,,,,,,,,,,,,,,,,,,,,,,,,,,,,,,,,,,,,,,,,,,,,,,,,,,,,,,,,,,,,,,,,,,,,,,,,,,,,,,,,,,,,,,,,,,,,,,,,,,,,,,,,,
,,5ec24766fd704d00089a80af,2024-01-06_07h37.33.502,kallum_motion_pilot,2023.2.3,Win32,60.0240096,5ec24766fd704d00089a80af,6598e6a5d84f07970b831e70,6598e7101661eb4a6cf477b8,0.032,0.032,0,160,160,113,1,fiveseven,,,,,,,,,,,,,,,,,,,,,,,,,,,,,,,,,,,,,,,,,,,,,,,,,,,,,,,,,,,,,,,,,,,,,,,,,,,,,,,,,,,,,,,,,,,,,,,,,,,,,,,,,,,,,,,,,,,,,,,,,,,,,,,,,,,,,,,
,,5ec24766fd704d00089a80af,2024-01-06_07h37.33.502,kallum_motion_pilot,2023.2.3,Win32,60.0240096,5ec24766fd704d00089a80af,6598e6a5d84f07970b831e70,6598e7101661eb4a6cf477b8,0.032,0.032,0,161,161,19,1,twofour,,,,,,,,,,,,,,,,,,,,,,,,,,,,,,,,,,,,,,,,,,,,,,,,,,,,,,,,,,,,,,,,,,,,,,,,,,,,,,,,,,,,,,,,,,,,,,,,,,,,,,,,,,,,,,,,,,,,,,,,,,,,,,,,,,,,,,,
,,5ec24766fd704d00089a80af,2024-01-06_07h37.33.502,kallum_motion_pilot,2023.2.3,Win32,60.0240096,5ec24766fd704d00089a80af,6598e6a5d84f07970b831e70,6598e7101661eb4a6cf477b8,0.032,0.032,1,0,162,83,1,sixeight,,,,,,,,,,,,,,,,,,,,,,,,,,,,,,,,,,,,,,,,,,,,,,,,,,,,,,,,,,,,,,,,,,,,,,,,,,,,,,,,,,,,,,,,,,,,,,,,,,,,,,,,,,,,,,,,,,,,,,,,,,,,,,,,,,,,,,,
,,5ec24766fd704d00089a80af,2024-01-06_07h37.33.502,kallum_motion_pilot,2023.2.3,Win32,60.0240096,5ec24766fd704d00089a80af,6598e6a5d84f07970b831e70,6598e7101661eb4a6cf477b8,0.032,0.032,1,1,163,99,1,sixeight,,,,,,,,,,,,,,,,,,,,,,,,,,,,,,,,,,,,,,,,,,,,,,,,,,,,,,,,,,,,,,,,,,,,,,,,,,,,,,,,,,,,,,,,,,,,,,,,,,,,,,,,,,,,,,,,,,,,,,,,,,,,,,,,,,,,,,,
,,5ec24766fd704d00089a80af,2024-01-06_07h37.33.502,kallum_motion_pilot,2023.2.3,Win32,60.0240096,5ec24766fd704d00089a80af,6598e6a5d84f07970b831e70,6598e7101661eb4a6cf477b8,0.032,0.033,1,2,164,101,1,seveneight,,,,,,,,,,,,,,,,,,,,,,,,,,,,,,,,,,,,,,,,,,,,,,,,,,,,,,,,,,,,,,,,,,,,,,,,,,,,,,,,,,,,,,,,,,,,,,,,,,,,,,,,,,,,,,,,,,,,,,,,,,,,,,,,,,,,,,,
,,5ec24766fd704d00089a80af,2024-01-06_07h37.33.502,kallum_motion_pilot,2023.2.3,Win32,60.0240096,5ec24766fd704d00089a80af,6598e6a5d84f07970b831e70,6598e7101661eb4a6cf477b8,0.033,0.033,1,3,165,124,1,sevenfive,,,,,,,,,,,,,,,,,,,,,,,,,,,,,,,,,,,,,,,,,,,,,,,,,,,,,,,,,,,,,,,,,,,,,,,,,,,,,,,,,,,,,,,,,,,,,,,,,,,,,,,,,,,,,,,,,,,,,,,,,,,,,,,,,,,,,,,
,,5ec24766fd704d00089a80af,2024-01-06_07h37.33.502,kallum_motion_pilot,2023.2.3,Win32,60.0240096,5ec24766fd704d00089a80af,6598e6a5d84f07970b831e70,6598e7101661eb4a6cf477b8,0.033,0.033,1,4,166,48,1,onetwo,,,,,,,,,,,,,,,,,,,,,,,,,,,,,,,,,,,,,,,,,,,,,,,,,,,,,,,,,,,,,,,,,,,,,,,,,,,,,,,,,,,,,,,,,,,,,,,,,,,,,,,,,,,,,,,,,,,,,,,,,,,,,,,,,,,,,,,
,,5ec24766fd704d00089a80af,2024-01-06_07h37.33.502,kallum_motion_pilot,2023.2.3,Win32,60.0240096,5ec24766fd704d00089a80af,6598e6a5d84f07970b831e70,6598e7101661eb4a6cf477b8,0.033,0.033,1,5,167,154,1,sixfive,,,,,,,,,,,,,,,,,,,,,,,,,,,,,,,,,,,,,,,,,,,,,,,,,,,,,,,,,,,,,,,,,,,,,,,,,,,,,,,,,,,,,,,,,,,,,,,,,,,,,,,,,,,,,,,,,,,,,,,,,,,,,,,,,,,,,,,
,,5ec24766fd704d00089a80af,2024-01-06_07h37.33.502,kallum_motion_pilot,2023.2.3,Win32,60.0240096,5ec24766fd704d00089a80af,6598e6a5d84f07970b831e70,6598e7101661eb4a6cf477b8,0.033,0.033,1,6,168,2,1,twoone,,,,,,,,,,,,,,,,,,,,,,,,,,,,,,,,,,,,,,,,,,,,,,,,,,,,,,,,,,,,,,,,,,,,,,,,,,,,,,,,,,,,,,,,,,,,,,,,,,,,,,,,,,,,,,,,,,,,,,,,,,,,,,,,,,,,,,,
,,5ec24766fd704d00089a80af,2024-01-06_07h37.33.502,kallum_motion_pilot,2023.2.3,Win32,60.0240096,5ec24766fd704d00089a80af,6598e6a5d84f07970b831e70,6598e7101661eb4a6cf477b8,0.033,0.033,1,7,169,6,1,fourtwo,,,,,,,,,,,,,,,,,,,,,,,,,,,,,,,,,,,,,,,,,,,,,,,,,,,,,,,,,,,,,,,,,,,,,,,,,,,,,,,,,,,,,,,,,,,,,,,,,,,,,,,,,,,,,,,,,,,,,,,,,,,,,,,,,,,,,,,
,,5ec24766fd704d00089a80af,2024-01-06_07h37.33.502,kallum_motion_pilot,2023.2.3,Win32,60.0240096,5ec24766fd704d00089a80af,6598e6a5d84f07970b831e70,6598e7101661eb4a6cf477b8,0.033,0.033,1,8,170,30,1,fourtwo,,,,,,,,,,,,,,,,,,,,,,,,,,,,,,,,,,,,,,,,,,,,,,,,,,,,,,,,,,,,,,,,,,,,,,,,,,,,,,,,,,,,,,,,,,,,,,,,,,,,,,,,,,,,,,,,,,,,,,,,,,,,,,,,,,,,,,,
,,5ec24766fd704d00089a80af,2024-01-06_07h37.33.502,kallum_motion_pilot,2023.2.3,Win32,60.0240096,5ec24766fd704d00089a80af,6598e6a5d84f07970b831e70,6598e7101661eb4a6cf477b8,0.033,0.033,1,9,171,32,1,onetwo,,,,,,,,,,,,,,,,,,,,,,,,,,,,,,,,,,,,,,,,,,,,,,,,,,,,,,,,,,,,,,,,,,,,,,,,,,,,,,,,,,,,,,,,,,,,,,,,,,,,,,,,,,,,,,,,,,,,,,,,,,,,,,,,,,,,,,,
,,5ec24766fd704d00089a80af,2024-01-06_07h37.33.502,kallum_motion_pilot,2023.2.3,Win32,60.0240096,5ec24766fd704d00089a80af,6598e6a5d84f07970b831e70,6598e7101661eb4a6cf477b8,0.033,0.033,1,10,172,39,1,fourthree,,,,,,,,,,,,,,,,,,,,,,,,,,,,,,,,,,,,,,,,,,,,,,,,,,,,,,,,,,,,,,,,,,,,,,,,,,,,,,,,,,,,,,,,,,,,,,,,,,,,,,,,,,,,,,,,,,,,,,,,,,,,,,,,,,,,,,,
,,5ec24766fd704d00089a80af,2024-01-06_07h37.33.502,kallum_motion_pilot,2023.2.3,Win32,60.0240096,5ec24766fd704d00089a80af,6598e6a5d84f07970b831e70,6598e7101661eb4a6cf477b8,0.033,0.033,1,11,173,93,1,seveneight,,,,,,,,,,,,,,,,,,,,,,,,,,,,,,,,,,,,,,,,,,,,,,,,,,,,,,,,,,,,,,,,,,,,,,,,,,,,,,,,,,,,,,,,,,,,,,,,,,,,,,,,,,,,,,,,,,,,,,,,,,,,,,,,,,,,,,,
,,5ec24766fd704d00089a80af,2024-01-06_07h37.33.502,kallum_motion_pilot,2023.2.3,Win32,60.0240096,5ec24766fd704d00089a80af,6598e6a5d84f07970b831e70,6598e7101661eb4a6cf477b8,0.033,0.033,1,12,174,156,1,sevenfive,,,,,,,,,,,,,,,,,,,,,,,,,,,,,,,,,,,,,,,,,,,,,,,,,,,,,,,,,,,,,,,,,,,,,,,,,,,,,,,,,,,,,,,,,,,,,,,,,,,,,,,,,,,,,,,,,,,,,,,,,,,,,,,,,,,,,,,
,,5ec24766fd704d00089a80af,2024-01-06_07h37.33.502,kallum_motion_pilot,2023.2.3,Win32,60.0240096,5ec24766fd704d00089a80af,6598e6a5d84f07970b831e70,6598e7101661eb4a6cf477b8,0.033,0.033,1,13,175,120,1,fivesix,,,,,,,,,,,,,,,,,,,,,,,,,,,,,,,,,,,,,,,,,,,,,,,,,,,,,,,,,,,,,,,,,,,,,,,,,,,,,,,,,,,,,,,,,,,,,,,,,,,,,,,,,,,,,,,,,,,,,,,,,,,,,,,,,,,,,,,
,,5ec24766fd704d00089a80af,2024-01-06_07h37.33.502,kallum_motion_pilot,2023.2.3,Win32,60.0240096,5ec24766fd704d00089a80af,6598e6a5d84f07970b831e70,6598e7101661eb4a6cf477b8,0.033,0.033,1,14,176,153,1,fiveseven,,,,,,,,,,,,,,,,,,,,,,,,,,,,,,,,,,,,,,,,,,,,,,,,,,,,,,,,,,,,,,,,,,,,,,,,,,,,,,,,,,,,,,,,,,,,,,,,,,,,,,,,,,,,,,,,,,,,,,,,,,,,,,,,,,,,,,,
,,5ec24766fd704d00089a80af,2024-01-06_07h37.33.502,kallum_motion_pilot,2023.2.3,Win32,60.0240096,5ec24766fd704d00089a80af,6598e6a5d84f07970b831e70,6598e7101661eb4a6cf477b8,0.033,0.033,1,15,177,73,1,onethree,,,,,,,,,,,,,,,,,,,,,,,,,,,,,,,,,,,,,,,,,,,,,,,,,,,,,,,,,,,,,,,,,,,,,,,,,,,,,,,,,,,,,,,,,,,,,,,,,,,,,,,,,,,,,,,,,,,,,,,,,,,,,,,,,,,,,,,
,,5ec24766fd704d00089a80af,2024-01-06_07h37.33.502,kallum_motion_pilot,2023.2.3,Win32,60.0240096,5ec24766fd704d00089a80af,6598e6a5d84f07970b831e70,6598e7101661eb4a6cf477b8,0.033,0.033,1,16,178,42,1,twoone,,,,,,,,,,,,,,,,,,,,,,,,,,,,,,,,,,,,,,,,,,,,,,,,,,,,,,,,,,,,,,,,,,,,,,,,,,,,,,,,,,,,,,,,,,,,,,,,,,,,,,,,,,,,,,,,,,,,,,,,,,,,,,,,,,,,,,,
,,5ec24766fd704d00089a80af,2024-01-06_07h37.33.502,kallum_motion_pilot,2023.2.3,Win32,60.0240096,5ec24766fd704d00089a80af,6598e6a5d84f07970b831e70,6598e7101661eb4a6cf477b8,0.033,0.033,1,17,179,91,1,sixeight,,,,,,,,,,,,,,,,,,,,,,,,,,,,,,,,,,,,,,,,,,,,,,,,,,,,,,,,,,,,,,,,,,,,,,,,,,,,,,,,,,,,,,,,,,,,,,,,,,,,,,,,,,,,,,,,,,,,,,,,,,,,,,,,,,,,,,,
,,5ec24766fd704d00089a80af,2024-01-06_07h37.33.502,kallum_motion_pilot,2023.2.3,Win32,60.0240096,5ec24766fd704d00089a80af,6598e6a5d84f07970b831e70,6598e7101661eb4a6cf477b8,0.034,0.034,1,18,180,148,1,sevenfive,,,,,,,,,,,,,,,,,,,,,,,,,,,,,,,,,,,,,,,,,,,,,,,,,,,,,,,,,,,,,,,,,,,,,,,,,,,,,,,,,,,,,,,,,,,,,,,,,,,,,,,,,,,,,,,,,,,,,,,,,,,,,,,,,,,,,,,
,,5ec24766fd704d00089a80af,2024-01-06_07h37.33.502,kallum_motion_pilot,2023.2.3,Win32,60.0240096,5ec24766fd704d00089a80af,6598e6a5d84f07970b831e70,6598e7101661eb4a6cf477b8,0.034,0.034,1,19,181,4,1,threeone,,,,,,,,,,,,,,,,,,,,,,,,,,,,,,,,,,,,,,,,,,,,,,,,,,,,,,,,,,,,,,,,,,,,,,,,,,,,,,,,,,,,,,,,,,,,,,,,,,,,,,,,,,,,,,,,,,,,,,,,,,,,,,,,,,,,,,,
,,5ec24766fd704d00089a80af,2024-01-06_07h37.33.502,kallum_motion_pilot,2023.2.3,Win32,60.0240096,5ec24766fd704d00089a80af,6598e6a5d84f07970b831e70,6598e7101661eb4a6cf477b8,0.034,0.034,1,20,182,35,1,twofour,,,,,,,,,,,,,,,,,,,,,,,,,,,,,,,,,,,,,,,,,,,,,,,,,,,,,,,,,,,,,,,,,,,,,,,,,,,,,,,,,,,,,,,,,,,,,,,,,,,,,,,,,,,,,,,,,,,,,,,,,,,,,,,,,,,,,,,
,,5ec24766fd704d00089a80af,2024-01-06_07h37.33.502,kallum_motion_pilot,2023.2.3,Win32,60.0240096,5ec24766fd704d00089a80af,6598e6a5d84f07970b831e70,6598e7101661eb4a6cf477b8,0.034,0.034,1,21,183,149,1,seveneight,,,,,,,,,,,,,,,,,,,,,,,,,,,,,,,,,,,,,,,,,,,,,,,,,,,,,,,,,,,,,,,,,,,,,,,,,,,,,,,,,,,,,,,,,,,,,,,,,,,,,,,,,,,,,,,,,,,,,,,,,,,,,,,,,,,,,,,
,,5ec24766fd704d00089a80af,2024-01-06_07h37.33.502,kallum_motion_pilot,2023.2.3,Win32,60.0240096,5ec24766fd704d00089a80af,6598e6a5d84f07970b831e70,6598e7101661eb4a6cf477b8,0.034,0.034,1,22,184,139,1,sixeight,,,,,,,,,,,,,,,,,,,,,,,,,,,,,,,,,,,,,,,,,,,,,,,,,,,,,,,,,,,,,,,,,,,,,,,,,,,,,,,,,,,,,,,,,,,,,,,,,,,,,,,,,,,,,,,,,,,,,,,,,,,,,,,,,,,,,,,
,,5ec24766fd704d00089a80af,2024-01-06_07h37.33.502,kallum_motion_pilot,2023.2.3,Win32,60.0240096,5ec24766fd704d00089a80af,6598e6a5d84f07970b831e70,6598e7101661eb4a6cf477b8,0.034,0.034,1,23,185,56,1,onetwo,,,,,,,,,,,,,,,,,,,,,,,,,,,,,,,,,,,,,,,,,,,,,,,,,,,,,,,,,,,,,,,,,,,,,,,,,,,,,,,,,,,,,,,,,,,,,,,,,,,,,,,,,,,,,,,,,,,,,,,,,,,,,,,,,,,,,,,
,,5ec24766fd704d00089a80af,2024-01-06_07h37.33.502,kallum_motion_pilot,2023.2.3,Win32,60.0240096,5ec24766fd704d00089a80af,6598e6a5d84f07970b831e70,6598e7101661eb4a6cf477b8,0.034,0.034,1,24,186,114,1,sixfive,,,,,,,,,,,,,,,,,,,,,,,,,,,,,,,,,,,,,,,,,,,,,,,,,,,,,,,,,,,,,,,,,,,,,,,,,,,,,,,,,,,,,,,,,,,,,,,,,,,,,,,,,,,,,,,,,,,,,,,,,,,,,,,,,,,,,,,
,,5ec24766fd704d00089a80af,2024-01-06_07h37.33.502,kallum_motion_pilot,2023.2.3,Win32,60.0240096,5ec24766fd704d00089a80af,6598e6a5d84f07970b831e70,6598e7101661eb4a6cf477b8,0.034,0.034,1,25,187,20,1,threeone,,,,,,,,,,,,,,,,,,,,,,,,,,,,,,,,,,,,,,,,,,,,,,,,,,,,,,,,,,,,,,,,,,,,,,,,,,,,,,,,,,,,,,,,,,,,,,,,,,,,,,,,,,,,,,,,,,,,,,,,,,,,,,,,,,,,,,,
,,5ec24766fd704d00089a80af,2024-01-06_07h37.33.502,kallum_motion_pilot,2023.2.3,Win32,60.0240096,5ec24766fd704d00089a80af,6598e6a5d84f07970b831e70,6598e7101661eb4a6cf477b8,0.034,0.034,1,26,188,121,1,fiveseven,,,,,,,,,,,,,,,,,,,,,,,,,,,,,,,,,,,,,,,,,,,,,,,,,,,,,,,,,,,,,,,,,,,,,,,,,,,,,,,,,,,,,,,,,,,,,,,,,,,,,,,,,,,,,,,,,,,,,,,,,,,,,,,,,,,,,,,
,,5ec24766fd704d00089a80af,2024-01-06_07h37.33.502,kallum_motion_pilot,2023.2.3,Win32,60.0240096,5ec24766fd704d00089a80af,6598e6a5d84f07970b831e70,6598e7101661eb4a6cf477b8,0.034,0.034,1,27,189,71,1,fourthree,,,,,,,,,,,,,,,,,,,,,,,,,,,,,,,,,,,,,,,,,,,,,,,,,,,,,,,,,,,,,,,,,,,,,,,,,,,,,,,,,,,,,,,,,,,,,,,,,,,,,,,,,,,,,,,,,,,,,,,,,,,,,,,,,,,,,,,
,,5ec24766fd704d00089a80af,2024-01-06_07h37.33.502,kallum_motion_pilot,2023.2.3,Win32,60.0240096,5ec24766fd704d00089a80af,6598e6a5d84f07970b831e70,6598e7101661eb4a6cf477b8,0.034,0.034,1,28,190,31,1,fourthree,,,,,,,,,,,,,,,,,,,,,,,,,,,,,,,,,,,,,,,,,,,,,,,,,,,,,,,,,,,,,,,,,,,,,,,,,,,,,,,,,,,,,,,,,,,,,,,,,,,,,,,,,,,,,,,,,,,,,,,,,,,,,,,,,,,,,,,
,,5ec24766fd704d00089a80af,2024-01-06_07h37.33.502,kallum_motion_pilot,2023.2.3,Win32,60.0240096,5ec24766fd704d00089a80af,6598e6a5d84f07970b831e70,6598e7101661eb4a6cf477b8,0.034,0.034,1,29,191,27,1,twofour,,,,,,,,,,,,,,,,,,,,,,,,,,,,,,,,,,,,,,,,,,,,,,,,,,,,,,,,,,,,,,,,,,,,,,,,,,,,,,,,,,,,,,,,,,,,,,,,,,,,,,,,,,,,,,,,,,,,,,,,,,,,,,,,,,,,,,,
,,5ec24766fd704d00089a80af,2024-01-06_07h37.33.502,kallum_motion_pilot,2023.2.3,Win32,60.0240096,5ec24766fd704d00089a80af,6598e6a5d84f07970b831e70,6598e7101661eb4a6cf477b8,0.034,0.034,1,30,192,19,1,twofour,,,,,,,,,,,,,,,,,,,,,,,,,,,,,,,,,,,,,,,,,,,,,,,,,,,,,,,,,,,,,,,,,,,,,,,,,,,,,,,,,,,,,,,,,,,,,,,,,,,,,,,,,,,,,,,,,,,,,,,,,,,,,,,,,,,,,,,
,,5ec24766fd704d00089a80af,2024-01-06_07h37.33.502,kallum_motion_pilot,2023.2.3,Win32,60.0240096,5ec24766fd704d00089a80af,6598e6a5d84f07970b831e70,6598e7101661eb4a6cf477b8,0.034,0.034,1,31,193,95,1,eightseven,,,,,,,,,,,,,,,,,,,,,,,,,,,,,,,,,,,,,,,,,,,,,,,,,,,,,,,,,,,,,,,,,,,,,,,,,,,,,,,,,,,,,,,,,,,,,,,,,,,,,,,,,,,,,,,,,,,,,,,,,,,,,,,,,,,,,,,
,,5ec24766fd704d00089a80af,2024-01-06_07h37.33.502,kallum_motion_pilot,2023.2.3,Win32,60.0240096,5ec24766fd704d00089a80af,6598e6a5d84f07970b831e70,6598e7101661eb4a6cf477b8,0.035,0.035,1,32,194,141,1,seveneight,,,,,,,,,,,,,,,,,,,,,,,,,,,,,,,,,,,,,,,,,,,,,,,,,,,,,,,,,,,,,,,,,,,,,,,,,,,,,,,,,,,,,,,,,,,,,,,,,,,,,,,,,,,,,,,,,,,,,,,,,,,,,,,,,,,,,,,
,,5ec24766fd704d00089a80af,2024-01-06_07h37.33.502,kallum_motion_pilot,2023.2.3,Win32,60.0240096,5ec24766fd704d00089a80af,6598e6a5d84f07970b831e70,6598e7101661eb4a6cf477b8,0.035,0.035,1,33,195,61,1,threefour,,,,,,,,,,,,,,,,,,,,,,,,,,,,,,,,,,,,,,,,,,,,,,,,,,,,,,,,,,,,,,,,,,,,,,,,,,,,,,,,,,,,,,,,,,,,,,,,,,,,,,,,,,,,,,,,,,,,,,,,,,,,,,,,,,,,,,,
,,5ec24766fd704d00089a80af,2024-01-06_07h37.33.502,kallum_motion_pilot,2023.2.3,Win32,60.0240096,5ec24766fd704d00089a80af,6598e6a5d84f07970b831e70,6598e7101661eb4a6cf477b8,0.035,0.035,1,34,196,103,1,eightseven,,,,,,,,,,,,,,,,,,,,,,,,,,,,,,,,,,,,,,,,,,,,,,,,,,,,,,,,,,,,,,,,,,,,,,,,,,,,,,,,,,,,,,,,,,,,,,,,,,,,,,,,,,,,,,,,,,,,,,,,,,,,,,,,,,,,,,,
,,5ec24766fd704d00089a80af,2024-01-06_07h37.33.502,kallum_motion_pilot,2023.2.3,Win32,60.0240096,5ec24766fd704d00089a80af,6598e6a5d84f07970b831e70,6598e7101661eb4a6cf477b8,0.035,0.035,1,35,197,38,1,fourtwo,,,,,,,,,,,,,,,,,,,,,,,,,,,,,,,,,,,,,,,,,,,,,,,,,,,,,,,,,,,,,,,,,,,,,,,,,,,,,,,,,,,,,,,,,,,,,,,,,,,,,,,,,,,,,,,,,,,,,,,,,,,,,,,,,,,,,,,
,,5ec24766fd704d00089a80af,2024-01-06_07h37.33.502,kallum_motion_pilot,2023.2.3,Win32,60.0240096,5ec24766fd704d00089a80af,6598e6a5d84f07970b831e70,6598e7101661eb4a6cf477b8,0.035,0.035,1,36,198,34,1,twoone,,,,,,,,,,,,,,,,,,,,,,,,,,,,,,,,,,,,,,,,,,,,,,,,,,,,,,,,,,,,,,,,,,,,,,,,,,,,,,,,,,,,,,,,,,,,,,,,,,,,,,,,,,,,,,,,,,,,,,,,,,,,,,,,,,,,,,,
,,5ec24766fd704d00089a80af,2024-01-06_07h37.33.502,kallum_motion_pilot,2023.2.3,Win32,60.0240096,5ec24766fd704d00089a80af,6598e6a5d84f07970b831e70,6598e7101661eb4a6cf477b8,0.035,0.035,1,37,199,69,1,threefour,,,,,,,,,,,,,,,,,,,,,,,,,,,,,,,,,,,,,,,,,,,,,,,,,,,,,,,,,,,,,,,,,,,,,,,,,,,,,,,,,,,,,,,,,,,,,,,,,,,,,,,,,,,,,,,,,,,,,,,,,,,,,,,,,,,,,,,
,,5ec24766fd704d00089a80af,2024-01-06_07h37.33.502,kallum_motion_pilot,2023.2.3,Win32,60.0240096,5ec24766fd704d00089a80af,6598e6a5d84f07970b831e70,6598e7101661eb4a6cf477b8,0.035,0.035,1,38,200,79,1,eightseven,,,,,,,,,,,,,,,,,,,,,,,,,,,,,,,,,,,,,,,,,,,,,,,,,,,,,,,,,,,,,,,,,,,,,,,,,,,,,,,,,,,,,,,,,,,,,,,,,,,,,,,,,,,,,,,,,,,,,,,,,,,,,,,,,,,,,,,
,,5ec24766fd704d00089a80af,2024-01-06_07h37.33.502,kallum_motion_pilot,2023.2.3,Win32,60.0240096,5ec24766fd704d00089a80af,6598e6a5d84f07970b831e70,6598e7101661eb4a6cf477b8,0.035,0.035,1,39,201,47,1,fourthree,,,,,,,,,,,,,,,,,,,,,,,,,,,,,,,,,,,,,,,,,,,,,,,,,,,,,,,,,,,,,,,,,,,,,,,,,,,,,,,,,,,,,,,,,,,,,,,,,,,,,,,,,,,,,,,,,,,,,,,,,,,,,,,,,,,,,,,
,,5ec24766fd704d00089a80af,2024-01-06_07h37.33.502,kallum_motion_pilot,2023.2.3,Win32,60.0240096,5ec24766fd704d00089a80af,6598e6a5d84f07970b831e70,6598e7101661eb4a6cf477b8,0.035,0.035,1,40,202,151,1,eightseven,,,,,,,,,,,,,,,,,,,,,,,,,,,,,,,,,,,,,,,,,,,,,,,,,,,,,,,,,,,,,,,,,,,,,,,,,,,,,,,,,,,,,,,,,,,,,,,,,,,,,,,,,,,,,,,,,,,,,,,,,,,,,,,,,,,,,,,
,,5ec24766fd704d00089a80af,2024-01-06_07h37.33.502,kallum_motion_pilot,2023.2.3,Win32,60.0240096,5ec24766fd704d00089a80af,6598e6a5d84f07970b831e70,6598e7101661eb4a6cf477b8,0.035,0.035,1,41,203,143,1,eightseven,,,,,,,,,,,,,,,,,,,,,,,,,,,,,,,,,,,,,,,,,,,,,,,,,,,,,,,,,,,,,,,,,,,,,,,,,,,,,,,,,,,,,,,,,,,,,,,,,,,,,,,,,,,,,,,,,,,,,,,,,,,,,,,,,,,,,,,
,,5ec24766fd704d00089a80af,2024-01-06_07h37.33.502,kallum_motion_pilot,2023.2.3,Win32,60.0240096,5ec24766fd704d00089a80af,6598e6a5d84f07970b831e70,6598e7101661eb4a6cf477b8,0.035,0.035,1,42,204,108,1,sevenfive,,,,,,,,,,,,,,,,,,,,,,,,,,,,,,,,,,,,,,,,,,,,,,,,,,,,,,,,,,,,,,,,,,,,,,,,,,,,,,,,,,,,,,,,,,,,,,,,,,,,,,,,,,,,,,,,,,,,,,,,,,,,,,,,,,,,,,,
,,5ec24766fd704d00089a80af,2024-01-06_07h37.33.502,kallum_motion_pilot,2023.2.3,Win32,60.0240096,5ec24766fd704d00089a80af,6598e6a5d84f07970b831e70,6598e7101661eb4a6cf477b8,0.035,0.035,1,43,205,74,1,twoone,,,,,,,,,,,,,,,,,,,,,,,,,,,,,,,,,,,,,,,,,,,,,,,,,,,,,,,,,,,,,,,,,,,,,,,,,,,,,,,,,,,,,,,,,,,,,,,,,,,,,,,,,,,,,,,,,,,,,,,,,,,,,,,,,,,,,,,
,,5ec24766fd704d00089a80af,2024-01-06_07h37.33.502,kallum_motion_pilot,2023.2.3,Win32,60.0240096,5ec24766fd704d00089a80af,6598e6a5d84f07970b831e70,6598e7101661eb4a6cf477b8,0.035,0.035,1,44,206,51,1,twofour,,,,,,,,,,,,,,,,,,,,,,,,,,,,,,,,,,,,,,,,,,,,,,,,,,,,,,,,,,,,,,,,,,,,,,,,,,,,,,,,,,,,,,,,,,,,,,,,,,,,,,,,,,,,,,,,,,,,,,,,,,,,,,,,,,,,,,,
,,5ec24766fd704d00089a80af,2024-01-06_07h37.33.502,kallum_motion_pilot,2023.2.3,Win32,60.0240096,5ec24766fd704d00089a80af,6598e6a5d84f07970b831e70,6598e7101661eb4a6cf477b8,0.035,0.035,1,45,207,75,1,twofour,,,,,,,,,,,,,,,,,,,,,,,,,,,,,,,,,,,,,,,,,,,,,,,,,,,,,,,,,,,,,,,,,,,,,,,,,,,,,,,,,,,,,,,,,,,,,,,,,,,,,,,,,,,,,,,,,,,,,,,,,,,,,,,,,,,,,,,
,,5ec24766fd704d00089a80af,2024-01-06_07h37.33.502,kallum_motion_pilot,2023.2.3,Win32,60.0240096,5ec24766fd704d00089a80af,6598e6a5d84f07970b831e70,6598e7101661eb4a6cf477b8,0.035,0.035,1,46,208,45,1,threefour,,,,,,,,,,,,,,,,,,,,,,,,,,,,,,,,,,,,,,,,,,,,,,,,,,,,,,,,,,,,,,,,,,,,,,,,,,,,,,,,,,,,,,,,,,,,,,,,,,,,,,,,,,,,,,,,,,,,,,,,,,,,,,,,,,,,,,,
,,5ec24766fd704d00089a80af,2024-01-06_07h37.33.502,kallum_motion_pilot,2023.2.3,Win32,60.0240096,5ec24766fd704d00089a80af,6598e6a5d84f07970b831e70,6598e7101661eb4a6cf477b8,0.035,0.035,1,47,209,113,1,fiveseven,,,,,,,,,,,,,,,,,,,,,,,,,,,,,,,,,,,,,,,,,,,,,,,,,,,,,,,,,,,,,,,,,,,,,,,,,,,,,,,,,,,,,,,,,,,,,,,,,,,,,,,,,,,,,,,,,,,,,,,,,,,,,,,,,,,,,,,
,,5ec24766fd704d00089a80af,2024-01-06_07h37.33.502,kallum_motion_pilot,2023.2.3,Win32,60.0240096,5ec24766fd704d00089a80af,6598e6a5d84f07970b831e70,6598e7101661eb4a6cf477b8,0.035,0.035,1,48,210,122,1,sixfive,,,,,,,,,,,,,,,,,,,,,,,,,,,,,,,,,,,,,,,,,,,,,,,,,,,,,,,,,,,,,,,,,,,,,,,,,,,,,,,,,,,,,,,,,,,,,,,,,,,,,,,,,,,,,,,,,,,,,,,,,,,,,,,,,,,,,,,
,,5ec24766fd704d00089a80af,2024-01-06_07h37.33.502,kallum_motion_pilot,2023.2.3,Win32,60.0240096,5ec24766fd704d00089a80af,6598e6a5d84f07970b831e70,6598e7101661eb4a6cf477b8,0.035,0.035,1,49,211,89,1,fiveseven,,,,,,,,,,,,,,,,,,,,,,,,,,,,,,,,,,,,,,,,,,,,,,,,,,,,,,,,,,,,,,,,,,,,,,,,,,,,,,,,,,,,,,,,,,,,,,,,,,,,,,,,,,,,,,,,,,,,,,,,,,,,,,,,,,,,,,,
,,5ec24766fd704d00089a80af,2024-01-06_07h37.33.502,kallum_motion_pilot,2023.2.3,Win32,60.0240096,5ec24766fd704d00089a80af,6598e6a5d84f07970b831e70,6598e7101661eb4a6cf477b8,0.035,0.035,1,50,212,135,1,eightseven,,,,,,,,,,,,,,,,,,,,,,,,,,,,,,,,,,,,,,,,,,,,,,,,,,,,,,,,,,,,,,,,,,,,,,,,,,,,,,,,,,,,,,,,,,,,,,,,,,,,,,,,,,,,,,,,,,,,,,,,,,,,,,,,,,,,,,,
,,5ec24766fd704d00089a80af,2024-01-06_07h37.33.502,kallum_motion_pilot,2023.2.3,Win32,60.0240096,5ec24766fd704d00089a80af,6598e6a5d84f07970b831e70,6598e7101661eb4a6cf477b8,0.035,0.035,1,51,213,13,1,threefour,,,,,,,,,,,,,,,,,,,,,,,,,,,,,,,,,,,,,,,,,,,,,,,,,,,,,,,,,,,,,,,,,,,,,,,,,,,,,,,,,,,,,,,,,,,,,,,,,,,,,,,,,,,,,,,,,,,,,,,,,,,,,,,,,,,,,,,
,,5ec24766fd704d00089a80af,2024-01-06_07h37.33.502,kallum_motion_pilot,2023.2.3,Win32,60.0240096,5ec24766fd704d00089a80af,6598e6a5d84f07970b831e70,6598e7101661eb4a6cf477b8,0.035,0.035,1,52,214,43,1,twofour,,,,,,,,,,,,,,,,,,,,,,,,,,,,,,,,,,,,,,,,,,,,,,,,,,,,,,,,,,,,,,,,,,,,,,,,,,,,,,,,,,,,,,,,,,,,,,,,,,,,,,,,,,,,,,,,,,,,,,,,,,,,,,,,,,,,,,,
,,5ec24766fd704d00089a80af,2024-01-06_07h37.33.502,kallum_motion_pilot,2023.2.3,Win32,60.0240096,5ec24766fd704d00089a80af,6598e6a5d84f07970b831e70,6598e7101661eb4a6cf477b8,0.035,0.035,1,53,215,115,1,sixeight,,,,,,,,,,,,,,,,,,,,,,,,,,,,,,,,,,,,,,,,,,,,,,,,,,,,,,,,,,,,,,,,,,,,,,,,,,,,,,,,,,,,,,,,,,,,,,,,,,,,,,,,,,,,,,,,,,,,,,,,,,,,,,,,,,,,,,,
,,5ec24766fd704d00089a80af,2024-01-06_07h37.33.502,kallum_motion_pilot,2023.2.3,Win32,60.0240096,5ec24766fd704d00089a80af,6598e6a5d84f07970b831e70,6598e7101661eb4a6cf477b8,0.035,0.035,1,54,216,11,1,twofour,,,,,,,,,,,,,,,,,,,,,,,,,,,,,,,,,,,,,,,,,,,,,,,,,,,,,,,,,,,,,,,,,,,,,,,,,,,,,,,,,,,,,,,,,,,,,,,,,,,,,,,,,,,,,,,,,,,,,,,,,,,,,,,,,,,,,,,
,,5ec24766fd704d00089a80af,2024-01-06_07h37.33.502,kallum_motion_pilot,2023.2.3,Win32,60.0240096,5ec24766fd704d00089a80af,6598e6a5d84f07970b831e70,6598e7101661eb4a6cf477b8,0.035,0.035,1,55,217,126,1,eightsix,,,,,,,,,,,,,,,,,,,,,,,,,,,,,,,,,,,,,,,,,,,,,,,,,,,,,,,,,,,,,,,,,,,,,,,,,,,,,,,,,,,,,,,,,,,,,,,,,,,,,,,,,,,,,,,,,,,,,,,,,,,,,,,,,,,,,,,
,,5ec24766fd704d00089a80af,2024-01-06_07h37.33.502,kallum_motion_pilot,2023.2.3,Win32,60.0240096,5ec24766fd704d00089a80af,6598e6a5d84f07970b831e70,6598e7101661eb4a6cf477b8,0.035,0.035,1,56,218,18,1,twoone,,,,,,,,,,,,,,,,,,,,,,,,,,,,,,,,,,,,,,,,,,,,,,,,,,,,,,,,,,,,,,,,,,,,,,,,,,,,,,,,,,,,,,,,,,,,,,,,,,,,,,,,,,,,,,,,,,,,,,,,,,,,,,,,,,,,,,,
,,5ec24766fd704d00089a80af,2024-01-06_07h37.33.502,kallum_motion_pilot,2023.2.3,Win32,60.0240096,5ec24766fd704d00089a80af,6598e6a5d84f07970b831e70,6598e7101661eb4a6cf477b8,0.035,0.035,1,57,219,150,1,eightsix,,,,,,,,,,,,,,,,,,,,,,,,,,,,,,,,,,,,,,,,,,,,,,,,,,,,,,,,,,,,,,,,,,,,,,,,,,,,,,,,,,,,,,,,,,,,,,,,,,,,,,,,,,,,,,,,,,,,,,,,,,,,,,,,,,,,,,,
,,5ec24766fd704d00089a80af,2024-01-06_07h37.33.502,kallum_motion_pilot,2023.2.3,Win32,60.0240096,5ec24766fd704d00089a80af,6598e6a5d84f07970b831e70,6598e7101661eb4a6cf477b8,0.035,0.035,1,58,220,155,1,sixeight,,,,,,,,,,,,,,,,,,,,,,,,,,,,,,,,,,,,,,,,,,,,,,,,,,,,,,,,,,,,,,,,,,,,,,,,,,,,,,,,,,,,,,,,,,,,,,,,,,,,,,,,,,,,,,,,,,,,,,,,,,,,,,,,,,,,,,,
,,5ec24766fd704d00089a80af,2024-01-06_07h37.33.502,kallum_motion_pilot,2023.2.3,Win32,60.0240096,5ec24766fd704d00089a80af,6598e6a5d84f07970b831e70,6598e7101661eb4a6cf477b8,0.035,0.035,1,59,221,88,1,fivesix,,,,,,,,,,,,,,,,,,,,,,,,,,,,,,,,,,,,,,,,,,,,,,,,,,,,,,,,,,,,,,,,,,,,,,,,,,,,,,,,,,,,,,,,,,,,,,,,,,,,,,,,,,,,,,,,,,,,,,,,,,,,,,,,,,,,,,,
,,5ec24766fd704d00089a80af,2024-01-06_07h37.33.502,kallum_motion_pilot,2023.2.3,Win32,60.0240096,5ec24766fd704d00089a80af,6598e6a5d84f07970b831e70,6598e7101661eb4a6cf477b8,0.035,0.035,1,60,222,58,1,twoone,,,,,,,,,,,,,,,,,,,,,,,,,,,,,,,,,,,,,,,,,,,,,,,,,,,,,,,,,,,,,,,,,,,,,,,,,,,,,,,,,,,,,,,,,,,,,,,,,,,,,,,,,,,,,,,,,,,,,,,,,,,,,,,,,,,,,,,
,,5ec24766fd704d00089a80af,2024-01-06_07h37.33.502,kallum_motion_pilot,2023.2.3,Win32,60.0240096,5ec24766fd704d00089a80af,6598e6a5d84f07970b831e70,6598e7101661eb4a6cf477b8,0.035,0.035,1,61,223,102,1,eightsix,,,,,,,,,,,,,,,,,,,,,,,,,,,,,,,,,,,,,,,,,,,,,,,,,,,,,,,,,,,,,,,,,,,,,,,,,,,,,,,,,,,,,,,,,,,,,,,,,,,,,,,,,,,,,,,,,,,,,,,,,,,,,,,,,,,,,,,
,,5ec24766fd704d00089a80af,2024-01-06_07h37.33.502,kallum_motion_pilot,2023.2.3,Win32,60.0240096,5ec24766fd704d00089a80af,6598e6a5d84f07970b831e70,6598e7101661eb4a6cf477b8,0.035,0.035,1,62,224,53,1,threefour,,,,,,,,,,,,,,,,,,,,,,,,,,,,,,,,,,,,,,,,,,,,,,,,,,,,,,,,,,,,,,,,,,,,,,,,,,,,,,,,,,,,,,,,,,,,,,,,,,,,,,,,,,,,,,,,,,,,,,,,,,,,,,,,,,,,,,,
,,5ec24766fd704d00089a80af,2024-01-06_07h37.33.502,kallum_motion_pilot,2023.2.3,Win32,60.0240096,5ec24766fd704d00089a80af,6598e6a5d84f07970b831e70,6598e7101661eb4a6cf477b8,0.036,0.036,1,63,225,147,1,sixeight,,,,,,,,,,,,,,,,,,,,,,,,,,,,,,,,,,,,,,,,,,,,,,,,,,,,,,,,,,,,,,,,,,,,,,,,,,,,,,,,,,,,,,,,,,,,,,,,,,,,,,,,,,,,,,,,,,,,,,,,,,,,,,,,,,,,,,,
,,5ec24766fd704d00089a80af,2024-01-06_07h37.33.502,kallum_motion_pilot,2023.2.3,Win32,60.0240096,5ec24766fd704d00089a80af,6598e6a5d84f07970b831e70,6598e7101661eb4a6cf477b8,0.037,0.037,1,64,226,55,1,fourthree,,,,,,,,,,,,,,,,,,,,,,,,,,,,,,,,,,,,,,,,,,,,,,,,,,,,,,,,,,,,,,,,,,,,,,,,,,,,,,,,,,,,,,,,,,,,,,,,,,,,,,,,,,,,,,,,,,,,,,,,,,,,,,,,,,,,,,,
,,5ec24766fd704d00089a80af,2024-01-06_07h37.33.502,kallum_motion_pilot,2023.2.3,Win32,60.0240096,5ec24766fd704d00089a80af,6598e6a5d84f07970b831e70,6598e7101661eb4a6cf477b8,0.037,0.037,1,65,227,111,1,eightseven,,,,,,,,,,,,,,,,,,,,,,,,,,,,,,,,,,,,,,,,,,,,,,,,,,,,,,,,,,,,,,,,,,,,,,,,,,,,,,,,,,,,,,,,,,,,,,,,,,,,,,,,,,,,,,,,,,,,,,,,,,,,,,,,,,,,,,,
,,5ec24766fd704d00089a80af,2024-01-06_07h37.33.502,kallum_motion_pilot,2023.2.3,Win32,60.0240096,5ec24766fd704d00089a80af,6598e6a5d84f07970b831e70,6598e7101661eb4a6cf477b8,0.037,0.037,1,66,228,117,1,seveneight,,,,,,,,,,,,,,,,,,,,,,,,,,,,,,,,,,,,,,,,,,,,,,,,,,,,,,,,,,,,,,,,,,,,,,,,,,,,,,,,,,,,,,,,,,,,,,,,,,,,,,,,,,,,,,,,,,,,,,,,,,,,,,,,,,,,,,,
,,5ec24766fd704d00089a80af,2024-01-06_07h37.33.502,kallum_motion_pilot,2023.2.3,Win32,60.0240096,5ec24766fd704d00089a80af,6598e6a5d84f07970b831e70,6598e7101661eb4a6cf477b8,0.037,0.037,1,67,229,21,1,threefour,,,,,,,,,,,,,,,,,,,,,,,,,,,,,,,,,,,,,,,,,,,,,,,,,,,,,,,,,,,,,,,,,,,,,,,,,,,,,,,,,,,,,,,,,,,,,,,,,,,,,,,,,,,,,,,,,,,,,,,,,,,,,,,,,,,,,,,
,,5ec24766fd704d00089a80af,2024-01-06_07h37.33.502,kallum_motion_pilot,2023.2.3,Win32,60.0240096,5ec24766fd704d00089a80af,6598e6a5d84f07970b831e70,6598e7101661eb4a6cf477b8,0.037,0.037,1,68,230,96,1,fivesix,,,,,,,,,,,,,,,,,,,,,,,,,,,,,,,,,,,,,,,,,,,,,,,,,,,,,,,,,,,,,,,,,,,,,,,,,,,,,,,,,,,,,,,,,,,,,,,,,,,,,,,,,,,,,,,,,,,,,,,,,,,,,,,,,,,,,,,
,,5ec24766fd704d00089a80af,2024-01-06_07h37.33.502,kallum_motion_pilot,2023.2.3,Win32,60.0240096,5ec24766fd704d00089a80af,6598e6a5d84f07970b831e70,6598e7101661eb4a6cf477b8,0.037,0.037,1,69,231,72,1,onetwo,,,,,,,,,,,,,,,,,,,,,,,,,,,,,,,,,,,,,,,,,,,,,,,,,,,,,,,,,,,,,,,,,,,,,,,,,,,,,,,,,,,,,,,,,,,,,,,,,,,,,,,,,,,,,,,,,,,,,,,,,,,,,,,,,,,,,,,
,,5ec24766fd704d00089a80af,2024-01-06_07h37.33.502,kallum_motion_pilot,2023.2.3,Win32,60.0240096,5ec24766fd704d00089a80af,6598e6a5d84f07970b831e70,6598e7101661eb4a6cf477b8,0.037,0.037,1,70,232,49,1,onethree,,,,,,,,,,,,,,,,,,,,,,,,,,,,,,,,,,,,,,,,,,,,,,,,,,,,,,,,,,,,,,,,,,,,,,,,,,,,,,,,,,,,,,,,,,,,,,,,,,,,,,,,,,,,,,,,,,,,,,,,,,,,,,,,,,,,,,,
,,5ec24766fd704d00089a80af,2024-01-06_07h37.33.502,kallum_motion_pilot,2023.2.3,Win32,60.0240096,5ec24766fd704d00089a80af,6598e6a5d84f07970b831e70,6598e7101661eb4a6cf477b8,0.038,0.038,1,71,233,125,1,seveneight,,,,,,,,,,,,,,,,,,,,,,,,,,,,,,,,,,,,,,,,,,,,,,,,,,,,,,,,,,,,,,,,,,,,,,,,,,,,,,,,,,,,,,,,,,,,,,,,,,,,,,,,,,,,,,,,,,,,,,,,,,,,,,,,,,,,,,,
,,5ec24766fd704d00089a80af,2024-01-06_07h37.33.502,kallum_motion_pilot,2023.2.3,Win32,60.0240096,5ec24766fd704d00089a80af,6598e6a5d84f07970b831e70,6598e7101661eb4a6cf477b8,0.038,0.038,1,72,234,54,1,fourtwo,,,,,,,,,,,,,,,,,,,,,,,,,,,,,,,,,,,,,,,,,,,,,,,,,,,,,,,,,,,,,,,,,,,,,,,,,,,,,,,,,,,,,,,,,,,,,,,,,,,,,,,,,,,,,,,,,,,,,,,,,,,,,,,,,,,,,,,
,,5ec24766fd704d00089a80af,2024-01-06_07h37.33.502,kallum_motion_pilot,2023.2.3,Win32,60.0240096,5ec24766fd704d00089a80af,6598e6a5d84f07970b831e70,6598e7101661eb4a6cf477b8,0.038,0.038,1,73,235,98,1,sixfive,,,,,,,,,,,,,,,,,,,,,,,,,,,,,,,,,,,,,,,,,,,,,,,,,,,,,,,,,,,,,,,,,,,,,,,,,,,,,,,,,,,,,,,,,,,,,,,,,,,,,,,,,,,,,,,,,,,,,,,,,,,,,,,,,,,,,,,
,,5ec24766fd704d00089a80af,2024-01-06_07h37.33.502,kallum_motion_pilot,2023.2.3,Win32,60.0240096,5ec24766fd704d00089a80af,6598e6a5d84f07970b831e70,6598e7101661eb4a6cf477b8,0.038,0.038,1,74,236,37,1,threefour,,,,,,,,,,,,,,,,,,,,,,,,,,,,,,,,,,,,,,,,,,,,,,,,,,,,,,,,,,,,,,,,,,,,,,,,,,,,,,,,,,,,,,,,,,,,,,,,,,,,,,,,,,,,,,,,,,,,,,,,,,,,,,,,,,,,,,,
,,5ec24766fd704d00089a80af,2024-01-06_07h37.33.502,kallum_motion_pilot,2023.2.3,Win32,60.0240096,5ec24766fd704d00089a80af,6598e6a5d84f07970b831e70,6598e7101661eb4a6cf477b8,0.038,0.038,1,75,237,161,1,fiveseven,,,,,,,,,,,,,,,,,,,,,,,,,,,,,,,,,,,,,,,,,,,,,,,,,,,,,,,,,,,,,,,,,,,,,,,,,,,,,,,,,,,,,,,,,,,,,,,,,,,,,,,,,,,,,,,,,,,,,,,,,,,,,,,,,,,,,,,
,,5ec24766fd704d00089a80af,2024-01-06_07h37.33.502,kallum_motion_pilot,2023.2.3,Win32,60.0240096,5ec24766fd704d00089a80af,6598e6a5d84f07970b831e70,6598e7101661eb4a6cf477b8,0.038,0.038,1,76,238,41,1,onethree,,,,,,,,,,,,,,,,,,,,,,,,,,,,,,,,,,,,,,,,,,,,,,,,,,,,,,,,,,,,,,,,,,,,,,,,,,,,,,,,,,,,,,,,,,,,,,,,,,,,,,,,,,,,,,,,,,,,,,,,,,,,,,,,,,,,,,,
,,5ec24766fd704d00089a80af,2024-01-06_07h37.33.502,kallum_motion_pilot,2023.2.3,Win32,60.0240096,5ec24766fd704d00089a80af,6598e6a5d84f07970b831e70,6598e7101661eb4a6cf477b8,0.038,0.038,1,77,239,87,1,eightseven,,,,,,,,,,,,,,,,,,,,,,,,,,,,,,,,,,,,,,,,,,,,,,,,,,,,,,,,,,,,,,,,,,,,,,,,,,,,,,,,,,,,,,,,,,,,,,,,,,,,,,,,,,,,,,,,,,,,,,,,,,,,,,,,,,,,,,,
,,5ec24766fd704d00089a80af,2024-01-06_07h37.33.502,kallum_motion_pilot,2023.2.3,Win32,60.0240096,5ec24766fd704d00089a80af,6598e6a5d84f07970b831e70,6598e7101661eb4a6cf477b8,0.038,0.038,1,78,240,140,1,sevenfive,,,,,,,,,,,,,,,,,,,,,,,,,,,,,,,,,,,,,,,,,,,,,,,,,,,,,,,,,,,,,,,,,,,,,,,,,,,,,,,,,,,,,,,,,,,,,,,,,,,,,,,,,,,,,,,,,,,,,,,,,,,,,,,,,,,,,,,
,,5ec24766fd704d00089a80af,2024-01-06_07h37.33.502,kallum_motion_pilot,2023.2.3,Win32,60.0240096,5ec24766fd704d00089a80af,6598e6a5d84f07970b831e70,6598e7101661eb4a6cf477b8,0.038,0.038,1,79,241,52,1,threeone,,,,,,,,,,,,,,,,,,,,,,,,,,,,,,,,,,,,,,,,,,,,,,,,,,,,,,,,,,,,,,,,,,,,,,,,,,,,,,,,,,,,,,,,,,,,,,,,,,,,,,,,,,,,,,,,,,,,,,,,,,,,,,,,,,,,,,,
,,5ec24766fd704d00089a80af,2024-01-06_07h37.33.502,kallum_motion_pilot,2023.2.3,Win32,60.0240096,5ec24766fd704d00089a80af,6598e6a5d84f07970b831e70,6598e7101661eb4a6cf477b8,0.038,0.038,1,80,242,106,1,sixfive,,,,,,,,,,,,,,,,,,,,,,,,,,,,,,,,,,,,,,,,,,,,,,,,,,,,,,,,,,,,,,,,,,,,,,,,,,,,,,,,,,,,,,,,,,,,,,,,,,,,,,,,,,,,,,,,,,,,,,,,,,,,,,,,,,,,,,,
,,5ec24766fd704d00089a80af,2024-01-06_07h37.33.502,kallum_motion_pilot,2023.2.3,Win32,60.0240096,5ec24766fd704d00089a80af,6598e6a5d84f07970b831e70,6598e7101661eb4a6cf477b8,0.038,0.038,1,81,243,46,1,fourtwo,,,,,,,,,,,,,,,,,,,,,,,,,,,,,,,,,,,,,,,,,,,,,,,,,,,,,,,,,,,,,,,,,,,,,,,,,,,,,,,,,,,,,,,,,,,,,,,,,,,,,,,,,,,,,,,,,,,,,,,,,,,,,,,,,,,,,,,
,,5ec24766fd704d00089a80af,2024-01-06_07h37.33.502,kallum_motion_pilot,2023.2.3,Win32,60.0240096,5ec24766fd704d00089a80af,6598e6a5d84f07970b831e70,6598e7101661eb4a6cf477b8,0.038,0.038,1,82,244,138,1,sixfive,,,,,,,,,,,,,,,,,,,,,,,,,,,,,,,,,,,,,,,,,,,,,,,,,,,,,,,,,,,,,,,,,,,,,,,,,,,,,,,,,,,,,,,,,,,,,,,,,,,,,,,,,,,,,,,,,,,,,,,,,,,,,,,,,,,,,,,
,,5ec24766fd704d00089a80af,2024-01-06_07h37.33.502,kallum_motion_pilot,2023.2.3,Win32,60.0240096,5ec24766fd704d00089a80af,6598e6a5d84f07970b831e70,6598e7101661eb4a6cf477b8,0.038,0.038,1,83,245,44,1,threeone,,,,,,,,,,,,,,,,,,,,,,,,,,,,,,,,,,,,,,,,,,,,,,,,,,,,,,,,,,,,,,,,,,,,,,,,,,,,,,,,,,,,,,,,,,,,,,,,,,,,,,,,,,,,,,,,,,,,,,,,,,,,,,,,,,,,,,,
,,5ec24766fd704d00089a80af,2024-01-06_07h37.33.502,kallum_motion_pilot,2023.2.3,Win32,60.0240096,5ec24766fd704d00089a80af,6598e6a5d84f07970b831e70,6598e7101661eb4a6cf477b8,0.039,0.039,1,84,246,80,1,fivesix,,,,,,,,,,,,,,,,,,,,,,,,,,,,,,,,,,,,,,,,,,,,,,,,,,,,,,,,,,,,,,,,,,,,,,,,,,,,,,,,,,,,,,,,,,,,,,,,,,,,,,,,,,,,,,,,,,,,,,,,,,,,,,,,,,,,,,,
,,5ec24766fd704d00089a80af,2024-01-06_07h37.33.502,kallum_motion_pilot,2023.2.3,Win32,60.0240096,5ec24766fd704d00089a80af,6598e6a5d84f07970b831e70,6598e7101661eb4a6cf477b8,0.039,0.039,1,85,247,40,1,onetwo,,,,,,,,,,,,,,,,,,,,,,,,,,,,,,,,,,,,,,,,,,,,,,,,,,,,,,,,,,,,,,,,,,,,,,,,,,,,,,,,,,,,,,,,,,,,,,,,,,,,,,,,,,,,,,,,,,,,,,,,,,,,,,,,,,,,,,,
,,5ec24766fd704d00089a80af,2024-01-06_07h37.33.502,kallum_motion_pilot,2023.2.3,Win32,60.0240096,5ec24766fd704d00089a80af,6598e6a5d84f07970b831e70,6598e7101661eb4a6cf477b8,0.039,0.039,1,86,248,109,1,seveneight,,,,,,,,,,,,,,,,,,,,,,,,,,,,,,,,,,,,,,,,,,,,,,,,,,,,,,,,,,,,,,,,,,,,,,,,,,,,,,,,,,,,,,,,,,,,,,,,,,,,,,,,,,,,,,,,,,,,,,,,,,,,,,,,,,,,,,,
,,5ec24766fd704d00089a80af,2024-01-06_07h37.33.502,kallum_motion_pilot,2023.2.3,Win32,60.0240096,5ec24766fd704d00089a80af,6598e6a5d84f07970b831e70,6598e7101661eb4a6cf477b8,0.039,0.039,1,87,249,105,1,fiveseven,,,,,,,,,,,,,,,,,,,,,,,,,,,,,,,,,,,,,,,,,,,,,,,,,,,,,,,,,,,,,,,,,,,,,,,,,,,,,,,,,,,,,,,,,,,,,,,,,,,,,,,,,,,,,,,,,,,,,,,,,,,,,,,,,,,,,,,
,,5ec24766fd704d00089a80af,2024-01-06_07h37.33.502,kallum_motion_pilot,2023.2.3,Win32,60.0240096,5ec24766fd704d00089a80af,6598e6a5d84f07970b831e70,6598e7101661eb4a6cf477b8,0.039,0.039,1,88,250,129,1,fiveseven,,,,,,,,,,,,,,,,,,,,,,,,,,,,,,,,,,,,,,,,,,,,,,,,,,,,,,,,,,,,,,,,,,,,,,,,,,,,,,,,,,,,,,,,,,,,,,,,,,,,,,,,,,,,,,,,,,,,,,,,,,,,,,,,,,,,,,,
,,5ec24766fd704d00089a80af,2024-01-06_07h37.33.502,kallum_motion_pilot,2023.2.3,Win32,60.0240096,5ec24766fd704d00089a80af,6598e6a5d84f07970b831e70,6598e7101661eb4a6cf477b8,0.039,0.039,1,89,251,86,1,eightsix,,,,,,,,,,,,,,,,,,,,,,,,,,,,,,,,,,,,,,,,,,,,,,,,,,,,,,,,,,,,,,,,,,,,,,,,,,,,,,,,,,,,,,,,,,,,,,,,,,,,,,,,,,,,,,,,,,,,,,,,,,,,,,,,,,,,,,,
,,5ec24766fd704d00089a80af,2024-01-06_07h37.33.502,kallum_motion_pilot,2023.2.3,Win32,60.0240096,5ec24766fd704d00089a80af,6598e6a5d84f07970b831e70,6598e7101661eb4a6cf477b8,0.039,0.039,1,90,252,100,1,sevenfive,,,,,,,,,,,,,,,,,,,,,,,,,,,,,,,,,,,,,,,,,,,,,,,,,,,,,,,,,,,,,,,,,,,,,,,,,,,,,,,,,,,,,,,,,,,,,,,,,,,,,,,,,,,,,,,,,,,,,,,,,,,,,,,,,,,,,,,
,,5ec24766fd704d00089a80af,2024-01-06_07h37.33.502,kallum_motion_pilot,2023.2.3,Win32,60.0240096,5ec24766fd704d00089a80af,6598e6a5d84f07970b831e70,6598e7101661eb4a6cf477b8,0.039,0.039,1,91,253,7,1,fourthree,,,,,,,,,,,,,,,,,,,,,,,,,,,,,,,,,,,,,,,,,,,,,,,,,,,,,,,,,,,,,,,,,,,,,,,,,,,,,,,,,,,,,,,,,,,,,,,,,,,,,,,,,,,,,,,,,,,,,,,,,,,,,,,,,,,,,,,
,,5ec24766fd704d00089a80af,2024-01-06_07h37.33.502,kallum_motion_pilot,2023.2.3,Win32,60.0240096,5ec24766fd704d00089a80af,6598e6a5d84f07970b831e70,6598e7101661eb4a6cf477b8,0.039,0.039,1,92,254,90,1,sixfive,,,,,,,,,,,,,,,,,,,,,,,,,,,,,,,,,,,,,,,,,,,,,,,,,,,,,,,,,,,,,,,,,,,,,,,,,,,,,,,,,,,,,,,,,,,,,,,,,,,,,,,,,,,,,,,,,,,,,,,,,,,,,,,,,,,,,,,
,,5ec24766fd704d00089a80af,2024-01-06_07h37.33.502,kallum_motion_pilot,2023.2.3,Win32,60.0240096,5ec24766fd704d00089a80af,6598e6a5d84f07970b831e70,6598e7101661eb4a6cf477b8,0.039,0.039,1,93,255,16,1,onetwo,,,,,,,,,,,,,,,,,,,,,,,,,,,,,,,,,,,,,,,,,,,,,,,,,,,,,,,,,,,,,,,,,,,,,,,,,,,,,,,,,,,,,,,,,,,,,,,,,,,,,,,,,,,,,,,,,,,,,,,,,,,,,,,,,,,,,,,
,,5ec24766fd704d00089a80af,2024-01-06_07h37.33.502,kallum_motion_pilot,2023.2.3,Win32,60.0240096,5ec24766fd704d00089a80af,6598e6a5d84f07970b831e70,6598e7101661eb4a6cf477b8,0.039,0.039,1,94,256,110,1,eightsix,,,,,,,,,,,,,,,,,,,,,,,,,,,,,,,,,,,,,,,,,,,,,,,,,,,,,,,,,,,,,,,,,,,,,,,,,,,,,,,,,,,,,,,,,,,,,,,,,,,,,,,,,,,,,,,,,,,,,,,,,,,,,,,,,,,,,,,
,,5ec24766fd704d00089a80af,2024-01-06_07h37.33.502,kallum_motion_pilot,2023.2.3,Win32,60.0240096,5ec24766fd704d00089a80af,6598e6a5d84f07970b831e70,6598e7101661eb4a6cf477b8,0.039,0.039,1,95,257,97,1,fiveseven,,,,,,,,,,,,,,,,,,,,,,,,,,,,,,,,,,,,,,,,,,,,,,,,,,,,,,,,,,,,,,,,,,,,,,,,,,,,,,,,,,,,,,,,,,,,,,,,,,,,,,,,,,,,,,,,,,,,,,,,,,,,,,,,,,,,,,,
,,5ec24766fd704d00089a80af,2024-01-06_07h37.33.502,kallum_motion_pilot,2023.2.3,Win32,60.0240096,5ec24766fd704d00089a80af,6598e6a5d84f07970b831e70,6598e7101661eb4a6cf477b8,0.039,0.039,1,96,258,17,1,onethree,,,,,,,,,,,,,,,,,,,,,,,,,,,,,,,,,,,,,,,,,,,,,,,,,,,,,,,,,,,,,,,,,,,,,,,,,,,,,,,,,,,,,,,,,,,,,,,,,,,,,,,,,,,,,,,,,,,,,,,,,,,,,,,,,,,,,,,
,,5ec24766fd704d00089a80af,2024-01-06_07h37.33.502,kallum_motion_pilot,2023.2.3,Win32,60.0240096,5ec24766fd704d00089a80af,6598e6a5d84f07970b831e70,6598e7101661eb4a6cf477b8,0.039,0.039,1,97,259,68,1,threeone,,,,,,,,,,,,,,,,,,,,,,,,,,,,,,,,,,,,,,,,,,,,,,,,,,,,,,,,,,,,,,,,,,,,,,,,,,,,,,,,,,,,,,,,,,,,,,,,,,,,,,,,,,,,,,,,,,,,,,,,,,,,,,,,,,,,,,,
,,5ec24766fd704d00089a80af,2024-01-06_07h37.33.502,kallum_motion_pilot,2023.2.3,Win32,60.0240096,5ec24766fd704d00089a80af,6598e6a5d84f07970b831e70,6598e7101661eb4a6cf477b8,0.039,0.039,1,98,260,85,1,seveneight,,,,,,,,,,,,,,,,,,,,,,,,,,,,,,,,,,,,,,,,,,,,,,,,,,,,,,,,,,,,,,,,,,,,,,,,,,,,,,,,,,,,,,,,,,,,,,,,,,,,,,,,,,,,,,,,,,,,,,,,,,,,,,,,,,,,,,,
,,5ec24766fd704d00089a80af,2024-01-06_07h37.33.502,kallum_motion_pilot,2023.2.3,Win32,60.0240096,5ec24766fd704d00089a80af,6598e6a5d84f07970b831e70,6598e7101661eb4a6cf477b8,0.039,0.039,1,99,261,92,1,sevenfive,,,,,,,,,,,,,,,,,,,,,,,,,,,,,,,,,,,,,,,,,,,,,,,,,,,,,,,,,,,,,,,,,,,,,,,,,,,,,,,,,,,,,,,,,,,,,,,,,,,,,,,,,,,,,,,,,,,,,,,,,,,,,,,,,,,,,,,
,,5ec24766fd704d00089a80af,2024-01-06_07h37.33.502,kallum_motion_pilot,2023.2.3,Win32,60.0240096,5ec24766fd704d00089a80af,6598e6a5d84f07970b831e70,6598e7101661eb4a6cf477b8,0.039,0.039,1,100,262,9,1,onethree,,,,,,,,,,,,,,,,,,,,,,,,,,,,,,,,,,,,,,,,,,,,,,,,,,,,,,,,,,,,,,,,,,,,,,,,,,,,,,,,,,,,,,,,,,,,,,,,,,,,,,,,,,,,,,,,,,,,,,,,,,,,,,,,,,,,,,,
,,5ec24766fd704d00089a80af,2024-01-06_07h37.33.502,kallum_motion_pilot,2023.2.3,Win32,60.0240096,5ec24766fd704d00089a80af,6598e6a5d84f07970b831e70,6598e7101661eb4a6cf477b8,0.039,0.039,1,101,263,60,1,threeone,,,,,,,,,,,,,,,,,,,,,,,,,,,,,,,,,,,,,,,,,,,,,,,,,,,,,,,,,,,,,,,,,,,,,,,,,,,,,,,,,,,,,,,,,,,,,,,,,,,,,,,,,,,,,,,,,,,,,,,,,,,,,,,,,,,,,,,
,,5ec24766fd704d00089a80af,2024-01-06_07h37.33.502,kallum_motion_pilot,2023.2.3,Win32,60.0240096,5ec24766fd704d00089a80af,6598e6a5d84f07970b831e70,6598e7101661eb4a6cf477b8,0.039,0.039,1,102,264,65,1,onethree,,,,,,,,,,,,,,,,,,,,,,,,,,,,,,,,,,,,,,,,,,,,,,,,,,,,,,,,,,,,,,,,,,,,,,,,,,,,,,,,,,,,,,,,,,,,,,,,,,,,,,,,,,,,,,,,,,,,,,,,,,,,,,,,,,,,,,,
,,5ec24766fd704d00089a80af,2024-01-06_07h37.33.502,kallum_motion_pilot,2023.2.3,Win32,60.0240096,5ec24766fd704d00089a80af,6598e6a5d84f07970b831e70,6598e7101661eb4a6cf477b8,0.039,0.039,1,103,265,104,1,fivesix,,,,,,,,,,,,,,,,,,,,,,,,,,,,,,,,,,,,,,,,,,,,,,,,,,,,,,,,,,,,,,,,,,,,,,,,,,,,,,,,,,,,,,,,,,,,,,,,,,,,,,,,,,,,,,,,,,,,,,,,,,,,,,,,,,,,,,,
,,5ec24766fd704d00089a80af,2024-01-06_07h37.33.502,kallum_motion_pilot,2023.2.3,Win32,60.0240096,5ec24766fd704d00089a80af,6598e6a5d84f07970b831e70,6598e7101661eb4a6cf477b8,0.039,0.039,1,104,266,12,1,threeone,,,,,,,,,,,,,,,,,,,,,,,,,,,,,,,,,,,,,,,,,,,,,,,,,,,,,,,,,,,,,,,,,,,,,,,,,,,,,,,,,,,,,,,,,,,,,,,,,,,,,,,,,,,,,,,,,,,,,,,,,,,,,,,,,,,,,,,
,,5ec24766fd704d00089a80af,2024-01-06_07h37.33.502,kallum_motion_pilot,2023.2.3,Win32,60.0240096,5ec24766fd704d00089a80af,6598e6a5d84f07970b831e70,6598e7101661eb4a6cf477b8,0.039,0.039,1,105,267,152,1,fivesix,,,,,,,,,,,,,,,,,,,,,,,,,,,,,,,,,,,,,,,,,,,,,,,,,,,,,,,,,,,,,,,,,,,,,,,,,,,,,,,,,,,,,,,,,,,,,,,,,,,,,,,,,,,,,,,,,,,,,,,,,,,,,,,,,,,,,,,
,,5ec24766fd704d00089a80af,2024-01-06_07h37.33.502,kallum_motion_pilot,2023.2.3,Win32,60.0240096,5ec24766fd704d00089a80af,6598e6a5d84f07970b831e70,6598e7101661eb4a6cf477b8,0.039,0.039,1,106,268,70,1,fourtwo,,,,,,,,,,,,,,,,,,,,,,,,,,,,,,,,,,,,,,,,,,,,,,,,,,,,,,,,,,,,,,,,,,,,,,,,,,,,,,,,,,,,,,,,,,,,,,,,,,,,,,,,,,,,,,,,,,,,,,,,,,,,,,,,,,,,,,,
,,5ec24766fd704d00089a80af,2024-01-06_07h37.33.502,kallum_motion_pilot,2023.2.3,Win32,60.0240096,5ec24766fd704d00089a80af,6598e6a5d84f07970b831e70,6598e7101661eb4a6cf477b8,0.039,0.039,1,107,269,160,1,fivesix,,,,,,,,,,,,,,,,,,,,,,,,,,,,,,,,,,,,,,,,,,,,,,,,,,,,,,,,,,,,,,,,,,,,,,,,,,,,,,,,,,,,,,,,,,,,,,,,,,,,,,,,,,,,,,,,,,,,,,,,,,,,,,,,,,,,,,,
,,5ec24766fd704d00089a80af,2024-01-06_07h37.33.502,kallum_motion_pilot,2023.2.3,Win32,60.0240096,5ec24766fd704d00089a80af,6598e6a5d84f07970b831e70,6598e7101661eb4a6cf477b8,0.04,0.04,1,108,270,84,1,sevenfive,,,,,,,,,,,,,,,,,,,,,,,,,,,,,,,,,,,,,,,,,,,,,,,,,,,,,,,,,,,,,,,,,,,,,,,,,,,,,,,,,,,,,,,,,,,,,,,,,,,,,,,,,,,,,,,,,,,,,,,,,,,,,,,,,,,,,,,
,,5ec24766fd704d00089a80af,2024-01-06_07h37.33.502,kallum_motion_pilot,2023.2.3,Win32,60.0240096,5ec24766fd704d00089a80af,6598e6a5d84f07970b831e70,6598e7101661eb4a6cf477b8,0.04,0.04,1,109,271,76,1,threeone,,,,,,,,,,,,,,,,,,,,,,,,,,,,,,,,,,,,,,,,,,,,,,,,,,,,,,,,,,,,,,,,,,,,,,,,,,,,,,,,,,,,,,,,,,,,,,,,,,,,,,,,,,,,,,,,,,,,,,,,,,,,,,,,,,,,,,,
,,5ec24766fd704d00089a80af,2024-01-06_07h37.33.502,kallum_motion_pilot,2023.2.3,Win32,60.0240096,5ec24766fd704d00089a80af,6598e6a5d84f07970b831e70,6598e7101661eb4a6cf477b8,0.04,0.04,1,110,272,119,1,eightseven,,,,,,,,,,,,,,,,,,,,,,,,,,,,,,,,,,,,,,,,,,,,,,,,,,,,,,,,,,,,,,,,,,,,,,,,,,,,,,,,,,,,,,,,,,,,,,,,,,,,,,,,,,,,,,,,,,,,,,,,,,,,,,,,,,,,,,,
,,5ec24766fd704d00089a80af,2024-01-06_07h37.33.502,kallum_motion_pilot,2023.2.3,Win32,60.0240096,5ec24766fd704d00089a80af,6598e6a5d84f07970b831e70,6598e7101661eb4a6cf477b8,0.04,0.04,1,111,273,57,1,onethree,,,,,,,,,,,,,,,,,,,,,,,,,,,,,,,,,,,,,,,,,,,,,,,,,,,,,,,,,,,,,,,,,,,,,,,,,,,,,,,,,,,,,,,,,,,,,,,,,,,,,,,,,,,,,,,,,,,,,,,,,,,,,,,,,,,,,,,
,,5ec24766fd704d00089a80af,2024-01-06_07h37.33.502,kallum_motion_pilot,2023.2.3,Win32,60.0240096,5ec24766fd704d00089a80af,6598e6a5d84f07970b831e70,6598e7101661eb4a6cf477b8,0.04,0.04,1,112,274,0,1,onetwo,,,,,,,,,,,,,,,,,,,,,,,,,,,,,,,,,,,,,,,,,,,,,,,,,,,,,,,,,,,,,,,,,,,,,,,,,,,,,,,,,,,,,,,,,,,,,,,,,,,,,,,,,,,,,,,,,,,,,,,,,,,,,,,,,,,,,,,
,,5ec24766fd704d00089a80af,2024-01-06_07h37.33.502,kallum_motion_pilot,2023.2.3,Win32,60.0240096,5ec24766fd704d00089a80af,6598e6a5d84f07970b831e70,6598e7101661eb4a6cf477b8,0.04,0.04,1,113,275,10,1,twoone,,,,,,,,,,,,,,,,,,,,,,,,,,,,,,,,,,,,,,,,,,,,,,,,,,,,,,,,,,,,,,,,,,,,,,,,,,,,,,,,,,,,,,,,,,,,,,,,,,,,,,,,,,,,,,,,,,,,,,,,,,,,,,,,,,,,,,,
,,5ec24766fd704d00089a80af,2024-01-06_07h37.33.502,kallum_motion_pilot,2023.2.3,Win32,60.0240096,5ec24766fd704d00089a80af,6598e6a5d84f07970b831e70,6598e7101661eb4a6cf477b8,0.04,0.04,1,114,276,25,1,onethree,,,,,,,,,,,,,,,,,,,,,,,,,,,,,,,,,,,,,,,,,,,,,,,,,,,,,,,,,,,,,,,,,,,,,,,,,,,,,,,,,,,,,,,,,,,,,,,,,,,,,,,,,,,,,,,,,,,,,,,,,,,,,,,,,,,,,,,
,,5ec24766fd704d00089a80af,2024-01-06_07h37.33.502,kallum_motion_pilot,2023.2.3,Win32,60.0240096,5ec24766fd704d00089a80af,6598e6a5d84f07970b831e70,6598e7101661eb4a6cf477b8,0.04,0.04,1,115,277,144,1,fivesix,,,,,,,,,,,,,,,,,,,,,,,,,,,,,,,,,,,,,,,,,,,,,,,,,,,,,,,,,,,,,,,,,,,,,,,,,,,,,,,,,,,,,,,,,,,,,,,,,,,,,,,,,,,,,,,,,,,,,,,,,,,,,,,,,,,,,,,
,,5ec24766fd704d00089a80af,2024-01-06_07h37.33.502,kallum_motion_pilot,2023.2.3,Win32,60.0240096,5ec24766fd704d00089a80af,6598e6a5d84f07970b831e70,6598e7101661eb4a6cf477b8,0.04,0.04,1,116,278,116,1,sevenfive,,,,,,,,,,,,,,,,,,,,,,,,,,,,,,,,,,,,,,,,,,,,,,,,,,,,,,,,,,,,,,,,,,,,,,,,,,,,,,,,,,,,,,,,,,,,,,,,,,,,,,,,,,,,,,,,,,,,,,,,,,,,,,,,,,,,,,,
,,5ec24766fd704d00089a80af,2024-01-06_07h37.33.502,kallum_motion_pilot,2023.2.3,Win32,60.0240096,5ec24766fd704d00089a80af,6598e6a5d84f07970b831e70,6598e7101661eb4a6cf477b8,0.04,0.04,1,117,279,26,1,twoone,,,,,,,,,,,,,,,,,,,,,,,,,,,,,,,,,,,,,,,,,,,,,,,,,,,,,,,,,,,,,,,,,,,,,,,,,,,,,,,,,,,,,,,,,,,,,,,,,,,,,,,,,,,,,,,,,,,,,,,,,,,,,,,,,,,,,,,
,,5ec24766fd704d00089a80af,2024-01-06_07h37.33.502,kallum_motion_pilot,2023.2.3,Win32,60.0240096,5ec24766fd704d00089a80af,6598e6a5d84f07970b831e70,6598e7101661eb4a6cf477b8,0.04,0.04,1,118,280,28,1,threeone,,,,,,,,,,,,,,,,,,,,,,,,,,,,,,,,,,,,,,,,,,,,,,,,,,,,,,,,,,,,,,,,,,,,,,,,,,,,,,,,,,,,,,,,,,,,,,,,,,,,,,,,,,,,,,,,,,,,,,,,,,,,,,,,,,,,,,,
,,5ec24766fd704d00089a80af,2024-01-06_07h37.33.502,kallum_motion_pilot,2023.2.3,Win32,60.0240096,5ec24766fd704d00089a80af,6598e6a5d84f07970b831e70,6598e7101661eb4a6cf477b8,0.04,0.04,1,119,281,157,1,seveneight,,,,,,,,,,,,,,,,,,,,,,,,,,,,,,,,,,,,,,,,,,,,,,,,,,,,,,,,,,,,,,,,,,,,,,,,,,,,,,,,,,,,,,,,,,,,,,,,,,,,,,,,,,,,,,,,,,,,,,,,,,,,,,,,,,,,,,,
