startup.started,startup.stopped,Prolific ID*,date,expName,psychopyVersion,OS,frameRate,PROLIFIC_PID,STUDY_ID,SESSION_ID,stimpositions.started,stimpositions.stopped,hardcoded_stimulus_positions.thisRepN,hardcoded_stimulus_positions.thisTrialN,hardcoded_stimulus_positions.thisN,hardcoded_stimulus_positions.thisIndex,hardcoded_stimulus_positions.ran,StimulusPos,stimorientation.started,stimorientation.stopped,prac_stimorientation_import_loop.thisRepN,prac_stimorientation_import_loop.thisTrialN,prac_stimorientation_import_loop.thisN,prac_stimorientation_import_loop.thisIndex,prac_stimorientation_import_loop.ran,Stimorientation,welcome_instr.started,welcome_instr.stopped,key_resp.keys,key_resp.rt,key_resp.duration,response_steppedout_1.started,response_steppedout_1.stopped,key_resp_20.keys,key_resp_20.rt,key_resp_20.duration,response_steppedout_2.started,response_steppedout_2.stopped,key_resp_19.keys,key_resp_19.rt,key_resp_19.duration,stim_response_instr.started,stim_response_instr.stopped,key_resp_15.keys,key_resp_15.rt,key_resp_15.duration,direction_instr_2.started,direction_instr_2.stopped,key_resp_9.keys,key_resp_9.rt,key_resp_9.duration,instr_prac.started,instr_prac.stopped,key_resp_10.keys,key_resp_10.rt,key_resp_10.duration,Stim1_display_prac.started,Stim1_display_prac.stopped,Ecc,Circle1_ori,Circle2_ori,response_prac.started,similarity,response_time,response_prac.stopped,mouse_5.x,mouse_5.y,mouse_5.leftButton,mouse_5.midButton,mouse_5.rightButton,mouse_5.clicked_name,responseprac_feedback.started,responseprac_feedback.stopped,summary2_prac.started,summary2_prac.stopped,mouse_6.x,mouse_6.y,mouse_6.leftButton,mouse_6.midButton,mouse_6.rightButton,mouse_6.clicked_name,duringprac.thisRepN,duringprac.thisTrialN,duringprac.thisN,duringprac.thisIndex,duringprac.ran,begin.started,begin.stopped,key_resp_22.keys,key_resp_22.rt,key_resp_22.duration,Stim1_display.started,Stim1_display.stopped,circle1_ori,circle2_ori,blank.started,blank.stopped,response.started,response.stopped,mouse.x,mouse.y,mouse.leftButton,mouse.midButton,mouse.rightButton,mouse.clicked_name,response_2.started,response_2.stopped,mouse_2.x,mouse_2.y,mouse_2.leftButton,mouse_2.midButton,mouse_2.rightButton,mouse_2.clicked_name,special_trial.started,special_trial.stopped,catch_1.started,catch_1.stopped,mouse_3.x,mouse_3.y,mouse_3.leftButton,mouse_3.midButton,mouse_3.rightButton,catchresponse,catchnumber,response_time_catch,Catch,response_sum.started,response_sum.stopped,mouse_11.x,mouse_11.y,mouse_11.leftButton,mouse_11.midButton,mouse_11.rightButton,main_trial.thisRepN,main_trial.thisTrialN,main_trial.thisN,main_trial.thisIndex,main_trial.ran,Orientationtrialno,xcircle1_ori,xcircle2_ori,flip_presentation_sequence_for_double_pass.started,flip_presentation_sequence_for_double_pass.stopped,double_pass.thisRepN,double_pass.thisTrialN,double_pass.thisN,double_pass.thisIndex,double_pass.ran,goodbye.started,goodbye.stopped,key_resp_3.keys,key_resp_3.rt,key_resp_3.duration
0.0006,0.0009,65715f3336251057f2d1c268,2024-01-05_21h37.58.546,kallum_motion_pilot,2023.2.3,Win32,60.24096386,65715f3336251057f2d1c268,6598e6a5d84f07970b831e70,6598e72b77b71480cf78df5a,,,,,,,,,,,,,,,,,,,,,,,,,,,,,,,,,,,,,,,,,,,,,,,,,,,,,,,,,,,,,,,,,,,,,,,,,,,,,,,,,,,,,,,,,,,,,,,,,,,,,,,,,,,,,,,,,,,,,,,,,,,,,,,,,,,,,,,,,,,,,,,
,,65715f3336251057f2d1c268,2024-01-05_21h37.58.546,kallum_motion_pilot,2023.2.3,Win32,60.24096386,65715f3336251057f2d1c268,6598e6a5d84f07970b831e70,6598e72b77b71480cf78df5a,0.0617,0.0625,0,0,0,77,1,threefour,,,,,,,,,,,,,,,,,,,,,,,,,,,,,,,,,,,,,,,,,,,,,,,,,,,,,,,,,,,,,,,,,,,,,,,,,,,,,,,,,,,,,,,,,,,,,,,,,,,,,,,,,,,,,,,,,,,,,,,,,,,,,,,,,,,,,,,
,,65715f3336251057f2d1c268,2024-01-05_21h37.58.546,kallum_motion_pilot,2023.2.3,Win32,60.24096386,65715f3336251057f2d1c268,6598e6a5d84f07970b831e70,6598e72b77b71480cf78df5a,0.0632,0.0633,0,1,1,103,1,eightseven,,,,,,,,,,,,,,,,,,,,,,,,,,,,,,,,,,,,,,,,,,,,,,,,,,,,,,,,,,,,,,,,,,,,,,,,,,,,,,,,,,,,,,,,,,,,,,,,,,,,,,,,,,,,,,,,,,,,,,,,,,,,,,,,,,,,,,,
,,65715f3336251057f2d1c268,2024-01-05_21h37.58.546,kallum_motion_pilot,2023.2.3,Win32,60.24096386,65715f3336251057f2d1c268,6598e6a5d84f07970b831e70,6598e72b77b71480cf78df5a,0.0636,0.0636,0,2,2,144,1,fivesix,,,,,,,,,,,,,,,,,,,,,,,,,,,,,,,,,,,,,,,,,,,,,,,,,,,,,,,,,,,,,,,,,,,,,,,,,,,,,,,,,,,,,,,,,,,,,,,,,,,,,,,,,,,,,,,,,,,,,,,,,,,,,,,,,,,,,,,
,,65715f3336251057f2d1c268,2024-01-05_21h37.58.546,kallum_motion_pilot,2023.2.3,Win32,60.24096386,65715f3336251057f2d1c268,6598e6a5d84f07970b831e70,6598e72b77b71480cf78df5a,0.064,0.0641,0,3,3,131,1,sixeight,,,,,,,,,,,,,,,,,,,,,,,,,,,,,,,,,,,,,,,,,,,,,,,,,,,,,,,,,,,,,,,,,,,,,,,,,,,,,,,,,,,,,,,,,,,,,,,,,,,,,,,,,,,,,,,,,,,,,,,,,,,,,,,,,,,,,,,
,,65715f3336251057f2d1c268,2024-01-05_21h37.58.546,kallum_motion_pilot,2023.2.3,Win32,60.24096386,65715f3336251057f2d1c268,6598e6a5d84f07970b831e70,6598e72b77b71480cf78df5a,0.0644,0.0644,0,4,4,16,1,onetwo,,,,,,,,,,,,,,,,,,,,,,,,,,,,,,,,,,,,,,,,,,,,,,,,,,,,,,,,,,,,,,,,,,,,,,,,,,,,,,,,,,,,,,,,,,,,,,,,,,,,,,,,,,,,,,,,,,,,,,,,,,,,,,,,,,,,,,,
,,65715f3336251057f2d1c268,2024-01-05_21h37.58.546,kallum_motion_pilot,2023.2.3,Win32,60.24096386,65715f3336251057f2d1c268,6598e6a5d84f07970b831e70,6598e72b77b71480cf78df5a,0.0647,0.0648,0,5,5,33,1,onethree,,,,,,,,,,,,,,,,,,,,,,,,,,,,,,,,,,,,,,,,,,,,,,,,,,,,,,,,,,,,,,,,,,,,,,,,,,,,,,,,,,,,,,,,,,,,,,,,,,,,,,,,,,,,,,,,,,,,,,,,,,,,,,,,,,,,,,,
,,65715f3336251057f2d1c268,2024-01-05_21h37.58.546,kallum_motion_pilot,2023.2.3,Win32,60.24096386,65715f3336251057f2d1c268,6598e6a5d84f07970b831e70,6598e72b77b71480cf78df5a,0.0651,0.0652,0,6,6,124,1,sevenfive,,,,,,,,,,,,,,,,,,,,,,,,,,,,,,,,,,,,,,,,,,,,,,,,,,,,,,,,,,,,,,,,,,,,,,,,,,,,,,,,,,,,,,,,,,,,,,,,,,,,,,,,,,,,,,,,,,,,,,,,,,,,,,,,,,,,,,,
,,65715f3336251057f2d1c268,2024-01-05_21h37.58.546,kallum_motion_pilot,2023.2.3,Win32,60.24096386,65715f3336251057f2d1c268,6598e6a5d84f07970b831e70,6598e72b77b71480cf78df5a,0.0654,0.0655,0,7,7,147,1,sixeight,,,,,,,,,,,,,,,,,,,,,,,,,,,,,,,,,,,,,,,,,,,,,,,,,,,,,,,,,,,,,,,,,,,,,,,,,,,,,,,,,,,,,,,,,,,,,,,,,,,,,,,,,,,,,,,,,,,,,,,,,,,,,,,,,,,,,,,
,,65715f3336251057f2d1c268,2024-01-05_21h37.58.546,kallum_motion_pilot,2023.2.3,Win32,60.24096386,65715f3336251057f2d1c268,6598e6a5d84f07970b831e70,6598e72b77b71480cf78df5a,0.0658,0.0658,0,8,8,8,1,onetwo,,,,,,,,,,,,,,,,,,,,,,,,,,,,,,,,,,,,,,,,,,,,,,,,,,,,,,,,,,,,,,,,,,,,,,,,,,,,,,,,,,,,,,,,,,,,,,,,,,,,,,,,,,,,,,,,,,,,,,,,,,,,,,,,,,,,,,,
,,65715f3336251057f2d1c268,2024-01-05_21h37.58.546,kallum_motion_pilot,2023.2.3,Win32,60.24096386,65715f3336251057f2d1c268,6598e6a5d84f07970b831e70,6598e72b77b71480cf78df5a,0.0661,0.0662,0,9,9,47,1,fourthree,,,,,,,,,,,,,,,,,,,,,,,,,,,,,,,,,,,,,,,,,,,,,,,,,,,,,,,,,,,,,,,,,,,,,,,,,,,,,,,,,,,,,,,,,,,,,,,,,,,,,,,,,,,,,,,,,,,,,,,,,,,,,,,,,,,,,,,
,,65715f3336251057f2d1c268,2024-01-05_21h37.58.546,kallum_motion_pilot,2023.2.3,Win32,60.24096386,65715f3336251057f2d1c268,6598e6a5d84f07970b831e70,6598e72b77b71480cf78df5a,0.0664,0.0665,0,10,10,104,1,fivesix,,,,,,,,,,,,,,,,,,,,,,,,,,,,,,,,,,,,,,,,,,,,,,,,,,,,,,,,,,,,,,,,,,,,,,,,,,,,,,,,,,,,,,,,,,,,,,,,,,,,,,,,,,,,,,,,,,,,,,,,,,,,,,,,,,,,,,,
,,65715f3336251057f2d1c268,2024-01-05_21h37.58.546,kallum_motion_pilot,2023.2.3,Win32,60.24096386,65715f3336251057f2d1c268,6598e6a5d84f07970b831e70,6598e72b77b71480cf78df5a,0.0667,0.0667,0,11,11,123,1,sixeight,,,,,,,,,,,,,,,,,,,,,,,,,,,,,,,,,,,,,,,,,,,,,,,,,,,,,,,,,,,,,,,,,,,,,,,,,,,,,,,,,,,,,,,,,,,,,,,,,,,,,,,,,,,,,,,,,,,,,,,,,,,,,,,,,,,,,,,
,,65715f3336251057f2d1c268,2024-01-05_21h37.58.546,kallum_motion_pilot,2023.2.3,Win32,60.24096386,65715f3336251057f2d1c268,6598e6a5d84f07970b831e70,6598e72b77b71480cf78df5a,0.0669,0.067,0,12,12,132,1,sevenfive,,,,,,,,,,,,,,,,,,,,,,,,,,,,,,,,,,,,,,,,,,,,,,,,,,,,,,,,,,,,,,,,,,,,,,,,,,,,,,,,,,,,,,,,,,,,,,,,,,,,,,,,,,,,,,,,,,,,,,,,,,,,,,,,,,,,,,,
,,65715f3336251057f2d1c268,2024-01-05_21h37.58.546,kallum_motion_pilot,2023.2.3,Win32,60.24096386,65715f3336251057f2d1c268,6598e6a5d84f07970b831e70,6598e72b77b71480cf78df5a,0.0672,0.0673,0,13,13,39,1,fourthree,,,,,,,,,,,,,,,,,,,,,,,,,,,,,,,,,,,,,,,,,,,,,,,,,,,,,,,,,,,,,,,,,,,,,,,,,,,,,,,,,,,,,,,,,,,,,,,,,,,,,,,,,,,,,,,,,,,,,,,,,,,,,,,,,,,,,,,
,,65715f3336251057f2d1c268,2024-01-05_21h37.58.546,kallum_motion_pilot,2023.2.3,Win32,60.24096386,65715f3336251057f2d1c268,6598e6a5d84f07970b831e70,6598e72b77b71480cf78df5a,0.0675,0.0677,0,14,14,96,1,fivesix,,,,,,,,,,,,,,,,,,,,,,,,,,,,,,,,,,,,,,,,,,,,,,,,,,,,,,,,,,,,,,,,,,,,,,,,,,,,,,,,,,,,,,,,,,,,,,,,,,,,,,,,,,,,,,,,,,,,,,,,,,,,,,,,,,,,,,,
,,65715f3336251057f2d1c268,2024-01-05_21h37.58.546,kallum_motion_pilot,2023.2.3,Win32,60.24096386,65715f3336251057f2d1c268,6598e6a5d84f07970b831e70,6598e72b77b71480cf78df5a,0.0678,0.0678,0,15,15,76,1,threeone,,,,,,,,,,,,,,,,,,,,,,,,,,,,,,,,,,,,,,,,,,,,,,,,,,,,,,,,,,,,,,,,,,,,,,,,,,,,,,,,,,,,,,,,,,,,,,,,,,,,,,,,,,,,,,,,,,,,,,,,,,,,,,,,,,,,,,,
,,65715f3336251057f2d1c268,2024-01-05_21h37.58.546,kallum_motion_pilot,2023.2.3,Win32,60.24096386,65715f3336251057f2d1c268,6598e6a5d84f07970b831e70,6598e72b77b71480cf78df5a,0.0681,0.0681,0,16,16,81,1,fiveseven,,,,,,,,,,,,,,,,,,,,,,,,,,,,,,,,,,,,,,,,,,,,,,,,,,,,,,,,,,,,,,,,,,,,,,,,,,,,,,,,,,,,,,,,,,,,,,,,,,,,,,,,,,,,,,,,,,,,,,,,,,,,,,,,,,,,,,,
,,65715f3336251057f2d1c268,2024-01-05_21h37.58.546,kallum_motion_pilot,2023.2.3,Win32,60.24096386,65715f3336251057f2d1c268,6598e6a5d84f07970b831e70,6598e72b77b71480cf78df5a,0.0683,0.0684,0,17,17,29,1,threefour,,,,,,,,,,,,,,,,,,,,,,,,,,,,,,,,,,,,,,,,,,,,,,,,,,,,,,,,,,,,,,,,,,,,,,,,,,,,,,,,,,,,,,,,,,,,,,,,,,,,,,,,,,,,,,,,,,,,,,,,,,,,,,,,,,,,,,,
,,65715f3336251057f2d1c268,2024-01-05_21h37.58.546,kallum_motion_pilot,2023.2.3,Win32,60.24096386,65715f3336251057f2d1c268,6598e6a5d84f07970b831e70,6598e72b77b71480cf78df5a,0.0685,0.0686,0,18,18,142,1,eightsix,,,,,,,,,,,,,,,,,,,,,,,,,,,,,,,,,,,,,,,,,,,,,,,,,,,,,,,,,,,,,,,,,,,,,,,,,,,,,,,,,,,,,,,,,,,,,,,,,,,,,,,,,,,,,,,,,,,,,,,,,,,,,,,,,,,,,,,
,,65715f3336251057f2d1c268,2024-01-05_21h37.58.546,kallum_motion_pilot,2023.2.3,Win32,60.24096386,65715f3336251057f2d1c268,6598e6a5d84f07970b831e70,6598e72b77b71480cf78df5a,0.0688,0.0689,0,19,19,145,1,fiveseven,,,,,,,,,,,,,,,,,,,,,,,,,,,,,,,,,,,,,,,,,,,,,,,,,,,,,,,,,,,,,,,,,,,,,,,,,,,,,,,,,,,,,,,,,,,,,,,,,,,,,,,,,,,,,,,,,,,,,,,,,,,,,,,,,,,,,,,
,,65715f3336251057f2d1c268,2024-01-05_21h37.58.546,kallum_motion_pilot,2023.2.3,Win32,60.24096386,65715f3336251057f2d1c268,6598e6a5d84f07970b831e70,6598e72b77b71480cf78df5a,0.069,0.0692,0,20,20,157,1,seveneight,,,,,,,,,,,,,,,,,,,,,,,,,,,,,,,,,,,,,,,,,,,,,,,,,,,,,,,,,,,,,,,,,,,,,,,,,,,,,,,,,,,,,,,,,,,,,,,,,,,,,,,,,,,,,,,,,,,,,,,,,,,,,,,,,,,,,,,
,,65715f3336251057f2d1c268,2024-01-05_21h37.58.546,kallum_motion_pilot,2023.2.3,Win32,60.24096386,65715f3336251057f2d1c268,6598e6a5d84f07970b831e70,6598e72b77b71480cf78df5a,0.0695,0.0696,0,21,21,97,1,fiveseven,,,,,,,,,,,,,,,,,,,,,,,,,,,,,,,,,,,,,,,,,,,,,,,,,,,,,,,,,,,,,,,,,,,,,,,,,,,,,,,,,,,,,,,,,,,,,,,,,,,,,,,,,,,,,,,,,,,,,,,,,,,,,,,,,,,,,,,
,,65715f3336251057f2d1c268,2024-01-05_21h37.58.546,kallum_motion_pilot,2023.2.3,Win32,60.24096386,65715f3336251057f2d1c268,6598e6a5d84f07970b831e70,6598e72b77b71480cf78df5a,0.0698,0.07,0,22,22,43,1,twofour,,,,,,,,,,,,,,,,,,,,,,,,,,,,,,,,,,,,,,,,,,,,,,,,,,,,,,,,,,,,,,,,,,,,,,,,,,,,,,,,,,,,,,,,,,,,,,,,,,,,,,,,,,,,,,,,,,,,,,,,,,,,,,,,,,,,,,,
,,65715f3336251057f2d1c268,2024-01-05_21h37.58.546,kallum_motion_pilot,2023.2.3,Win32,60.24096386,65715f3336251057f2d1c268,6598e6a5d84f07970b831e70,6598e72b77b71480cf78df5a,0.0702,0.0703,0,23,23,112,1,fivesix,,,,,,,,,,,,,,,,,,,,,,,,,,,,,,,,,,,,,,,,,,,,,,,,,,,,,,,,,,,,,,,,,,,,,,,,,,,,,,,,,,,,,,,,,,,,,,,,,,,,,,,,,,,,,,,,,,,,,,,,,,,,,,,,,,,,,,,
,,65715f3336251057f2d1c268,2024-01-05_21h37.58.546,kallum_motion_pilot,2023.2.3,Win32,60.24096386,65715f3336251057f2d1c268,6598e6a5d84f07970b831e70,6598e72b77b71480cf78df5a,0.0733,0.0733,0,24,24,155,1,sixeight,,,,,,,,,,,,,,,,,,,,,,,,,,,,,,,,,,,,,,,,,,,,,,,,,,,,,,,,,,,,,,,,,,,,,,,,,,,,,,,,,,,,,,,,,,,,,,,,,,,,,,,,,,,,,,,,,,,,,,,,,,,,,,,,,,,,,,,
,,65715f3336251057f2d1c268,2024-01-05_21h37.58.546,kallum_motion_pilot,2023.2.3,Win32,60.24096386,65715f3336251057f2d1c268,6598e6a5d84f07970b831e70,6598e72b77b71480cf78df5a,0.0738,0.0738,0,25,25,40,1,onetwo,,,,,,,,,,,,,,,,,,,,,,,,,,,,,,,,,,,,,,,,,,,,,,,,,,,,,,,,,,,,,,,,,,,,,,,,,,,,,,,,,,,,,,,,,,,,,,,,,,,,,,,,,,,,,,,,,,,,,,,,,,,,,,,,,,,,,,,
,,65715f3336251057f2d1c268,2024-01-05_21h37.58.546,kallum_motion_pilot,2023.2.3,Win32,60.24096386,65715f3336251057f2d1c268,6598e6a5d84f07970b831e70,6598e72b77b71480cf78df5a,0.074,0.0741,0,26,26,23,1,fourthree,,,,,,,,,,,,,,,,,,,,,,,,,,,,,,,,,,,,,,,,,,,,,,,,,,,,,,,,,,,,,,,,,,,,,,,,,,,,,,,,,,,,,,,,,,,,,,,,,,,,,,,,,,,,,,,,,,,,,,,,,,,,,,,,,,,,,,,
,,65715f3336251057f2d1c268,2024-01-05_21h37.58.546,kallum_motion_pilot,2023.2.3,Win32,60.24096386,65715f3336251057f2d1c268,6598e6a5d84f07970b831e70,6598e72b77b71480cf78df5a,0.0743,0.0744,0,27,27,50,1,twoone,,,,,,,,,,,,,,,,,,,,,,,,,,,,,,,,,,,,,,,,,,,,,,,,,,,,,,,,,,,,,,,,,,,,,,,,,,,,,,,,,,,,,,,,,,,,,,,,,,,,,,,,,,,,,,,,,,,,,,,,,,,,,,,,,,,,,,,
,,65715f3336251057f2d1c268,2024-01-05_21h37.58.546,kallum_motion_pilot,2023.2.3,Win32,60.24096386,65715f3336251057f2d1c268,6598e6a5d84f07970b831e70,6598e72b77b71480cf78df5a,0.0747,0.0747,0,28,28,160,1,fivesix,,,,,,,,,,,,,,,,,,,,,,,,,,,,,,,,,,,,,,,,,,,,,,,,,,,,,,,,,,,,,,,,,,,,,,,,,,,,,,,,,,,,,,,,,,,,,,,,,,,,,,,,,,,,,,,,,,,,,,,,,,,,,,,,,,,,,,,
,,65715f3336251057f2d1c268,2024-01-05_21h37.58.546,kallum_motion_pilot,2023.2.3,Win32,60.24096386,65715f3336251057f2d1c268,6598e6a5d84f07970b831e70,6598e72b77b71480cf78df5a,0.0749,0.075,0,29,29,92,1,sevenfive,,,,,,,,,,,,,,,,,,,,,,,,,,,,,,,,,,,,,,,,,,,,,,,,,,,,,,,,,,,,,,,,,,,,,,,,,,,,,,,,,,,,,,,,,,,,,,,,,,,,,,,,,,,,,,,,,,,,,,,,,,,,,,,,,,,,,,,
,,65715f3336251057f2d1c268,2024-01-05_21h37.58.546,kallum_motion_pilot,2023.2.3,Win32,60.24096386,65715f3336251057f2d1c268,6598e6a5d84f07970b831e70,6598e72b77b71480cf78df5a,0.0752,0.0753,0,30,30,87,1,eightseven,,,,,,,,,,,,,,,,,,,,,,,,,,,,,,,,,,,,,,,,,,,,,,,,,,,,,,,,,,,,,,,,,,,,,,,,,,,,,,,,,,,,,,,,,,,,,,,,,,,,,,,,,,,,,,,,,,,,,,,,,,,,,,,,,,,,,,,
,,65715f3336251057f2d1c268,2024-01-05_21h37.58.546,kallum_motion_pilot,2023.2.3,Win32,60.24096386,65715f3336251057f2d1c268,6598e6a5d84f07970b831e70,6598e72b77b71480cf78df5a,0.0755,0.0755,0,31,31,105,1,fiveseven,,,,,,,,,,,,,,,,,,,,,,,,,,,,,,,,,,,,,,,,,,,,,,,,,,,,,,,,,,,,,,,,,,,,,,,,,,,,,,,,,,,,,,,,,,,,,,,,,,,,,,,,,,,,,,,,,,,,,,,,,,,,,,,,,,,,,,,
,,65715f3336251057f2d1c268,2024-01-05_21h37.58.546,kallum_motion_pilot,2023.2.3,Win32,60.24096386,65715f3336251057f2d1c268,6598e6a5d84f07970b831e70,6598e72b77b71480cf78df5a,0.0759,0.0759,0,32,32,134,1,eightsix,,,,,,,,,,,,,,,,,,,,,,,,,,,,,,,,,,,,,,,,,,,,,,,,,,,,,,,,,,,,,,,,,,,,,,,,,,,,,,,,,,,,,,,,,,,,,,,,,,,,,,,,,,,,,,,,,,,,,,,,,,,,,,,,,,,,,,,
,,65715f3336251057f2d1c268,2024-01-05_21h37.58.546,kallum_motion_pilot,2023.2.3,Win32,60.24096386,65715f3336251057f2d1c268,6598e6a5d84f07970b831e70,6598e72b77b71480cf78df5a,0.0762,0.0762,0,33,33,54,1,fourtwo,,,,,,,,,,,,,,,,,,,,,,,,,,,,,,,,,,,,,,,,,,,,,,,,,,,,,,,,,,,,,,,,,,,,,,,,,,,,,,,,,,,,,,,,,,,,,,,,,,,,,,,,,,,,,,,,,,,,,,,,,,,,,,,,,,,,,,,
,,65715f3336251057f2d1c268,2024-01-05_21h37.58.546,kallum_motion_pilot,2023.2.3,Win32,60.24096386,65715f3336251057f2d1c268,6598e6a5d84f07970b831e70,6598e72b77b71480cf78df5a,0.0765,0.0765,0,34,34,64,1,onetwo,,,,,,,,,,,,,,,,,,,,,,,,,,,,,,,,,,,,,,,,,,,,,,,,,,,,,,,,,,,,,,,,,,,,,,,,,,,,,,,,,,,,,,,,,,,,,,,,,,,,,,,,,,,,,,,,,,,,,,,,,,,,,,,,,,,,,,,
,,65715f3336251057f2d1c268,2024-01-05_21h37.58.546,kallum_motion_pilot,2023.2.3,Win32,60.24096386,65715f3336251057f2d1c268,6598e6a5d84f07970b831e70,6598e72b77b71480cf78df5a,0.0768,0.0769,0,35,35,9,1,onethree,,,,,,,,,,,,,,,,,,,,,,,,,,,,,,,,,,,,,,,,,,,,,,,,,,,,,,,,,,,,,,,,,,,,,,,,,,,,,,,,,,,,,,,,,,,,,,,,,,,,,,,,,,,,,,,,,,,,,,,,,,,,,,,,,,,,,,,
,,65715f3336251057f2d1c268,2024-01-05_21h37.58.546,kallum_motion_pilot,2023.2.3,Win32,60.24096386,65715f3336251057f2d1c268,6598e6a5d84f07970b831e70,6598e72b77b71480cf78df5a,0.0772,0.0772,0,36,36,4,1,threeone,,,,,,,,,,,,,,,,,,,,,,,,,,,,,,,,,,,,,,,,,,,,,,,,,,,,,,,,,,,,,,,,,,,,,,,,,,,,,,,,,,,,,,,,,,,,,,,,,,,,,,,,,,,,,,,,,,,,,,,,,,,,,,,,,,,,,,,
,,65715f3336251057f2d1c268,2024-01-05_21h37.58.546,kallum_motion_pilot,2023.2.3,Win32,60.24096386,65715f3336251057f2d1c268,6598e6a5d84f07970b831e70,6598e72b77b71480cf78df5a,0.0775,0.0776,0,37,37,86,1,eightsix,,,,,,,,,,,,,,,,,,,,,,,,,,,,,,,,,,,,,,,,,,,,,,,,,,,,,,,,,,,,,,,,,,,,,,,,,,,,,,,,,,,,,,,,,,,,,,,,,,,,,,,,,,,,,,,,,,,,,,,,,,,,,,,,,,,,,,,
,,65715f3336251057f2d1c268,2024-01-05_21h37.58.546,kallum_motion_pilot,2023.2.3,Win32,60.24096386,65715f3336251057f2d1c268,6598e6a5d84f07970b831e70,6598e72b77b71480cf78df5a,0.0779,0.0779,0,38,38,51,1,twofour,,,,,,,,,,,,,,,,,,,,,,,,,,,,,,,,,,,,,,,,,,,,,,,,,,,,,,,,,,,,,,,,,,,,,,,,,,,,,,,,,,,,,,,,,,,,,,,,,,,,,,,,,,,,,,,,,,,,,,,,,,,,,,,,,,,,,,,
,,65715f3336251057f2d1c268,2024-01-05_21h37.58.546,kallum_motion_pilot,2023.2.3,Win32,60.24096386,65715f3336251057f2d1c268,6598e6a5d84f07970b831e70,6598e72b77b71480cf78df5a,0.0781,0.0783,0,39,39,73,1,onethree,,,,,,,,,,,,,,,,,,,,,,,,,,,,,,,,,,,,,,,,,,,,,,,,,,,,,,,,,,,,,,,,,,,,,,,,,,,,,,,,,,,,,,,,,,,,,,,,,,,,,,,,,,,,,,,,,,,,,,,,,,,,,,,,,,,,,,,
,,65715f3336251057f2d1c268,2024-01-05_21h37.58.546,kallum_motion_pilot,2023.2.3,Win32,60.24096386,65715f3336251057f2d1c268,6598e6a5d84f07970b831e70,6598e72b77b71480cf78df5a,0.0785,0.0785,0,40,40,13,1,threefour,,,,,,,,,,,,,,,,,,,,,,,,,,,,,,,,,,,,,,,,,,,,,,,,,,,,,,,,,,,,,,,,,,,,,,,,,,,,,,,,,,,,,,,,,,,,,,,,,,,,,,,,,,,,,,,,,,,,,,,,,,,,,,,,,,,,,,,
,,65715f3336251057f2d1c268,2024-01-05_21h37.58.546,kallum_motion_pilot,2023.2.3,Win32,60.24096386,65715f3336251057f2d1c268,6598e6a5d84f07970b831e70,6598e72b77b71480cf78df5a,0.0788,0.0789,0,41,41,75,1,twofour,,,,,,,,,,,,,,,,,,,,,,,,,,,,,,,,,,,,,,,,,,,,,,,,,,,,,,,,,,,,,,,,,,,,,,,,,,,,,,,,,,,,,,,,,,,,,,,,,,,,,,,,,,,,,,,,,,,,,,,,,,,,,,,,,,,,,,,
,,65715f3336251057f2d1c268,2024-01-05_21h37.58.546,kallum_motion_pilot,2023.2.3,Win32,60.24096386,65715f3336251057f2d1c268,6598e6a5d84f07970b831e70,6598e72b77b71480cf78df5a,0.0791,0.0792,0,42,42,27,1,twofour,,,,,,,,,,,,,,,,,,,,,,,,,,,,,,,,,,,,,,,,,,,,,,,,,,,,,,,,,,,,,,,,,,,,,,,,,,,,,,,,,,,,,,,,,,,,,,,,,,,,,,,,,,,,,,,,,,,,,,,,,,,,,,,,,,,,,,,
,,65715f3336251057f2d1c268,2024-01-05_21h37.58.546,kallum_motion_pilot,2023.2.3,Win32,60.24096386,65715f3336251057f2d1c268,6598e6a5d84f07970b831e70,6598e72b77b71480cf78df5a,0.0795,0.0795,0,43,43,108,1,sevenfive,,,,,,,,,,,,,,,,,,,,,,,,,,,,,,,,,,,,,,,,,,,,,,,,,,,,,,,,,,,,,,,,,,,,,,,,,,,,,,,,,,,,,,,,,,,,,,,,,,,,,,,,,,,,,,,,,,,,,,,,,,,,,,,,,,,,,,,
,,65715f3336251057f2d1c268,2024-01-05_21h37.58.546,kallum_motion_pilot,2023.2.3,Win32,60.24096386,65715f3336251057f2d1c268,6598e6a5d84f07970b831e70,6598e72b77b71480cf78df5a,0.0797,0.0797,0,44,44,36,1,threeone,,,,,,,,,,,,,,,,,,,,,,,,,,,,,,,,,,,,,,,,,,,,,,,,,,,,,,,,,,,,,,,,,,,,,,,,,,,,,,,,,,,,,,,,,,,,,,,,,,,,,,,,,,,,,,,,,,,,,,,,,,,,,,,,,,,,,,,
,,65715f3336251057f2d1c268,2024-01-05_21h37.58.546,kallum_motion_pilot,2023.2.3,Win32,60.24096386,65715f3336251057f2d1c268,6598e6a5d84f07970b831e70,6598e72b77b71480cf78df5a,0.0799,0.08,0,45,45,153,1,fiveseven,,,,,,,,,,,,,,,,,,,,,,,,,,,,,,,,,,,,,,,,,,,,,,,,,,,,,,,,,,,,,,,,,,,,,,,,,,,,,,,,,,,,,,,,,,,,,,,,,,,,,,,,,,,,,,,,,,,,,,,,,,,,,,,,,,,,,,,
,,65715f3336251057f2d1c268,2024-01-05_21h37.58.546,kallum_motion_pilot,2023.2.3,Win32,60.24096386,65715f3336251057f2d1c268,6598e6a5d84f07970b831e70,6598e72b77b71480cf78df5a,0.0802,0.0803,0,46,46,49,1,onethree,,,,,,,,,,,,,,,,,,,,,,,,,,,,,,,,,,,,,,,,,,,,,,,,,,,,,,,,,,,,,,,,,,,,,,,,,,,,,,,,,,,,,,,,,,,,,,,,,,,,,,,,,,,,,,,,,,,,,,,,,,,,,,,,,,,,,,,
,,65715f3336251057f2d1c268,2024-01-05_21h37.58.546,kallum_motion_pilot,2023.2.3,Win32,60.24096386,65715f3336251057f2d1c268,6598e6a5d84f07970b831e70,6598e72b77b71480cf78df5a,0.0805,0.0805,0,47,47,37,1,threefour,,,,,,,,,,,,,,,,,,,,,,,,,,,,,,,,,,,,,,,,,,,,,,,,,,,,,,,,,,,,,,,,,,,,,,,,,,,,,,,,,,,,,,,,,,,,,,,,,,,,,,,,,,,,,,,,,,,,,,,,,,,,,,,,,,,,,,,
,,65715f3336251057f2d1c268,2024-01-05_21h37.58.546,kallum_motion_pilot,2023.2.3,Win32,60.24096386,65715f3336251057f2d1c268,6598e6a5d84f07970b831e70,6598e72b77b71480cf78df5a,0.0808,0.0808,0,48,48,141,1,seveneight,,,,,,,,,,,,,,,,,,,,,,,,,,,,,,,,,,,,,,,,,,,,,,,,,,,,,,,,,,,,,,,,,,,,,,,,,,,,,,,,,,,,,,,,,,,,,,,,,,,,,,,,,,,,,,,,,,,,,,,,,,,,,,,,,,,,,,,
,,65715f3336251057f2d1c268,2024-01-05_21h37.58.546,kallum_motion_pilot,2023.2.3,Win32,60.24096386,65715f3336251057f2d1c268,6598e6a5d84f07970b831e70,6598e72b77b71480cf78df5a,0.081,0.0812,0,49,49,154,1,sixfive,,,,,,,,,,,,,,,,,,,,,,,,,,,,,,,,,,,,,,,,,,,,,,,,,,,,,,,,,,,,,,,,,,,,,,,,,,,,,,,,,,,,,,,,,,,,,,,,,,,,,,,,,,,,,,,,,,,,,,,,,,,,,,,,,,,,,,,
,,65715f3336251057f2d1c268,2024-01-05_21h37.58.546,kallum_motion_pilot,2023.2.3,Win32,60.24096386,65715f3336251057f2d1c268,6598e6a5d84f07970b831e70,6598e72b77b71480cf78df5a,0.0813,0.0814,0,50,50,2,1,twoone,,,,,,,,,,,,,,,,,,,,,,,,,,,,,,,,,,,,,,,,,,,,,,,,,,,,,,,,,,,,,,,,,,,,,,,,,,,,,,,,,,,,,,,,,,,,,,,,,,,,,,,,,,,,,,,,,,,,,,,,,,,,,,,,,,,,,,,
,,65715f3336251057f2d1c268,2024-01-05_21h37.58.546,kallum_motion_pilot,2023.2.3,Win32,60.24096386,65715f3336251057f2d1c268,6598e6a5d84f07970b831e70,6598e72b77b71480cf78df5a,0.0815,0.0816,0,51,51,67,1,twofour,,,,,,,,,,,,,,,,,,,,,,,,,,,,,,,,,,,,,,,,,,,,,,,,,,,,,,,,,,,,,,,,,,,,,,,,,,,,,,,,,,,,,,,,,,,,,,,,,,,,,,,,,,,,,,,,,,,,,,,,,,,,,,,,,,,,,,,
,,65715f3336251057f2d1c268,2024-01-05_21h37.58.546,kallum_motion_pilot,2023.2.3,Win32,60.24096386,65715f3336251057f2d1c268,6598e6a5d84f07970b831e70,6598e72b77b71480cf78df5a,0.0818,0.0818,0,52,52,82,1,sixfive,,,,,,,,,,,,,,,,,,,,,,,,,,,,,,,,,,,,,,,,,,,,,,,,,,,,,,,,,,,,,,,,,,,,,,,,,,,,,,,,,,,,,,,,,,,,,,,,,,,,,,,,,,,,,,,,,,,,,,,,,,,,,,,,,,,,,,,
,,65715f3336251057f2d1c268,2024-01-05_21h37.58.546,kallum_motion_pilot,2023.2.3,Win32,60.24096386,65715f3336251057f2d1c268,6598e6a5d84f07970b831e70,6598e72b77b71480cf78df5a,0.082,0.082,0,53,53,161,1,fiveseven,,,,,,,,,,,,,,,,,,,,,,,,,,,,,,,,,,,,,,,,,,,,,,,,,,,,,,,,,,,,,,,,,,,,,,,,,,,,,,,,,,,,,,,,,,,,,,,,,,,,,,,,,,,,,,,,,,,,,,,,,,,,,,,,,,,,,,,
,,65715f3336251057f2d1c268,2024-01-05_21h37.58.546,kallum_motion_pilot,2023.2.3,Win32,60.24096386,65715f3336251057f2d1c268,6598e6a5d84f07970b831e70,6598e72b77b71480cf78df5a,0.0822,0.0823,0,54,54,129,1,fiveseven,,,,,,,,,,,,,,,,,,,,,,,,,,,,,,,,,,,,,,,,,,,,,,,,,,,,,,,,,,,,,,,,,,,,,,,,,,,,,,,,,,,,,,,,,,,,,,,,,,,,,,,,,,,,,,,,,,,,,,,,,,,,,,,,,,,,,,,
,,65715f3336251057f2d1c268,2024-01-05_21h37.58.546,kallum_motion_pilot,2023.2.3,Win32,60.24096386,65715f3336251057f2d1c268,6598e6a5d84f07970b831e70,6598e72b77b71480cf78df5a,0.0824,0.0824,0,55,55,48,1,onetwo,,,,,,,,,,,,,,,,,,,,,,,,,,,,,,,,,,,,,,,,,,,,,,,,,,,,,,,,,,,,,,,,,,,,,,,,,,,,,,,,,,,,,,,,,,,,,,,,,,,,,,,,,,,,,,,,,,,,,,,,,,,,,,,,,,,,,,,
,,65715f3336251057f2d1c268,2024-01-05_21h37.58.546,kallum_motion_pilot,2023.2.3,Win32,60.24096386,65715f3336251057f2d1c268,6598e6a5d84f07970b831e70,6598e72b77b71480cf78df5a,0.0827,0.0827,0,56,56,150,1,eightsix,,,,,,,,,,,,,,,,,,,,,,,,,,,,,,,,,,,,,,,,,,,,,,,,,,,,,,,,,,,,,,,,,,,,,,,,,,,,,,,,,,,,,,,,,,,,,,,,,,,,,,,,,,,,,,,,,,,,,,,,,,,,,,,,,,,,,,,
,,65715f3336251057f2d1c268,2024-01-05_21h37.58.546,kallum_motion_pilot,2023.2.3,Win32,60.24096386,65715f3336251057f2d1c268,6598e6a5d84f07970b831e70,6598e72b77b71480cf78df5a,0.0829,0.0831,0,57,57,30,1,fourtwo,,,,,,,,,,,,,,,,,,,,,,,,,,,,,,,,,,,,,,,,,,,,,,,,,,,,,,,,,,,,,,,,,,,,,,,,,,,,,,,,,,,,,,,,,,,,,,,,,,,,,,,,,,,,,,,,,,,,,,,,,,,,,,,,,,,,,,,
,,65715f3336251057f2d1c268,2024-01-05_21h37.58.546,kallum_motion_pilot,2023.2.3,Win32,60.24096386,65715f3336251057f2d1c268,6598e6a5d84f07970b831e70,6598e72b77b71480cf78df5a,0.0833,0.0834,0,58,58,21,1,threefour,,,,,,,,,,,,,,,,,,,,,,,,,,,,,,,,,,,,,,,,,,,,,,,,,,,,,,,,,,,,,,,,,,,,,,,,,,,,,,,,,,,,,,,,,,,,,,,,,,,,,,,,,,,,,,,,,,,,,,,,,,,,,,,,,,,,,,,
,,65715f3336251057f2d1c268,2024-01-05_21h37.58.546,kallum_motion_pilot,2023.2.3,Win32,60.24096386,65715f3336251057f2d1c268,6598e6a5d84f07970b831e70,6598e72b77b71480cf78df5a,0.0835,0.0836,0,59,59,6,1,fourtwo,,,,,,,,,,,,,,,,,,,,,,,,,,,,,,,,,,,,,,,,,,,,,,,,,,,,,,,,,,,,,,,,,,,,,,,,,,,,,,,,,,,,,,,,,,,,,,,,,,,,,,,,,,,,,,,,,,,,,,,,,,,,,,,,,,,,,,,
,,65715f3336251057f2d1c268,2024-01-05_21h37.58.546,kallum_motion_pilot,2023.2.3,Win32,60.24096386,65715f3336251057f2d1c268,6598e6a5d84f07970b831e70,6598e72b77b71480cf78df5a,0.0838,0.0839,0,60,60,25,1,onethree,,,,,,,,,,,,,,,,,,,,,,,,,,,,,,,,,,,,,,,,,,,,,,,,,,,,,,,,,,,,,,,,,,,,,,,,,,,,,,,,,,,,,,,,,,,,,,,,,,,,,,,,,,,,,,,,,,,,,,,,,,,,,,,,,,,,,,,
,,65715f3336251057f2d1c268,2024-01-05_21h37.58.546,kallum_motion_pilot,2023.2.3,Win32,60.24096386,65715f3336251057f2d1c268,6598e6a5d84f07970b831e70,6598e72b77b71480cf78df5a,0.084,0.084,0,61,61,83,1,sixeight,,,,,,,,,,,,,,,,,,,,,,,,,,,,,,,,,,,,,,,,,,,,,,,,,,,,,,,,,,,,,,,,,,,,,,,,,,,,,,,,,,,,,,,,,,,,,,,,,,,,,,,,,,,,,,,,,,,,,,,,,,,,,,,,,,,,,,,
,,65715f3336251057f2d1c268,2024-01-05_21h37.58.546,kallum_motion_pilot,2023.2.3,Win32,60.24096386,65715f3336251057f2d1c268,6598e6a5d84f07970b831e70,6598e72b77b71480cf78df5a,0.0842,0.0843,0,62,62,121,1,fiveseven,,,,,,,,,,,,,,,,,,,,,,,,,,,,,,,,,,,,,,,,,,,,,,,,,,,,,,,,,,,,,,,,,,,,,,,,,,,,,,,,,,,,,,,,,,,,,,,,,,,,,,,,,,,,,,,,,,,,,,,,,,,,,,,,,,,,,,,
,,65715f3336251057f2d1c268,2024-01-05_21h37.58.546,kallum_motion_pilot,2023.2.3,Win32,60.24096386,65715f3336251057f2d1c268,6598e6a5d84f07970b831e70,6598e72b77b71480cf78df5a,0.0845,0.0845,0,63,63,32,1,onetwo,,,,,,,,,,,,,,,,,,,,,,,,,,,,,,,,,,,,,,,,,,,,,,,,,,,,,,,,,,,,,,,,,,,,,,,,,,,,,,,,,,,,,,,,,,,,,,,,,,,,,,,,,,,,,,,,,,,,,,,,,,,,,,,,,,,,,,,
,,65715f3336251057f2d1c268,2024-01-05_21h37.58.546,kallum_motion_pilot,2023.2.3,Win32,60.24096386,65715f3336251057f2d1c268,6598e6a5d84f07970b831e70,6598e72b77b71480cf78df5a,0.0847,0.0848,0,64,64,88,1,fivesix,,,,,,,,,,,,,,,,,,,,,,,,,,,,,,,,,,,,,,,,,,,,,,,,,,,,,,,,,,,,,,,,,,,,,,,,,,,,,,,,,,,,,,,,,,,,,,,,,,,,,,,,,,,,,,,,,,,,,,,,,,,,,,,,,,,,,,,
,,65715f3336251057f2d1c268,2024-01-05_21h37.58.546,kallum_motion_pilot,2023.2.3,Win32,60.24096386,65715f3336251057f2d1c268,6598e6a5d84f07970b831e70,6598e72b77b71480cf78df5a,0.085,0.0851,0,65,65,71,1,fourthree,,,,,,,,,,,,,,,,,,,,,,,,,,,,,,,,,,,,,,,,,,,,,,,,,,,,,,,,,,,,,,,,,,,,,,,,,,,,,,,,,,,,,,,,,,,,,,,,,,,,,,,,,,,,,,,,,,,,,,,,,,,,,,,,,,,,,,,
,,65715f3336251057f2d1c268,2024-01-05_21h37.58.546,kallum_motion_pilot,2023.2.3,Win32,60.24096386,65715f3336251057f2d1c268,6598e6a5d84f07970b831e70,6598e72b77b71480cf78df5a,0.0852,0.0854,0,66,66,91,1,sixeight,,,,,,,,,,,,,,,,,,,,,,,,,,,,,,,,,,,,,,,,,,,,,,,,,,,,,,,,,,,,,,,,,,,,,,,,,,,,,,,,,,,,,,,,,,,,,,,,,,,,,,,,,,,,,,,,,,,,,,,,,,,,,,,,,,,,,,,
,,65715f3336251057f2d1c268,2024-01-05_21h37.58.546,kallum_motion_pilot,2023.2.3,Win32,60.24096386,65715f3336251057f2d1c268,6598e6a5d84f07970b831e70,6598e72b77b71480cf78df5a,0.0855,0.0856,0,67,67,10,1,twoone,,,,,,,,,,,,,,,,,,,,,,,,,,,,,,,,,,,,,,,,,,,,,,,,,,,,,,,,,,,,,,,,,,,,,,,,,,,,,,,,,,,,,,,,,,,,,,,,,,,,,,,,,,,,,,,,,,,,,,,,,,,,,,,,,,,,,,,
,,65715f3336251057f2d1c268,2024-01-05_21h37.58.546,kallum_motion_pilot,2023.2.3,Win32,60.24096386,65715f3336251057f2d1c268,6598e6a5d84f07970b831e70,6598e72b77b71480cf78df5a,0.0858,0.0858,0,68,68,85,1,seveneight,,,,,,,,,,,,,,,,,,,,,,,,,,,,,,,,,,,,,,,,,,,,,,,,,,,,,,,,,,,,,,,,,,,,,,,,,,,,,,,,,,,,,,,,,,,,,,,,,,,,,,,,,,,,,,,,,,,,,,,,,,,,,,,,,,,,,,,
,,65715f3336251057f2d1c268,2024-01-05_21h37.58.546,kallum_motion_pilot,2023.2.3,Win32,60.24096386,65715f3336251057f2d1c268,6598e6a5d84f07970b831e70,6598e72b77b71480cf78df5a,0.086,0.086,0,69,69,95,1,eightseven,,,,,,,,,,,,,,,,,,,,,,,,,,,,,,,,,,,,,,,,,,,,,,,,,,,,,,,,,,,,,,,,,,,,,,,,,,,,,,,,,,,,,,,,,,,,,,,,,,,,,,,,,,,,,,,,,,,,,,,,,,,,,,,,,,,,,,,
,,65715f3336251057f2d1c268,2024-01-05_21h37.58.546,kallum_motion_pilot,2023.2.3,Win32,60.24096386,65715f3336251057f2d1c268,6598e6a5d84f07970b831e70,6598e72b77b71480cf78df5a,0.0862,0.0863,0,70,70,113,1,fiveseven,,,,,,,,,,,,,,,,,,,,,,,,,,,,,,,,,,,,,,,,,,,,,,,,,,,,,,,,,,,,,,,,,,,,,,,,,,,,,,,,,,,,,,,,,,,,,,,,,,,,,,,,,,,,,,,,,,,,,,,,,,,,,,,,,,,,,,,
,,65715f3336251057f2d1c268,2024-01-05_21h37.58.546,kallum_motion_pilot,2023.2.3,Win32,60.24096386,65715f3336251057f2d1c268,6598e6a5d84f07970b831e70,6598e72b77b71480cf78df5a,0.0865,0.0865,0,71,71,109,1,seveneight,,,,,,,,,,,,,,,,,,,,,,,,,,,,,,,,,,,,,,,,,,,,,,,,,,,,,,,,,,,,,,,,,,,,,,,,,,,,,,,,,,,,,,,,,,,,,,,,,,,,,,,,,,,,,,,,,,,,,,,,,,,,,,,,,,,,,,,
,,65715f3336251057f2d1c268,2024-01-05_21h37.58.546,kallum_motion_pilot,2023.2.3,Win32,60.24096386,65715f3336251057f2d1c268,6598e6a5d84f07970b831e70,6598e72b77b71480cf78df5a,0.0867,0.0868,0,72,72,3,1,twofour,,,,,,,,,,,,,,,,,,,,,,,,,,,,,,,,,,,,,,,,,,,,,,,,,,,,,,,,,,,,,,,,,,,,,,,,,,,,,,,,,,,,,,,,,,,,,,,,,,,,,,,,,,,,,,,,,,,,,,,,,,,,,,,,,,,,,,,
,,65715f3336251057f2d1c268,2024-01-05_21h37.58.546,kallum_motion_pilot,2023.2.3,Win32,60.24096386,65715f3336251057f2d1c268,6598e6a5d84f07970b831e70,6598e72b77b71480cf78df5a,0.0869,0.087,0,73,73,58,1,twoone,,,,,,,,,,,,,,,,,,,,,,,,,,,,,,,,,,,,,,,,,,,,,,,,,,,,,,,,,,,,,,,,,,,,,,,,,,,,,,,,,,,,,,,,,,,,,,,,,,,,,,,,,,,,,,,,,,,,,,,,,,,,,,,,,,,,,,,
,,65715f3336251057f2d1c268,2024-01-05_21h37.58.546,kallum_motion_pilot,2023.2.3,Win32,60.24096386,65715f3336251057f2d1c268,6598e6a5d84f07970b831e70,6598e72b77b71480cf78df5a,0.0871,0.0872,0,74,74,102,1,eightsix,,,,,,,,,,,,,,,,,,,,,,,,,,,,,,,,,,,,,,,,,,,,,,,,,,,,,,,,,,,,,,,,,,,,,,,,,,,,,,,,,,,,,,,,,,,,,,,,,,,,,,,,,,,,,,,,,,,,,,,,,,,,,,,,,,,,,,,
,,65715f3336251057f2d1c268,2024-01-05_21h37.58.546,kallum_motion_pilot,2023.2.3,Win32,60.24096386,65715f3336251057f2d1c268,6598e6a5d84f07970b831e70,6598e72b77b71480cf78df5a,0.0873,0.0874,0,75,75,139,1,sixeight,,,,,,,,,,,,,,,,,,,,,,,,,,,,,,,,,,,,,,,,,,,,,,,,,,,,,,,,,,,,,,,,,,,,,,,,,,,,,,,,,,,,,,,,,,,,,,,,,,,,,,,,,,,,,,,,,,,,,,,,,,,,,,,,,,,,,,,
,,65715f3336251057f2d1c268,2024-01-05_21h37.58.546,kallum_motion_pilot,2023.2.3,Win32,60.24096386,65715f3336251057f2d1c268,6598e6a5d84f07970b831e70,6598e72b77b71480cf78df5a,0.0875,0.0876,0,76,76,98,1,sixfive,,,,,,,,,,,,,,,,,,,,,,,,,,,,,,,,,,,,,,,,,,,,,,,,,,,,,,,,,,,,,,,,,,,,,,,,,,,,,,,,,,,,,,,,,,,,,,,,,,,,,,,,,,,,,,,,,,,,,,,,,,,,,,,,,,,,,,,
,,65715f3336251057f2d1c268,2024-01-05_21h37.58.546,kallum_motion_pilot,2023.2.3,Win32,60.24096386,65715f3336251057f2d1c268,6598e6a5d84f07970b831e70,6598e72b77b71480cf78df5a,0.0878,0.0879,0,77,77,59,1,twofour,,,,,,,,,,,,,,,,,,,,,,,,,,,,,,,,,,,,,,,,,,,,,,,,,,,,,,,,,,,,,,,,,,,,,,,,,,,,,,,,,,,,,,,,,,,,,,,,,,,,,,,,,,,,,,,,,,,,,,,,,,,,,,,,,,,,,,,
,,65715f3336251057f2d1c268,2024-01-05_21h37.58.546,kallum_motion_pilot,2023.2.3,Win32,60.24096386,65715f3336251057f2d1c268,6598e6a5d84f07970b831e70,6598e72b77b71480cf78df5a,0.0881,0.0882,0,78,78,120,1,fivesix,,,,,,,,,,,,,,,,,,,,,,,,,,,,,,,,,,,,,,,,,,,,,,,,,,,,,,,,,,,,,,,,,,,,,,,,,,,,,,,,,,,,,,,,,,,,,,,,,,,,,,,,,,,,,,,,,,,,,,,,,,,,,,,,,,,,,,,
,,65715f3336251057f2d1c268,2024-01-05_21h37.58.546,kallum_motion_pilot,2023.2.3,Win32,60.24096386,65715f3336251057f2d1c268,6598e6a5d84f07970b831e70,6598e72b77b71480cf78df5a,0.0884,0.0884,0,79,79,89,1,fiveseven,,,,,,,,,,,,,,,,,,,,,,,,,,,,,,,,,,,,,,,,,,,,,,,,,,,,,,,,,,,,,,,,,,,,,,,,,,,,,,,,,,,,,,,,,,,,,,,,,,,,,,,,,,,,,,,,,,,,,,,,,,,,,,,,,,,,,,,
,,65715f3336251057f2d1c268,2024-01-05_21h37.58.546,kallum_motion_pilot,2023.2.3,Win32,60.24096386,65715f3336251057f2d1c268,6598e6a5d84f07970b831e70,6598e72b77b71480cf78df5a,0.0886,0.0887,0,80,80,135,1,eightseven,,,,,,,,,,,,,,,,,,,,,,,,,,,,,,,,,,,,,,,,,,,,,,,,,,,,,,,,,,,,,,,,,,,,,,,,,,,,,,,,,,,,,,,,,,,,,,,,,,,,,,,,,,,,,,,,,,,,,,,,,,,,,,,,,,,,,,,
,,65715f3336251057f2d1c268,2024-01-05_21h37.58.546,kallum_motion_pilot,2023.2.3,Win32,60.24096386,65715f3336251057f2d1c268,6598e6a5d84f07970b831e70,6598e72b77b71480cf78df5a,0.0888,0.089,0,81,81,137,1,fiveseven,,,,,,,,,,,,,,,,,,,,,,,,,,,,,,,,,,,,,,,,,,,,,,,,,,,,,,,,,,,,,,,,,,,,,,,,,,,,,,,,,,,,,,,,,,,,,,,,,,,,,,,,,,,,,,,,,,,,,,,,,,,,,,,,,,,,,,,
,,65715f3336251057f2d1c268,2024-01-05_21h37.58.546,kallum_motion_pilot,2023.2.3,Win32,60.24096386,65715f3336251057f2d1c268,6598e6a5d84f07970b831e70,6598e72b77b71480cf78df5a,0.0891,0.0893,0,82,82,68,1,threeone,,,,,,,,,,,,,,,,,,,,,,,,,,,,,,,,,,,,,,,,,,,,,,,,,,,,,,,,,,,,,,,,,,,,,,,,,,,,,,,,,,,,,,,,,,,,,,,,,,,,,,,,,,,,,,,,,,,,,,,,,,,,,,,,,,,,,,,
,,65715f3336251057f2d1c268,2024-01-05_21h37.58.546,kallum_motion_pilot,2023.2.3,Win32,60.24096386,65715f3336251057f2d1c268,6598e6a5d84f07970b831e70,6598e72b77b71480cf78df5a,0.0894,0.0895,0,83,83,116,1,sevenfive,,,,,,,,,,,,,,,,,,,,,,,,,,,,,,,,,,,,,,,,,,,,,,,,,,,,,,,,,,,,,,,,,,,,,,,,,,,,,,,,,,,,,,,,,,,,,,,,,,,,,,,,,,,,,,,,,,,,,,,,,,,,,,,,,,,,,,,
,,65715f3336251057f2d1c268,2024-01-05_21h37.58.546,kallum_motion_pilot,2023.2.3,Win32,60.24096386,65715f3336251057f2d1c268,6598e6a5d84f07970b831e70,6598e72b77b71480cf78df5a,0.0896,0.0898,0,84,84,148,1,sevenfive,,,,,,,,,,,,,,,,,,,,,,,,,,,,,,,,,,,,,,,,,,,,,,,,,,,,,,,,,,,,,,,,,,,,,,,,,,,,,,,,,,,,,,,,,,,,,,,,,,,,,,,,,,,,,,,,,,,,,,,,,,,,,,,,,,,,,,,
,,65715f3336251057f2d1c268,2024-01-05_21h37.58.546,kallum_motion_pilot,2023.2.3,Win32,60.24096386,65715f3336251057f2d1c268,6598e6a5d84f07970b831e70,6598e72b77b71480cf78df5a,0.0899,0.09,0,85,85,52,1,threeone,,,,,,,,,,,,,,,,,,,,,,,,,,,,,,,,,,,,,,,,,,,,,,,,,,,,,,,,,,,,,,,,,,,,,,,,,,,,,,,,,,,,,,,,,,,,,,,,,,,,,,,,,,,,,,,,,,,,,,,,,,,,,,,,,,,,,,,
,,65715f3336251057f2d1c268,2024-01-05_21h37.58.546,kallum_motion_pilot,2023.2.3,Win32,60.24096386,65715f3336251057f2d1c268,6598e6a5d84f07970b831e70,6598e72b77b71480cf78df5a,0.0901,0.0902,0,86,86,53,1,threefour,,,,,,,,,,,,,,,,,,,,,,,,,,,,,,,,,,,,,,,,,,,,,,,,,,,,,,,,,,,,,,,,,,,,,,,,,,,,,,,,,,,,,,,,,,,,,,,,,,,,,,,,,,,,,,,,,,,,,,,,,,,,,,,,,,,,,,,
,,65715f3336251057f2d1c268,2024-01-05_21h37.58.546,kallum_motion_pilot,2023.2.3,Win32,60.24096386,65715f3336251057f2d1c268,6598e6a5d84f07970b831e70,6598e72b77b71480cf78df5a,0.0903,0.0905,0,87,87,55,1,fourthree,,,,,,,,,,,,,,,,,,,,,,,,,,,,,,,,,,,,,,,,,,,,,,,,,,,,,,,,,,,,,,,,,,,,,,,,,,,,,,,,,,,,,,,,,,,,,,,,,,,,,,,,,,,,,,,,,,,,,,,,,,,,,,,,,,,,,,,
,,65715f3336251057f2d1c268,2024-01-05_21h37.58.546,kallum_motion_pilot,2023.2.3,Win32,60.24096386,65715f3336251057f2d1c268,6598e6a5d84f07970b831e70,6598e72b77b71480cf78df5a,0.0906,0.0908,0,88,88,78,1,fourtwo,,,,,,,,,,,,,,,,,,,,,,,,,,,,,,,,,,,,,,,,,,,,,,,,,,,,,,,,,,,,,,,,,,,,,,,,,,,,,,,,,,,,,,,,,,,,,,,,,,,,,,,,,,,,,,,,,,,,,,,,,,,,,,,,,,,,,,,
,,65715f3336251057f2d1c268,2024-01-05_21h37.58.546,kallum_motion_pilot,2023.2.3,Win32,60.24096386,65715f3336251057f2d1c268,6598e6a5d84f07970b831e70,6598e72b77b71480cf78df5a,0.0909,0.0911,0,89,89,117,1,seveneight,,,,,,,,,,,,,,,,,,,,,,,,,,,,,,,,,,,,,,,,,,,,,,,,,,,,,,,,,,,,,,,,,,,,,,,,,,,,,,,,,,,,,,,,,,,,,,,,,,,,,,,,,,,,,,,,,,,,,,,,,,,,,,,,,,,,,,,
,,65715f3336251057f2d1c268,2024-01-05_21h37.58.546,kallum_motion_pilot,2023.2.3,Win32,60.24096386,65715f3336251057f2d1c268,6598e6a5d84f07970b831e70,6598e72b77b71480cf78df5a,0.0913,0.0914,0,90,90,28,1,threeone,,,,,,,,,,,,,,,,,,,,,,,,,,,,,,,,,,,,,,,,,,,,,,,,,,,,,,,,,,,,,,,,,,,,,,,,,,,,,,,,,,,,,,,,,,,,,,,,,,,,,,,,,,,,,,,,,,,,,,,,,,,,,,,,,,,,,,,
,,65715f3336251057f2d1c268,2024-01-05_21h37.58.546,kallum_motion_pilot,2023.2.3,Win32,60.24096386,65715f3336251057f2d1c268,6598e6a5d84f07970b831e70,6598e72b77b71480cf78df5a,0.0915,0.0917,0,91,91,18,1,twoone,,,,,,,,,,,,,,,,,,,,,,,,,,,,,,,,,,,,,,,,,,,,,,,,,,,,,,,,,,,,,,,,,,,,,,,,,,,,,,,,,,,,,,,,,,,,,,,,,,,,,,,,,,,,,,,,,,,,,,,,,,,,,,,,,,,,,,,
,,65715f3336251057f2d1c268,2024-01-05_21h37.58.546,kallum_motion_pilot,2023.2.3,Win32,60.24096386,65715f3336251057f2d1c268,6598e6a5d84f07970b831e70,6598e72b77b71480cf78df5a,0.0919,0.0919,0,92,92,152,1,fivesix,,,,,,,,,,,,,,,,,,,,,,,,,,,,,,,,,,,,,,,,,,,,,,,,,,,,,,,,,,,,,,,,,,,,,,,,,,,,,,,,,,,,,,,,,,,,,,,,,,,,,,,,,,,,,,,,,,,,,,,,,,,,,,,,,,,,,,,
,,65715f3336251057f2d1c268,2024-01-05_21h37.58.546,kallum_motion_pilot,2023.2.3,Win32,60.24096386,65715f3336251057f2d1c268,6598e6a5d84f07970b831e70,6598e72b77b71480cf78df5a,0.0921,0.0922,0,93,93,125,1,seveneight,,,,,,,,,,,,,,,,,,,,,,,,,,,,,,,,,,,,,,,,,,,,,,,,,,,,,,,,,,,,,,,,,,,,,,,,,,,,,,,,,,,,,,,,,,,,,,,,,,,,,,,,,,,,,,,,,,,,,,,,,,,,,,,,,,,,,,,
,,65715f3336251057f2d1c268,2024-01-05_21h37.58.546,kallum_motion_pilot,2023.2.3,Win32,60.24096386,65715f3336251057f2d1c268,6598e6a5d84f07970b831e70,6598e72b77b71480cf78df5a,0.0924,0.0926,0,94,94,63,1,fourthree,,,,,,,,,,,,,,,,,,,,,,,,,,,,,,,,,,,,,,,,,,,,,,,,,,,,,,,,,,,,,,,,,,,,,,,,,,,,,,,,,,,,,,,,,,,,,,,,,,,,,,,,,,,,,,,,,,,,,,,,,,,,,,,,,,,,,,,
,,65715f3336251057f2d1c268,2024-01-05_21h37.58.546,kallum_motion_pilot,2023.2.3,Win32,60.24096386,65715f3336251057f2d1c268,6598e6a5d84f07970b831e70,6598e72b77b71480cf78df5a,0.0928,0.093,0,95,95,46,1,fourtwo,,,,,,,,,,,,,,,,,,,,,,,,,,,,,,,,,,,,,,,,,,,,,,,,,,,,,,,,,,,,,,,,,,,,,,,,,,,,,,,,,,,,,,,,,,,,,,,,,,,,,,,,,,,,,,,,,,,,,,,,,,,,,,,,,,,,,,,
,,65715f3336251057f2d1c268,2024-01-05_21h37.58.546,kallum_motion_pilot,2023.2.3,Win32,60.24096386,65715f3336251057f2d1c268,6598e6a5d84f07970b831e70,6598e72b77b71480cf78df5a,0.0932,0.0932,0,96,96,149,1,seveneight,,,,,,,,,,,,,,,,,,,,,,,,,,,,,,,,,,,,,,,,,,,,,,,,,,,,,,,,,,,,,,,,,,,,,,,,,,,,,,,,,,,,,,,,,,,,,,,,,,,,,,,,,,,,,,,,,,,,,,,,,,,,,,,,,,,,,,,
,,65715f3336251057f2d1c268,2024-01-05_21h37.58.546,kallum_motion_pilot,2023.2.3,Win32,60.24096386,65715f3336251057f2d1c268,6598e6a5d84f07970b831e70,6598e72b77b71480cf78df5a,0.0935,0.0935,0,97,97,126,1,eightsix,,,,,,,,,,,,,,,,,,,,,,,,,,,,,,,,,,,,,,,,,,,,,,,,,,,,,,,,,,,,,,,,,,,,,,,,,,,,,,,,,,,,,,,,,,,,,,,,,,,,,,,,,,,,,,,,,,,,,,,,,,,,,,,,,,,,,,,
,,65715f3336251057f2d1c268,2024-01-05_21h37.58.546,kallum_motion_pilot,2023.2.3,Win32,60.24096386,65715f3336251057f2d1c268,6598e6a5d84f07970b831e70,6598e72b77b71480cf78df5a,0.0937,0.0938,0,98,98,130,1,sixfive,,,,,,,,,,,,,,,,,,,,,,,,,,,,,,,,,,,,,,,,,,,,,,,,,,,,,,,,,,,,,,,,,,,,,,,,,,,,,,,,,,,,,,,,,,,,,,,,,,,,,,,,,,,,,,,,,,,,,,,,,,,,,,,,,,,,,,,
,,65715f3336251057f2d1c268,2024-01-05_21h37.58.546,kallum_motion_pilot,2023.2.3,Win32,60.24096386,65715f3336251057f2d1c268,6598e6a5d84f07970b831e70,6598e72b77b71480cf78df5a,0.094,0.094,0,99,99,60,1,threeone,,,,,,,,,,,,,,,,,,,,,,,,,,,,,,,,,,,,,,,,,,,,,,,,,,,,,,,,,,,,,,,,,,,,,,,,,,,,,,,,,,,,,,,,,,,,,,,,,,,,,,,,,,,,,,,,,,,,,,,,,,,,,,,,,,,,,,,
,,65715f3336251057f2d1c268,2024-01-05_21h37.58.546,kallum_motion_pilot,2023.2.3,Win32,60.24096386,65715f3336251057f2d1c268,6598e6a5d84f07970b831e70,6598e72b77b71480cf78df5a,0.0943,0.0944,0,100,100,41,1,onethree,,,,,,,,,,,,,,,,,,,,,,,,,,,,,,,,,,,,,,,,,,,,,,,,,,,,,,,,,,,,,,,,,,,,,,,,,,,,,,,,,,,,,,,,,,,,,,,,,,,,,,,,,,,,,,,,,,,,,,,,,,,,,,,,,,,,,,,
,,65715f3336251057f2d1c268,2024-01-05_21h37.58.546,kallum_motion_pilot,2023.2.3,Win32,60.24096386,65715f3336251057f2d1c268,6598e6a5d84f07970b831e70,6598e72b77b71480cf78df5a,0.0946,0.0947,0,101,101,136,1,fivesix,,,,,,,,,,,,,,,,,,,,,,,,,,,,,,,,,,,,,,,,,,,,,,,,,,,,,,,,,,,,,,,,,,,,,,,,,,,,,,,,,,,,,,,,,,,,,,,,,,,,,,,,,,,,,,,,,,,,,,,,,,,,,,,,,,,,,,,
,,65715f3336251057f2d1c268,2024-01-05_21h37.58.546,kallum_motion_pilot,2023.2.3,Win32,60.24096386,65715f3336251057f2d1c268,6598e6a5d84f07970b831e70,6598e72b77b71480cf78df5a,0.0948,0.0949,0,102,102,100,1,sevenfive,,,,,,,,,,,,,,,,,,,,,,,,,,,,,,,,,,,,,,,,,,,,,,,,,,,,,,,,,,,,,,,,,,,,,,,,,,,,,,,,,,,,,,,,,,,,,,,,,,,,,,,,,,,,,,,,,,,,,,,,,,,,,,,,,,,,,,,
,,65715f3336251057f2d1c268,2024-01-05_21h37.58.546,kallum_motion_pilot,2023.2.3,Win32,60.24096386,65715f3336251057f2d1c268,6598e6a5d84f07970b831e70,6598e72b77b71480cf78df5a,0.0951,0.0953,0,103,103,5,1,threefour,,,,,,,,,,,,,,,,,,,,,,,,,,,,,,,,,,,,,,,,,,,,,,,,,,,,,,,,,,,,,,,,,,,,,,,,,,,,,,,,,,,,,,,,,,,,,,,,,,,,,,,,,,,,,,,,,,,,,,,,,,,,,,,,,,,,,,,
,,65715f3336251057f2d1c268,2024-01-05_21h37.58.546,kallum_motion_pilot,2023.2.3,Win32,60.24096386,65715f3336251057f2d1c268,6598e6a5d84f07970b831e70,6598e72b77b71480cf78df5a,0.0955,0.0957,0,104,104,106,1,sixfive,,,,,,,,,,,,,,,,,,,,,,,,,,,,,,,,,,,,,,,,,,,,,,,,,,,,,,,,,,,,,,,,,,,,,,,,,,,,,,,,,,,,,,,,,,,,,,,,,,,,,,,,,,,,,,,,,,,,,,,,,,,,,,,,,,,,,,,
,,65715f3336251057f2d1c268,2024-01-05_21h37.58.546,kallum_motion_pilot,2023.2.3,Win32,60.24096386,65715f3336251057f2d1c268,6598e6a5d84f07970b831e70,6598e72b77b71480cf78df5a,0.0959,0.096,0,105,105,56,1,onetwo,,,,,,,,,,,,,,,,,,,,,,,,,,,,,,,,,,,,,,,,,,,,,,,,,,,,,,,,,,,,,,,,,,,,,,,,,,,,,,,,,,,,,,,,,,,,,,,,,,,,,,,,,,,,,,,,,,,,,,,,,,,,,,,,,,,,,,,
,,65715f3336251057f2d1c268,2024-01-05_21h37.58.546,kallum_motion_pilot,2023.2.3,Win32,60.24096386,65715f3336251057f2d1c268,6598e6a5d84f07970b831e70,6598e72b77b71480cf78df5a,0.0963,0.0964,0,106,106,156,1,sevenfive,,,,,,,,,,,,,,,,,,,,,,,,,,,,,,,,,,,,,,,,,,,,,,,,,,,,,,,,,,,,,,,,,,,,,,,,,,,,,,,,,,,,,,,,,,,,,,,,,,,,,,,,,,,,,,,,,,,,,,,,,,,,,,,,,,,,,,,
,,65715f3336251057f2d1c268,2024-01-05_21h37.58.546,kallum_motion_pilot,2023.2.3,Win32,60.24096386,65715f3336251057f2d1c268,6598e6a5d84f07970b831e70,6598e72b77b71480cf78df5a,0.0966,0.0967,0,107,107,119,1,eightseven,,,,,,,,,,,,,,,,,,,,,,,,,,,,,,,,,,,,,,,,,,,,,,,,,,,,,,,,,,,,,,,,,,,,,,,,,,,,,,,,,,,,,,,,,,,,,,,,,,,,,,,,,,,,,,,,,,,,,,,,,,,,,,,,,,,,,,,
,,65715f3336251057f2d1c268,2024-01-05_21h37.58.546,kallum_motion_pilot,2023.2.3,Win32,60.24096386,65715f3336251057f2d1c268,6598e6a5d84f07970b831e70,6598e72b77b71480cf78df5a,0.0969,0.097,0,108,108,42,1,twoone,,,,,,,,,,,,,,,,,,,,,,,,,,,,,,,,,,,,,,,,,,,,,,,,,,,,,,,,,,,,,,,,,,,,,,,,,,,,,,,,,,,,,,,,,,,,,,,,,,,,,,,,,,,,,,,,,,,,,,,,,,,,,,,,,,,,,,,
,,65715f3336251057f2d1c268,2024-01-05_21h37.58.546,kallum_motion_pilot,2023.2.3,Win32,60.24096386,65715f3336251057f2d1c268,6598e6a5d84f07970b831e70,6598e72b77b71480cf78df5a,0.0972,0.0973,0,109,109,20,1,threeone,,,,,,,,,,,,,,,,,,,,,,,,,,,,,,,,,,,,,,,,,,,,,,,,,,,,,,,,,,,,,,,,,,,,,,,,,,,,,,,,,,,,,,,,,,,,,,,,,,,,,,,,,,,,,,,,,,,,,,,,,,,,,,,,,,,,,,,
,,65715f3336251057f2d1c268,2024-01-05_21h37.58.546,kallum_motion_pilot,2023.2.3,Win32,60.24096386,65715f3336251057f2d1c268,6598e6a5d84f07970b831e70,6598e72b77b71480cf78df5a,0.0976,0.0977,0,110,110,159,1,eightseven,,,,,,,,,,,,,,,,,,,,,,,,,,,,,,,,,,,,,,,,,,,,,,,,,,,,,,,,,,,,,,,,,,,,,,,,,,,,,,,,,,,,,,,,,,,,,,,,,,,,,,,,,,,,,,,,,,,,,,,,,,,,,,,,,,,,,,,
,,65715f3336251057f2d1c268,2024-01-05_21h37.58.546,kallum_motion_pilot,2023.2.3,Win32,60.24096386,65715f3336251057f2d1c268,6598e6a5d84f07970b831e70,6598e72b77b71480cf78df5a,0.0979,0.098,0,111,111,80,1,fivesix,,,,,,,,,,,,,,,,,,,,,,,,,,,,,,,,,,,,,,,,,,,,,,,,,,,,,,,,,,,,,,,,,,,,,,,,,,,,,,,,,,,,,,,,,,,,,,,,,,,,,,,,,,,,,,,,,,,,,,,,,,,,,,,,,,,,,,,
,,65715f3336251057f2d1c268,2024-01-05_21h37.58.546,kallum_motion_pilot,2023.2.3,Win32,60.24096386,65715f3336251057f2d1c268,6598e6a5d84f07970b831e70,6598e72b77b71480cf78df5a,0.0981,0.0983,0,112,112,146,1,sixfive,,,,,,,,,,,,,,,,,,,,,,,,,,,,,,,,,,,,,,,,,,,,,,,,,,,,,,,,,,,,,,,,,,,,,,,,,,,,,,,,,,,,,,,,,,,,,,,,,,,,,,,,,,,,,,,,,,,,,,,,,,,,,,,,,,,,,,,
,,65715f3336251057f2d1c268,2024-01-05_21h37.58.546,kallum_motion_pilot,2023.2.3,Win32,60.24096386,65715f3336251057f2d1c268,6598e6a5d84f07970b831e70,6598e72b77b71480cf78df5a,0.0984,0.0985,0,113,113,24,1,onetwo,,,,,,,,,,,,,,,,,,,,,,,,,,,,,,,,,,,,,,,,,,,,,,,,,,,,,,,,,,,,,,,,,,,,,,,,,,,,,,,,,,,,,,,,,,,,,,,,,,,,,,,,,,,,,,,,,,,,,,,,,,,,,,,,,,,,,,,
,,65715f3336251057f2d1c268,2024-01-05_21h37.58.546,kallum_motion_pilot,2023.2.3,Win32,60.24096386,65715f3336251057f2d1c268,6598e6a5d84f07970b831e70,6598e72b77b71480cf78df5a,0.0986,0.0988,0,114,114,138,1,sixfive,,,,,,,,,,,,,,,,,,,,,,,,,,,,,,,,,,,,,,,,,,,,,,,,,,,,,,,,,,,,,,,,,,,,,,,,,,,,,,,,,,,,,,,,,,,,,,,,,,,,,,,,,,,,,,,,,,,,,,,,,,,,,,,,,,,,,,,
,,65715f3336251057f2d1c268,2024-01-05_21h37.58.546,kallum_motion_pilot,2023.2.3,Win32,60.24096386,65715f3336251057f2d1c268,6598e6a5d84f07970b831e70,6598e72b77b71480cf78df5a,0.0989,0.0989,0,115,115,94,1,eightsix,,,,,,,,,,,,,,,,,,,,,,,,,,,,,,,,,,,,,,,,,,,,,,,,,,,,,,,,,,,,,,,,,,,,,,,,,,,,,,,,,,,,,,,,,,,,,,,,,,,,,,,,,,,,,,,,,,,,,,,,,,,,,,,,,,,,,,,
,,65715f3336251057f2d1c268,2024-01-05_21h37.58.546,kallum_motion_pilot,2023.2.3,Win32,60.24096386,65715f3336251057f2d1c268,6598e6a5d84f07970b831e70,6598e72b77b71480cf78df5a,0.0991,0.0992,0,116,116,158,1,eightsix,,,,,,,,,,,,,,,,,,,,,,,,,,,,,,,,,,,,,,,,,,,,,,,,,,,,,,,,,,,,,,,,,,,,,,,,,,,,,,,,,,,,,,,,,,,,,,,,,,,,,,,,,,,,,,,,,,,,,,,,,,,,,,,,,,,,,,,
,,65715f3336251057f2d1c268,2024-01-05_21h37.58.546,kallum_motion_pilot,2023.2.3,Win32,60.24096386,65715f3336251057f2d1c268,6598e6a5d84f07970b831e70,6598e72b77b71480cf78df5a,0.0993,0.0994,0,117,117,62,1,fourtwo,,,,,,,,,,,,,,,,,,,,,,,,,,,,,,,,,,,,,,,,,,,,,,,,,,,,,,,,,,,,,,,,,,,,,,,,,,,,,,,,,,,,,,,,,,,,,,,,,,,,,,,,,,,,,,,,,,,,,,,,,,,,,,,,,,,,,,,
,,65715f3336251057f2d1c268,2024-01-05_21h37.58.546,kallum_motion_pilot,2023.2.3,Win32,60.24096386,65715f3336251057f2d1c268,6598e6a5d84f07970b831e70,6598e72b77b71480cf78df5a,0.0995,0.0996,0,118,118,0,1,onetwo,,,,,,,,,,,,,,,,,,,,,,,,,,,,,,,,,,,,,,,,,,,,,,,,,,,,,,,,,,,,,,,,,,,,,,,,,,,,,,,,,,,,,,,,,,,,,,,,,,,,,,,,,,,,,,,,,,,,,,,,,,,,,,,,,,,,,,,
,,65715f3336251057f2d1c268,2024-01-05_21h37.58.546,kallum_motion_pilot,2023.2.3,Win32,60.24096386,65715f3336251057f2d1c268,6598e6a5d84f07970b831e70,6598e72b77b71480cf78df5a,0.0998,0.0999,0,119,119,111,1,eightseven,,,,,,,,,,,,,,,,,,,,,,,,,,,,,,,,,,,,,,,,,,,,,,,,,,,,,,,,,,,,,,,,,,,,,,,,,,,,,,,,,,,,,,,,,,,,,,,,,,,,,,,,,,,,,,,,,,,,,,,,,,,,,,,,,,,,,,,
,,65715f3336251057f2d1c268,2024-01-05_21h37.58.546,kallum_motion_pilot,2023.2.3,Win32,60.24096386,65715f3336251057f2d1c268,6598e6a5d84f07970b831e70,6598e72b77b71480cf78df5a,0.1001,0.1001,0,120,120,93,1,seveneight,,,,,,,,,,,,,,,,,,,,,,,,,,,,,,,,,,,,,,,,,,,,,,,,,,,,,,,,,,,,,,,,,,,,,,,,,,,,,,,,,,,,,,,,,,,,,,,,,,,,,,,,,,,,,,,,,,,,,,,,,,,,,,,,,,,,,,,
,,65715f3336251057f2d1c268,2024-01-05_21h37.58.546,kallum_motion_pilot,2023.2.3,Win32,60.24096386,65715f3336251057f2d1c268,6598e6a5d84f07970b831e70,6598e72b77b71480cf78df5a,0.1003,0.1004,0,121,121,99,1,sixeight,,,,,,,,,,,,,,,,,,,,,,,,,,,,,,,,,,,,,,,,,,,,,,,,,,,,,,,,,,,,,,,,,,,,,,,,,,,,,,,,,,,,,,,,,,,,,,,,,,,,,,,,,,,,,,,,,,,,,,,,,,,,,,,,,,,,,,,
,,65715f3336251057f2d1c268,2024-01-05_21h37.58.546,kallum_motion_pilot,2023.2.3,Win32,60.24096386,65715f3336251057f2d1c268,6598e6a5d84f07970b831e70,6598e72b77b71480cf78df5a,0.1005,0.1005,0,122,122,127,1,eightseven,,,,,,,,,,,,,,,,,,,,,,,,,,,,,,,,,,,,,,,,,,,,,,,,,,,,,,,,,,,,,,,,,,,,,,,,,,,,,,,,,,,,,,,,,,,,,,,,,,,,,,,,,,,,,,,,,,,,,,,,,,,,,,,,,,,,,,,
,,65715f3336251057f2d1c268,2024-01-05_21h37.58.546,kallum_motion_pilot,2023.2.3,Win32,60.24096386,65715f3336251057f2d1c268,6598e6a5d84f07970b831e70,6598e72b77b71480cf78df5a,0.1006,0.1007,0,123,123,69,1,threefour,,,,,,,,,,,,,,,,,,,,,,,,,,,,,,,,,,,,,,,,,,,,,,,,,,,,,,,,,,,,,,,,,,,,,,,,,,,,,,,,,,,,,,,,,,,,,,,,,,,,,,,,,,,,,,,,,,,,,,,,,,,,,,,,,,,,,,,
,,65715f3336251057f2d1c268,2024-01-05_21h37.58.546,kallum_motion_pilot,2023.2.3,Win32,60.24096386,65715f3336251057f2d1c268,6598e6a5d84f07970b831e70,6598e72b77b71480cf78df5a,0.101,0.101,0,124,124,61,1,threefour,,,,,,,,,,,,,,,,,,,,,,,,,,,,,,,,,,,,,,,,,,,,,,,,,,,,,,,,,,,,,,,,,,,,,,,,,,,,,,,,,,,,,,,,,,,,,,,,,,,,,,,,,,,,,,,,,,,,,,,,,,,,,,,,,,,,,,,
,,65715f3336251057f2d1c268,2024-01-05_21h37.58.546,kallum_motion_pilot,2023.2.3,Win32,60.24096386,65715f3336251057f2d1c268,6598e6a5d84f07970b831e70,6598e72b77b71480cf78df5a,0.1012,0.1013,0,125,125,19,1,twofour,,,,,,,,,,,,,,,,,,,,,,,,,,,,,,,,,,,,,,,,,,,,,,,,,,,,,,,,,,,,,,,,,,,,,,,,,,,,,,,,,,,,,,,,,,,,,,,,,,,,,,,,,,,,,,,,,,,,,,,,,,,,,,,,,,,,,,,
,,65715f3336251057f2d1c268,2024-01-05_21h37.58.546,kallum_motion_pilot,2023.2.3,Win32,60.24096386,65715f3336251057f2d1c268,6598e6a5d84f07970b831e70,6598e72b77b71480cf78df5a,0.1016,0.1017,0,126,126,84,1,sevenfive,,,,,,,,,,,,,,,,,,,,,,,,,,,,,,,,,,,,,,,,,,,,,,,,,,,,,,,,,,,,,,,,,,,,,,,,,,,,,,,,,,,,,,,,,,,,,,,,,,,,,,,,,,,,,,,,,,,,,,,,,,,,,,,,,,,,,,,
,,65715f3336251057f2d1c268,2024-01-05_21h37.58.546,kallum_motion_pilot,2023.2.3,Win32,60.24096386,65715f3336251057f2d1c268,6598e6a5d84f07970b831e70,6598e72b77b71480cf78df5a,0.1019,0.102,0,127,127,15,1,fourthree,,,,,,,,,,,,,,,,,,,,,,,,,,,,,,,,,,,,,,,,,,,,,,,,,,,,,,,,,,,,,,,,,,,,,,,,,,,,,,,,,,,,,,,,,,,,,,,,,,,,,,,,,,,,,,,,,,,,,,,,,,,,,,,,,,,,,,,
,,65715f3336251057f2d1c268,2024-01-05_21h37.58.546,kallum_motion_pilot,2023.2.3,Win32,60.24096386,65715f3336251057f2d1c268,6598e6a5d84f07970b831e70,6598e72b77b71480cf78df5a,0.1022,0.1023,0,128,128,122,1,sixfive,,,,,,,,,,,,,,,,,,,,,,,,,,,,,,,,,,,,,,,,,,,,,,,,,,,,,,,,,,,,,,,,,,,,,,,,,,,,,,,,,,,,,,,,,,,,,,,,,,,,,,,,,,,,,,,,,,,,,,,,,,,,,,,,,,,,,,,
,,65715f3336251057f2d1c268,2024-01-05_21h37.58.546,kallum_motion_pilot,2023.2.3,Win32,60.24096386,65715f3336251057f2d1c268,6598e6a5d84f07970b831e70,6598e72b77b71480cf78df5a,0.1025,0.1026,0,129,129,34,1,twoone,,,,,,,,,,,,,,,,,,,,,,,,,,,,,,,,,,,,,,,,,,,,,,,,,,,,,,,,,,,,,,,,,,,,,,,,,,,,,,,,,,,,,,,,,,,,,,,,,,,,,,,,,,,,,,,,,,,,,,,,,,,,,,,,,,,,,,,
,,65715f3336251057f2d1c268,2024-01-05_21h37.58.546,kallum_motion_pilot,2023.2.3,Win32,60.24096386,65715f3336251057f2d1c268,6598e6a5d84f07970b831e70,6598e72b77b71480cf78df5a,0.1028,0.1028,0,130,130,44,1,threeone,,,,,,,,,,,,,,,,,,,,,,,,,,,,,,,,,,,,,,,,,,,,,,,,,,,,,,,,,,,,,,,,,,,,,,,,,,,,,,,,,,,,,,,,,,,,,,,,,,,,,,,,,,,,,,,,,,,,,,,,,,,,,,,,,,,,,,,
,,65715f3336251057f2d1c268,2024-01-05_21h37.58.546,kallum_motion_pilot,2023.2.3,Win32,60.24096386,65715f3336251057f2d1c268,6598e6a5d84f07970b831e70,6598e72b77b71480cf78df5a,0.103,0.103,0,131,131,79,1,eightseven,,,,,,,,,,,,,,,,,,,,,,,,,,,,,,,,,,,,,,,,,,,,,,,,,,,,,,,,,,,,,,,,,,,,,,,,,,,,,,,,,,,,,,,,,,,,,,,,,,,,,,,,,,,,,,,,,,,,,,,,,,,,,,,,,,,,,,,
,,65715f3336251057f2d1c268,2024-01-05_21h37.58.546,kallum_motion_pilot,2023.2.3,Win32,60.24096386,65715f3336251057f2d1c268,6598e6a5d84f07970b831e70,6598e72b77b71480cf78df5a,0.1032,0.1033,0,132,132,22,1,fourtwo,,,,,,,,,,,,,,,,,,,,,,,,,,,,,,,,,,,,,,,,,,,,,,,,,,,,,,,,,,,,,,,,,,,,,,,,,,,,,,,,,,,,,,,,,,,,,,,,,,,,,,,,,,,,,,,,,,,,,,,,,,,,,,,,,,,,,,,
,,65715f3336251057f2d1c268,2024-01-05_21h37.58.546,kallum_motion_pilot,2023.2.3,Win32,60.24096386,65715f3336251057f2d1c268,6598e6a5d84f07970b831e70,6598e72b77b71480cf78df5a,0.1034,0.1035,0,133,133,72,1,onetwo,,,,,,,,,,,,,,,,,,,,,,,,,,,,,,,,,,,,,,,,,,,,,,,,,,,,,,,,,,,,,,,,,,,,,,,,,,,,,,,,,,,,,,,,,,,,,,,,,,,,,,,,,,,,,,,,,,,,,,,,,,,,,,,,,,,,,,,
,,65715f3336251057f2d1c268,2024-01-05_21h37.58.546,kallum_motion_pilot,2023.2.3,Win32,60.24096386,65715f3336251057f2d1c268,6598e6a5d84f07970b831e70,6598e72b77b71480cf78df5a,0.1036,0.1037,0,134,134,65,1,onethree,,,,,,,,,,,,,,,,,,,,,,,,,,,,,,,,,,,,,,,,,,,,,,,,,,,,,,,,,,,,,,,,,,,,,,,,,,,,,,,,,,,,,,,,,,,,,,,,,,,,,,,,,,,,,,,,,,,,,,,,,,,,,,,,,,,,,,,
,,65715f3336251057f2d1c268,2024-01-05_21h37.58.546,kallum_motion_pilot,2023.2.3,Win32,60.24096386,65715f3336251057f2d1c268,6598e6a5d84f07970b831e70,6598e72b77b71480cf78df5a,0.1038,0.1039,0,135,135,70,1,fourtwo,,,,,,,,,,,,,,,,,,,,,,,,,,,,,,,,,,,,,,,,,,,,,,,,,,,,,,,,,,,,,,,,,,,,,,,,,,,,,,,,,,,,,,,,,,,,,,,,,,,,,,,,,,,,,,,,,,,,,,,,,,,,,,,,,,,,,,,
,,65715f3336251057f2d1c268,2024-01-05_21h37.58.546,kallum_motion_pilot,2023.2.3,Win32,60.24096386,65715f3336251057f2d1c268,6598e6a5d84f07970b831e70,6598e72b77b71480cf78df5a,0.104,0.1041,0,136,136,133,1,seveneight,,,,,,,,,,,,,,,,,,,,,,,,,,,,,,,,,,,,,,,,,,,,,,,,,,,,,,,,,,,,,,,,,,,,,,,,,,,,,,,,,,,,,,,,,,,,,,,,,,,,,,,,,,,,,,,,,,,,,,,,,,,,,,,,,,,,,,,
,,65715f3336251057f2d1c268,2024-01-05_21h37.58.546,kallum_motion_pilot,2023.2.3,Win32,60.24096386,65715f3336251057f2d1c268,6598e6a5d84f07970b831e70,6598e72b77b71480cf78df5a,0.1043,0.1043,0,137,137,110,1,eightsix,,,,,,,,,,,,,,,,,,,,,,,,,,,,,,,,,,,,,,,,,,,,,,,,,,,,,,,,,,,,,,,,,,,,,,,,,,,,,,,,,,,,,,,,,,,,,,,,,,,,,,,,,,,,,,,,,,,,,,,,,,,,,,,,,,,,,,,
,,65715f3336251057f2d1c268,2024-01-05_21h37.58.546,kallum_motion_pilot,2023.2.3,Win32,60.24096386,65715f3336251057f2d1c268,6598e6a5d84f07970b831e70,6598e72b77b71480cf78df5a,0.1045,0.1045,0,138,138,45,1,threefour,,,,,,,,,,,,,,,,,,,,,,,,,,,,,,,,,,,,,,,,,,,,,,,,,,,,,,,,,,,,,,,,,,,,,,,,,,,,,,,,,,,,,,,,,,,,,,,,,,,,,,,,,,,,,,,,,,,,,,,,,,,,,,,,,,,,,,,
,,65715f3336251057f2d1c268,2024-01-05_21h37.58.546,kallum_motion_pilot,2023.2.3,Win32,60.24096386,65715f3336251057f2d1c268,6598e6a5d84f07970b831e70,6598e72b77b71480cf78df5a,0.1047,0.1047,0,139,139,57,1,onethree,,,,,,,,,,,,,,,,,,,,,,,,,,,,,,,,,,,,,,,,,,,,,,,,,,,,,,,,,,,,,,,,,,,,,,,,,,,,,,,,,,,,,,,,,,,,,,,,,,,,,,,,,,,,,,,,,,,,,,,,,,,,,,,,,,,,,,,
,,65715f3336251057f2d1c268,2024-01-05_21h37.58.546,kallum_motion_pilot,2023.2.3,Win32,60.24096386,65715f3336251057f2d1c268,6598e6a5d84f07970b831e70,6598e72b77b71480cf78df5a,0.1049,0.105,0,140,140,107,1,sixeight,,,,,,,,,,,,,,,,,,,,,,,,,,,,,,,,,,,,,,,,,,,,,,,,,,,,,,,,,,,,,,,,,,,,,,,,,,,,,,,,,,,,,,,,,,,,,,,,,,,,,,,,,,,,,,,,,,,,,,,,,,,,,,,,,,,,,,,
,,65715f3336251057f2d1c268,2024-01-05_21h37.58.546,kallum_motion_pilot,2023.2.3,Win32,60.24096386,65715f3336251057f2d1c268,6598e6a5d84f07970b831e70,6598e72b77b71480cf78df5a,0.1051,0.1052,0,141,141,31,1,fourthree,,,,,,,,,,,,,,,,,,,,,,,,,,,,,,,,,,,,,,,,,,,,,,,,,,,,,,,,,,,,,,,,,,,,,,,,,,,,,,,,,,,,,,,,,,,,,,,,,,,,,,,,,,,,,,,,,,,,,,,,,,,,,,,,,,,,,,,
,,65715f3336251057f2d1c268,2024-01-05_21h37.58.546,kallum_motion_pilot,2023.2.3,Win32,60.24096386,65715f3336251057f2d1c268,6598e6a5d84f07970b831e70,6598e72b77b71480cf78df5a,0.1053,0.1055,0,142,142,74,1,twoone,,,,,,,,,,,,,,,,,,,,,,,,,,,,,,,,,,,,,,,,,,,,,,,,,,,,,,,,,,,,,,,,,,,,,,,,,,,,,,,,,,,,,,,,,,,,,,,,,,,,,,,,,,,,,,,,,,,,,,,,,,,,,,,,,,,,,,,
,,65715f3336251057f2d1c268,2024-01-05_21h37.58.546,kallum_motion_pilot,2023.2.3,Win32,60.24096386,65715f3336251057f2d1c268,6598e6a5d84f07970b831e70,6598e72b77b71480cf78df5a,0.1056,0.1057,0,143,143,114,1,sixfive,,,,,,,,,,,,,,,,,,,,,,,,,,,,,,,,,,,,,,,,,,,,,,,,,,,,,,,,,,,,,,,,,,,,,,,,,,,,,,,,,,,,,,,,,,,,,,,,,,,,,,,,,,,,,,,,,,,,,,,,,,,,,,,,,,,,,,,
,,65715f3336251057f2d1c268,2024-01-05_21h37.58.546,kallum_motion_pilot,2023.2.3,Win32,60.24096386,65715f3336251057f2d1c268,6598e6a5d84f07970b831e70,6598e72b77b71480cf78df5a,0.1057,0.1059,0,144,144,101,1,seveneight,,,,,,,,,,,,,,,,,,,,,,,,,,,,,,,,,,,,,,,,,,,,,,,,,,,,,,,,,,,,,,,,,,,,,,,,,,,,,,,,,,,,,,,,,,,,,,,,,,,,,,,,,,,,,,,,,,,,,,,,,,,,,,,,,,,,,,,
,,65715f3336251057f2d1c268,2024-01-05_21h37.58.546,kallum_motion_pilot,2023.2.3,Win32,60.24096386,65715f3336251057f2d1c268,6598e6a5d84f07970b831e70,6598e72b77b71480cf78df5a,0.106,0.1061,0,145,145,38,1,fourtwo,,,,,,,,,,,,,,,,,,,,,,,,,,,,,,,,,,,,,,,,,,,,,,,,,,,,,,,,,,,,,,,,,,,,,,,,,,,,,,,,,,,,,,,,,,,,,,,,,,,,,,,,,,,,,,,,,,,,,,,,,,,,,,,,,,,,,,,
,,65715f3336251057f2d1c268,2024-01-05_21h37.58.546,kallum_motion_pilot,2023.2.3,Win32,60.24096386,65715f3336251057f2d1c268,6598e6a5d84f07970b831e70,6598e72b77b71480cf78df5a,0.1062,0.1063,0,146,146,128,1,fivesix,,,,,,,,,,,,,,,,,,,,,,,,,,,,,,,,,,,,,,,,,,,,,,,,,,,,,,,,,,,,,,,,,,,,,,,,,,,,,,,,,,,,,,,,,,,,,,,,,,,,,,,,,,,,,,,,,,,,,,,,,,,,,,,,,,,,,,,
,,65715f3336251057f2d1c268,2024-01-05_21h37.58.546,kallum_motion_pilot,2023.2.3,Win32,60.24096386,65715f3336251057f2d1c268,6598e6a5d84f07970b831e70,6598e72b77b71480cf78df5a,0.1064,0.1065,0,147,147,115,1,sixeight,,,,,,,,,,,,,,,,,,,,,,,,,,,,,,,,,,,,,,,,,,,,,,,,,,,,,,,,,,,,,,,,,,,,,,,,,,,,,,,,,,,,,,,,,,,,,,,,,,,,,,,,,,,,,,,,,,,,,,,,,,,,,,,,,,,,,,,
,,65715f3336251057f2d1c268,2024-01-05_21h37.58.546,kallum_motion_pilot,2023.2.3,Win32,60.24096386,65715f3336251057f2d1c268,6598e6a5d84f07970b831e70,6598e72b77b71480cf78df5a,0.1066,0.1068,0,148,148,151,1,eightseven,,,,,,,,,,,,,,,,,,,,,,,,,,,,,,,,,,,,,,,,,,,,,,,,,,,,,,,,,,,,,,,,,,,,,,,,,,,,,,,,,,,,,,,,,,,,,,,,,,,,,,,,,,,,,,,,,,,,,,,,,,,,,,,,,,,,,,,
,,65715f3336251057f2d1c268,2024-01-05_21h37.58.546,kallum_motion_pilot,2023.2.3,Win32,60.24096386,65715f3336251057f2d1c268,6598e6a5d84f07970b831e70,6598e72b77b71480cf78df5a,0.1069,0.107,0,149,149,90,1,sixfive,,,,,,,,,,,,,,,,,,,,,,,,,,,,,,,,,,,,,,,,,,,,,,,,,,,,,,,,,,,,,,,,,,,,,,,,,,,,,,,,,,,,,,,,,,,,,,,,,,,,,,,,,,,,,,,,,,,,,,,,,,,,,,,,,,,,,,,
,,65715f3336251057f2d1c268,2024-01-05_21h37.58.546,kallum_motion_pilot,2023.2.3,Win32,60.24096386,65715f3336251057f2d1c268,6598e6a5d84f07970b831e70,6598e72b77b71480cf78df5a,0.1072,0.1072,0,150,150,14,1,fourtwo,,,,,,,,,,,,,,,,,,,,,,,,,,,,,,,,,,,,,,,,,,,,,,,,,,,,,,,,,,,,,,,,,,,,,,,,,,,,,,,,,,,,,,,,,,,,,,,,,,,,,,,,,,,,,,,,,,,,,,,,,,,,,,,,,,,,,,,
,,65715f3336251057f2d1c268,2024-01-05_21h37.58.546,kallum_motion_pilot,2023.2.3,Win32,60.24096386,65715f3336251057f2d1c268,6598e6a5d84f07970b831e70,6598e72b77b71480cf78df5a,0.1074,0.1074,0,151,151,12,1,threeone,,,,,,,,,,,,,,,,,,,,,,,,,,,,,,,,,,,,,,,,,,,,,,,,,,,,,,,,,,,,,,,,,,,,,,,,,,,,,,,,,,,,,,,,,,,,,,,,,,,,,,,,,,,,,,,,,,,,,,,,,,,,,,,,,,,,,,,
,,65715f3336251057f2d1c268,2024-01-05_21h37.58.546,kallum_motion_pilot,2023.2.3,Win32,60.24096386,65715f3336251057f2d1c268,6598e6a5d84f07970b831e70,6598e72b77b71480cf78df5a,0.1076,0.1077,0,152,152,7,1,fourthree,,,,,,,,,,,,,,,,,,,,,,,,,,,,,,,,,,,,,,,,,,,,,,,,,,,,,,,,,,,,,,,,,,,,,,,,,,,,,,,,,,,,,,,,,,,,,,,,,,,,,,,,,,,,,,,,,,,,,,,,,,,,,,,,,,,,,,,
,,65715f3336251057f2d1c268,2024-01-05_21h37.58.546,kallum_motion_pilot,2023.2.3,Win32,60.24096386,65715f3336251057f2d1c268,6598e6a5d84f07970b831e70,6598e72b77b71480cf78df5a,0.1078,0.108,0,153,153,35,1,twofour,,,,,,,,,,,,,,,,,,,,,,,,,,,,,,,,,,,,,,,,,,,,,,,,,,,,,,,,,,,,,,,,,,,,,,,,,,,,,,,,,,,,,,,,,,,,,,,,,,,,,,,,,,,,,,,,,,,,,,,,,,,,,,,,,,,,,,,
,,65715f3336251057f2d1c268,2024-01-05_21h37.58.546,kallum_motion_pilot,2023.2.3,Win32,60.24096386,65715f3336251057f2d1c268,6598e6a5d84f07970b831e70,6598e72b77b71480cf78df5a,0.1082,0.1082,0,154,154,1,1,onethree,,,,,,,,,,,,,,,,,,,,,,,,,,,,,,,,,,,,,,,,,,,,,,,,,,,,,,,,,,,,,,,,,,,,,,,,,,,,,,,,,,,,,,,,,,,,,,,,,,,,,,,,,,,,,,,,,,,,,,,,,,,,,,,,,,,,,,,
,,65715f3336251057f2d1c268,2024-01-05_21h37.58.546,kallum_motion_pilot,2023.2.3,Win32,60.24096386,65715f3336251057f2d1c268,6598e6a5d84f07970b831e70,6598e72b77b71480cf78df5a,0.1084,0.1085,0,155,155,17,1,onethree,,,,,,,,,,,,,,,,,,,,,,,,,,,,,,,,,,,,,,,,,,,,,,,,,,,,,,,,,,,,,,,,,,,,,,,,,,,,,,,,,,,,,,,,,,,,,,,,,,,,,,,,,,,,,,,,,,,,,,,,,,,,,,,,,,,,,,,
,,65715f3336251057f2d1c268,2024-01-05_21h37.58.546,kallum_motion_pilot,2023.2.3,Win32,60.24096386,65715f3336251057f2d1c268,6598e6a5d84f07970b831e70,6598e72b77b71480cf78df5a,0.1088,0.1089,0,156,156,26,1,twoone,,,,,,,,,,,,,,,,,,,,,,,,,,,,,,,,,,,,,,,,,,,,,,,,,,,,,,,,,,,,,,,,,,,,,,,,,,,,,,,,,,,,,,,,,,,,,,,,,,,,,,,,,,,,,,,,,,,,,,,,,,,,,,,,,,,,,,,
,,65715f3336251057f2d1c268,2024-01-05_21h37.58.546,kallum_motion_pilot,2023.2.3,Win32,60.24096386,65715f3336251057f2d1c268,6598e6a5d84f07970b831e70,6598e72b77b71480cf78df5a,0.1091,0.1093,0,157,157,66,1,twoone,,,,,,,,,,,,,,,,,,,,,,,,,,,,,,,,,,,,,,,,,,,,,,,,,,,,,,,,,,,,,,,,,,,,,,,,,,,,,,,,,,,,,,,,,,,,,,,,,,,,,,,,,,,,,,,,,,,,,,,,,,,,,,,,,,,,,,,
,,65715f3336251057f2d1c268,2024-01-05_21h37.58.546,kallum_motion_pilot,2023.2.3,Win32,60.24096386,65715f3336251057f2d1c268,6598e6a5d84f07970b831e70,6598e72b77b71480cf78df5a,0.1094,0.1095,0,158,158,140,1,sevenfive,,,,,,,,,,,,,,,,,,,,,,,,,,,,,,,,,,,,,,,,,,,,,,,,,,,,,,,,,,,,,,,,,,,,,,,,,,,,,,,,,,,,,,,,,,,,,,,,,,,,,,,,,,,,,,,,,,,,,,,,,,,,,,,,,,,,,,,
,,65715f3336251057f2d1c268,2024-01-05_21h37.58.546,kallum_motion_pilot,2023.2.3,Win32,60.24096386,65715f3336251057f2d1c268,6598e6a5d84f07970b831e70,6598e72b77b71480cf78df5a,0.1096,0.1097,0,159,159,143,1,eightseven,,,,,,,,,,,,,,,,,,,,,,,,,,,,,,,,,,,,,,,,,,,,,,,,,,,,,,,,,,,,,,,,,,,,,,,,,,,,,,,,,,,,,,,,,,,,,,,,,,,,,,,,,,,,,,,,,,,,,,,,,,,,,,,,,,,,,,,
,,65715f3336251057f2d1c268,2024-01-05_21h37.58.546,kallum_motion_pilot,2023.2.3,Win32,60.24096386,65715f3336251057f2d1c268,6598e6a5d84f07970b831e70,6598e72b77b71480cf78df5a,0.1098,0.1099,0,160,160,118,1,eightsix,,,,,,,,,,,,,,,,,,,,,,,,,,,,,,,,,,,,,,,,,,,,,,,,,,,,,,,,,,,,,,,,,,,,,,,,,,,,,,,,,,,,,,,,,,,,,,,,,,,,,,,,,,,,,,,,,,,,,,,,,,,,,,,,,,,,,,,
,,65715f3336251057f2d1c268,2024-01-05_21h37.58.546,kallum_motion_pilot,2023.2.3,Win32,60.24096386,65715f3336251057f2d1c268,6598e6a5d84f07970b831e70,6598e72b77b71480cf78df5a,0.1101,0.1102,0,161,161,11,1,twofour,,,,,,,,,,,,,,,,,,,,,,,,,,,,,,,,,,,,,,,,,,,,,,,,,,,,,,,,,,,,,,,,,,,,,,,,,,,,,,,,,,,,,,,,,,,,,,,,,,,,,,,,,,,,,,,,,,,,,,,,,,,,,,,,,,,,,,,
,,65715f3336251057f2d1c268,2024-01-05_21h37.58.546,kallum_motion_pilot,2023.2.3,Win32,60.24096386,65715f3336251057f2d1c268,6598e6a5d84f07970b831e70,6598e72b77b71480cf78df5a,0.1105,0.1106,1,0,162,133,1,seveneight,,,,,,,,,,,,,,,,,,,,,,,,,,,,,,,,,,,,,,,,,,,,,,,,,,,,,,,,,,,,,,,,,,,,,,,,,,,,,,,,,,,,,,,,,,,,,,,,,,,,,,,,,,,,,,,,,,,,,,,,,,,,,,,,,,,,,,,
,,65715f3336251057f2d1c268,2024-01-05_21h37.58.546,kallum_motion_pilot,2023.2.3,Win32,60.24096386,65715f3336251057f2d1c268,6598e6a5d84f07970b831e70,6598e72b77b71480cf78df5a,0.1109,0.1111,1,1,163,67,1,twofour,,,,,,,,,,,,,,,,,,,,,,,,,,,,,,,,,,,,,,,,,,,,,,,,,,,,,,,,,,,,,,,,,,,,,,,,,,,,,,,,,,,,,,,,,,,,,,,,,,,,,,,,,,,,,,,,,,,,,,,,,,,,,,,,,,,,,,,
,,65715f3336251057f2d1c268,2024-01-05_21h37.58.546,kallum_motion_pilot,2023.2.3,Win32,60.24096386,65715f3336251057f2d1c268,6598e6a5d84f07970b831e70,6598e72b77b71480cf78df5a,0.1114,0.1115,1,2,164,52,1,threeone,,,,,,,,,,,,,,,,,,,,,,,,,,,,,,,,,,,,,,,,,,,,,,,,,,,,,,,,,,,,,,,,,,,,,,,,,,,,,,,,,,,,,,,,,,,,,,,,,,,,,,,,,,,,,,,,,,,,,,,,,,,,,,,,,,,,,,,
,,65715f3336251057f2d1c268,2024-01-05_21h37.58.546,kallum_motion_pilot,2023.2.3,Win32,60.24096386,65715f3336251057f2d1c268,6598e6a5d84f07970b831e70,6598e72b77b71480cf78df5a,0.1118,0.112,1,3,165,74,1,twoone,,,,,,,,,,,,,,,,,,,,,,,,,,,,,,,,,,,,,,,,,,,,,,,,,,,,,,,,,,,,,,,,,,,,,,,,,,,,,,,,,,,,,,,,,,,,,,,,,,,,,,,,,,,,,,,,,,,,,,,,,,,,,,,,,,,,,,,
,,65715f3336251057f2d1c268,2024-01-05_21h37.58.546,kallum_motion_pilot,2023.2.3,Win32,60.24096386,65715f3336251057f2d1c268,6598e6a5d84f07970b831e70,6598e72b77b71480cf78df5a,0.1122,0.1124,1,4,166,117,1,seveneight,,,,,,,,,,,,,,,,,,,,,,,,,,,,,,,,,,,,,,,,,,,,,,,,,,,,,,,,,,,,,,,,,,,,,,,,,,,,,,,,,,,,,,,,,,,,,,,,,,,,,,,,,,,,,,,,,,,,,,,,,,,,,,,,,,,,,,,
,,65715f3336251057f2d1c268,2024-01-05_21h37.58.546,kallum_motion_pilot,2023.2.3,Win32,60.24096386,65715f3336251057f2d1c268,6598e6a5d84f07970b831e70,6598e72b77b71480cf78df5a,0.1126,0.1128,1,5,167,118,1,eightsix,,,,,,,,,,,,,,,,,,,,,,,,,,,,,,,,,,,,,,,,,,,,,,,,,,,,,,,,,,,,,,,,,,,,,,,,,,,,,,,,,,,,,,,,,,,,,,,,,,,,,,,,,,,,,,,,,,,,,,,,,,,,,,,,,,,,,,,
,,65715f3336251057f2d1c268,2024-01-05_21h37.58.546,kallum_motion_pilot,2023.2.3,Win32,60.24096386,65715f3336251057f2d1c268,6598e6a5d84f07970b831e70,6598e72b77b71480cf78df5a,0.113,0.1131,1,6,168,0,1,onetwo,,,,,,,,,,,,,,,,,,,,,,,,,,,,,,,,,,,,,,,,,,,,,,,,,,,,,,,,,,,,,,,,,,,,,,,,,,,,,,,,,,,,,,,,,,,,,,,,,,,,,,,,,,,,,,,,,,,,,,,,,,,,,,,,,,,,,,,
,,65715f3336251057f2d1c268,2024-01-05_21h37.58.546,kallum_motion_pilot,2023.2.3,Win32,60.24096386,65715f3336251057f2d1c268,6598e6a5d84f07970b831e70,6598e72b77b71480cf78df5a,0.1134,0.1135,1,7,169,44,1,threeone,,,,,,,,,,,,,,,,,,,,,,,,,,,,,,,,,,,,,,,,,,,,,,,,,,,,,,,,,,,,,,,,,,,,,,,,,,,,,,,,,,,,,,,,,,,,,,,,,,,,,,,,,,,,,,,,,,,,,,,,,,,,,,,,,,,,,,,
,,65715f3336251057f2d1c268,2024-01-05_21h37.58.546,kallum_motion_pilot,2023.2.3,Win32,60.24096386,65715f3336251057f2d1c268,6598e6a5d84f07970b831e70,6598e72b77b71480cf78df5a,0.1136,0.1138,1,8,170,28,1,threeone,,,,,,,,,,,,,,,,,,,,,,,,,,,,,,,,,,,,,,,,,,,,,,,,,,,,,,,,,,,,,,,,,,,,,,,,,,,,,,,,,,,,,,,,,,,,,,,,,,,,,,,,,,,,,,,,,,,,,,,,,,,,,,,,,,,,,,,
,,65715f3336251057f2d1c268,2024-01-05_21h37.58.546,kallum_motion_pilot,2023.2.3,Win32,60.24096386,65715f3336251057f2d1c268,6598e6a5d84f07970b831e70,6598e72b77b71480cf78df5a,0.114,0.1143,1,9,171,100,1,sevenfive,,,,,,,,,,,,,,,,,,,,,,,,,,,,,,,,,,,,,,,,,,,,,,,,,,,,,,,,,,,,,,,,,,,,,,,,,,,,,,,,,,,,,,,,,,,,,,,,,,,,,,,,,,,,,,,,,,,,,,,,,,,,,,,,,,,,,,,
,,65715f3336251057f2d1c268,2024-01-05_21h37.58.546,kallum_motion_pilot,2023.2.3,Win32,60.24096386,65715f3336251057f2d1c268,6598e6a5d84f07970b831e70,6598e72b77b71480cf78df5a,0.1144,0.1145,1,10,172,29,1,threefour,,,,,,,,,,,,,,,,,,,,,,,,,,,,,,,,,,,,,,,,,,,,,,,,,,,,,,,,,,,,,,,,,,,,,,,,,,,,,,,,,,,,,,,,,,,,,,,,,,,,,,,,,,,,,,,,,,,,,,,,,,,,,,,,,,,,,,,
,,65715f3336251057f2d1c268,2024-01-05_21h37.58.546,kallum_motion_pilot,2023.2.3,Win32,60.24096386,65715f3336251057f2d1c268,6598e6a5d84f07970b831e70,6598e72b77b71480cf78df5a,0.1147,0.1148,1,11,173,5,1,threefour,,,,,,,,,,,,,,,,,,,,,,,,,,,,,,,,,,,,,,,,,,,,,,,,,,,,,,,,,,,,,,,,,,,,,,,,,,,,,,,,,,,,,,,,,,,,,,,,,,,,,,,,,,,,,,,,,,,,,,,,,,,,,,,,,,,,,,,
,,65715f3336251057f2d1c268,2024-01-05_21h37.58.546,kallum_motion_pilot,2023.2.3,Win32,60.24096386,65715f3336251057f2d1c268,6598e6a5d84f07970b831e70,6598e72b77b71480cf78df5a,0.1149,0.1151,1,12,174,17,1,onethree,,,,,,,,,,,,,,,,,,,,,,,,,,,,,,,,,,,,,,,,,,,,,,,,,,,,,,,,,,,,,,,,,,,,,,,,,,,,,,,,,,,,,,,,,,,,,,,,,,,,,,,,,,,,,,,,,,,,,,,,,,,,,,,,,,,,,,,
,,65715f3336251057f2d1c268,2024-01-05_21h37.58.546,kallum_motion_pilot,2023.2.3,Win32,60.24096386,65715f3336251057f2d1c268,6598e6a5d84f07970b831e70,6598e72b77b71480cf78df5a,0.1152,0.1153,1,13,175,10,1,twoone,,,,,,,,,,,,,,,,,,,,,,,,,,,,,,,,,,,,,,,,,,,,,,,,,,,,,,,,,,,,,,,,,,,,,,,,,,,,,,,,,,,,,,,,,,,,,,,,,,,,,,,,,,,,,,,,,,,,,,,,,,,,,,,,,,,,,,,
,,65715f3336251057f2d1c268,2024-01-05_21h37.58.546,kallum_motion_pilot,2023.2.3,Win32,60.24096386,65715f3336251057f2d1c268,6598e6a5d84f07970b831e70,6598e72b77b71480cf78df5a,0.1154,0.1155,1,14,176,82,1,sixfive,,,,,,,,,,,,,,,,,,,,,,,,,,,,,,,,,,,,,,,,,,,,,,,,,,,,,,,,,,,,,,,,,,,,,,,,,,,,,,,,,,,,,,,,,,,,,,,,,,,,,,,,,,,,,,,,,,,,,,,,,,,,,,,,,,,,,,,
,,65715f3336251057f2d1c268,2024-01-05_21h37.58.546,kallum_motion_pilot,2023.2.3,Win32,60.24096386,65715f3336251057f2d1c268,6598e6a5d84f07970b831e70,6598e72b77b71480cf78df5a,0.1157,0.1158,1,15,177,155,1,sixeight,,,,,,,,,,,,,,,,,,,,,,,,,,,,,,,,,,,,,,,,,,,,,,,,,,,,,,,,,,,,,,,,,,,,,,,,,,,,,,,,,,,,,,,,,,,,,,,,,,,,,,,,,,,,,,,,,,,,,,,,,,,,,,,,,,,,,,,
,,65715f3336251057f2d1c268,2024-01-05_21h37.58.546,kallum_motion_pilot,2023.2.3,Win32,60.24096386,65715f3336251057f2d1c268,6598e6a5d84f07970b831e70,6598e72b77b71480cf78df5a,0.1159,0.116,1,16,178,129,1,fiveseven,,,,,,,,,,,,,,,,,,,,,,,,,,,,,,,,,,,,,,,,,,,,,,,,,,,,,,,,,,,,,,,,,,,,,,,,,,,,,,,,,,,,,,,,,,,,,,,,,,,,,,,,,,,,,,,,,,,,,,,,,,,,,,,,,,,,,,,
,,65715f3336251057f2d1c268,2024-01-05_21h37.58.546,kallum_motion_pilot,2023.2.3,Win32,60.24096386,65715f3336251057f2d1c268,6598e6a5d84f07970b831e70,6598e72b77b71480cf78df5a,0.1162,0.1163,1,17,179,62,1,fourtwo,,,,,,,,,,,,,,,,,,,,,,,,,,,,,,,,,,,,,,,,,,,,,,,,,,,,,,,,,,,,,,,,,,,,,,,,,,,,,,,,,,,,,,,,,,,,,,,,,,,,,,,,,,,,,,,,,,,,,,,,,,,,,,,,,,,,,,,
,,65715f3336251057f2d1c268,2024-01-05_21h37.58.546,kallum_motion_pilot,2023.2.3,Win32,60.24096386,65715f3336251057f2d1c268,6598e6a5d84f07970b831e70,6598e72b77b71480cf78df5a,0.1164,0.1166,1,18,180,148,1,sevenfive,,,,,,,,,,,,,,,,,,,,,,,,,,,,,,,,,,,,,,,,,,,,,,,,,,,,,,,,,,,,,,,,,,,,,,,,,,,,,,,,,,,,,,,,,,,,,,,,,,,,,,,,,,,,,,,,,,,,,,,,,,,,,,,,,,,,,,,
,,65715f3336251057f2d1c268,2024-01-05_21h37.58.546,kallum_motion_pilot,2023.2.3,Win32,60.24096386,65715f3336251057f2d1c268,6598e6a5d84f07970b831e70,6598e72b77b71480cf78df5a,0.1166,0.1168,1,19,181,30,1,fourtwo,,,,,,,,,,,,,,,,,,,,,,,,,,,,,,,,,,,,,,,,,,,,,,,,,,,,,,,,,,,,,,,,,,,,,,,,,,,,,,,,,,,,,,,,,,,,,,,,,,,,,,,,,,,,,,,,,,,,,,,,,,,,,,,,,,,,,,,
,,65715f3336251057f2d1c268,2024-01-05_21h37.58.546,kallum_motion_pilot,2023.2.3,Win32,60.24096386,65715f3336251057f2d1c268,6598e6a5d84f07970b831e70,6598e72b77b71480cf78df5a,0.1169,0.117,1,20,182,79,1,eightseven,,,,,,,,,,,,,,,,,,,,,,,,,,,,,,,,,,,,,,,,,,,,,,,,,,,,,,,,,,,,,,,,,,,,,,,,,,,,,,,,,,,,,,,,,,,,,,,,,,,,,,,,,,,,,,,,,,,,,,,,,,,,,,,,,,,,,,,
,,65715f3336251057f2d1c268,2024-01-05_21h37.58.546,kallum_motion_pilot,2023.2.3,Win32,60.24096386,65715f3336251057f2d1c268,6598e6a5d84f07970b831e70,6598e72b77b71480cf78df5a,0.1171,0.1173,1,21,183,111,1,eightseven,,,,,,,,,,,,,,,,,,,,,,,,,,,,,,,,,,,,,,,,,,,,,,,,,,,,,,,,,,,,,,,,,,,,,,,,,,,,,,,,,,,,,,,,,,,,,,,,,,,,,,,,,,,,,,,,,,,,,,,,,,,,,,,,,,,,,,,
,,65715f3336251057f2d1c268,2024-01-05_21h37.58.546,kallum_motion_pilot,2023.2.3,Win32,60.24096386,65715f3336251057f2d1c268,6598e6a5d84f07970b831e70,6598e72b77b71480cf78df5a,0.1175,0.1177,1,22,184,128,1,fivesix,,,,,,,,,,,,,,,,,,,,,,,,,,,,,,,,,,,,,,,,,,,,,,,,,,,,,,,,,,,,,,,,,,,,,,,,,,,,,,,,,,,,,,,,,,,,,,,,,,,,,,,,,,,,,,,,,,,,,,,,,,,,,,,,,,,,,,,
,,65715f3336251057f2d1c268,2024-01-05_21h37.58.546,kallum_motion_pilot,2023.2.3,Win32,60.24096386,65715f3336251057f2d1c268,6598e6a5d84f07970b831e70,6598e72b77b71480cf78df5a,0.1193,0.1196,1,23,185,84,1,sevenfive,,,,,,,,,,,,,,,,,,,,,,,,,,,,,,,,,,,,,,,,,,,,,,,,,,,,,,,,,,,,,,,,,,,,,,,,,,,,,,,,,,,,,,,,,,,,,,,,,,,,,,,,,,,,,,,,,,,,,,,,,,,,,,,,,,,,,,,
,,65715f3336251057f2d1c268,2024-01-05_21h37.58.546,kallum_motion_pilot,2023.2.3,Win32,60.24096386,65715f3336251057f2d1c268,6598e6a5d84f07970b831e70,6598e72b77b71480cf78df5a,0.1198,0.1198,1,24,186,87,1,eightseven,,,,,,,,,,,,,,,,,,,,,,,,,,,,,,,,,,,,,,,,,,,,,,,,,,,,,,,,,,,,,,,,,,,,,,,,,,,,,,,,,,,,,,,,,,,,,,,,,,,,,,,,,,,,,,,,,,,,,,,,,,,,,,,,,,,,,,,
,,65715f3336251057f2d1c268,2024-01-05_21h37.58.546,kallum_motion_pilot,2023.2.3,Win32,60.24096386,65715f3336251057f2d1c268,6598e6a5d84f07970b831e70,6598e72b77b71480cf78df5a,0.12,0.1202,1,25,187,113,1,fiveseven,,,,,,,,,,,,,,,,,,,,,,,,,,,,,,,,,,,,,,,,,,,,,,,,,,,,,,,,,,,,,,,,,,,,,,,,,,,,,,,,,,,,,,,,,,,,,,,,,,,,,,,,,,,,,,,,,,,,,,,,,,,,,,,,,,,,,,,
,,65715f3336251057f2d1c268,2024-01-05_21h37.58.546,kallum_motion_pilot,2023.2.3,Win32,60.24096386,65715f3336251057f2d1c268,6598e6a5d84f07970b831e70,6598e72b77b71480cf78df5a,0.1203,0.1205,1,26,188,54,1,fourtwo,,,,,,,,,,,,,,,,,,,,,,,,,,,,,,,,,,,,,,,,,,,,,,,,,,,,,,,,,,,,,,,,,,,,,,,,,,,,,,,,,,,,,,,,,,,,,,,,,,,,,,,,,,,,,,,,,,,,,,,,,,,,,,,,,,,,,,,
,,65715f3336251057f2d1c268,2024-01-05_21h37.58.546,kallum_motion_pilot,2023.2.3,Win32,60.24096386,65715f3336251057f2d1c268,6598e6a5d84f07970b831e70,6598e72b77b71480cf78df5a,0.1207,0.1209,1,27,189,140,1,sevenfive,,,,,,,,,,,,,,,,,,,,,,,,,,,,,,,,,,,,,,,,,,,,,,,,,,,,,,,,,,,,,,,,,,,,,,,,,,,,,,,,,,,,,,,,,,,,,,,,,,,,,,,,,,,,,,,,,,,,,,,,,,,,,,,,,,,,,,,
,,65715f3336251057f2d1c268,2024-01-05_21h37.58.546,kallum_motion_pilot,2023.2.3,Win32,60.24096386,65715f3336251057f2d1c268,6598e6a5d84f07970b831e70,6598e72b77b71480cf78df5a,0.1211,0.1212,1,28,190,49,1,onethree,,,,,,,,,,,,,,,,,,,,,,,,,,,,,,,,,,,,,,,,,,,,,,,,,,,,,,,,,,,,,,,,,,,,,,,,,,,,,,,,,,,,,,,,,,,,,,,,,,,,,,,,,,,,,,,,,,,,,,,,,,,,,,,,,,,,,,,
,,65715f3336251057f2d1c268,2024-01-05_21h37.58.546,kallum_motion_pilot,2023.2.3,Win32,60.24096386,65715f3336251057f2d1c268,6598e6a5d84f07970b831e70,6598e72b77b71480cf78df5a,0.1213,0.1215,1,29,191,139,1,sixeight,,,,,,,,,,,,,,,,,,,,,,,,,,,,,,,,,,,,,,,,,,,,,,,,,,,,,,,,,,,,,,,,,,,,,,,,,,,,,,,,,,,,,,,,,,,,,,,,,,,,,,,,,,,,,,,,,,,,,,,,,,,,,,,,,,,,,,,
,,65715f3336251057f2d1c268,2024-01-05_21h37.58.546,kallum_motion_pilot,2023.2.3,Win32,60.24096386,65715f3336251057f2d1c268,6598e6a5d84f07970b831e70,6598e72b77b71480cf78df5a,0.1216,0.1217,1,30,192,110,1,eightsix,,,,,,,,,,,,,,,,,,,,,,,,,,,,,,,,,,,,,,,,,,,,,,,,,,,,,,,,,,,,,,,,,,,,,,,,,,,,,,,,,,,,,,,,,,,,,,,,,,,,,,,,,,,,,,,,,,,,,,,,,,,,,,,,,,,,,,,
,,65715f3336251057f2d1c268,2024-01-05_21h37.58.546,kallum_motion_pilot,2023.2.3,Win32,60.24096386,65715f3336251057f2d1c268,6598e6a5d84f07970b831e70,6598e72b77b71480cf78df5a,0.1219,0.122,1,31,193,69,1,threefour,,,,,,,,,,,,,,,,,,,,,,,,,,,,,,,,,,,,,,,,,,,,,,,,,,,,,,,,,,,,,,,,,,,,,,,,,,,,,,,,,,,,,,,,,,,,,,,,,,,,,,,,,,,,,,,,,,,,,,,,,,,,,,,,,,,,,,,
,,65715f3336251057f2d1c268,2024-01-05_21h37.58.546,kallum_motion_pilot,2023.2.3,Win32,60.24096386,65715f3336251057f2d1c268,6598e6a5d84f07970b831e70,6598e72b77b71480cf78df5a,0.1221,0.1222,1,32,194,94,1,eightsix,,,,,,,,,,,,,,,,,,,,,,,,,,,,,,,,,,,,,,,,,,,,,,,,,,,,,,,,,,,,,,,,,,,,,,,,,,,,,,,,,,,,,,,,,,,,,,,,,,,,,,,,,,,,,,,,,,,,,,,,,,,,,,,,,,,,,,,
,,65715f3336251057f2d1c268,2024-01-05_21h37.58.546,kallum_motion_pilot,2023.2.3,Win32,60.24096386,65715f3336251057f2d1c268,6598e6a5d84f07970b831e70,6598e72b77b71480cf78df5a,0.1225,0.1225,1,33,195,48,1,onetwo,,,,,,,,,,,,,,,,,,,,,,,,,,,,,,,,,,,,,,,,,,,,,,,,,,,,,,,,,,,,,,,,,,,,,,,,,,,,,,,,,,,,,,,,,,,,,,,,,,,,,,,,,,,,,,,,,,,,,,,,,,,,,,,,,,,,,,,
,,65715f3336251057f2d1c268,2024-01-05_21h37.58.546,kallum_motion_pilot,2023.2.3,Win32,60.24096386,65715f3336251057f2d1c268,6598e6a5d84f07970b831e70,6598e72b77b71480cf78df5a,0.1227,0.1229,1,34,196,130,1,sixfive,,,,,,,,,,,,,,,,,,,,,,,,,,,,,,,,,,,,,,,,,,,,,,,,,,,,,,,,,,,,,,,,,,,,,,,,,,,,,,,,,,,,,,,,,,,,,,,,,,,,,,,,,,,,,,,,,,,,,,,,,,,,,,,,,,,,,,,
,,65715f3336251057f2d1c268,2024-01-05_21h37.58.546,kallum_motion_pilot,2023.2.3,Win32,60.24096386,65715f3336251057f2d1c268,6598e6a5d84f07970b831e70,6598e72b77b71480cf78df5a,0.123,0.1231,1,35,197,137,1,fiveseven,,,,,,,,,,,,,,,,,,,,,,,,,,,,,,,,,,,,,,,,,,,,,,,,,,,,,,,,,,,,,,,,,,,,,,,,,,,,,,,,,,,,,,,,,,,,,,,,,,,,,,,,,,,,,,,,,,,,,,,,,,,,,,,,,,,,,,,
,,65715f3336251057f2d1c268,2024-01-05_21h37.58.546,kallum_motion_pilot,2023.2.3,Win32,60.24096386,65715f3336251057f2d1c268,6598e6a5d84f07970b831e70,6598e72b77b71480cf78df5a,0.1233,0.1233,1,36,198,134,1,eightsix,,,,,,,,,,,,,,,,,,,,,,,,,,,,,,,,,,,,,,,,,,,,,,,,,,,,,,,,,,,,,,,,,,,,,,,,,,,,,,,,,,,,,,,,,,,,,,,,,,,,,,,,,,,,,,,,,,,,,,,,,,,,,,,,,,,,,,,
,,65715f3336251057f2d1c268,2024-01-05_21h37.58.546,kallum_motion_pilot,2023.2.3,Win32,60.24096386,65715f3336251057f2d1c268,6598e6a5d84f07970b831e70,6598e72b77b71480cf78df5a,0.1235,0.1236,1,37,199,7,1,fourthree,,,,,,,,,,,,,,,,,,,,,,,,,,,,,,,,,,,,,,,,,,,,,,,,,,,,,,,,,,,,,,,,,,,,,,,,,,,,,,,,,,,,,,,,,,,,,,,,,,,,,,,,,,,,,,,,,,,,,,,,,,,,,,,,,,,,,,,
,,65715f3336251057f2d1c268,2024-01-05_21h37.58.546,kallum_motion_pilot,2023.2.3,Win32,60.24096386,65715f3336251057f2d1c268,6598e6a5d84f07970b831e70,6598e72b77b71480cf78df5a,0.1237,0.1238,1,38,200,40,1,onetwo,,,,,,,,,,,,,,,,,,,,,,,,,,,,,,,,,,,,,,,,,,,,,,,,,,,,,,,,,,,,,,,,,,,,,,,,,,,,,,,,,,,,,,,,,,,,,,,,,,,,,,,,,,,,,,,,,,,,,,,,,,,,,,,,,,,,,,,
,,65715f3336251057f2d1c268,2024-01-05_21h37.58.546,kallum_motion_pilot,2023.2.3,Win32,60.24096386,65715f3336251057f2d1c268,6598e6a5d84f07970b831e70,6598e72b77b71480cf78df5a,0.124,0.1241,1,39,201,144,1,fivesix,,,,,,,,,,,,,,,,,,,,,,,,,,,,,,,,,,,,,,,,,,,,,,,,,,,,,,,,,,,,,,,,,,,,,,,,,,,,,,,,,,,,,,,,,,,,,,,,,,,,,,,,,,,,,,,,,,,,,,,,,,,,,,,,,,,,,,,
,,65715f3336251057f2d1c268,2024-01-05_21h37.58.546,kallum_motion_pilot,2023.2.3,Win32,60.24096386,65715f3336251057f2d1c268,6598e6a5d84f07970b831e70,6598e72b77b71480cf78df5a,0.1243,0.1244,1,40,202,16,1,onetwo,,,,,,,,,,,,,,,,,,,,,,,,,,,,,,,,,,,,,,,,,,,,,,,,,,,,,,,,,,,,,,,,,,,,,,,,,,,,,,,,,,,,,,,,,,,,,,,,,,,,,,,,,,,,,,,,,,,,,,,,,,,,,,,,,,,,,,,
,,65715f3336251057f2d1c268,2024-01-05_21h37.58.546,kallum_motion_pilot,2023.2.3,Win32,60.24096386,65715f3336251057f2d1c268,6598e6a5d84f07970b831e70,6598e72b77b71480cf78df5a,0.1245,0.1246,1,41,203,58,1,twoone,,,,,,,,,,,,,,,,,,,,,,,,,,,,,,,,,,,,,,,,,,,,,,,,,,,,,,,,,,,,,,,,,,,,,,,,,,,,,,,,,,,,,,,,,,,,,,,,,,,,,,,,,,,,,,,,,,,,,,,,,,,,,,,,,,,,,,,
,,65715f3336251057f2d1c268,2024-01-05_21h37.58.546,kallum_motion_pilot,2023.2.3,Win32,60.24096386,65715f3336251057f2d1c268,6598e6a5d84f07970b831e70,6598e72b77b71480cf78df5a,0.1247,0.1249,1,42,204,57,1,onethree,,,,,,,,,,,,,,,,,,,,,,,,,,,,,,,,,,,,,,,,,,,,,,,,,,,,,,,,,,,,,,,,,,,,,,,,,,,,,,,,,,,,,,,,,,,,,,,,,,,,,,,,,,,,,,,,,,,,,,,,,,,,,,,,,,,,,,,
,,65715f3336251057f2d1c268,2024-01-05_21h37.58.546,kallum_motion_pilot,2023.2.3,Win32,60.24096386,65715f3336251057f2d1c268,6598e6a5d84f07970b831e70,6598e72b77b71480cf78df5a,0.125,0.1251,1,43,205,27,1,twofour,,,,,,,,,,,,,,,,,,,,,,,,,,,,,,,,,,,,,,,,,,,,,,,,,,,,,,,,,,,,,,,,,,,,,,,,,,,,,,,,,,,,,,,,,,,,,,,,,,,,,,,,,,,,,,,,,,,,,,,,,,,,,,,,,,,,,,,
,,65715f3336251057f2d1c268,2024-01-05_21h37.58.546,kallum_motion_pilot,2023.2.3,Win32,60.24096386,65715f3336251057f2d1c268,6598e6a5d84f07970b831e70,6598e72b77b71480cf78df5a,0.1252,0.1254,1,44,206,115,1,sixeight,,,,,,,,,,,,,,,,,,,,,,,,,,,,,,,,,,,,,,,,,,,,,,,,,,,,,,,,,,,,,,,,,,,,,,,,,,,,,,,,,,,,,,,,,,,,,,,,,,,,,,,,,,,,,,,,,,,,,,,,,,,,,,,,,,,,,,,
,,65715f3336251057f2d1c268,2024-01-05_21h37.58.546,kallum_motion_pilot,2023.2.3,Win32,60.24096386,65715f3336251057f2d1c268,6598e6a5d84f07970b831e70,6598e72b77b71480cf78df5a,0.1255,0.1257,1,45,207,89,1,fiveseven,,,,,,,,,,,,,,,,,,,,,,,,,,,,,,,,,,,,,,,,,,,,,,,,,,,,,,,,,,,,,,,,,,,,,,,,,,,,,,,,,,,,,,,,,,,,,,,,,,,,,,,,,,,,,,,,,,,,,,,,,,,,,,,,,,,,,,,
,,65715f3336251057f2d1c268,2024-01-05_21h37.58.546,kallum_motion_pilot,2023.2.3,Win32,60.24096386,65715f3336251057f2d1c268,6598e6a5d84f07970b831e70,6598e72b77b71480cf78df5a,0.1257,0.1259,1,46,208,138,1,sixfive,,,,,,,,,,,,,,,,,,,,,,,,,,,,,,,,,,,,,,,,,,,,,,,,,,,,,,,,,,,,,,,,,,,,,,,,,,,,,,,,,,,,,,,,,,,,,,,,,,,,,,,,,,,,,,,,,,,,,,,,,,,,,,,,,,,,,,,
,,65715f3336251057f2d1c268,2024-01-05_21h37.58.546,kallum_motion_pilot,2023.2.3,Win32,60.24096386,65715f3336251057f2d1c268,6598e6a5d84f07970b831e70,6598e72b77b71480cf78df5a,0.126,0.1262,1,47,209,159,1,eightseven,,,,,,,,,,,,,,,,,,,,,,,,,,,,,,,,,,,,,,,,,,,,,,,,,,,,,,,,,,,,,,,,,,,,,,,,,,,,,,,,,,,,,,,,,,,,,,,,,,,,,,,,,,,,,,,,,,,,,,,,,,,,,,,,,,,,,,,
,,65715f3336251057f2d1c268,2024-01-05_21h37.58.546,kallum_motion_pilot,2023.2.3,Win32,60.24096386,65715f3336251057f2d1c268,6598e6a5d84f07970b831e70,6598e72b77b71480cf78df5a,0.1265,0.1266,1,48,210,8,1,onetwo,,,,,,,,,,,,,,,,,,,,,,,,,,,,,,,,,,,,,,,,,,,,,,,,,,,,,,,,,,,,,,,,,,,,,,,,,,,,,,,,,,,,,,,,,,,,,,,,,,,,,,,,,,,,,,,,,,,,,,,,,,,,,,,,,,,,,,,
,,65715f3336251057f2d1c268,2024-01-05_21h37.58.546,kallum_motion_pilot,2023.2.3,Win32,60.24096386,65715f3336251057f2d1c268,6598e6a5d84f07970b831e70,6598e72b77b71480cf78df5a,0.1268,0.127,1,49,211,158,1,eightsix,,,,,,,,,,,,,,,,,,,,,,,,,,,,,,,,,,,,,,,,,,,,,,,,,,,,,,,,,,,,,,,,,,,,,,,,,,,,,,,,,,,,,,,,,,,,,,,,,,,,,,,,,,,,,,,,,,,,,,,,,,,,,,,,,,,,,,,
,,65715f3336251057f2d1c268,2024-01-05_21h37.58.546,kallum_motion_pilot,2023.2.3,Win32,60.24096386,65715f3336251057f2d1c268,6598e6a5d84f07970b831e70,6598e72b77b71480cf78df5a,0.1272,0.1273,1,50,212,105,1,fiveseven,,,,,,,,,,,,,,,,,,,,,,,,,,,,,,,,,,,,,,,,,,,,,,,,,,,,,,,,,,,,,,,,,,,,,,,,,,,,,,,,,,,,,,,,,,,,,,,,,,,,,,,,,,,,,,,,,,,,,,,,,,,,,,,,,,,,,,,
,,65715f3336251057f2d1c268,2024-01-05_21h37.58.546,kallum_motion_pilot,2023.2.3,Win32,60.24096386,65715f3336251057f2d1c268,6598e6a5d84f07970b831e70,6598e72b77b71480cf78df5a,0.1275,0.1277,1,51,213,136,1,fivesix,,,,,,,,,,,,,,,,,,,,,,,,,,,,,,,,,,,,,,,,,,,,,,,,,,,,,,,,,,,,,,,,,,,,,,,,,,,,,,,,,,,,,,,,,,,,,,,,,,,,,,,,,,,,,,,,,,,,,,,,,,,,,,,,,,,,,,,
,,65715f3336251057f2d1c268,2024-01-05_21h37.58.546,kallum_motion_pilot,2023.2.3,Win32,60.24096386,65715f3336251057f2d1c268,6598e6a5d84f07970b831e70,6598e72b77b71480cf78df5a,0.1278,0.128,1,52,214,114,1,sixfive,,,,,,,,,,,,,,,,,,,,,,,,,,,,,,,,,,,,,,,,,,,,,,,,,,,,,,,,,,,,,,,,,,,,,,,,,,,,,,,,,,,,,,,,,,,,,,,,,,,,,,,,,,,,,,,,,,,,,,,,,,,,,,,,,,,,,,,
,,65715f3336251057f2d1c268,2024-01-05_21h37.58.546,kallum_motion_pilot,2023.2.3,Win32,60.24096386,65715f3336251057f2d1c268,6598e6a5d84f07970b831e70,6598e72b77b71480cf78df5a,0.1281,0.1282,1,53,215,72,1,onetwo,,,,,,,,,,,,,,,,,,,,,,,,,,,,,,,,,,,,,,,,,,,,,,,,,,,,,,,,,,,,,,,,,,,,,,,,,,,,,,,,,,,,,,,,,,,,,,,,,,,,,,,,,,,,,,,,,,,,,,,,,,,,,,,,,,,,,,,
,,65715f3336251057f2d1c268,2024-01-05_21h37.58.546,kallum_motion_pilot,2023.2.3,Win32,60.24096386,65715f3336251057f2d1c268,6598e6a5d84f07970b831e70,6598e72b77b71480cf78df5a,0.1284,0.1286,1,54,216,4,1,threeone,,,,,,,,,,,,,,,,,,,,,,,,,,,,,,,,,,,,,,,,,,,,,,,,,,,,,,,,,,,,,,,,,,,,,,,,,,,,,,,,,,,,,,,,,,,,,,,,,,,,,,,,,,,,,,,,,,,,,,,,,,,,,,,,,,,,,,,
,,65715f3336251057f2d1c268,2024-01-05_21h37.58.546,kallum_motion_pilot,2023.2.3,Win32,60.24096386,65715f3336251057f2d1c268,6598e6a5d84f07970b831e70,6598e72b77b71480cf78df5a,0.1289,0.129,1,55,217,34,1,twoone,,,,,,,,,,,,,,,,,,,,,,,,,,,,,,,,,,,,,,,,,,,,,,,,,,,,,,,,,,,,,,,,,,,,,,,,,,,,,,,,,,,,,,,,,,,,,,,,,,,,,,,,,,,,,,,,,,,,,,,,,,,,,,,,,,,,,,,
,,65715f3336251057f2d1c268,2024-01-05_21h37.58.546,kallum_motion_pilot,2023.2.3,Win32,60.24096386,65715f3336251057f2d1c268,6598e6a5d84f07970b831e70,6598e72b77b71480cf78df5a,0.1293,0.1294,1,56,218,112,1,fivesix,,,,,,,,,,,,,,,,,,,,,,,,,,,,,,,,,,,,,,,,,,,,,,,,,,,,,,,,,,,,,,,,,,,,,,,,,,,,,,,,,,,,,,,,,,,,,,,,,,,,,,,,,,,,,,,,,,,,,,,,,,,,,,,,,,,,,,,
,,65715f3336251057f2d1c268,2024-01-05_21h37.58.546,kallum_motion_pilot,2023.2.3,Win32,60.24096386,65715f3336251057f2d1c268,6598e6a5d84f07970b831e70,6598e72b77b71480cf78df5a,0.1295,0.1297,1,57,219,157,1,seveneight,,,,,,,,,,,,,,,,,,,,,,,,,,,,,,,,,,,,,,,,,,,,,,,,,,,,,,,,,,,,,,,,,,,,,,,,,,,,,,,,,,,,,,,,,,,,,,,,,,,,,,,,,,,,,,,,,,,,,,,,,,,,,,,,,,,,,,,
,,65715f3336251057f2d1c268,2024-01-05_21h37.58.546,kallum_motion_pilot,2023.2.3,Win32,60.24096386,65715f3336251057f2d1c268,6598e6a5d84f07970b831e70,6598e72b77b71480cf78df5a,0.1298,0.13,1,58,220,154,1,sixfive,,,,,,,,,,,,,,,,,,,,,,,,,,,,,,,,,,,,,,,,,,,,,,,,,,,,,,,,,,,,,,,,,,,,,,,,,,,,,,,,,,,,,,,,,,,,,,,,,,,,,,,,,,,,,,,,,,,,,,,,,,,,,,,,,,,,,,,
,,65715f3336251057f2d1c268,2024-01-05_21h37.58.546,kallum_motion_pilot,2023.2.3,Win32,60.24096386,65715f3336251057f2d1c268,6598e6a5d84f07970b831e70,6598e72b77b71480cf78df5a,0.1302,0.1304,1,59,221,109,1,seveneight,,,,,,,,,,,,,,,,,,,,,,,,,,,,,,,,,,,,,,,,,,,,,,,,,,,,,,,,,,,,,,,,,,,,,,,,,,,,,,,,,,,,,,,,,,,,,,,,,,,,,,,,,,,,,,,,,,,,,,,,,,,,,,,,,,,,,,,
,,65715f3336251057f2d1c268,2024-01-05_21h37.58.546,kallum_motion_pilot,2023.2.3,Win32,60.24096386,65715f3336251057f2d1c268,6598e6a5d84f07970b831e70,6598e72b77b71480cf78df5a,0.1306,0.1309,1,60,222,106,1,sixfive,,,,,,,,,,,,,,,,,,,,,,,,,,,,,,,,,,,,,,,,,,,,,,,,,,,,,,,,,,,,,,,,,,,,,,,,,,,,,,,,,,,,,,,,,,,,,,,,,,,,,,,,,,,,,,,,,,,,,,,,,,,,,,,,,,,,,,,
,,65715f3336251057f2d1c268,2024-01-05_21h37.58.546,kallum_motion_pilot,2023.2.3,Win32,60.24096386,65715f3336251057f2d1c268,6598e6a5d84f07970b831e70,6598e72b77b71480cf78df5a,0.1311,0.1312,1,61,223,13,1,threefour,,,,,,,,,,,,,,,,,,,,,,,,,,,,,,,,,,,,,,,,,,,,,,,,,,,,,,,,,,,,,,,,,,,,,,,,,,,,,,,,,,,,,,,,,,,,,,,,,,,,,,,,,,,,,,,,,,,,,,,,,,,,,,,,,,,,,,,
,,65715f3336251057f2d1c268,2024-01-05_21h37.58.546,kallum_motion_pilot,2023.2.3,Win32,60.24096386,65715f3336251057f2d1c268,6598e6a5d84f07970b831e70,6598e72b77b71480cf78df5a,0.1315,0.1316,1,62,224,12,1,threeone,,,,,,,,,,,,,,,,,,,,,,,,,,,,,,,,,,,,,,,,,,,,,,,,,,,,,,,,,,,,,,,,,,,,,,,,,,,,,,,,,,,,,,,,,,,,,,,,,,,,,,,,,,,,,,,,,,,,,,,,,,,,,,,,,,,,,,,
,,65715f3336251057f2d1c268,2024-01-05_21h37.58.546,kallum_motion_pilot,2023.2.3,Win32,60.24096386,65715f3336251057f2d1c268,6598e6a5d84f07970b831e70,6598e72b77b71480cf78df5a,0.1318,0.1319,1,63,225,147,1,sixeight,,,,,,,,,,,,,,,,,,,,,,,,,,,,,,,,,,,,,,,,,,,,,,,,,,,,,,,,,,,,,,,,,,,,,,,,,,,,,,,,,,,,,,,,,,,,,,,,,,,,,,,,,,,,,,,,,,,,,,,,,,,,,,,,,,,,,,,
,,65715f3336251057f2d1c268,2024-01-05_21h37.58.546,kallum_motion_pilot,2023.2.3,Win32,60.24096386,65715f3336251057f2d1c268,6598e6a5d84f07970b831e70,6598e72b77b71480cf78df5a,0.1321,0.1322,1,64,226,83,1,sixeight,,,,,,,,,,,,,,,,,,,,,,,,,,,,,,,,,,,,,,,,,,,,,,,,,,,,,,,,,,,,,,,,,,,,,,,,,,,,,,,,,,,,,,,,,,,,,,,,,,,,,,,,,,,,,,,,,,,,,,,,,,,,,,,,,,,,,,,
,,65715f3336251057f2d1c268,2024-01-05_21h37.58.546,kallum_motion_pilot,2023.2.3,Win32,60.24096386,65715f3336251057f2d1c268,6598e6a5d84f07970b831e70,6598e72b77b71480cf78df5a,0.1324,0.1325,1,65,227,135,1,eightseven,,,,,,,,,,,,,,,,,,,,,,,,,,,,,,,,,,,,,,,,,,,,,,,,,,,,,,,,,,,,,,,,,,,,,,,,,,,,,,,,,,,,,,,,,,,,,,,,,,,,,,,,,,,,,,,,,,,,,,,,,,,,,,,,,,,,,,,
,,65715f3336251057f2d1c268,2024-01-05_21h37.58.546,kallum_motion_pilot,2023.2.3,Win32,60.24096386,65715f3336251057f2d1c268,6598e6a5d84f07970b831e70,6598e72b77b71480cf78df5a,0.1328,0.1328,1,66,228,104,1,fivesix,,,,,,,,,,,,,,,,,,,,,,,,,,,,,,,,,,,,,,,,,,,,,,,,,,,,,,,,,,,,,,,,,,,,,,,,,,,,,,,,,,,,,,,,,,,,,,,,,,,,,,,,,,,,,,,,,,,,,,,,,,,,,,,,,,,,,,,
,,65715f3336251057f2d1c268,2024-01-05_21h37.58.546,kallum_motion_pilot,2023.2.3,Win32,60.24096386,65715f3336251057f2d1c268,6598e6a5d84f07970b831e70,6598e72b77b71480cf78df5a,0.1331,0.1332,1,67,229,1,1,onethree,,,,,,,,,,,,,,,,,,,,,,,,,,,,,,,,,,,,,,,,,,,,,,,,,,,,,,,,,,,,,,,,,,,,,,,,,,,,,,,,,,,,,,,,,,,,,,,,,,,,,,,,,,,,,,,,,,,,,,,,,,,,,,,,,,,,,,,
,,65715f3336251057f2d1c268,2024-01-05_21h37.58.546,kallum_motion_pilot,2023.2.3,Win32,60.24096386,65715f3336251057f2d1c268,6598e6a5d84f07970b831e70,6598e72b77b71480cf78df5a,0.1334,0.1336,1,68,230,88,1,fivesix,,,,,,,,,,,,,,,,,,,,,,,,,,,,,,,,,,,,,,,,,,,,,,,,,,,,,,,,,,,,,,,,,,,,,,,,,,,,,,,,,,,,,,,,,,,,,,,,,,,,,,,,,,,,,,,,,,,,,,,,,,,,,,,,,,,,,,,
,,65715f3336251057f2d1c268,2024-01-05_21h37.58.546,kallum_motion_pilot,2023.2.3,Win32,60.24096386,65715f3336251057f2d1c268,6598e6a5d84f07970b831e70,6598e72b77b71480cf78df5a,0.1338,0.134,1,69,231,38,1,fourtwo,,,,,,,,,,,,,,,,,,,,,,,,,,,,,,,,,,,,,,,,,,,,,,,,,,,,,,,,,,,,,,,,,,,,,,,,,,,,,,,,,,,,,,,,,,,,,,,,,,,,,,,,,,,,,,,,,,,,,,,,,,,,,,,,,,,,,,,
,,65715f3336251057f2d1c268,2024-01-05_21h37.58.546,kallum_motion_pilot,2023.2.3,Win32,60.24096386,65715f3336251057f2d1c268,6598e6a5d84f07970b831e70,6598e72b77b71480cf78df5a,0.1342,0.1344,1,70,232,61,1,threefour,,,,,,,,,,,,,,,,,,,,,,,,,,,,,,,,,,,,,,,,,,,,,,,,,,,,,,,,,,,,,,,,,,,,,,,,,,,,,,,,,,,,,,,,,,,,,,,,,,,,,,,,,,,,,,,,,,,,,,,,,,,,,,,,,,,,,,,
,,65715f3336251057f2d1c268,2024-01-05_21h37.58.546,kallum_motion_pilot,2023.2.3,Win32,60.24096386,65715f3336251057f2d1c268,6598e6a5d84f07970b831e70,6598e72b77b71480cf78df5a,0.1347,0.1348,1,71,233,123,1,sixeight,,,,,,,,,,,,,,,,,,,,,,,,,,,,,,,,,,,,,,,,,,,,,,,,,,,,,,,,,,,,,,,,,,,,,,,,,,,,,,,,,,,,,,,,,,,,,,,,,,,,,,,,,,,,,,,,,,,,,,,,,,,,,,,,,,,,,,,
,,65715f3336251057f2d1c268,2024-01-05_21h37.58.546,kallum_motion_pilot,2023.2.3,Win32,60.24096386,65715f3336251057f2d1c268,6598e6a5d84f07970b831e70,6598e72b77b71480cf78df5a,0.135,0.1353,1,72,234,151,1,eightseven,,,,,,,,,,,,,,,,,,,,,,,,,,,,,,,,,,,,,,,,,,,,,,,,,,,,,,,,,,,,,,,,,,,,,,,,,,,,,,,,,,,,,,,,,,,,,,,,,,,,,,,,,,,,,,,,,,,,,,,,,,,,,,,,,,,,,,,
,,65715f3336251057f2d1c268,2024-01-05_21h37.58.546,kallum_motion_pilot,2023.2.3,Win32,60.24096386,65715f3336251057f2d1c268,6598e6a5d84f07970b831e70,6598e72b77b71480cf78df5a,0.1354,0.1356,1,73,235,124,1,sevenfive,,,,,,,,,,,,,,,,,,,,,,,,,,,,,,,,,,,,,,,,,,,,,,,,,,,,,,,,,,,,,,,,,,,,,,,,,,,,,,,,,,,,,,,,,,,,,,,,,,,,,,,,,,,,,,,,,,,,,,,,,,,,,,,,,,,,,,,
,,65715f3336251057f2d1c268,2024-01-05_21h37.58.546,kallum_motion_pilot,2023.2.3,Win32,60.24096386,65715f3336251057f2d1c268,6598e6a5d84f07970b831e70,6598e72b77b71480cf78df5a,0.1358,0.1361,1,74,236,75,1,twofour,,,,,,,,,,,,,,,,,,,,,,,,,,,,,,,,,,,,,,,,,,,,,,,,,,,,,,,,,,,,,,,,,,,,,,,,,,,,,,,,,,,,,,,,,,,,,,,,,,,,,,,,,,,,,,,,,,,,,,,,,,,,,,,,,,,,,,,
,,65715f3336251057f2d1c268,2024-01-05_21h37.58.546,kallum_motion_pilot,2023.2.3,Win32,60.24096386,65715f3336251057f2d1c268,6598e6a5d84f07970b831e70,6598e72b77b71480cf78df5a,0.1363,0.1365,1,75,237,107,1,sixeight,,,,,,,,,,,,,,,,,,,,,,,,,,,,,,,,,,,,,,,,,,,,,,,,,,,,,,,,,,,,,,,,,,,,,,,,,,,,,,,,,,,,,,,,,,,,,,,,,,,,,,,,,,,,,,,,,,,,,,,,,,,,,,,,,,,,,,,
,,65715f3336251057f2d1c268,2024-01-05_21h37.58.546,kallum_motion_pilot,2023.2.3,Win32,60.24096386,65715f3336251057f2d1c268,6598e6a5d84f07970b831e70,6598e72b77b71480cf78df5a,0.1367,0.1369,1,76,238,26,1,twoone,,,,,,,,,,,,,,,,,,,,,,,,,,,,,,,,,,,,,,,,,,,,,,,,,,,,,,,,,,,,,,,,,,,,,,,,,,,,,,,,,,,,,,,,,,,,,,,,,,,,,,,,,,,,,,,,,,,,,,,,,,,,,,,,,,,,,,,
,,65715f3336251057f2d1c268,2024-01-05_21h37.58.546,kallum_motion_pilot,2023.2.3,Win32,60.24096386,65715f3336251057f2d1c268,6598e6a5d84f07970b831e70,6598e72b77b71480cf78df5a,0.1371,0.1373,1,77,239,41,1,onethree,,,,,,,,,,,,,,,,,,,,,,,,,,,,,,,,,,,,,,,,,,,,,,,,,,,,,,,,,,,,,,,,,,,,,,,,,,,,,,,,,,,,,,,,,,,,,,,,,,,,,,,,,,,,,,,,,,,,,,,,,,,,,,,,,,,,,,,
,,65715f3336251057f2d1c268,2024-01-05_21h37.58.546,kallum_motion_pilot,2023.2.3,Win32,60.24096386,65715f3336251057f2d1c268,6598e6a5d84f07970b831e70,6598e72b77b71480cf78df5a,0.1375,0.1378,1,78,240,3,1,twofour,,,,,,,,,,,,,,,,,,,,,,,,,,,,,,,,,,,,,,,,,,,,,,,,,,,,,,,,,,,,,,,,,,,,,,,,,,,,,,,,,,,,,,,,,,,,,,,,,,,,,,,,,,,,,,,,,,,,,,,,,,,,,,,,,,,,,,,
,,65715f3336251057f2d1c268,2024-01-05_21h37.58.546,kallum_motion_pilot,2023.2.3,Win32,60.24096386,65715f3336251057f2d1c268,6598e6a5d84f07970b831e70,6598e72b77b71480cf78df5a,0.138,0.1382,1,79,241,127,1,eightseven,,,,,,,,,,,,,,,,,,,,,,,,,,,,,,,,,,,,,,,,,,,,,,,,,,,,,,,,,,,,,,,,,,,,,,,,,,,,,,,,,,,,,,,,,,,,,,,,,,,,,,,,,,,,,,,,,,,,,,,,,,,,,,,,,,,,,,,
,,65715f3336251057f2d1c268,2024-01-05_21h37.58.546,kallum_motion_pilot,2023.2.3,Win32,60.24096386,65715f3336251057f2d1c268,6598e6a5d84f07970b831e70,6598e72b77b71480cf78df5a,0.1384,0.1386,1,80,242,55,1,fourthree,,,,,,,,,,,,,,,,,,,,,,,,,,,,,,,,,,,,,,,,,,,,,,,,,,,,,,,,,,,,,,,,,,,,,,,,,,,,,,,,,,,,,,,,,,,,,,,,,,,,,,,,,,,,,,,,,,,,,,,,,,,,,,,,,,,,,,,
,,65715f3336251057f2d1c268,2024-01-05_21h37.58.546,kallum_motion_pilot,2023.2.3,Win32,60.24096386,65715f3336251057f2d1c268,6598e6a5d84f07970b831e70,6598e72b77b71480cf78df5a,0.1388,0.1391,1,81,243,53,1,threefour,,,,,,,,,,,,,,,,,,,,,,,,,,,,,,,,,,,,,,,,,,,,,,,,,,,,,,,,,,,,,,,,,,,,,,,,,,,,,,,,,,,,,,,,,,,,,,,,,,,,,,,,,,,,,,,,,,,,,,,,,,,,,,,,,,,,,,,
,,65715f3336251057f2d1c268,2024-01-05_21h37.58.546,kallum_motion_pilot,2023.2.3,Win32,60.24096386,65715f3336251057f2d1c268,6598e6a5d84f07970b831e70,6598e72b77b71480cf78df5a,0.1392,0.1395,1,82,244,60,1,threeone,,,,,,,,,,,,,,,,,,,,,,,,,,,,,,,,,,,,,,,,,,,,,,,,,,,,,,,,,,,,,,,,,,,,,,,,,,,,,,,,,,,,,,,,,,,,,,,,,,,,,,,,,,,,,,,,,,,,,,,,,,,,,,,,,,,,,,,
,,65715f3336251057f2d1c268,2024-01-05_21h37.58.546,kallum_motion_pilot,2023.2.3,Win32,60.24096386,65715f3336251057f2d1c268,6598e6a5d84f07970b831e70,6598e72b77b71480cf78df5a,0.1396,0.1399,1,83,245,96,1,fivesix,,,,,,,,,,,,,,,,,,,,,,,,,,,,,,,,,,,,,,,,,,,,,,,,,,,,,,,,,,,,,,,,,,,,,,,,,,,,,,,,,,,,,,,,,,,,,,,,,,,,,,,,,,,,,,,,,,,,,,,,,,,,,,,,,,,,,,,
,,65715f3336251057f2d1c268,2024-01-05_21h37.58.546,kallum_motion_pilot,2023.2.3,Win32,60.24096386,65715f3336251057f2d1c268,6598e6a5d84f07970b831e70,6598e72b77b71480cf78df5a,0.1401,0.1403,1,84,246,20,1,threeone,,,,,,,,,,,,,,,,,,,,,,,,,,,,,,,,,,,,,,,,,,,,,,,,,,,,,,,,,,,,,,,,,,,,,,,,,,,,,,,,,,,,,,,,,,,,,,,,,,,,,,,,,,,,,,,,,,,,,,,,,,,,,,,,,,,,,,,
,,65715f3336251057f2d1c268,2024-01-05_21h37.58.546,kallum_motion_pilot,2023.2.3,Win32,60.24096386,65715f3336251057f2d1c268,6598e6a5d84f07970b831e70,6598e72b77b71480cf78df5a,0.1405,0.1408,1,85,247,102,1,eightsix,,,,,,,,,,,,,,,,,,,,,,,,,,,,,,,,,,,,,,,,,,,,,,,,,,,,,,,,,,,,,,,,,,,,,,,,,,,,,,,,,,,,,,,,,,,,,,,,,,,,,,,,,,,,,,,,,,,,,,,,,,,,,,,,,,,,,,,
,,65715f3336251057f2d1c268,2024-01-05_21h37.58.546,kallum_motion_pilot,2023.2.3,Win32,60.24096386,65715f3336251057f2d1c268,6598e6a5d84f07970b831e70,6598e72b77b71480cf78df5a,0.141,0.1412,1,86,248,35,1,twofour,,,,,,,,,,,,,,,,,,,,,,,,,,,,,,,,,,,,,,,,,,,,,,,,,,,,,,,,,,,,,,,,,,,,,,,,,,,,,,,,,,,,,,,,,,,,,,,,,,,,,,,,,,,,,,,,,,,,,,,,,,,,,,,,,,,,,,,
,,65715f3336251057f2d1c268,2024-01-05_21h37.58.546,kallum_motion_pilot,2023.2.3,Win32,60.24096386,65715f3336251057f2d1c268,6598e6a5d84f07970b831e70,6598e72b77b71480cf78df5a,0.1415,0.1417,1,87,249,125,1,seveneight,,,,,,,,,,,,,,,,,,,,,,,,,,,,,,,,,,,,,,,,,,,,,,,,,,,,,,,,,,,,,,,,,,,,,,,,,,,,,,,,,,,,,,,,,,,,,,,,,,,,,,,,,,,,,,,,,,,,,,,,,,,,,,,,,,,,,,,
,,65715f3336251057f2d1c268,2024-01-05_21h37.58.546,kallum_motion_pilot,2023.2.3,Win32,60.24096386,65715f3336251057f2d1c268,6598e6a5d84f07970b831e70,6598e72b77b71480cf78df5a,0.1419,0.1421,1,88,250,56,1,onetwo,,,,,,,,,,,,,,,,,,,,,,,,,,,,,,,,,,,,,,,,,,,,,,,,,,,,,,,,,,,,,,,,,,,,,,,,,,,,,,,,,,,,,,,,,,,,,,,,,,,,,,,,,,,,,,,,,,,,,,,,,,,,,,,,,,,,,,,
,,65715f3336251057f2d1c268,2024-01-05_21h37.58.546,kallum_motion_pilot,2023.2.3,Win32,60.24096386,65715f3336251057f2d1c268,6598e6a5d84f07970b831e70,6598e72b77b71480cf78df5a,0.1423,0.1426,1,89,251,85,1,seveneight,,,,,,,,,,,,,,,,,,,,,,,,,,,,,,,,,,,,,,,,,,,,,,,,,,,,,,,,,,,,,,,,,,,,,,,,,,,,,,,,,,,,,,,,,,,,,,,,,,,,,,,,,,,,,,,,,,,,,,,,,,,,,,,,,,,,,,,
,,65715f3336251057f2d1c268,2024-01-05_21h37.58.546,kallum_motion_pilot,2023.2.3,Win32,60.24096386,65715f3336251057f2d1c268,6598e6a5d84f07970b831e70,6598e72b77b71480cf78df5a,0.1428,0.143,1,90,252,43,1,twofour,,,,,,,,,,,,,,,,,,,,,,,,,,,,,,,,,,,,,,,,,,,,,,,,,,,,,,,,,,,,,,,,,,,,,,,,,,,,,,,,,,,,,,,,,,,,,,,,,,,,,,,,,,,,,,,,,,,,,,,,,,,,,,,,,,,,,,,
,,65715f3336251057f2d1c268,2024-01-05_21h37.58.546,kallum_motion_pilot,2023.2.3,Win32,60.24096386,65715f3336251057f2d1c268,6598e6a5d84f07970b831e70,6598e72b77b71480cf78df5a,0.1432,0.1434,1,91,253,39,1,fourthree,,,,,,,,,,,,,,,,,,,,,,,,,,,,,,,,,,,,,,,,,,,,,,,,,,,,,,,,,,,,,,,,,,,,,,,,,,,,,,,,,,,,,,,,,,,,,,,,,,,,,,,,,,,,,,,,,,,,,,,,,,,,,,,,,,,,,,,
,,65715f3336251057f2d1c268,2024-01-05_21h37.58.546,kallum_motion_pilot,2023.2.3,Win32,60.24096386,65715f3336251057f2d1c268,6598e6a5d84f07970b831e70,6598e72b77b71480cf78df5a,0.1437,0.1439,1,92,254,119,1,eightseven,,,,,,,,,,,,,,,,,,,,,,,,,,,,,,,,,,,,,,,,,,,,,,,,,,,,,,,,,,,,,,,,,,,,,,,,,,,,,,,,,,,,,,,,,,,,,,,,,,,,,,,,,,,,,,,,,,,,,,,,,,,,,,,,,,,,,,,
,,65715f3336251057f2d1c268,2024-01-05_21h37.58.546,kallum_motion_pilot,2023.2.3,Win32,60.24096386,65715f3336251057f2d1c268,6598e6a5d84f07970b831e70,6598e72b77b71480cf78df5a,0.1443,0.1446,1,93,255,152,1,fivesix,,,,,,,,,,,,,,,,,,,,,,,,,,,,,,,,,,,,,,,,,,,,,,,,,,,,,,,,,,,,,,,,,,,,,,,,,,,,,,,,,,,,,,,,,,,,,,,,,,,,,,,,,,,,,,,,,,,,,,,,,,,,,,,,,,,,,,,
,,65715f3336251057f2d1c268,2024-01-05_21h37.58.546,kallum_motion_pilot,2023.2.3,Win32,60.24096386,65715f3336251057f2d1c268,6598e6a5d84f07970b831e70,6598e72b77b71480cf78df5a,0.1448,0.145,1,94,256,146,1,sixfive,,,,,,,,,,,,,,,,,,,,,,,,,,,,,,,,,,,,,,,,,,,,,,,,,,,,,,,,,,,,,,,,,,,,,,,,,,,,,,,,,,,,,,,,,,,,,,,,,,,,,,,,,,,,,,,,,,,,,,,,,,,,,,,,,,,,,,,
,,65715f3336251057f2d1c268,2024-01-05_21h37.58.546,kallum_motion_pilot,2023.2.3,Win32,60.24096386,65715f3336251057f2d1c268,6598e6a5d84f07970b831e70,6598e72b77b71480cf78df5a,0.1455,0.1457,1,95,257,47,1,fourthree,,,,,,,,,,,,,,,,,,,,,,,,,,,,,,,,,,,,,,,,,,,,,,,,,,,,,,,,,,,,,,,,,,,,,,,,,,,,,,,,,,,,,,,,,,,,,,,,,,,,,,,,,,,,,,,,,,,,,,,,,,,,,,,,,,,,,,,
,,65715f3336251057f2d1c268,2024-01-05_21h37.58.546,kallum_motion_pilot,2023.2.3,Win32,60.24096386,65715f3336251057f2d1c268,6598e6a5d84f07970b831e70,6598e72b77b71480cf78df5a,0.1459,0.1462,1,96,258,161,1,fiveseven,,,,,,,,,,,,,,,,,,,,,,,,,,,,,,,,,,,,,,,,,,,,,,,,,,,,,,,,,,,,,,,,,,,,,,,,,,,,,,,,,,,,,,,,,,,,,,,,,,,,,,,,,,,,,,,,,,,,,,,,,,,,,,,,,,,,,,,
,,65715f3336251057f2d1c268,2024-01-05_21h37.58.546,kallum_motion_pilot,2023.2.3,Win32,60.24096386,65715f3336251057f2d1c268,6598e6a5d84f07970b831e70,6598e72b77b71480cf78df5a,0.1463,0.1465,1,97,259,59,1,twofour,,,,,,,,,,,,,,,,,,,,,,,,,,,,,,,,,,,,,,,,,,,,,,,,,,,,,,,,,,,,,,,,,,,,,,,,,,,,,,,,,,,,,,,,,,,,,,,,,,,,,,,,,,,,,,,,,,,,,,,,,,,,,,,,,,,,,,,
,,65715f3336251057f2d1c268,2024-01-05_21h37.58.546,kallum_motion_pilot,2023.2.3,Win32,60.24096386,65715f3336251057f2d1c268,6598e6a5d84f07970b831e70,6598e72b77b71480cf78df5a,0.1468,0.1471,1,98,260,91,1,sixeight,,,,,,,,,,,,,,,,,,,,,,,,,,,,,,,,,,,,,,,,,,,,,,,,,,,,,,,,,,,,,,,,,,,,,,,,,,,,,,,,,,,,,,,,,,,,,,,,,,,,,,,,,,,,,,,,,,,,,,,,,,,,,,,,,,,,,,,
,,65715f3336251057f2d1c268,2024-01-05_21h37.58.546,kallum_motion_pilot,2023.2.3,Win32,60.24096386,65715f3336251057f2d1c268,6598e6a5d84f07970b831e70,6598e72b77b71480cf78df5a,0.1472,0.1474,1,99,261,51,1,twofour,,,,,,,,,,,,,,,,,,,,,,,,,,,,,,,,,,,,,,,,,,,,,,,,,,,,,,,,,,,,,,,,,,,,,,,,,,,,,,,,,,,,,,,,,,,,,,,,,,,,,,,,,,,,,,,,,,,,,,,,,,,,,,,,,,,,,,,
,,65715f3336251057f2d1c268,2024-01-05_21h37.58.546,kallum_motion_pilot,2023.2.3,Win32,60.24096386,65715f3336251057f2d1c268,6598e6a5d84f07970b831e70,6598e72b77b71480cf78df5a,0.1477,0.1479,1,100,262,63,1,fourthree,,,,,,,,,,,,,,,,,,,,,,,,,,,,,,,,,,,,,,,,,,,,,,,,,,,,,,,,,,,,,,,,,,,,,,,,,,,,,,,,,,,,,,,,,,,,,,,,,,,,,,,,,,,,,,,,,,,,,,,,,,,,,,,,,,,,,,,
,,65715f3336251057f2d1c268,2024-01-05_21h37.58.546,kallum_motion_pilot,2023.2.3,Win32,60.24096386,65715f3336251057f2d1c268,6598e6a5d84f07970b831e70,6598e72b77b71480cf78df5a,0.1482,0.1484,1,101,263,90,1,sixfive,,,,,,,,,,,,,,,,,,,,,,,,,,,,,,,,,,,,,,,,,,,,,,,,,,,,,,,,,,,,,,,,,,,,,,,,,,,,,,,,,,,,,,,,,,,,,,,,,,,,,,,,,,,,,,,,,,,,,,,,,,,,,,,,,,,,,,,
,,65715f3336251057f2d1c268,2024-01-05_21h37.58.546,kallum_motion_pilot,2023.2.3,Win32,60.24096386,65715f3336251057f2d1c268,6598e6a5d84f07970b831e70,6598e72b77b71480cf78df5a,0.1487,0.1489,1,102,264,31,1,fourthree,,,,,,,,,,,,,,,,,,,,,,,,,,,,,,,,,,,,,,,,,,,,,,,,,,,,,,,,,,,,,,,,,,,,,,,,,,,,,,,,,,,,,,,,,,,,,,,,,,,,,,,,,,,,,,,,,,,,,,,,,,,,,,,,,,,,,,,
,,65715f3336251057f2d1c268,2024-01-05_21h37.58.546,kallum_motion_pilot,2023.2.3,Win32,60.24096386,65715f3336251057f2d1c268,6598e6a5d84f07970b831e70,6598e72b77b71480cf78df5a,0.1492,0.1494,1,103,265,160,1,fivesix,,,,,,,,,,,,,,,,,,,,,,,,,,,,,,,,,,,,,,,,,,,,,,,,,,,,,,,,,,,,,,,,,,,,,,,,,,,,,,,,,,,,,,,,,,,,,,,,,,,,,,,,,,,,,,,,,,,,,,,,,,,,,,,,,,,,,,,
,,65715f3336251057f2d1c268,2024-01-05_21h37.58.546,kallum_motion_pilot,2023.2.3,Win32,60.24096386,65715f3336251057f2d1c268,6598e6a5d84f07970b831e70,6598e72b77b71480cf78df5a,0.1497,0.1499,1,104,266,131,1,sixeight,,,,,,,,,,,,,,,,,,,,,,,,,,,,,,,,,,,,,,,,,,,,,,,,,,,,,,,,,,,,,,,,,,,,,,,,,,,,,,,,,,,,,,,,,,,,,,,,,,,,,,,,,,,,,,,,,,,,,,,,,,,,,,,,,,,,,,,
,,65715f3336251057f2d1c268,2024-01-05_21h37.58.546,kallum_motion_pilot,2023.2.3,Win32,60.24096386,65715f3336251057f2d1c268,6598e6a5d84f07970b831e70,6598e72b77b71480cf78df5a,0.15,0.1502,1,105,267,132,1,sevenfive,,,,,,,,,,,,,,,,,,,,,,,,,,,,,,,,,,,,,,,,,,,,,,,,,,,,,,,,,,,,,,,,,,,,,,,,,,,,,,,,,,,,,,,,,,,,,,,,,,,,,,,,,,,,,,,,,,,,,,,,,,,,,,,,,,,,,,,
,,65715f3336251057f2d1c268,2024-01-05_21h37.58.546,kallum_motion_pilot,2023.2.3,Win32,60.24096386,65715f3336251057f2d1c268,6598e6a5d84f07970b831e70,6598e72b77b71480cf78df5a,0.1504,0.1507,1,106,268,101,1,seveneight,,,,,,,,,,,,,,,,,,,,,,,,,,,,,,,,,,,,,,,,,,,,,,,,,,,,,,,,,,,,,,,,,,,,,,,,,,,,,,,,,,,,,,,,,,,,,,,,,,,,,,,,,,,,,,,,,,,,,,,,,,,,,,,,,,,,,,,
,,65715f3336251057f2d1c268,2024-01-05_21h37.58.546,kallum_motion_pilot,2023.2.3,Win32,60.24096386,65715f3336251057f2d1c268,6598e6a5d84f07970b831e70,6598e72b77b71480cf78df5a,0.1509,0.1511,1,107,269,80,1,fivesix,,,,,,,,,,,,,,,,,,,,,,,,,,,,,,,,,,,,,,,,,,,,,,,,,,,,,,,,,,,,,,,,,,,,,,,,,,,,,,,,,,,,,,,,,,,,,,,,,,,,,,,,,,,,,,,,,,,,,,,,,,,,,,,,,,,,,,,
,,65715f3336251057f2d1c268,2024-01-05_21h37.58.546,kallum_motion_pilot,2023.2.3,Win32,60.24096386,65715f3336251057f2d1c268,6598e6a5d84f07970b831e70,6598e72b77b71480cf78df5a,0.1513,0.1515,1,108,270,6,1,fourtwo,,,,,,,,,,,,,,,,,,,,,,,,,,,,,,,,,,,,,,,,,,,,,,,,,,,,,,,,,,,,,,,,,,,,,,,,,,,,,,,,,,,,,,,,,,,,,,,,,,,,,,,,,,,,,,,,,,,,,,,,,,,,,,,,,,,,,,,
,,65715f3336251057f2d1c268,2024-01-05_21h37.58.546,kallum_motion_pilot,2023.2.3,Win32,60.24096386,65715f3336251057f2d1c268,6598e6a5d84f07970b831e70,6598e72b77b71480cf78df5a,0.1516,0.1518,1,109,271,66,1,twoone,,,,,,,,,,,,,,,,,,,,,,,,,,,,,,,,,,,,,,,,,,,,,,,,,,,,,,,,,,,,,,,,,,,,,,,,,,,,,,,,,,,,,,,,,,,,,,,,,,,,,,,,,,,,,,,,,,,,,,,,,,,,,,,,,,,,,,,
,,65715f3336251057f2d1c268,2024-01-05_21h37.58.546,kallum_motion_pilot,2023.2.3,Win32,60.24096386,65715f3336251057f2d1c268,6598e6a5d84f07970b831e70,6598e72b77b71480cf78df5a,0.152,0.1522,1,110,272,21,1,threefour,,,,,,,,,,,,,,,,,,,,,,,,,,,,,,,,,,,,,,,,,,,,,,,,,,,,,,,,,,,,,,,,,,,,,,,,,,,,,,,,,,,,,,,,,,,,,,,,,,,,,,,,,,,,,,,,,,,,,,,,,,,,,,,,,,,,,,,
,,65715f3336251057f2d1c268,2024-01-05_21h37.58.546,kallum_motion_pilot,2023.2.3,Win32,60.24096386,65715f3336251057f2d1c268,6598e6a5d84f07970b831e70,6598e72b77b71480cf78df5a,0.1524,0.1526,1,111,273,93,1,seveneight,,,,,,,,,,,,,,,,,,,,,,,,,,,,,,,,,,,,,,,,,,,,,,,,,,,,,,,,,,,,,,,,,,,,,,,,,,,,,,,,,,,,,,,,,,,,,,,,,,,,,,,,,,,,,,,,,,,,,,,,,,,,,,,,,,,,,,,
,,65715f3336251057f2d1c268,2024-01-05_21h37.58.546,kallum_motion_pilot,2023.2.3,Win32,60.24096386,65715f3336251057f2d1c268,6598e6a5d84f07970b831e70,6598e72b77b71480cf78df5a,0.1527,0.1528,1,112,274,46,1,fourtwo,,,,,,,,,,,,,,,,,,,,,,,,,,,,,,,,,,,,,,,,,,,,,,,,,,,,,,,,,,,,,,,,,,,,,,,,,,,,,,,,,,,,,,,,,,,,,,,,,,,,,,,,,,,,,,,,,,,,,,,,,,,,,,,,,,,,,,,
,,65715f3336251057f2d1c268,2024-01-05_21h37.58.546,kallum_motion_pilot,2023.2.3,Win32,60.24096386,65715f3336251057f2d1c268,6598e6a5d84f07970b831e70,6598e72b77b71480cf78df5a,0.1531,0.1532,1,113,275,37,1,threefour,,,,,,,,,,,,,,,,,,,,,,,,,,,,,,,,,,,,,,,,,,,,,,,,,,,,,,,,,,,,,,,,,,,,,,,,,,,,,,,,,,,,,,,,,,,,,,,,,,,,,,,,,,,,,,,,,,,,,,,,,,,,,,,,,,,,,,,
,,65715f3336251057f2d1c268,2024-01-05_21h37.58.546,kallum_motion_pilot,2023.2.3,Win32,60.24096386,65715f3336251057f2d1c268,6598e6a5d84f07970b831e70,6598e72b77b71480cf78df5a,0.1534,0.1536,1,114,276,14,1,fourtwo,,,,,,,,,,,,,,,,,,,,,,,,,,,,,,,,,,,,,,,,,,,,,,,,,,,,,,,,,,,,,,,,,,,,,,,,,,,,,,,,,,,,,,,,,,,,,,,,,,,,,,,,,,,,,,,,,,,,,,,,,,,,,,,,,,,,,,,
,,65715f3336251057f2d1c268,2024-01-05_21h37.58.546,kallum_motion_pilot,2023.2.3,Win32,60.24096386,65715f3336251057f2d1c268,6598e6a5d84f07970b831e70,6598e72b77b71480cf78df5a,0.1538,0.1541,1,115,277,122,1,sixfive,,,,,,,,,,,,,,,,,,,,,,,,,,,,,,,,,,,,,,,,,,,,,,,,,,,,,,,,,,,,,,,,,,,,,,,,,,,,,,,,,,,,,,,,,,,,,,,,,,,,,,,,,,,,,,,,,,,,,,,,,,,,,,,,,,,,,,,
,,65715f3336251057f2d1c268,2024-01-05_21h37.58.546,kallum_motion_pilot,2023.2.3,Win32,60.24096386,65715f3336251057f2d1c268,6598e6a5d84f07970b831e70,6598e72b77b71480cf78df5a,0.1543,0.1545,1,116,278,156,1,sevenfive,,,,,,,,,,,,,,,,,,,,,,,,,,,,,,,,,,,,,,,,,,,,,,,,,,,,,,,,,,,,,,,,,,,,,,,,,,,,,,,,,,,,,,,,,,,,,,,,,,,,,,,,,,,,,,,,,,,,,,,,,,,,,,,,,,,,,,,
,,65715f3336251057f2d1c268,2024-01-05_21h37.58.546,kallum_motion_pilot,2023.2.3,Win32,60.24096386,65715f3336251057f2d1c268,6598e6a5d84f07970b831e70,6598e72b77b71480cf78df5a,0.1548,0.155,1,117,279,81,1,fiveseven,,,,,,,,,,,,,,,,,,,,,,,,,,,,,,,,,,,,,,,,,,,,,,,,,,,,,,,,,,,,,,,,,,,,,,,,,,,,,,,,,,,,,,,,,,,,,,,,,,,,,,,,,,,,,,,,,,,,,,,,,,,,,,,,,,,,,,,
