startup.started,startup.stopped,Prolific ID*,date,expName,psychopyVersion,OS,frameRate,PROLIFIC_PID,STUDY_ID,SESSION_ID,stimpositions.started,stimpositions.stopped,hardcoded_stimulus_positions.thisRepN,hardcoded_stimulus_positions.thisTrialN,hardcoded_stimulus_positions.thisN,hardcoded_stimulus_positions.thisIndex,hardcoded_stimulus_positions.ran,StimulusPos,stimorientation.started,stimorientation.stopped,prac_stimorientation_import_loop.thisRepN,prac_stimorientation_import_loop.thisTrialN,prac_stimorientation_import_loop.thisN,prac_stimorientation_import_loop.thisIndex,prac_stimorientation_import_loop.ran,Stimorientation,welcome_instr.started,welcome_instr.stopped,key_resp.keys,key_resp.rt,key_resp.duration,response_steppedout_1.started,response_steppedout_1.stopped,key_resp_20.keys,key_resp_20.rt,key_resp_20.duration,response_steppedout_2.started,response_steppedout_2.stopped,key_resp_19.keys,key_resp_19.rt,key_resp_19.duration,stim_response_instr.started,stim_response_instr.stopped,key_resp_15.keys,key_resp_15.rt,key_resp_15.duration,direction_instr_2.started,direction_instr_2.stopped,key_resp_9.keys,key_resp_9.rt,key_resp_9.duration,instr_prac.started,instr_prac.stopped,key_resp_10.keys,key_resp_10.rt,key_resp_10.duration,Stim1_display_prac.started,Stim1_display_prac.stopped,Ecc,Circle1_ori,Circle2_ori,response_prac.started,similarity,response_time,response_prac.stopped,mouse_5.x,mouse_5.y,mouse_5.leftButton,mouse_5.midButton,mouse_5.rightButton,mouse_5.clicked_name,responseprac_feedback.started,responseprac_feedback.stopped,summary2_prac.started,summary2_prac.stopped,mouse_6.x,mouse_6.y,mouse_6.leftButton,mouse_6.midButton,mouse_6.rightButton,mouse_6.clicked_name,duringprac.thisRepN,duringprac.thisTrialN,duringprac.thisN,duringprac.thisIndex,duringprac.ran,begin.started,begin.stopped,key_resp_22.keys,key_resp_22.rt,key_resp_22.duration,Stim1_display.started,Stim1_display.stopped,circle1_ori,circle2_ori,blank.started,blank.stopped,response.started,response.stopped,mouse.x,mouse.y,mouse.leftButton,mouse.midButton,mouse.rightButton,mouse.clicked_name,response_2.started,response_2.stopped,mouse_2.x,mouse_2.y,mouse_2.leftButton,mouse_2.midButton,mouse_2.rightButton,mouse_2.clicked_name,special_trial.started,special_trial.stopped,catch_1.started,catch_1.stopped,mouse_3.x,mouse_3.y,mouse_3.leftButton,mouse_3.midButton,mouse_3.rightButton,catchresponse,catchnumber,response_time_catch,Catch,response_sum.started,response_sum.stopped,mouse_11.x,mouse_11.y,mouse_11.leftButton,mouse_11.midButton,mouse_11.rightButton,main_trial.thisRepN,main_trial.thisTrialN,main_trial.thisN,main_trial.thisIndex,main_trial.ran,Orientationtrialno,xcircle1_ori,xcircle2_ori,flip_presentation_sequence_for_double_pass.started,flip_presentation_sequence_for_double_pass.stopped,double_pass.thisRepN,double_pass.thisTrialN,double_pass.thisN,double_pass.thisIndex,double_pass.ran,goodbye.started,goodbye.stopped,key_resp_3.keys,key_resp_3.rt,key_resp_3.duration
0.005,0.0052,6004ff08542fe932efbfd8a0,2024-01-06_07h38.21.048,kallum_motion_pilot,2023.2.3,Win32,61.72839506,6004ff08542fe932efbfd8a0,6598e6a5d84f07970b831e70,6598e6ef547f20229a90e0a3,,,,,,,,,,,,,,,,,,,,,,,,,,,,,,,,,,,,,,,,,,,,,,,,,,,,,,,,,,,,,,,,,,,,,,,,,,,,,,,,,,,,,,,,,,,,,,,,,,,,,,,,,,,,,,,,,,,,,,,,,,,,,,,,,,,,,,,,,,,,,,,
,,6004ff08542fe932efbfd8a0,2024-01-06_07h38.21.048,kallum_motion_pilot,2023.2.3,Win32,61.72839506,6004ff08542fe932efbfd8a0,6598e6a5d84f07970b831e70,6598e6ef547f20229a90e0a3,0.058,0.0583,0,0,0,12,1,threeone,,,,,,,,,,,,,,,,,,,,,,,,,,,,,,,,,,,,,,,,,,,,,,,,,,,,,,,,,,,,,,,,,,,,,,,,,,,,,,,,,,,,,,,,,,,,,,,,,,,,,,,,,,,,,,,,,,,,,,,,,,,,,,,,,,,,,,,
,,6004ff08542fe932efbfd8a0,2024-01-06_07h38.21.048,kallum_motion_pilot,2023.2.3,Win32,61.72839506,6004ff08542fe932efbfd8a0,6598e6a5d84f07970b831e70,6598e6ef547f20229a90e0a3,0.0589,0.059,0,1,1,17,1,onethree,,,,,,,,,,,,,,,,,,,,,,,,,,,,,,,,,,,,,,,,,,,,,,,,,,,,,,,,,,,,,,,,,,,,,,,,,,,,,,,,,,,,,,,,,,,,,,,,,,,,,,,,,,,,,,,,,,,,,,,,,,,,,,,,,,,,,,,
,,6004ff08542fe932efbfd8a0,2024-01-06_07h38.21.048,kallum_motion_pilot,2023.2.3,Win32,61.72839506,6004ff08542fe932efbfd8a0,6598e6a5d84f07970b831e70,6598e6ef547f20229a90e0a3,0.0593,0.0594,0,2,2,81,1,fiveseven,,,,,,,,,,,,,,,,,,,,,,,,,,,,,,,,,,,,,,,,,,,,,,,,,,,,,,,,,,,,,,,,,,,,,,,,,,,,,,,,,,,,,,,,,,,,,,,,,,,,,,,,,,,,,,,,,,,,,,,,,,,,,,,,,,,,,,,
,,6004ff08542fe932efbfd8a0,2024-01-06_07h38.21.048,kallum_motion_pilot,2023.2.3,Win32,61.72839506,6004ff08542fe932efbfd8a0,6598e6a5d84f07970b831e70,6598e6ef547f20229a90e0a3,0.0597,0.0599,0,3,3,121,1,fiveseven,,,,,,,,,,,,,,,,,,,,,,,,,,,,,,,,,,,,,,,,,,,,,,,,,,,,,,,,,,,,,,,,,,,,,,,,,,,,,,,,,,,,,,,,,,,,,,,,,,,,,,,,,,,,,,,,,,,,,,,,,,,,,,,,,,,,,,,
,,6004ff08542fe932efbfd8a0,2024-01-06_07h38.21.048,kallum_motion_pilot,2023.2.3,Win32,61.72839506,6004ff08542fe932efbfd8a0,6598e6a5d84f07970b831e70,6598e6ef547f20229a90e0a3,0.0602,0.0603,0,4,4,77,1,threefour,,,,,,,,,,,,,,,,,,,,,,,,,,,,,,,,,,,,,,,,,,,,,,,,,,,,,,,,,,,,,,,,,,,,,,,,,,,,,,,,,,,,,,,,,,,,,,,,,,,,,,,,,,,,,,,,,,,,,,,,,,,,,,,,,,,,,,,
,,6004ff08542fe932efbfd8a0,2024-01-06_07h38.21.048,kallum_motion_pilot,2023.2.3,Win32,61.72839506,6004ff08542fe932efbfd8a0,6598e6a5d84f07970b831e70,6598e6ef547f20229a90e0a3,0.0607,0.0609,0,5,5,106,1,sixfive,,,,,,,,,,,,,,,,,,,,,,,,,,,,,,,,,,,,,,,,,,,,,,,,,,,,,,,,,,,,,,,,,,,,,,,,,,,,,,,,,,,,,,,,,,,,,,,,,,,,,,,,,,,,,,,,,,,,,,,,,,,,,,,,,,,,,,,
,,6004ff08542fe932efbfd8a0,2024-01-06_07h38.21.048,kallum_motion_pilot,2023.2.3,Win32,61.72839506,6004ff08542fe932efbfd8a0,6598e6a5d84f07970b831e70,6598e6ef547f20229a90e0a3,0.0611,0.0612,0,6,6,135,1,eightseven,,,,,,,,,,,,,,,,,,,,,,,,,,,,,,,,,,,,,,,,,,,,,,,,,,,,,,,,,,,,,,,,,,,,,,,,,,,,,,,,,,,,,,,,,,,,,,,,,,,,,,,,,,,,,,,,,,,,,,,,,,,,,,,,,,,,,,,
,,6004ff08542fe932efbfd8a0,2024-01-06_07h38.21.048,kallum_motion_pilot,2023.2.3,Win32,61.72839506,6004ff08542fe932efbfd8a0,6598e6a5d84f07970b831e70,6598e6ef547f20229a90e0a3,0.0615,0.0617,0,7,7,51,1,twofour,,,,,,,,,,,,,,,,,,,,,,,,,,,,,,,,,,,,,,,,,,,,,,,,,,,,,,,,,,,,,,,,,,,,,,,,,,,,,,,,,,,,,,,,,,,,,,,,,,,,,,,,,,,,,,,,,,,,,,,,,,,,,,,,,,,,,,,
,,6004ff08542fe932efbfd8a0,2024-01-06_07h38.21.048,kallum_motion_pilot,2023.2.3,Win32,61.72839506,6004ff08542fe932efbfd8a0,6598e6a5d84f07970b831e70,6598e6ef547f20229a90e0a3,0.062,0.0626,0,8,8,143,1,eightseven,,,,,,,,,,,,,,,,,,,,,,,,,,,,,,,,,,,,,,,,,,,,,,,,,,,,,,,,,,,,,,,,,,,,,,,,,,,,,,,,,,,,,,,,,,,,,,,,,,,,,,,,,,,,,,,,,,,,,,,,,,,,,,,,,,,,,,,
,,6004ff08542fe932efbfd8a0,2024-01-06_07h38.21.048,kallum_motion_pilot,2023.2.3,Win32,61.72839506,6004ff08542fe932efbfd8a0,6598e6a5d84f07970b831e70,6598e6ef547f20229a90e0a3,0.0628,0.0629,0,9,9,109,1,seveneight,,,,,,,,,,,,,,,,,,,,,,,,,,,,,,,,,,,,,,,,,,,,,,,,,,,,,,,,,,,,,,,,,,,,,,,,,,,,,,,,,,,,,,,,,,,,,,,,,,,,,,,,,,,,,,,,,,,,,,,,,,,,,,,,,,,,,,,
,,6004ff08542fe932efbfd8a0,2024-01-06_07h38.21.048,kallum_motion_pilot,2023.2.3,Win32,61.72839506,6004ff08542fe932efbfd8a0,6598e6a5d84f07970b831e70,6598e6ef547f20229a90e0a3,0.0633,0.0635,0,10,10,50,1,twoone,,,,,,,,,,,,,,,,,,,,,,,,,,,,,,,,,,,,,,,,,,,,,,,,,,,,,,,,,,,,,,,,,,,,,,,,,,,,,,,,,,,,,,,,,,,,,,,,,,,,,,,,,,,,,,,,,,,,,,,,,,,,,,,,,,,,,,,
,,6004ff08542fe932efbfd8a0,2024-01-06_07h38.21.048,kallum_motion_pilot,2023.2.3,Win32,61.72839506,6004ff08542fe932efbfd8a0,6598e6a5d84f07970b831e70,6598e6ef547f20229a90e0a3,0.0637,0.0637,0,11,11,42,1,twoone,,,,,,,,,,,,,,,,,,,,,,,,,,,,,,,,,,,,,,,,,,,,,,,,,,,,,,,,,,,,,,,,,,,,,,,,,,,,,,,,,,,,,,,,,,,,,,,,,,,,,,,,,,,,,,,,,,,,,,,,,,,,,,,,,,,,,,,
,,6004ff08542fe932efbfd8a0,2024-01-06_07h38.21.048,kallum_motion_pilot,2023.2.3,Win32,61.72839506,6004ff08542fe932efbfd8a0,6598e6a5d84f07970b831e70,6598e6ef547f20229a90e0a3,0.0641,0.0642,0,12,12,96,1,fivesix,,,,,,,,,,,,,,,,,,,,,,,,,,,,,,,,,,,,,,,,,,,,,,,,,,,,,,,,,,,,,,,,,,,,,,,,,,,,,,,,,,,,,,,,,,,,,,,,,,,,,,,,,,,,,,,,,,,,,,,,,,,,,,,,,,,,,,,
,,6004ff08542fe932efbfd8a0,2024-01-06_07h38.21.048,kallum_motion_pilot,2023.2.3,Win32,61.72839506,6004ff08542fe932efbfd8a0,6598e6a5d84f07970b831e70,6598e6ef547f20229a90e0a3,0.0645,0.0646,0,13,13,10,1,twoone,,,,,,,,,,,,,,,,,,,,,,,,,,,,,,,,,,,,,,,,,,,,,,,,,,,,,,,,,,,,,,,,,,,,,,,,,,,,,,,,,,,,,,,,,,,,,,,,,,,,,,,,,,,,,,,,,,,,,,,,,,,,,,,,,,,,,,,
,,6004ff08542fe932efbfd8a0,2024-01-06_07h38.21.048,kallum_motion_pilot,2023.2.3,Win32,61.72839506,6004ff08542fe932efbfd8a0,6598e6a5d84f07970b831e70,6598e6ef547f20229a90e0a3,0.0648,0.065,0,14,14,75,1,twofour,,,,,,,,,,,,,,,,,,,,,,,,,,,,,,,,,,,,,,,,,,,,,,,,,,,,,,,,,,,,,,,,,,,,,,,,,,,,,,,,,,,,,,,,,,,,,,,,,,,,,,,,,,,,,,,,,,,,,,,,,,,,,,,,,,,,,,,
,,6004ff08542fe932efbfd8a0,2024-01-06_07h38.21.048,kallum_motion_pilot,2023.2.3,Win32,61.72839506,6004ff08542fe932efbfd8a0,6598e6a5d84f07970b831e70,6598e6ef547f20229a90e0a3,0.0652,0.0653,0,15,15,92,1,sevenfive,,,,,,,,,,,,,,,,,,,,,,,,,,,,,,,,,,,,,,,,,,,,,,,,,,,,,,,,,,,,,,,,,,,,,,,,,,,,,,,,,,,,,,,,,,,,,,,,,,,,,,,,,,,,,,,,,,,,,,,,,,,,,,,,,,,,,,,
,,6004ff08542fe932efbfd8a0,2024-01-06_07h38.21.048,kallum_motion_pilot,2023.2.3,Win32,61.72839506,6004ff08542fe932efbfd8a0,6598e6a5d84f07970b831e70,6598e6ef547f20229a90e0a3,0.0659,0.0661,0,16,16,114,1,sixfive,,,,,,,,,,,,,,,,,,,,,,,,,,,,,,,,,,,,,,,,,,,,,,,,,,,,,,,,,,,,,,,,,,,,,,,,,,,,,,,,,,,,,,,,,,,,,,,,,,,,,,,,,,,,,,,,,,,,,,,,,,,,,,,,,,,,,,,
,,6004ff08542fe932efbfd8a0,2024-01-06_07h38.21.048,kallum_motion_pilot,2023.2.3,Win32,61.72839506,6004ff08542fe932efbfd8a0,6598e6a5d84f07970b831e70,6598e6ef547f20229a90e0a3,0.0663,0.0664,0,17,17,40,1,onetwo,,,,,,,,,,,,,,,,,,,,,,,,,,,,,,,,,,,,,,,,,,,,,,,,,,,,,,,,,,,,,,,,,,,,,,,,,,,,,,,,,,,,,,,,,,,,,,,,,,,,,,,,,,,,,,,,,,,,,,,,,,,,,,,,,,,,,,,
,,6004ff08542fe932efbfd8a0,2024-01-06_07h38.21.048,kallum_motion_pilot,2023.2.3,Win32,61.72839506,6004ff08542fe932efbfd8a0,6598e6a5d84f07970b831e70,6598e6ef547f20229a90e0a3,0.0666,0.0666,0,18,18,84,1,sevenfive,,,,,,,,,,,,,,,,,,,,,,,,,,,,,,,,,,,,,,,,,,,,,,,,,,,,,,,,,,,,,,,,,,,,,,,,,,,,,,,,,,,,,,,,,,,,,,,,,,,,,,,,,,,,,,,,,,,,,,,,,,,,,,,,,,,,,,,
,,6004ff08542fe932efbfd8a0,2024-01-06_07h38.21.048,kallum_motion_pilot,2023.2.3,Win32,61.72839506,6004ff08542fe932efbfd8a0,6598e6a5d84f07970b831e70,6598e6ef547f20229a90e0a3,0.0672,0.0673,0,19,19,95,1,eightseven,,,,,,,,,,,,,,,,,,,,,,,,,,,,,,,,,,,,,,,,,,,,,,,,,,,,,,,,,,,,,,,,,,,,,,,,,,,,,,,,,,,,,,,,,,,,,,,,,,,,,,,,,,,,,,,,,,,,,,,,,,,,,,,,,,,,,,,
,,6004ff08542fe932efbfd8a0,2024-01-06_07h38.21.048,kallum_motion_pilot,2023.2.3,Win32,61.72839506,6004ff08542fe932efbfd8a0,6598e6a5d84f07970b831e70,6598e6ef547f20229a90e0a3,0.0675,0.0676,0,20,20,38,1,fourtwo,,,,,,,,,,,,,,,,,,,,,,,,,,,,,,,,,,,,,,,,,,,,,,,,,,,,,,,,,,,,,,,,,,,,,,,,,,,,,,,,,,,,,,,,,,,,,,,,,,,,,,,,,,,,,,,,,,,,,,,,,,,,,,,,,,,,,,,
,,6004ff08542fe932efbfd8a0,2024-01-06_07h38.21.048,kallum_motion_pilot,2023.2.3,Win32,61.72839506,6004ff08542fe932efbfd8a0,6598e6a5d84f07970b831e70,6598e6ef547f20229a90e0a3,0.0678,0.068,0,21,21,7,1,fourthree,,,,,,,,,,,,,,,,,,,,,,,,,,,,,,,,,,,,,,,,,,,,,,,,,,,,,,,,,,,,,,,,,,,,,,,,,,,,,,,,,,,,,,,,,,,,,,,,,,,,,,,,,,,,,,,,,,,,,,,,,,,,,,,,,,,,,,,
,,6004ff08542fe932efbfd8a0,2024-01-06_07h38.21.048,kallum_motion_pilot,2023.2.3,Win32,61.72839506,6004ff08542fe932efbfd8a0,6598e6a5d84f07970b831e70,6598e6ef547f20229a90e0a3,0.0683,0.0685,0,22,22,19,1,twofour,,,,,,,,,,,,,,,,,,,,,,,,,,,,,,,,,,,,,,,,,,,,,,,,,,,,,,,,,,,,,,,,,,,,,,,,,,,,,,,,,,,,,,,,,,,,,,,,,,,,,,,,,,,,,,,,,,,,,,,,,,,,,,,,,,,,,,,
,,6004ff08542fe932efbfd8a0,2024-01-06_07h38.21.048,kallum_motion_pilot,2023.2.3,Win32,61.72839506,6004ff08542fe932efbfd8a0,6598e6a5d84f07970b831e70,6598e6ef547f20229a90e0a3,0.0701,0.0703,0,23,23,136,1,fivesix,,,,,,,,,,,,,,,,,,,,,,,,,,,,,,,,,,,,,,,,,,,,,,,,,,,,,,,,,,,,,,,,,,,,,,,,,,,,,,,,,,,,,,,,,,,,,,,,,,,,,,,,,,,,,,,,,,,,,,,,,,,,,,,,,,,,,,,
,,6004ff08542fe932efbfd8a0,2024-01-06_07h38.21.048,kallum_motion_pilot,2023.2.3,Win32,61.72839506,6004ff08542fe932efbfd8a0,6598e6a5d84f07970b831e70,6598e6ef547f20229a90e0a3,0.0706,0.0708,0,24,24,145,1,fiveseven,,,,,,,,,,,,,,,,,,,,,,,,,,,,,,,,,,,,,,,,,,,,,,,,,,,,,,,,,,,,,,,,,,,,,,,,,,,,,,,,,,,,,,,,,,,,,,,,,,,,,,,,,,,,,,,,,,,,,,,,,,,,,,,,,,,,,,,
,,6004ff08542fe932efbfd8a0,2024-01-06_07h38.21.048,kallum_motion_pilot,2023.2.3,Win32,61.72839506,6004ff08542fe932efbfd8a0,6598e6a5d84f07970b831e70,6598e6ef547f20229a90e0a3,0.071,0.0712,0,25,25,82,1,sixfive,,,,,,,,,,,,,,,,,,,,,,,,,,,,,,,,,,,,,,,,,,,,,,,,,,,,,,,,,,,,,,,,,,,,,,,,,,,,,,,,,,,,,,,,,,,,,,,,,,,,,,,,,,,,,,,,,,,,,,,,,,,,,,,,,,,,,,,
,,6004ff08542fe932efbfd8a0,2024-01-06_07h38.21.048,kallum_motion_pilot,2023.2.3,Win32,61.72839506,6004ff08542fe932efbfd8a0,6598e6a5d84f07970b831e70,6598e6ef547f20229a90e0a3,0.0715,0.0716,0,26,26,156,1,sevenfive,,,,,,,,,,,,,,,,,,,,,,,,,,,,,,,,,,,,,,,,,,,,,,,,,,,,,,,,,,,,,,,,,,,,,,,,,,,,,,,,,,,,,,,,,,,,,,,,,,,,,,,,,,,,,,,,,,,,,,,,,,,,,,,,,,,,,,,
,,6004ff08542fe932efbfd8a0,2024-01-06_07h38.21.048,kallum_motion_pilot,2023.2.3,Win32,61.72839506,6004ff08542fe932efbfd8a0,6598e6a5d84f07970b831e70,6598e6ef547f20229a90e0a3,0.0719,0.0721,0,27,27,64,1,onetwo,,,,,,,,,,,,,,,,,,,,,,,,,,,,,,,,,,,,,,,,,,,,,,,,,,,,,,,,,,,,,,,,,,,,,,,,,,,,,,,,,,,,,,,,,,,,,,,,,,,,,,,,,,,,,,,,,,,,,,,,,,,,,,,,,,,,,,,
,,6004ff08542fe932efbfd8a0,2024-01-06_07h38.21.048,kallum_motion_pilot,2023.2.3,Win32,61.72839506,6004ff08542fe932efbfd8a0,6598e6a5d84f07970b831e70,6598e6ef547f20229a90e0a3,0.0723,0.0725,0,28,28,91,1,sixeight,,,,,,,,,,,,,,,,,,,,,,,,,,,,,,,,,,,,,,,,,,,,,,,,,,,,,,,,,,,,,,,,,,,,,,,,,,,,,,,,,,,,,,,,,,,,,,,,,,,,,,,,,,,,,,,,,,,,,,,,,,,,,,,,,,,,,,,
,,6004ff08542fe932efbfd8a0,2024-01-06_07h38.21.048,kallum_motion_pilot,2023.2.3,Win32,61.72839506,6004ff08542fe932efbfd8a0,6598e6a5d84f07970b831e70,6598e6ef547f20229a90e0a3,0.0726,0.0728,0,29,29,68,1,threeone,,,,,,,,,,,,,,,,,,,,,,,,,,,,,,,,,,,,,,,,,,,,,,,,,,,,,,,,,,,,,,,,,,,,,,,,,,,,,,,,,,,,,,,,,,,,,,,,,,,,,,,,,,,,,,,,,,,,,,,,,,,,,,,,,,,,,,,
,,6004ff08542fe932efbfd8a0,2024-01-06_07h38.21.048,kallum_motion_pilot,2023.2.3,Win32,61.72839506,6004ff08542fe932efbfd8a0,6598e6a5d84f07970b831e70,6598e6ef547f20229a90e0a3,0.073,0.0731,0,30,30,66,1,twoone,,,,,,,,,,,,,,,,,,,,,,,,,,,,,,,,,,,,,,,,,,,,,,,,,,,,,,,,,,,,,,,,,,,,,,,,,,,,,,,,,,,,,,,,,,,,,,,,,,,,,,,,,,,,,,,,,,,,,,,,,,,,,,,,,,,,,,,
,,6004ff08542fe932efbfd8a0,2024-01-06_07h38.21.048,kallum_motion_pilot,2023.2.3,Win32,61.72839506,6004ff08542fe932efbfd8a0,6598e6a5d84f07970b831e70,6598e6ef547f20229a90e0a3,0.0733,0.0735,0,31,31,120,1,fivesix,,,,,,,,,,,,,,,,,,,,,,,,,,,,,,,,,,,,,,,,,,,,,,,,,,,,,,,,,,,,,,,,,,,,,,,,,,,,,,,,,,,,,,,,,,,,,,,,,,,,,,,,,,,,,,,,,,,,,,,,,,,,,,,,,,,,,,,
,,6004ff08542fe932efbfd8a0,2024-01-06_07h38.21.048,kallum_motion_pilot,2023.2.3,Win32,61.72839506,6004ff08542fe932efbfd8a0,6598e6a5d84f07970b831e70,6598e6ef547f20229a90e0a3,0.0737,0.0739,0,32,32,24,1,onetwo,,,,,,,,,,,,,,,,,,,,,,,,,,,,,,,,,,,,,,,,,,,,,,,,,,,,,,,,,,,,,,,,,,,,,,,,,,,,,,,,,,,,,,,,,,,,,,,,,,,,,,,,,,,,,,,,,,,,,,,,,,,,,,,,,,,,,,,
,,6004ff08542fe932efbfd8a0,2024-01-06_07h38.21.048,kallum_motion_pilot,2023.2.3,Win32,61.72839506,6004ff08542fe932efbfd8a0,6598e6a5d84f07970b831e70,6598e6ef547f20229a90e0a3,0.074,0.0743,0,33,33,6,1,fourtwo,,,,,,,,,,,,,,,,,,,,,,,,,,,,,,,,,,,,,,,,,,,,,,,,,,,,,,,,,,,,,,,,,,,,,,,,,,,,,,,,,,,,,,,,,,,,,,,,,,,,,,,,,,,,,,,,,,,,,,,,,,,,,,,,,,,,,,,
,,6004ff08542fe932efbfd8a0,2024-01-06_07h38.21.048,kallum_motion_pilot,2023.2.3,Win32,61.72839506,6004ff08542fe932efbfd8a0,6598e6a5d84f07970b831e70,6598e6ef547f20229a90e0a3,0.0744,0.0746,0,34,34,63,1,fourthree,,,,,,,,,,,,,,,,,,,,,,,,,,,,,,,,,,,,,,,,,,,,,,,,,,,,,,,,,,,,,,,,,,,,,,,,,,,,,,,,,,,,,,,,,,,,,,,,,,,,,,,,,,,,,,,,,,,,,,,,,,,,,,,,,,,,,,,
,,6004ff08542fe932efbfd8a0,2024-01-06_07h38.21.048,kallum_motion_pilot,2023.2.3,Win32,61.72839506,6004ff08542fe932efbfd8a0,6598e6a5d84f07970b831e70,6598e6ef547f20229a90e0a3,0.0749,0.075,0,35,35,137,1,fiveseven,,,,,,,,,,,,,,,,,,,,,,,,,,,,,,,,,,,,,,,,,,,,,,,,,,,,,,,,,,,,,,,,,,,,,,,,,,,,,,,,,,,,,,,,,,,,,,,,,,,,,,,,,,,,,,,,,,,,,,,,,,,,,,,,,,,,,,,
,,6004ff08542fe932efbfd8a0,2024-01-06_07h38.21.048,kallum_motion_pilot,2023.2.3,Win32,61.72839506,6004ff08542fe932efbfd8a0,6598e6a5d84f07970b831e70,6598e6ef547f20229a90e0a3,0.0753,0.0755,0,36,36,48,1,onetwo,,,,,,,,,,,,,,,,,,,,,,,,,,,,,,,,,,,,,,,,,,,,,,,,,,,,,,,,,,,,,,,,,,,,,,,,,,,,,,,,,,,,,,,,,,,,,,,,,,,,,,,,,,,,,,,,,,,,,,,,,,,,,,,,,,,,,,,
,,6004ff08542fe932efbfd8a0,2024-01-06_07h38.21.048,kallum_motion_pilot,2023.2.3,Win32,61.72839506,6004ff08542fe932efbfd8a0,6598e6a5d84f07970b831e70,6598e6ef547f20229a90e0a3,0.0757,0.0758,0,37,37,157,1,seveneight,,,,,,,,,,,,,,,,,,,,,,,,,,,,,,,,,,,,,,,,,,,,,,,,,,,,,,,,,,,,,,,,,,,,,,,,,,,,,,,,,,,,,,,,,,,,,,,,,,,,,,,,,,,,,,,,,,,,,,,,,,,,,,,,,,,,,,,
,,6004ff08542fe932efbfd8a0,2024-01-06_07h38.21.048,kallum_motion_pilot,2023.2.3,Win32,61.72839506,6004ff08542fe932efbfd8a0,6598e6a5d84f07970b831e70,6598e6ef547f20229a90e0a3,0.0761,0.0764,0,38,38,102,1,eightsix,,,,,,,,,,,,,,,,,,,,,,,,,,,,,,,,,,,,,,,,,,,,,,,,,,,,,,,,,,,,,,,,,,,,,,,,,,,,,,,,,,,,,,,,,,,,,,,,,,,,,,,,,,,,,,,,,,,,,,,,,,,,,,,,,,,,,,,
,,6004ff08542fe932efbfd8a0,2024-01-06_07h38.21.048,kallum_motion_pilot,2023.2.3,Win32,61.72839506,6004ff08542fe932efbfd8a0,6598e6a5d84f07970b831e70,6598e6ef547f20229a90e0a3,0.0767,0.0768,0,39,39,127,1,eightseven,,,,,,,,,,,,,,,,,,,,,,,,,,,,,,,,,,,,,,,,,,,,,,,,,,,,,,,,,,,,,,,,,,,,,,,,,,,,,,,,,,,,,,,,,,,,,,,,,,,,,,,,,,,,,,,,,,,,,,,,,,,,,,,,,,,,,,,
,,6004ff08542fe932efbfd8a0,2024-01-06_07h38.21.048,kallum_motion_pilot,2023.2.3,Win32,61.72839506,6004ff08542fe932efbfd8a0,6598e6a5d84f07970b831e70,6598e6ef547f20229a90e0a3,0.0772,0.0774,0,40,40,111,1,eightseven,,,,,,,,,,,,,,,,,,,,,,,,,,,,,,,,,,,,,,,,,,,,,,,,,,,,,,,,,,,,,,,,,,,,,,,,,,,,,,,,,,,,,,,,,,,,,,,,,,,,,,,,,,,,,,,,,,,,,,,,,,,,,,,,,,,,,,,
,,6004ff08542fe932efbfd8a0,2024-01-06_07h38.21.048,kallum_motion_pilot,2023.2.3,Win32,61.72839506,6004ff08542fe932efbfd8a0,6598e6a5d84f07970b831e70,6598e6ef547f20229a90e0a3,0.078,0.0781,0,41,41,123,1,sixeight,,,,,,,,,,,,,,,,,,,,,,,,,,,,,,,,,,,,,,,,,,,,,,,,,,,,,,,,,,,,,,,,,,,,,,,,,,,,,,,,,,,,,,,,,,,,,,,,,,,,,,,,,,,,,,,,,,,,,,,,,,,,,,,,,,,,,,,
,,6004ff08542fe932efbfd8a0,2024-01-06_07h38.21.048,kallum_motion_pilot,2023.2.3,Win32,61.72839506,6004ff08542fe932efbfd8a0,6598e6a5d84f07970b831e70,6598e6ef547f20229a90e0a3,0.0785,0.0788,0,42,42,32,1,onetwo,,,,,,,,,,,,,,,,,,,,,,,,,,,,,,,,,,,,,,,,,,,,,,,,,,,,,,,,,,,,,,,,,,,,,,,,,,,,,,,,,,,,,,,,,,,,,,,,,,,,,,,,,,,,,,,,,,,,,,,,,,,,,,,,,,,,,,,
,,6004ff08542fe932efbfd8a0,2024-01-06_07h38.21.048,kallum_motion_pilot,2023.2.3,Win32,61.72839506,6004ff08542fe932efbfd8a0,6598e6a5d84f07970b831e70,6598e6ef547f20229a90e0a3,0.0789,0.0791,0,43,43,61,1,threefour,,,,,,,,,,,,,,,,,,,,,,,,,,,,,,,,,,,,,,,,,,,,,,,,,,,,,,,,,,,,,,,,,,,,,,,,,,,,,,,,,,,,,,,,,,,,,,,,,,,,,,,,,,,,,,,,,,,,,,,,,,,,,,,,,,,,,,,
,,6004ff08542fe932efbfd8a0,2024-01-06_07h38.21.048,kallum_motion_pilot,2023.2.3,Win32,61.72839506,6004ff08542fe932efbfd8a0,6598e6a5d84f07970b831e70,6598e6ef547f20229a90e0a3,0.0793,0.0795,0,44,44,110,1,eightsix,,,,,,,,,,,,,,,,,,,,,,,,,,,,,,,,,,,,,,,,,,,,,,,,,,,,,,,,,,,,,,,,,,,,,,,,,,,,,,,,,,,,,,,,,,,,,,,,,,,,,,,,,,,,,,,,,,,,,,,,,,,,,,,,,,,,,,,
,,6004ff08542fe932efbfd8a0,2024-01-06_07h38.21.048,kallum_motion_pilot,2023.2.3,Win32,61.72839506,6004ff08542fe932efbfd8a0,6598e6a5d84f07970b831e70,6598e6ef547f20229a90e0a3,0.0797,0.0799,0,45,45,31,1,fourthree,,,,,,,,,,,,,,,,,,,,,,,,,,,,,,,,,,,,,,,,,,,,,,,,,,,,,,,,,,,,,,,,,,,,,,,,,,,,,,,,,,,,,,,,,,,,,,,,,,,,,,,,,,,,,,,,,,,,,,,,,,,,,,,,,,,,,,,
,,6004ff08542fe932efbfd8a0,2024-01-06_07h38.21.048,kallum_motion_pilot,2023.2.3,Win32,61.72839506,6004ff08542fe932efbfd8a0,6598e6a5d84f07970b831e70,6598e6ef547f20229a90e0a3,0.0801,0.0803,0,46,46,125,1,seveneight,,,,,,,,,,,,,,,,,,,,,,,,,,,,,,,,,,,,,,,,,,,,,,,,,,,,,,,,,,,,,,,,,,,,,,,,,,,,,,,,,,,,,,,,,,,,,,,,,,,,,,,,,,,,,,,,,,,,,,,,,,,,,,,,,,,,,,,
,,6004ff08542fe932efbfd8a0,2024-01-06_07h38.21.048,kallum_motion_pilot,2023.2.3,Win32,61.72839506,6004ff08542fe932efbfd8a0,6598e6a5d84f07970b831e70,6598e6ef547f20229a90e0a3,0.0805,0.0807,0,47,47,76,1,threeone,,,,,,,,,,,,,,,,,,,,,,,,,,,,,,,,,,,,,,,,,,,,,,,,,,,,,,,,,,,,,,,,,,,,,,,,,,,,,,,,,,,,,,,,,,,,,,,,,,,,,,,,,,,,,,,,,,,,,,,,,,,,,,,,,,,,,,,
,,6004ff08542fe932efbfd8a0,2024-01-06_07h38.21.048,kallum_motion_pilot,2023.2.3,Win32,61.72839506,6004ff08542fe932efbfd8a0,6598e6a5d84f07970b831e70,6598e6ef547f20229a90e0a3,0.0809,0.0811,0,48,48,154,1,sixfive,,,,,,,,,,,,,,,,,,,,,,,,,,,,,,,,,,,,,,,,,,,,,,,,,,,,,,,,,,,,,,,,,,,,,,,,,,,,,,,,,,,,,,,,,,,,,,,,,,,,,,,,,,,,,,,,,,,,,,,,,,,,,,,,,,,,,,,
,,6004ff08542fe932efbfd8a0,2024-01-06_07h38.21.048,kallum_motion_pilot,2023.2.3,Win32,61.72839506,6004ff08542fe932efbfd8a0,6598e6a5d84f07970b831e70,6598e6ef547f20229a90e0a3,0.0812,0.0814,0,49,49,25,1,onethree,,,,,,,,,,,,,,,,,,,,,,,,,,,,,,,,,,,,,,,,,,,,,,,,,,,,,,,,,,,,,,,,,,,,,,,,,,,,,,,,,,,,,,,,,,,,,,,,,,,,,,,,,,,,,,,,,,,,,,,,,,,,,,,,,,,,,,,
,,6004ff08542fe932efbfd8a0,2024-01-06_07h38.21.048,kallum_motion_pilot,2023.2.3,Win32,61.72839506,6004ff08542fe932efbfd8a0,6598e6a5d84f07970b831e70,6598e6ef547f20229a90e0a3,0.0816,0.0818,0,50,50,105,1,fiveseven,,,,,,,,,,,,,,,,,,,,,,,,,,,,,,,,,,,,,,,,,,,,,,,,,,,,,,,,,,,,,,,,,,,,,,,,,,,,,,,,,,,,,,,,,,,,,,,,,,,,,,,,,,,,,,,,,,,,,,,,,,,,,,,,,,,,,,,
,,6004ff08542fe932efbfd8a0,2024-01-06_07h38.21.048,kallum_motion_pilot,2023.2.3,Win32,61.72839506,6004ff08542fe932efbfd8a0,6598e6a5d84f07970b831e70,6598e6ef547f20229a90e0a3,0.0823,0.0825,0,51,51,158,1,eightsix,,,,,,,,,,,,,,,,,,,,,,,,,,,,,,,,,,,,,,,,,,,,,,,,,,,,,,,,,,,,,,,,,,,,,,,,,,,,,,,,,,,,,,,,,,,,,,,,,,,,,,,,,,,,,,,,,,,,,,,,,,,,,,,,,,,,,,,
,,6004ff08542fe932efbfd8a0,2024-01-06_07h38.21.048,kallum_motion_pilot,2023.2.3,Win32,61.72839506,6004ff08542fe932efbfd8a0,6598e6a5d84f07970b831e70,6598e6ef547f20229a90e0a3,0.0828,0.0829,0,52,52,8,1,onetwo,,,,,,,,,,,,,,,,,,,,,,,,,,,,,,,,,,,,,,,,,,,,,,,,,,,,,,,,,,,,,,,,,,,,,,,,,,,,,,,,,,,,,,,,,,,,,,,,,,,,,,,,,,,,,,,,,,,,,,,,,,,,,,,,,,,,,,,
,,6004ff08542fe932efbfd8a0,2024-01-06_07h38.21.048,kallum_motion_pilot,2023.2.3,Win32,61.72839506,6004ff08542fe932efbfd8a0,6598e6a5d84f07970b831e70,6598e6ef547f20229a90e0a3,0.0831,0.0833,0,53,53,138,1,sixfive,,,,,,,,,,,,,,,,,,,,,,,,,,,,,,,,,,,,,,,,,,,,,,,,,,,,,,,,,,,,,,,,,,,,,,,,,,,,,,,,,,,,,,,,,,,,,,,,,,,,,,,,,,,,,,,,,,,,,,,,,,,,,,,,,,,,,,,
,,6004ff08542fe932efbfd8a0,2024-01-06_07h38.21.048,kallum_motion_pilot,2023.2.3,Win32,61.72839506,6004ff08542fe932efbfd8a0,6598e6a5d84f07970b831e70,6598e6ef547f20229a90e0a3,0.0835,0.0837,0,54,54,60,1,threeone,,,,,,,,,,,,,,,,,,,,,,,,,,,,,,,,,,,,,,,,,,,,,,,,,,,,,,,,,,,,,,,,,,,,,,,,,,,,,,,,,,,,,,,,,,,,,,,,,,,,,,,,,,,,,,,,,,,,,,,,,,,,,,,,,,,,,,,
,,6004ff08542fe932efbfd8a0,2024-01-06_07h38.21.048,kallum_motion_pilot,2023.2.3,Win32,61.72839506,6004ff08542fe932efbfd8a0,6598e6a5d84f07970b831e70,6598e6ef547f20229a90e0a3,0.0839,0.0841,0,55,55,152,1,fivesix,,,,,,,,,,,,,,,,,,,,,,,,,,,,,,,,,,,,,,,,,,,,,,,,,,,,,,,,,,,,,,,,,,,,,,,,,,,,,,,,,,,,,,,,,,,,,,,,,,,,,,,,,,,,,,,,,,,,,,,,,,,,,,,,,,,,,,,
,,6004ff08542fe932efbfd8a0,2024-01-06_07h38.21.048,kallum_motion_pilot,2023.2.3,Win32,61.72839506,6004ff08542fe932efbfd8a0,6598e6a5d84f07970b831e70,6598e6ef547f20229a90e0a3,0.0844,0.0849,0,56,56,94,1,eightsix,,,,,,,,,,,,,,,,,,,,,,,,,,,,,,,,,,,,,,,,,,,,,,,,,,,,,,,,,,,,,,,,,,,,,,,,,,,,,,,,,,,,,,,,,,,,,,,,,,,,,,,,,,,,,,,,,,,,,,,,,,,,,,,,,,,,,,,
,,6004ff08542fe932efbfd8a0,2024-01-06_07h38.21.048,kallum_motion_pilot,2023.2.3,Win32,61.72839506,6004ff08542fe932efbfd8a0,6598e6a5d84f07970b831e70,6598e6ef547f20229a90e0a3,0.0855,0.0858,0,57,57,119,1,eightseven,,,,,,,,,,,,,,,,,,,,,,,,,,,,,,,,,,,,,,,,,,,,,,,,,,,,,,,,,,,,,,,,,,,,,,,,,,,,,,,,,,,,,,,,,,,,,,,,,,,,,,,,,,,,,,,,,,,,,,,,,,,,,,,,,,,,,,,
,,6004ff08542fe932efbfd8a0,2024-01-06_07h38.21.048,kallum_motion_pilot,2023.2.3,Win32,61.72839506,6004ff08542fe932efbfd8a0,6598e6a5d84f07970b831e70,6598e6ef547f20229a90e0a3,0.0862,0.0866,0,58,58,9,1,onethree,,,,,,,,,,,,,,,,,,,,,,,,,,,,,,,,,,,,,,,,,,,,,,,,,,,,,,,,,,,,,,,,,,,,,,,,,,,,,,,,,,,,,,,,,,,,,,,,,,,,,,,,,,,,,,,,,,,,,,,,,,,,,,,,,,,,,,,
,,6004ff08542fe932efbfd8a0,2024-01-06_07h38.21.048,kallum_motion_pilot,2023.2.3,Win32,61.72839506,6004ff08542fe932efbfd8a0,6598e6a5d84f07970b831e70,6598e6ef547f20229a90e0a3,0.0869,0.0874,0,59,59,89,1,fiveseven,,,,,,,,,,,,,,,,,,,,,,,,,,,,,,,,,,,,,,,,,,,,,,,,,,,,,,,,,,,,,,,,,,,,,,,,,,,,,,,,,,,,,,,,,,,,,,,,,,,,,,,,,,,,,,,,,,,,,,,,,,,,,,,,,,,,,,,
,,6004ff08542fe932efbfd8a0,2024-01-06_07h38.21.048,kallum_motion_pilot,2023.2.3,Win32,61.72839506,6004ff08542fe932efbfd8a0,6598e6a5d84f07970b831e70,6598e6ef547f20229a90e0a3,0.0877,0.0878,0,60,60,53,1,threefour,,,,,,,,,,,,,,,,,,,,,,,,,,,,,,,,,,,,,,,,,,,,,,,,,,,,,,,,,,,,,,,,,,,,,,,,,,,,,,,,,,,,,,,,,,,,,,,,,,,,,,,,,,,,,,,,,,,,,,,,,,,,,,,,,,,,,,,
,,6004ff08542fe932efbfd8a0,2024-01-06_07h38.21.048,kallum_motion_pilot,2023.2.3,Win32,61.72839506,6004ff08542fe932efbfd8a0,6598e6a5d84f07970b831e70,6598e6ef547f20229a90e0a3,0.0881,0.0883,0,61,61,41,1,onethree,,,,,,,,,,,,,,,,,,,,,,,,,,,,,,,,,,,,,,,,,,,,,,,,,,,,,,,,,,,,,,,,,,,,,,,,,,,,,,,,,,,,,,,,,,,,,,,,,,,,,,,,,,,,,,,,,,,,,,,,,,,,,,,,,,,,,,,
,,6004ff08542fe932efbfd8a0,2024-01-06_07h38.21.048,kallum_motion_pilot,2023.2.3,Win32,61.72839506,6004ff08542fe932efbfd8a0,6598e6a5d84f07970b831e70,6598e6ef547f20229a90e0a3,0.0885,0.0887,0,62,62,22,1,fourtwo,,,,,,,,,,,,,,,,,,,,,,,,,,,,,,,,,,,,,,,,,,,,,,,,,,,,,,,,,,,,,,,,,,,,,,,,,,,,,,,,,,,,,,,,,,,,,,,,,,,,,,,,,,,,,,,,,,,,,,,,,,,,,,,,,,,,,,,
,,6004ff08542fe932efbfd8a0,2024-01-06_07h38.21.048,kallum_motion_pilot,2023.2.3,Win32,61.72839506,6004ff08542fe932efbfd8a0,6598e6a5d84f07970b831e70,6598e6ef547f20229a90e0a3,0.0893,0.0894,0,63,63,57,1,onethree,,,,,,,,,,,,,,,,,,,,,,,,,,,,,,,,,,,,,,,,,,,,,,,,,,,,,,,,,,,,,,,,,,,,,,,,,,,,,,,,,,,,,,,,,,,,,,,,,,,,,,,,,,,,,,,,,,,,,,,,,,,,,,,,,,,,,,,
,,6004ff08542fe932efbfd8a0,2024-01-06_07h38.21.048,kallum_motion_pilot,2023.2.3,Win32,61.72839506,6004ff08542fe932efbfd8a0,6598e6a5d84f07970b831e70,6598e6ef547f20229a90e0a3,0.0897,0.0898,0,64,64,52,1,threeone,,,,,,,,,,,,,,,,,,,,,,,,,,,,,,,,,,,,,,,,,,,,,,,,,,,,,,,,,,,,,,,,,,,,,,,,,,,,,,,,,,,,,,,,,,,,,,,,,,,,,,,,,,,,,,,,,,,,,,,,,,,,,,,,,,,,,,,
,,6004ff08542fe932efbfd8a0,2024-01-06_07h38.21.048,kallum_motion_pilot,2023.2.3,Win32,61.72839506,6004ff08542fe932efbfd8a0,6598e6a5d84f07970b831e70,6598e6ef547f20229a90e0a3,0.0901,0.0902,0,65,65,131,1,sixeight,,,,,,,,,,,,,,,,,,,,,,,,,,,,,,,,,,,,,,,,,,,,,,,,,,,,,,,,,,,,,,,,,,,,,,,,,,,,,,,,,,,,,,,,,,,,,,,,,,,,,,,,,,,,,,,,,,,,,,,,,,,,,,,,,,,,,,,
,,6004ff08542fe932efbfd8a0,2024-01-06_07h38.21.048,kallum_motion_pilot,2023.2.3,Win32,61.72839506,6004ff08542fe932efbfd8a0,6598e6a5d84f07970b831e70,6598e6ef547f20229a90e0a3,0.0905,0.0906,0,66,66,86,1,eightsix,,,,,,,,,,,,,,,,,,,,,,,,,,,,,,,,,,,,,,,,,,,,,,,,,,,,,,,,,,,,,,,,,,,,,,,,,,,,,,,,,,,,,,,,,,,,,,,,,,,,,,,,,,,,,,,,,,,,,,,,,,,,,,,,,,,,,,,
,,6004ff08542fe932efbfd8a0,2024-01-06_07h38.21.048,kallum_motion_pilot,2023.2.3,Win32,61.72839506,6004ff08542fe932efbfd8a0,6598e6a5d84f07970b831e70,6598e6ef547f20229a90e0a3,0.0908,0.0911,0,67,67,80,1,fivesix,,,,,,,,,,,,,,,,,,,,,,,,,,,,,,,,,,,,,,,,,,,,,,,,,,,,,,,,,,,,,,,,,,,,,,,,,,,,,,,,,,,,,,,,,,,,,,,,,,,,,,,,,,,,,,,,,,,,,,,,,,,,,,,,,,,,,,,
,,6004ff08542fe932efbfd8a0,2024-01-06_07h38.21.048,kallum_motion_pilot,2023.2.3,Win32,61.72839506,6004ff08542fe932efbfd8a0,6598e6a5d84f07970b831e70,6598e6ef547f20229a90e0a3,0.0913,0.0915,0,68,68,153,1,fiveseven,,,,,,,,,,,,,,,,,,,,,,,,,,,,,,,,,,,,,,,,,,,,,,,,,,,,,,,,,,,,,,,,,,,,,,,,,,,,,,,,,,,,,,,,,,,,,,,,,,,,,,,,,,,,,,,,,,,,,,,,,,,,,,,,,,,,,,,
,,6004ff08542fe932efbfd8a0,2024-01-06_07h38.21.048,kallum_motion_pilot,2023.2.3,Win32,61.72839506,6004ff08542fe932efbfd8a0,6598e6a5d84f07970b831e70,6598e6ef547f20229a90e0a3,0.0916,0.0919,0,69,69,21,1,threefour,,,,,,,,,,,,,,,,,,,,,,,,,,,,,,,,,,,,,,,,,,,,,,,,,,,,,,,,,,,,,,,,,,,,,,,,,,,,,,,,,,,,,,,,,,,,,,,,,,,,,,,,,,,,,,,,,,,,,,,,,,,,,,,,,,,,,,,
,,6004ff08542fe932efbfd8a0,2024-01-06_07h38.21.048,kallum_motion_pilot,2023.2.3,Win32,61.72839506,6004ff08542fe932efbfd8a0,6598e6a5d84f07970b831e70,6598e6ef547f20229a90e0a3,0.092,0.0923,0,70,70,29,1,threefour,,,,,,,,,,,,,,,,,,,,,,,,,,,,,,,,,,,,,,,,,,,,,,,,,,,,,,,,,,,,,,,,,,,,,,,,,,,,,,,,,,,,,,,,,,,,,,,,,,,,,,,,,,,,,,,,,,,,,,,,,,,,,,,,,,,,,,,
,,6004ff08542fe932efbfd8a0,2024-01-06_07h38.21.048,kallum_motion_pilot,2023.2.3,Win32,61.72839506,6004ff08542fe932efbfd8a0,6598e6a5d84f07970b831e70,6598e6ef547f20229a90e0a3,0.0924,0.0927,0,71,71,20,1,threeone,,,,,,,,,,,,,,,,,,,,,,,,,,,,,,,,,,,,,,,,,,,,,,,,,,,,,,,,,,,,,,,,,,,,,,,,,,,,,,,,,,,,,,,,,,,,,,,,,,,,,,,,,,,,,,,,,,,,,,,,,,,,,,,,,,,,,,,
,,6004ff08542fe932efbfd8a0,2024-01-06_07h38.21.048,kallum_motion_pilot,2023.2.3,Win32,61.72839506,6004ff08542fe932efbfd8a0,6598e6a5d84f07970b831e70,6598e6ef547f20229a90e0a3,0.0931,0.0932,0,72,72,3,1,twofour,,,,,,,,,,,,,,,,,,,,,,,,,,,,,,,,,,,,,,,,,,,,,,,,,,,,,,,,,,,,,,,,,,,,,,,,,,,,,,,,,,,,,,,,,,,,,,,,,,,,,,,,,,,,,,,,,,,,,,,,,,,,,,,,,,,,,,,
,,6004ff08542fe932efbfd8a0,2024-01-06_07h38.21.048,kallum_motion_pilot,2023.2.3,Win32,61.72839506,6004ff08542fe932efbfd8a0,6598e6a5d84f07970b831e70,6598e6ef547f20229a90e0a3,0.0935,0.0937,0,73,73,147,1,sixeight,,,,,,,,,,,,,,,,,,,,,,,,,,,,,,,,,,,,,,,,,,,,,,,,,,,,,,,,,,,,,,,,,,,,,,,,,,,,,,,,,,,,,,,,,,,,,,,,,,,,,,,,,,,,,,,,,,,,,,,,,,,,,,,,,,,,,,,
,,6004ff08542fe932efbfd8a0,2024-01-06_07h38.21.048,kallum_motion_pilot,2023.2.3,Win32,61.72839506,6004ff08542fe932efbfd8a0,6598e6a5d84f07970b831e70,6598e6ef547f20229a90e0a3,0.0939,0.0941,0,74,74,93,1,seveneight,,,,,,,,,,,,,,,,,,,,,,,,,,,,,,,,,,,,,,,,,,,,,,,,,,,,,,,,,,,,,,,,,,,,,,,,,,,,,,,,,,,,,,,,,,,,,,,,,,,,,,,,,,,,,,,,,,,,,,,,,,,,,,,,,,,,,,,
,,6004ff08542fe932efbfd8a0,2024-01-06_07h38.21.048,kallum_motion_pilot,2023.2.3,Win32,61.72839506,6004ff08542fe932efbfd8a0,6598e6a5d84f07970b831e70,6598e6ef547f20229a90e0a3,0.0944,0.0945,0,75,75,47,1,fourthree,,,,,,,,,,,,,,,,,,,,,,,,,,,,,,,,,,,,,,,,,,,,,,,,,,,,,,,,,,,,,,,,,,,,,,,,,,,,,,,,,,,,,,,,,,,,,,,,,,,,,,,,,,,,,,,,,,,,,,,,,,,,,,,,,,,,,,,
,,6004ff08542fe932efbfd8a0,2024-01-06_07h38.21.048,kallum_motion_pilot,2023.2.3,Win32,61.72839506,6004ff08542fe932efbfd8a0,6598e6a5d84f07970b831e70,6598e6ef547f20229a90e0a3,0.0947,0.095,0,76,76,26,1,twoone,,,,,,,,,,,,,,,,,,,,,,,,,,,,,,,,,,,,,,,,,,,,,,,,,,,,,,,,,,,,,,,,,,,,,,,,,,,,,,,,,,,,,,,,,,,,,,,,,,,,,,,,,,,,,,,,,,,,,,,,,,,,,,,,,,,,,,,
,,6004ff08542fe932efbfd8a0,2024-01-06_07h38.21.048,kallum_motion_pilot,2023.2.3,Win32,61.72839506,6004ff08542fe932efbfd8a0,6598e6a5d84f07970b831e70,6598e6ef547f20229a90e0a3,0.0952,0.0954,0,77,77,139,1,sixeight,,,,,,,,,,,,,,,,,,,,,,,,,,,,,,,,,,,,,,,,,,,,,,,,,,,,,,,,,,,,,,,,,,,,,,,,,,,,,,,,,,,,,,,,,,,,,,,,,,,,,,,,,,,,,,,,,,,,,,,,,,,,,,,,,,,,,,,
,,6004ff08542fe932efbfd8a0,2024-01-06_07h38.21.048,kallum_motion_pilot,2023.2.3,Win32,61.72839506,6004ff08542fe932efbfd8a0,6598e6a5d84f07970b831e70,6598e6ef547f20229a90e0a3,0.0957,0.0959,0,78,78,1,1,onethree,,,,,,,,,,,,,,,,,,,,,,,,,,,,,,,,,,,,,,,,,,,,,,,,,,,,,,,,,,,,,,,,,,,,,,,,,,,,,,,,,,,,,,,,,,,,,,,,,,,,,,,,,,,,,,,,,,,,,,,,,,,,,,,,,,,,,,,
,,6004ff08542fe932efbfd8a0,2024-01-06_07h38.21.048,kallum_motion_pilot,2023.2.3,Win32,61.72839506,6004ff08542fe932efbfd8a0,6598e6a5d84f07970b831e70,6598e6ef547f20229a90e0a3,0.0961,0.0964,0,79,79,54,1,fourtwo,,,,,,,,,,,,,,,,,,,,,,,,,,,,,,,,,,,,,,,,,,,,,,,,,,,,,,,,,,,,,,,,,,,,,,,,,,,,,,,,,,,,,,,,,,,,,,,,,,,,,,,,,,,,,,,,,,,,,,,,,,,,,,,,,,,,,,,
,,6004ff08542fe932efbfd8a0,2024-01-06_07h38.21.048,kallum_motion_pilot,2023.2.3,Win32,61.72839506,6004ff08542fe932efbfd8a0,6598e6a5d84f07970b831e70,6598e6ef547f20229a90e0a3,0.0965,0.0967,0,80,80,104,1,fivesix,,,,,,,,,,,,,,,,,,,,,,,,,,,,,,,,,,,,,,,,,,,,,,,,,,,,,,,,,,,,,,,,,,,,,,,,,,,,,,,,,,,,,,,,,,,,,,,,,,,,,,,,,,,,,,,,,,,,,,,,,,,,,,,,,,,,,,,
,,6004ff08542fe932efbfd8a0,2024-01-06_07h38.21.048,kallum_motion_pilot,2023.2.3,Win32,61.72839506,6004ff08542fe932efbfd8a0,6598e6a5d84f07970b831e70,6598e6ef547f20229a90e0a3,0.0969,0.0975,0,81,81,128,1,fivesix,,,,,,,,,,,,,,,,,,,,,,,,,,,,,,,,,,,,,,,,,,,,,,,,,,,,,,,,,,,,,,,,,,,,,,,,,,,,,,,,,,,,,,,,,,,,,,,,,,,,,,,,,,,,,,,,,,,,,,,,,,,,,,,,,,,,,,,
,,6004ff08542fe932efbfd8a0,2024-01-06_07h38.21.048,kallum_motion_pilot,2023.2.3,Win32,61.72839506,6004ff08542fe932efbfd8a0,6598e6a5d84f07970b831e70,6598e6ef547f20229a90e0a3,0.0977,0.0979,0,82,82,134,1,eightsix,,,,,,,,,,,,,,,,,,,,,,,,,,,,,,,,,,,,,,,,,,,,,,,,,,,,,,,,,,,,,,,,,,,,,,,,,,,,,,,,,,,,,,,,,,,,,,,,,,,,,,,,,,,,,,,,,,,,,,,,,,,,,,,,,,,,,,,
,,6004ff08542fe932efbfd8a0,2024-01-06_07h38.21.048,kallum_motion_pilot,2023.2.3,Win32,61.72839506,6004ff08542fe932efbfd8a0,6598e6a5d84f07970b831e70,6598e6ef547f20229a90e0a3,0.0981,0.0983,0,83,83,142,1,eightsix,,,,,,,,,,,,,,,,,,,,,,,,,,,,,,,,,,,,,,,,,,,,,,,,,,,,,,,,,,,,,,,,,,,,,,,,,,,,,,,,,,,,,,,,,,,,,,,,,,,,,,,,,,,,,,,,,,,,,,,,,,,,,,,,,,,,,,,
,,6004ff08542fe932efbfd8a0,2024-01-06_07h38.21.048,kallum_motion_pilot,2023.2.3,Win32,61.72839506,6004ff08542fe932efbfd8a0,6598e6a5d84f07970b831e70,6598e6ef547f20229a90e0a3,0.0985,0.099,0,84,84,35,1,twofour,,,,,,,,,,,,,,,,,,,,,,,,,,,,,,,,,,,,,,,,,,,,,,,,,,,,,,,,,,,,,,,,,,,,,,,,,,,,,,,,,,,,,,,,,,,,,,,,,,,,,,,,,,,,,,,,,,,,,,,,,,,,,,,,,,,,,,,
,,6004ff08542fe932efbfd8a0,2024-01-06_07h38.21.048,kallum_motion_pilot,2023.2.3,Win32,61.72839506,6004ff08542fe932efbfd8a0,6598e6a5d84f07970b831e70,6598e6ef547f20229a90e0a3,0.0993,0.0996,0,85,85,37,1,threefour,,,,,,,,,,,,,,,,,,,,,,,,,,,,,,,,,,,,,,,,,,,,,,,,,,,,,,,,,,,,,,,,,,,,,,,,,,,,,,,,,,,,,,,,,,,,,,,,,,,,,,,,,,,,,,,,,,,,,,,,,,,,,,,,,,,,,,,
,,6004ff08542fe932efbfd8a0,2024-01-06_07h38.21.048,kallum_motion_pilot,2023.2.3,Win32,61.72839506,6004ff08542fe932efbfd8a0,6598e6a5d84f07970b831e70,6598e6ef547f20229a90e0a3,0.0997,0.1012,0,86,86,144,1,fivesix,,,,,,,,,,,,,,,,,,,,,,,,,,,,,,,,,,,,,,,,,,,,,,,,,,,,,,,,,,,,,,,,,,,,,,,,,,,,,,,,,,,,,,,,,,,,,,,,,,,,,,,,,,,,,,,,,,,,,,,,,,,,,,,,,,,,,,,
,,6004ff08542fe932efbfd8a0,2024-01-06_07h38.21.048,kallum_motion_pilot,2023.2.3,Win32,61.72839506,6004ff08542fe932efbfd8a0,6598e6a5d84f07970b831e70,6598e6ef547f20229a90e0a3,0.1015,0.1017,0,87,87,101,1,seveneight,,,,,,,,,,,,,,,,,,,,,,,,,,,,,,,,,,,,,,,,,,,,,,,,,,,,,,,,,,,,,,,,,,,,,,,,,,,,,,,,,,,,,,,,,,,,,,,,,,,,,,,,,,,,,,,,,,,,,,,,,,,,,,,,,,,,,,,
,,6004ff08542fe932efbfd8a0,2024-01-06_07h38.21.048,kallum_motion_pilot,2023.2.3,Win32,61.72839506,6004ff08542fe932efbfd8a0,6598e6a5d84f07970b831e70,6598e6ef547f20229a90e0a3,0.1019,0.1022,0,88,88,14,1,fourtwo,,,,,,,,,,,,,,,,,,,,,,,,,,,,,,,,,,,,,,,,,,,,,,,,,,,,,,,,,,,,,,,,,,,,,,,,,,,,,,,,,,,,,,,,,,,,,,,,,,,,,,,,,,,,,,,,,,,,,,,,,,,,,,,,,,,,,,,
,,6004ff08542fe932efbfd8a0,2024-01-06_07h38.21.048,kallum_motion_pilot,2023.2.3,Win32,61.72839506,6004ff08542fe932efbfd8a0,6598e6a5d84f07970b831e70,6598e6ef547f20229a90e0a3,0.1024,0.1026,0,89,89,151,1,eightseven,,,,,,,,,,,,,,,,,,,,,,,,,,,,,,,,,,,,,,,,,,,,,,,,,,,,,,,,,,,,,,,,,,,,,,,,,,,,,,,,,,,,,,,,,,,,,,,,,,,,,,,,,,,,,,,,,,,,,,,,,,,,,,,,,,,,,,,
,,6004ff08542fe932efbfd8a0,2024-01-06_07h38.21.048,kallum_motion_pilot,2023.2.3,Win32,61.72839506,6004ff08542fe932efbfd8a0,6598e6a5d84f07970b831e70,6598e6ef547f20229a90e0a3,0.1029,0.1031,0,90,90,116,1,sevenfive,,,,,,,,,,,,,,,,,,,,,,,,,,,,,,,,,,,,,,,,,,,,,,,,,,,,,,,,,,,,,,,,,,,,,,,,,,,,,,,,,,,,,,,,,,,,,,,,,,,,,,,,,,,,,,,,,,,,,,,,,,,,,,,,,,,,,,,
,,6004ff08542fe932efbfd8a0,2024-01-06_07h38.21.048,kallum_motion_pilot,2023.2.3,Win32,61.72839506,6004ff08542fe932efbfd8a0,6598e6a5d84f07970b831e70,6598e6ef547f20229a90e0a3,0.1034,0.1036,0,91,91,103,1,eightseven,,,,,,,,,,,,,,,,,,,,,,,,,,,,,,,,,,,,,,,,,,,,,,,,,,,,,,,,,,,,,,,,,,,,,,,,,,,,,,,,,,,,,,,,,,,,,,,,,,,,,,,,,,,,,,,,,,,,,,,,,,,,,,,,,,,,,,,
,,6004ff08542fe932efbfd8a0,2024-01-06_07h38.21.048,kallum_motion_pilot,2023.2.3,Win32,61.72839506,6004ff08542fe932efbfd8a0,6598e6a5d84f07970b831e70,6598e6ef547f20229a90e0a3,0.1038,0.1041,0,92,92,44,1,threeone,,,,,,,,,,,,,,,,,,,,,,,,,,,,,,,,,,,,,,,,,,,,,,,,,,,,,,,,,,,,,,,,,,,,,,,,,,,,,,,,,,,,,,,,,,,,,,,,,,,,,,,,,,,,,,,,,,,,,,,,,,,,,,,,,,,,,,,
,,6004ff08542fe932efbfd8a0,2024-01-06_07h38.21.048,kallum_motion_pilot,2023.2.3,Win32,61.72839506,6004ff08542fe932efbfd8a0,6598e6a5d84f07970b831e70,6598e6ef547f20229a90e0a3,0.1043,0.1045,0,93,93,59,1,twofour,,,,,,,,,,,,,,,,,,,,,,,,,,,,,,,,,,,,,,,,,,,,,,,,,,,,,,,,,,,,,,,,,,,,,,,,,,,,,,,,,,,,,,,,,,,,,,,,,,,,,,,,,,,,,,,,,,,,,,,,,,,,,,,,,,,,,,,
,,6004ff08542fe932efbfd8a0,2024-01-06_07h38.21.048,kallum_motion_pilot,2023.2.3,Win32,61.72839506,6004ff08542fe932efbfd8a0,6598e6a5d84f07970b831e70,6598e6ef547f20229a90e0a3,0.1049,0.105,0,94,94,49,1,onethree,,,,,,,,,,,,,,,,,,,,,,,,,,,,,,,,,,,,,,,,,,,,,,,,,,,,,,,,,,,,,,,,,,,,,,,,,,,,,,,,,,,,,,,,,,,,,,,,,,,,,,,,,,,,,,,,,,,,,,,,,,,,,,,,,,,,,,,
,,6004ff08542fe932efbfd8a0,2024-01-06_07h38.21.048,kallum_motion_pilot,2023.2.3,Win32,61.72839506,6004ff08542fe932efbfd8a0,6598e6a5d84f07970b831e70,6598e6ef547f20229a90e0a3,0.1053,0.1056,0,95,95,72,1,onetwo,,,,,,,,,,,,,,,,,,,,,,,,,,,,,,,,,,,,,,,,,,,,,,,,,,,,,,,,,,,,,,,,,,,,,,,,,,,,,,,,,,,,,,,,,,,,,,,,,,,,,,,,,,,,,,,,,,,,,,,,,,,,,,,,,,,,,,,
,,6004ff08542fe932efbfd8a0,2024-01-06_07h38.21.048,kallum_motion_pilot,2023.2.3,Win32,61.72839506,6004ff08542fe932efbfd8a0,6598e6a5d84f07970b831e70,6598e6ef547f20229a90e0a3,0.1059,0.106,0,96,96,126,1,eightsix,,,,,,,,,,,,,,,,,,,,,,,,,,,,,,,,,,,,,,,,,,,,,,,,,,,,,,,,,,,,,,,,,,,,,,,,,,,,,,,,,,,,,,,,,,,,,,,,,,,,,,,,,,,,,,,,,,,,,,,,,,,,,,,,,,,,,,,
,,6004ff08542fe932efbfd8a0,2024-01-06_07h38.21.048,kallum_motion_pilot,2023.2.3,Win32,61.72839506,6004ff08542fe932efbfd8a0,6598e6a5d84f07970b831e70,6598e6ef547f20229a90e0a3,0.1063,0.1065,0,97,97,13,1,threefour,,,,,,,,,,,,,,,,,,,,,,,,,,,,,,,,,,,,,,,,,,,,,,,,,,,,,,,,,,,,,,,,,,,,,,,,,,,,,,,,,,,,,,,,,,,,,,,,,,,,,,,,,,,,,,,,,,,,,,,,,,,,,,,,,,,,,,,
,,6004ff08542fe932efbfd8a0,2024-01-06_07h38.21.048,kallum_motion_pilot,2023.2.3,Win32,61.72839506,6004ff08542fe932efbfd8a0,6598e6a5d84f07970b831e70,6598e6ef547f20229a90e0a3,0.1067,0.107,0,98,98,113,1,fiveseven,,,,,,,,,,,,,,,,,,,,,,,,,,,,,,,,,,,,,,,,,,,,,,,,,,,,,,,,,,,,,,,,,,,,,,,,,,,,,,,,,,,,,,,,,,,,,,,,,,,,,,,,,,,,,,,,,,,,,,,,,,,,,,,,,,,,,,,
,,6004ff08542fe932efbfd8a0,2024-01-06_07h38.21.048,kallum_motion_pilot,2023.2.3,Win32,61.72839506,6004ff08542fe932efbfd8a0,6598e6a5d84f07970b831e70,6598e6ef547f20229a90e0a3,0.1072,0.1078,0,99,99,148,1,sevenfive,,,,,,,,,,,,,,,,,,,,,,,,,,,,,,,,,,,,,,,,,,,,,,,,,,,,,,,,,,,,,,,,,,,,,,,,,,,,,,,,,,,,,,,,,,,,,,,,,,,,,,,,,,,,,,,,,,,,,,,,,,,,,,,,,,,,,,,
,,6004ff08542fe932efbfd8a0,2024-01-06_07h38.21.048,kallum_motion_pilot,2023.2.3,Win32,61.72839506,6004ff08542fe932efbfd8a0,6598e6a5d84f07970b831e70,6598e6ef547f20229a90e0a3,0.1081,0.1083,0,100,100,4,1,threeone,,,,,,,,,,,,,,,,,,,,,,,,,,,,,,,,,,,,,,,,,,,,,,,,,,,,,,,,,,,,,,,,,,,,,,,,,,,,,,,,,,,,,,,,,,,,,,,,,,,,,,,,,,,,,,,,,,,,,,,,,,,,,,,,,,,,,,,
,,6004ff08542fe932efbfd8a0,2024-01-06_07h38.21.048,kallum_motion_pilot,2023.2.3,Win32,61.72839506,6004ff08542fe932efbfd8a0,6598e6a5d84f07970b831e70,6598e6ef547f20229a90e0a3,0.1086,0.1089,0,101,101,78,1,fourtwo,,,,,,,,,,,,,,,,,,,,,,,,,,,,,,,,,,,,,,,,,,,,,,,,,,,,,,,,,,,,,,,,,,,,,,,,,,,,,,,,,,,,,,,,,,,,,,,,,,,,,,,,,,,,,,,,,,,,,,,,,,,,,,,,,,,,,,,
,,6004ff08542fe932efbfd8a0,2024-01-06_07h38.21.048,kallum_motion_pilot,2023.2.3,Win32,61.72839506,6004ff08542fe932efbfd8a0,6598e6a5d84f07970b831e70,6598e6ef547f20229a90e0a3,0.1091,0.1093,0,102,102,0,1,onetwo,,,,,,,,,,,,,,,,,,,,,,,,,,,,,,,,,,,,,,,,,,,,,,,,,,,,,,,,,,,,,,,,,,,,,,,,,,,,,,,,,,,,,,,,,,,,,,,,,,,,,,,,,,,,,,,,,,,,,,,,,,,,,,,,,,,,,,,
,,6004ff08542fe932efbfd8a0,2024-01-06_07h38.21.048,kallum_motion_pilot,2023.2.3,Win32,61.72839506,6004ff08542fe932efbfd8a0,6598e6a5d84f07970b831e70,6598e6ef547f20229a90e0a3,0.1096,0.1097,0,103,103,85,1,seveneight,,,,,,,,,,,,,,,,,,,,,,,,,,,,,,,,,,,,,,,,,,,,,,,,,,,,,,,,,,,,,,,,,,,,,,,,,,,,,,,,,,,,,,,,,,,,,,,,,,,,,,,,,,,,,,,,,,,,,,,,,,,,,,,,,,,,,,,
,,6004ff08542fe932efbfd8a0,2024-01-06_07h38.21.048,kallum_motion_pilot,2023.2.3,Win32,61.72839506,6004ff08542fe932efbfd8a0,6598e6a5d84f07970b831e70,6598e6ef547f20229a90e0a3,0.11,0.1102,0,104,104,2,1,twoone,,,,,,,,,,,,,,,,,,,,,,,,,,,,,,,,,,,,,,,,,,,,,,,,,,,,,,,,,,,,,,,,,,,,,,,,,,,,,,,,,,,,,,,,,,,,,,,,,,,,,,,,,,,,,,,,,,,,,,,,,,,,,,,,,,,,,,,
,,6004ff08542fe932efbfd8a0,2024-01-06_07h38.21.048,kallum_motion_pilot,2023.2.3,Win32,61.72839506,6004ff08542fe932efbfd8a0,6598e6a5d84f07970b831e70,6598e6ef547f20229a90e0a3,0.1105,0.1107,0,105,105,108,1,sevenfive,,,,,,,,,,,,,,,,,,,,,,,,,,,,,,,,,,,,,,,,,,,,,,,,,,,,,,,,,,,,,,,,,,,,,,,,,,,,,,,,,,,,,,,,,,,,,,,,,,,,,,,,,,,,,,,,,,,,,,,,,,,,,,,,,,,,,,,
,,6004ff08542fe932efbfd8a0,2024-01-06_07h38.21.048,kallum_motion_pilot,2023.2.3,Win32,61.72839506,6004ff08542fe932efbfd8a0,6598e6a5d84f07970b831e70,6598e6ef547f20229a90e0a3,0.1109,0.1111,0,106,106,65,1,onethree,,,,,,,,,,,,,,,,,,,,,,,,,,,,,,,,,,,,,,,,,,,,,,,,,,,,,,,,,,,,,,,,,,,,,,,,,,,,,,,,,,,,,,,,,,,,,,,,,,,,,,,,,,,,,,,,,,,,,,,,,,,,,,,,,,,,,,,
,,6004ff08542fe932efbfd8a0,2024-01-06_07h38.21.048,kallum_motion_pilot,2023.2.3,Win32,61.72839506,6004ff08542fe932efbfd8a0,6598e6a5d84f07970b831e70,6598e6ef547f20229a90e0a3,0.1114,0.1116,0,107,107,69,1,threefour,,,,,,,,,,,,,,,,,,,,,,,,,,,,,,,,,,,,,,,,,,,,,,,,,,,,,,,,,,,,,,,,,,,,,,,,,,,,,,,,,,,,,,,,,,,,,,,,,,,,,,,,,,,,,,,,,,,,,,,,,,,,,,,,,,,,,,,
,,6004ff08542fe932efbfd8a0,2024-01-06_07h38.21.048,kallum_motion_pilot,2023.2.3,Win32,61.72839506,6004ff08542fe932efbfd8a0,6598e6a5d84f07970b831e70,6598e6ef547f20229a90e0a3,0.1118,0.1121,0,108,108,28,1,threeone,,,,,,,,,,,,,,,,,,,,,,,,,,,,,,,,,,,,,,,,,,,,,,,,,,,,,,,,,,,,,,,,,,,,,,,,,,,,,,,,,,,,,,,,,,,,,,,,,,,,,,,,,,,,,,,,,,,,,,,,,,,,,,,,,,,,,,,
,,6004ff08542fe932efbfd8a0,2024-01-06_07h38.21.048,kallum_motion_pilot,2023.2.3,Win32,61.72839506,6004ff08542fe932efbfd8a0,6598e6a5d84f07970b831e70,6598e6ef547f20229a90e0a3,0.1122,0.1124,0,109,109,160,1,fivesix,,,,,,,,,,,,,,,,,,,,,,,,,,,,,,,,,,,,,,,,,,,,,,,,,,,,,,,,,,,,,,,,,,,,,,,,,,,,,,,,,,,,,,,,,,,,,,,,,,,,,,,,,,,,,,,,,,,,,,,,,,,,,,,,,,,,,,,
,,6004ff08542fe932efbfd8a0,2024-01-06_07h38.21.048,kallum_motion_pilot,2023.2.3,Win32,61.72839506,6004ff08542fe932efbfd8a0,6598e6a5d84f07970b831e70,6598e6ef547f20229a90e0a3,0.1126,0.1129,0,110,110,23,1,fourthree,,,,,,,,,,,,,,,,,,,,,,,,,,,,,,,,,,,,,,,,,,,,,,,,,,,,,,,,,,,,,,,,,,,,,,,,,,,,,,,,,,,,,,,,,,,,,,,,,,,,,,,,,,,,,,,,,,,,,,,,,,,,,,,,,,,,,,,
,,6004ff08542fe932efbfd8a0,2024-01-06_07h38.21.048,kallum_motion_pilot,2023.2.3,Win32,61.72839506,6004ff08542fe932efbfd8a0,6598e6a5d84f07970b831e70,6598e6ef547f20229a90e0a3,0.1131,0.1133,0,111,111,18,1,twoone,,,,,,,,,,,,,,,,,,,,,,,,,,,,,,,,,,,,,,,,,,,,,,,,,,,,,,,,,,,,,,,,,,,,,,,,,,,,,,,,,,,,,,,,,,,,,,,,,,,,,,,,,,,,,,,,,,,,,,,,,,,,,,,,,,,,,,,
,,6004ff08542fe932efbfd8a0,2024-01-06_07h38.21.048,kallum_motion_pilot,2023.2.3,Win32,61.72839506,6004ff08542fe932efbfd8a0,6598e6a5d84f07970b831e70,6598e6ef547f20229a90e0a3,0.1135,0.1138,0,112,112,115,1,sixeight,,,,,,,,,,,,,,,,,,,,,,,,,,,,,,,,,,,,,,,,,,,,,,,,,,,,,,,,,,,,,,,,,,,,,,,,,,,,,,,,,,,,,,,,,,,,,,,,,,,,,,,,,,,,,,,,,,,,,,,,,,,,,,,,,,,,,,,
,,6004ff08542fe932efbfd8a0,2024-01-06_07h38.21.048,kallum_motion_pilot,2023.2.3,Win32,61.72839506,6004ff08542fe932efbfd8a0,6598e6a5d84f07970b831e70,6598e6ef547f20229a90e0a3,0.114,0.1143,0,113,113,133,1,seveneight,,,,,,,,,,,,,,,,,,,,,,,,,,,,,,,,,,,,,,,,,,,,,,,,,,,,,,,,,,,,,,,,,,,,,,,,,,,,,,,,,,,,,,,,,,,,,,,,,,,,,,,,,,,,,,,,,,,,,,,,,,,,,,,,,,,,,,,
,,6004ff08542fe932efbfd8a0,2024-01-06_07h38.21.048,kallum_motion_pilot,2023.2.3,Win32,61.72839506,6004ff08542fe932efbfd8a0,6598e6a5d84f07970b831e70,6598e6ef547f20229a90e0a3,0.1144,0.1146,0,114,114,70,1,fourtwo,,,,,,,,,,,,,,,,,,,,,,,,,,,,,,,,,,,,,,,,,,,,,,,,,,,,,,,,,,,,,,,,,,,,,,,,,,,,,,,,,,,,,,,,,,,,,,,,,,,,,,,,,,,,,,,,,,,,,,,,,,,,,,,,,,,,,,,
,,6004ff08542fe932efbfd8a0,2024-01-06_07h38.21.048,kallum_motion_pilot,2023.2.3,Win32,61.72839506,6004ff08542fe932efbfd8a0,6598e6a5d84f07970b831e70,6598e6ef547f20229a90e0a3,0.1149,0.1151,0,115,115,161,1,fiveseven,,,,,,,,,,,,,,,,,,,,,,,,,,,,,,,,,,,,,,,,,,,,,,,,,,,,,,,,,,,,,,,,,,,,,,,,,,,,,,,,,,,,,,,,,,,,,,,,,,,,,,,,,,,,,,,,,,,,,,,,,,,,,,,,,,,,,,,
,,6004ff08542fe932efbfd8a0,2024-01-06_07h38.21.048,kallum_motion_pilot,2023.2.3,Win32,61.72839506,6004ff08542fe932efbfd8a0,6598e6a5d84f07970b831e70,6598e6ef547f20229a90e0a3,0.1153,0.1159,0,116,116,88,1,fivesix,,,,,,,,,,,,,,,,,,,,,,,,,,,,,,,,,,,,,,,,,,,,,,,,,,,,,,,,,,,,,,,,,,,,,,,,,,,,,,,,,,,,,,,,,,,,,,,,,,,,,,,,,,,,,,,,,,,,,,,,,,,,,,,,,,,,,,,
,,6004ff08542fe932efbfd8a0,2024-01-06_07h38.21.048,kallum_motion_pilot,2023.2.3,Win32,61.72839506,6004ff08542fe932efbfd8a0,6598e6a5d84f07970b831e70,6598e6ef547f20229a90e0a3,0.1161,0.1165,0,117,117,16,1,onetwo,,,,,,,,,,,,,,,,,,,,,,,,,,,,,,,,,,,,,,,,,,,,,,,,,,,,,,,,,,,,,,,,,,,,,,,,,,,,,,,,,,,,,,,,,,,,,,,,,,,,,,,,,,,,,,,,,,,,,,,,,,,,,,,,,,,,,,,
,,6004ff08542fe932efbfd8a0,2024-01-06_07h38.21.048,kallum_motion_pilot,2023.2.3,Win32,61.72839506,6004ff08542fe932efbfd8a0,6598e6a5d84f07970b831e70,6598e6ef547f20229a90e0a3,0.1167,0.1173,0,118,118,30,1,fourtwo,,,,,,,,,,,,,,,,,,,,,,,,,,,,,,,,,,,,,,,,,,,,,,,,,,,,,,,,,,,,,,,,,,,,,,,,,,,,,,,,,,,,,,,,,,,,,,,,,,,,,,,,,,,,,,,,,,,,,,,,,,,,,,,,,,,,,,,
,,6004ff08542fe932efbfd8a0,2024-01-06_07h38.21.048,kallum_motion_pilot,2023.2.3,Win32,61.72839506,6004ff08542fe932efbfd8a0,6598e6a5d84f07970b831e70,6598e6ef547f20229a90e0a3,0.1177,0.1179,0,119,119,73,1,onethree,,,,,,,,,,,,,,,,,,,,,,,,,,,,,,,,,,,,,,,,,,,,,,,,,,,,,,,,,,,,,,,,,,,,,,,,,,,,,,,,,,,,,,,,,,,,,,,,,,,,,,,,,,,,,,,,,,,,,,,,,,,,,,,,,,,,,,,
,,6004ff08542fe932efbfd8a0,2024-01-06_07h38.21.048,kallum_motion_pilot,2023.2.3,Win32,61.72839506,6004ff08542fe932efbfd8a0,6598e6a5d84f07970b831e70,6598e6ef547f20229a90e0a3,0.1181,0.1184,0,120,120,98,1,sixfive,,,,,,,,,,,,,,,,,,,,,,,,,,,,,,,,,,,,,,,,,,,,,,,,,,,,,,,,,,,,,,,,,,,,,,,,,,,,,,,,,,,,,,,,,,,,,,,,,,,,,,,,,,,,,,,,,,,,,,,,,,,,,,,,,,,,,,,
,,6004ff08542fe932efbfd8a0,2024-01-06_07h38.21.048,kallum_motion_pilot,2023.2.3,Win32,61.72839506,6004ff08542fe932efbfd8a0,6598e6a5d84f07970b831e70,6598e6ef547f20229a90e0a3,0.1186,0.1189,0,121,121,56,1,onetwo,,,,,,,,,,,,,,,,,,,,,,,,,,,,,,,,,,,,,,,,,,,,,,,,,,,,,,,,,,,,,,,,,,,,,,,,,,,,,,,,,,,,,,,,,,,,,,,,,,,,,,,,,,,,,,,,,,,,,,,,,,,,,,,,,,,,,,,
,,6004ff08542fe932efbfd8a0,2024-01-06_07h38.21.048,kallum_motion_pilot,2023.2.3,Win32,61.72839506,6004ff08542fe932efbfd8a0,6598e6a5d84f07970b831e70,6598e6ef547f20229a90e0a3,0.1191,0.1193,0,122,122,71,1,fourthree,,,,,,,,,,,,,,,,,,,,,,,,,,,,,,,,,,,,,,,,,,,,,,,,,,,,,,,,,,,,,,,,,,,,,,,,,,,,,,,,,,,,,,,,,,,,,,,,,,,,,,,,,,,,,,,,,,,,,,,,,,,,,,,,,,,,,,,
,,6004ff08542fe932efbfd8a0,2024-01-06_07h38.21.048,kallum_motion_pilot,2023.2.3,Win32,61.72839506,6004ff08542fe932efbfd8a0,6598e6a5d84f07970b831e70,6598e6ef547f20229a90e0a3,0.1195,0.1197,0,123,123,33,1,onethree,,,,,,,,,,,,,,,,,,,,,,,,,,,,,,,,,,,,,,,,,,,,,,,,,,,,,,,,,,,,,,,,,,,,,,,,,,,,,,,,,,,,,,,,,,,,,,,,,,,,,,,,,,,,,,,,,,,,,,,,,,,,,,,,,,,,,,,
,,6004ff08542fe932efbfd8a0,2024-01-06_07h38.21.048,kallum_motion_pilot,2023.2.3,Win32,61.72839506,6004ff08542fe932efbfd8a0,6598e6a5d84f07970b831e70,6598e6ef547f20229a90e0a3,0.12,0.1203,0,124,124,15,1,fourthree,,,,,,,,,,,,,,,,,,,,,,,,,,,,,,,,,,,,,,,,,,,,,,,,,,,,,,,,,,,,,,,,,,,,,,,,,,,,,,,,,,,,,,,,,,,,,,,,,,,,,,,,,,,,,,,,,,,,,,,,,,,,,,,,,,,,,,,
,,6004ff08542fe932efbfd8a0,2024-01-06_07h38.21.048,kallum_motion_pilot,2023.2.3,Win32,61.72839506,6004ff08542fe932efbfd8a0,6598e6a5d84f07970b831e70,6598e6ef547f20229a90e0a3,0.1205,0.1207,0,125,125,90,1,sixfive,,,,,,,,,,,,,,,,,,,,,,,,,,,,,,,,,,,,,,,,,,,,,,,,,,,,,,,,,,,,,,,,,,,,,,,,,,,,,,,,,,,,,,,,,,,,,,,,,,,,,,,,,,,,,,,,,,,,,,,,,,,,,,,,,,,,,,,
,,6004ff08542fe932efbfd8a0,2024-01-06_07h38.21.048,kallum_motion_pilot,2023.2.3,Win32,61.72839506,6004ff08542fe932efbfd8a0,6598e6a5d84f07970b831e70,6598e6ef547f20229a90e0a3,0.1211,0.1213,0,126,126,150,1,eightsix,,,,,,,,,,,,,,,,,,,,,,,,,,,,,,,,,,,,,,,,,,,,,,,,,,,,,,,,,,,,,,,,,,,,,,,,,,,,,,,,,,,,,,,,,,,,,,,,,,,,,,,,,,,,,,,,,,,,,,,,,,,,,,,,,,,,,,,
,,6004ff08542fe932efbfd8a0,2024-01-06_07h38.21.048,kallum_motion_pilot,2023.2.3,Win32,61.72839506,6004ff08542fe932efbfd8a0,6598e6a5d84f07970b831e70,6598e6ef547f20229a90e0a3,0.1215,0.1216,0,127,127,118,1,eightsix,,,,,,,,,,,,,,,,,,,,,,,,,,,,,,,,,,,,,,,,,,,,,,,,,,,,,,,,,,,,,,,,,,,,,,,,,,,,,,,,,,,,,,,,,,,,,,,,,,,,,,,,,,,,,,,,,,,,,,,,,,,,,,,,,,,,,,,
,,6004ff08542fe932efbfd8a0,2024-01-06_07h38.21.048,kallum_motion_pilot,2023.2.3,Win32,61.72839506,6004ff08542fe932efbfd8a0,6598e6a5d84f07970b831e70,6598e6ef547f20229a90e0a3,0.122,0.1222,0,128,128,62,1,fourtwo,,,,,,,,,,,,,,,,,,,,,,,,,,,,,,,,,,,,,,,,,,,,,,,,,,,,,,,,,,,,,,,,,,,,,,,,,,,,,,,,,,,,,,,,,,,,,,,,,,,,,,,,,,,,,,,,,,,,,,,,,,,,,,,,,,,,,,,
,,6004ff08542fe932efbfd8a0,2024-01-06_07h38.21.048,kallum_motion_pilot,2023.2.3,Win32,61.72839506,6004ff08542fe932efbfd8a0,6598e6a5d84f07970b831e70,6598e6ef547f20229a90e0a3,0.1225,0.1228,0,129,129,130,1,sixfive,,,,,,,,,,,,,,,,,,,,,,,,,,,,,,,,,,,,,,,,,,,,,,,,,,,,,,,,,,,,,,,,,,,,,,,,,,,,,,,,,,,,,,,,,,,,,,,,,,,,,,,,,,,,,,,,,,,,,,,,,,,,,,,,,,,,,,,
,,6004ff08542fe932efbfd8a0,2024-01-06_07h38.21.048,kallum_motion_pilot,2023.2.3,Win32,61.72839506,6004ff08542fe932efbfd8a0,6598e6a5d84f07970b831e70,6598e6ef547f20229a90e0a3,0.123,0.1232,0,130,130,99,1,sixeight,,,,,,,,,,,,,,,,,,,,,,,,,,,,,,,,,,,,,,,,,,,,,,,,,,,,,,,,,,,,,,,,,,,,,,,,,,,,,,,,,,,,,,,,,,,,,,,,,,,,,,,,,,,,,,,,,,,,,,,,,,,,,,,,,,,,,,,
,,6004ff08542fe932efbfd8a0,2024-01-06_07h38.21.048,kallum_motion_pilot,2023.2.3,Win32,61.72839506,6004ff08542fe932efbfd8a0,6598e6a5d84f07970b831e70,6598e6ef547f20229a90e0a3,0.1235,0.1236,0,131,131,122,1,sixfive,,,,,,,,,,,,,,,,,,,,,,,,,,,,,,,,,,,,,,,,,,,,,,,,,,,,,,,,,,,,,,,,,,,,,,,,,,,,,,,,,,,,,,,,,,,,,,,,,,,,,,,,,,,,,,,,,,,,,,,,,,,,,,,,,,,,,,,
,,6004ff08542fe932efbfd8a0,2024-01-06_07h38.21.048,kallum_motion_pilot,2023.2.3,Win32,61.72839506,6004ff08542fe932efbfd8a0,6598e6a5d84f07970b831e70,6598e6ef547f20229a90e0a3,0.1239,0.1241,0,132,132,83,1,sixeight,,,,,,,,,,,,,,,,,,,,,,,,,,,,,,,,,,,,,,,,,,,,,,,,,,,,,,,,,,,,,,,,,,,,,,,,,,,,,,,,,,,,,,,,,,,,,,,,,,,,,,,,,,,,,,,,,,,,,,,,,,,,,,,,,,,,,,,
,,6004ff08542fe932efbfd8a0,2024-01-06_07h38.21.048,kallum_motion_pilot,2023.2.3,Win32,61.72839506,6004ff08542fe932efbfd8a0,6598e6a5d84f07970b831e70,6598e6ef547f20229a90e0a3,0.1243,0.1246,0,133,133,87,1,eightseven,,,,,,,,,,,,,,,,,,,,,,,,,,,,,,,,,,,,,,,,,,,,,,,,,,,,,,,,,,,,,,,,,,,,,,,,,,,,,,,,,,,,,,,,,,,,,,,,,,,,,,,,,,,,,,,,,,,,,,,,,,,,,,,,,,,,,,,
,,6004ff08542fe932efbfd8a0,2024-01-06_07h38.21.048,kallum_motion_pilot,2023.2.3,Win32,61.72839506,6004ff08542fe932efbfd8a0,6598e6a5d84f07970b831e70,6598e6ef547f20229a90e0a3,0.125,0.1252,0,134,134,155,1,sixeight,,,,,,,,,,,,,,,,,,,,,,,,,,,,,,,,,,,,,,,,,,,,,,,,,,,,,,,,,,,,,,,,,,,,,,,,,,,,,,,,,,,,,,,,,,,,,,,,,,,,,,,,,,,,,,,,,,,,,,,,,,,,,,,,,,,,,,,
,,6004ff08542fe932efbfd8a0,2024-01-06_07h38.21.048,kallum_motion_pilot,2023.2.3,Win32,61.72839506,6004ff08542fe932efbfd8a0,6598e6a5d84f07970b831e70,6598e6ef547f20229a90e0a3,0.1254,0.1256,0,135,135,45,1,threefour,,,,,,,,,,,,,,,,,,,,,,,,,,,,,,,,,,,,,,,,,,,,,,,,,,,,,,,,,,,,,,,,,,,,,,,,,,,,,,,,,,,,,,,,,,,,,,,,,,,,,,,,,,,,,,,,,,,,,,,,,,,,,,,,,,,,,,,
,,6004ff08542fe932efbfd8a0,2024-01-06_07h38.21.048,kallum_motion_pilot,2023.2.3,Win32,61.72839506,6004ff08542fe932efbfd8a0,6598e6a5d84f07970b831e70,6598e6ef547f20229a90e0a3,0.1259,0.1261,0,136,136,97,1,fiveseven,,,,,,,,,,,,,,,,,,,,,,,,,,,,,,,,,,,,,,,,,,,,,,,,,,,,,,,,,,,,,,,,,,,,,,,,,,,,,,,,,,,,,,,,,,,,,,,,,,,,,,,,,,,,,,,,,,,,,,,,,,,,,,,,,,,,,,,
,,6004ff08542fe932efbfd8a0,2024-01-06_07h38.21.048,kallum_motion_pilot,2023.2.3,Win32,61.72839506,6004ff08542fe932efbfd8a0,6598e6a5d84f07970b831e70,6598e6ef547f20229a90e0a3,0.1263,0.1266,0,137,137,34,1,twoone,,,,,,,,,,,,,,,,,,,,,,,,,,,,,,,,,,,,,,,,,,,,,,,,,,,,,,,,,,,,,,,,,,,,,,,,,,,,,,,,,,,,,,,,,,,,,,,,,,,,,,,,,,,,,,,,,,,,,,,,,,,,,,,,,,,,,,,
,,6004ff08542fe932efbfd8a0,2024-01-06_07h38.21.048,kallum_motion_pilot,2023.2.3,Win32,61.72839506,6004ff08542fe932efbfd8a0,6598e6a5d84f07970b831e70,6598e6ef547f20229a90e0a3,0.1268,0.1273,0,138,138,100,1,sevenfive,,,,,,,,,,,,,,,,,,,,,,,,,,,,,,,,,,,,,,,,,,,,,,,,,,,,,,,,,,,,,,,,,,,,,,,,,,,,,,,,,,,,,,,,,,,,,,,,,,,,,,,,,,,,,,,,,,,,,,,,,,,,,,,,,,,,,,,
,,6004ff08542fe932efbfd8a0,2024-01-06_07h38.21.048,kallum_motion_pilot,2023.2.3,Win32,61.72839506,6004ff08542fe932efbfd8a0,6598e6a5d84f07970b831e70,6598e6ef547f20229a90e0a3,0.1276,0.1278,0,139,139,159,1,eightseven,,,,,,,,,,,,,,,,,,,,,,,,,,,,,,,,,,,,,,,,,,,,,,,,,,,,,,,,,,,,,,,,,,,,,,,,,,,,,,,,,,,,,,,,,,,,,,,,,,,,,,,,,,,,,,,,,,,,,,,,,,,,,,,,,,,,,,,
,,6004ff08542fe932efbfd8a0,2024-01-06_07h38.21.048,kallum_motion_pilot,2023.2.3,Win32,61.72839506,6004ff08542fe932efbfd8a0,6598e6a5d84f07970b831e70,6598e6ef547f20229a90e0a3,0.128,0.1282,0,140,140,132,1,sevenfive,,,,,,,,,,,,,,,,,,,,,,,,,,,,,,,,,,,,,,,,,,,,,,,,,,,,,,,,,,,,,,,,,,,,,,,,,,,,,,,,,,,,,,,,,,,,,,,,,,,,,,,,,,,,,,,,,,,,,,,,,,,,,,,,,,,,,,,
,,6004ff08542fe932efbfd8a0,2024-01-06_07h38.21.048,kallum_motion_pilot,2023.2.3,Win32,61.72839506,6004ff08542fe932efbfd8a0,6598e6a5d84f07970b831e70,6598e6ef547f20229a90e0a3,0.1284,0.1287,0,141,141,149,1,seveneight,,,,,,,,,,,,,,,,,,,,,,,,,,,,,,,,,,,,,,,,,,,,,,,,,,,,,,,,,,,,,,,,,,,,,,,,,,,,,,,,,,,,,,,,,,,,,,,,,,,,,,,,,,,,,,,,,,,,,,,,,,,,,,,,,,,,,,,
,,6004ff08542fe932efbfd8a0,2024-01-06_07h38.21.048,kallum_motion_pilot,2023.2.3,Win32,61.72839506,6004ff08542fe932efbfd8a0,6598e6a5d84f07970b831e70,6598e6ef547f20229a90e0a3,0.129,0.1291,0,142,142,39,1,fourthree,,,,,,,,,,,,,,,,,,,,,,,,,,,,,,,,,,,,,,,,,,,,,,,,,,,,,,,,,,,,,,,,,,,,,,,,,,,,,,,,,,,,,,,,,,,,,,,,,,,,,,,,,,,,,,,,,,,,,,,,,,,,,,,,,,,,,,,
,,6004ff08542fe932efbfd8a0,2024-01-06_07h38.21.048,kallum_motion_pilot,2023.2.3,Win32,61.72839506,6004ff08542fe932efbfd8a0,6598e6a5d84f07970b831e70,6598e6ef547f20229a90e0a3,0.1294,0.1296,0,143,143,11,1,twofour,,,,,,,,,,,,,,,,,,,,,,,,,,,,,,,,,,,,,,,,,,,,,,,,,,,,,,,,,,,,,,,,,,,,,,,,,,,,,,,,,,,,,,,,,,,,,,,,,,,,,,,,,,,,,,,,,,,,,,,,,,,,,,,,,,,,,,,
,,6004ff08542fe932efbfd8a0,2024-01-06_07h38.21.048,kallum_motion_pilot,2023.2.3,Win32,61.72839506,6004ff08542fe932efbfd8a0,6598e6a5d84f07970b831e70,6598e6ef547f20229a90e0a3,0.1298,0.13,0,144,144,74,1,twoone,,,,,,,,,,,,,,,,,,,,,,,,,,,,,,,,,,,,,,,,,,,,,,,,,,,,,,,,,,,,,,,,,,,,,,,,,,,,,,,,,,,,,,,,,,,,,,,,,,,,,,,,,,,,,,,,,,,,,,,,,,,,,,,,,,,,,,,
,,6004ff08542fe932efbfd8a0,2024-01-06_07h38.21.048,kallum_motion_pilot,2023.2.3,Win32,61.72839506,6004ff08542fe932efbfd8a0,6598e6a5d84f07970b831e70,6598e6ef547f20229a90e0a3,0.1303,0.1305,0,145,145,55,1,fourthree,,,,,,,,,,,,,,,,,,,,,,,,,,,,,,,,,,,,,,,,,,,,,,,,,,,,,,,,,,,,,,,,,,,,,,,,,,,,,,,,,,,,,,,,,,,,,,,,,,,,,,,,,,,,,,,,,,,,,,,,,,,,,,,,,,,,,,,
,,6004ff08542fe932efbfd8a0,2024-01-06_07h38.21.048,kallum_motion_pilot,2023.2.3,Win32,61.72839506,6004ff08542fe932efbfd8a0,6598e6a5d84f07970b831e70,6598e6ef547f20229a90e0a3,0.1307,0.131,0,146,146,58,1,twoone,,,,,,,,,,,,,,,,,,,,,,,,,,,,,,,,,,,,,,,,,,,,,,,,,,,,,,,,,,,,,,,,,,,,,,,,,,,,,,,,,,,,,,,,,,,,,,,,,,,,,,,,,,,,,,,,,,,,,,,,,,,,,,,,,,,,,,,
,,6004ff08542fe932efbfd8a0,2024-01-06_07h38.21.048,kallum_motion_pilot,2023.2.3,Win32,61.72839506,6004ff08542fe932efbfd8a0,6598e6a5d84f07970b831e70,6598e6ef547f20229a90e0a3,0.1312,0.1314,0,147,147,67,1,twofour,,,,,,,,,,,,,,,,,,,,,,,,,,,,,,,,,,,,,,,,,,,,,,,,,,,,,,,,,,,,,,,,,,,,,,,,,,,,,,,,,,,,,,,,,,,,,,,,,,,,,,,,,,,,,,,,,,,,,,,,,,,,,,,,,,,,,,,
,,6004ff08542fe932efbfd8a0,2024-01-06_07h38.21.048,kallum_motion_pilot,2023.2.3,Win32,61.72839506,6004ff08542fe932efbfd8a0,6598e6a5d84f07970b831e70,6598e6ef547f20229a90e0a3,0.1317,0.1322,0,148,148,146,1,sixfive,,,,,,,,,,,,,,,,,,,,,,,,,,,,,,,,,,,,,,,,,,,,,,,,,,,,,,,,,,,,,,,,,,,,,,,,,,,,,,,,,,,,,,,,,,,,,,,,,,,,,,,,,,,,,,,,,,,,,,,,,,,,,,,,,,,,,,,
,,6004ff08542fe932efbfd8a0,2024-01-06_07h38.21.048,kallum_motion_pilot,2023.2.3,Win32,61.72839506,6004ff08542fe932efbfd8a0,6598e6a5d84f07970b831e70,6598e6ef547f20229a90e0a3,0.1335,0.1339,0,149,149,79,1,eightseven,,,,,,,,,,,,,,,,,,,,,,,,,,,,,,,,,,,,,,,,,,,,,,,,,,,,,,,,,,,,,,,,,,,,,,,,,,,,,,,,,,,,,,,,,,,,,,,,,,,,,,,,,,,,,,,,,,,,,,,,,,,,,,,,,,,,,,,
,,6004ff08542fe932efbfd8a0,2024-01-06_07h38.21.048,kallum_motion_pilot,2023.2.3,Win32,61.72839506,6004ff08542fe932efbfd8a0,6598e6a5d84f07970b831e70,6598e6ef547f20229a90e0a3,0.1341,0.1343,0,150,150,107,1,sixeight,,,,,,,,,,,,,,,,,,,,,,,,,,,,,,,,,,,,,,,,,,,,,,,,,,,,,,,,,,,,,,,,,,,,,,,,,,,,,,,,,,,,,,,,,,,,,,,,,,,,,,,,,,,,,,,,,,,,,,,,,,,,,,,,,,,,,,,
,,6004ff08542fe932efbfd8a0,2024-01-06_07h38.21.048,kallum_motion_pilot,2023.2.3,Win32,61.72839506,6004ff08542fe932efbfd8a0,6598e6a5d84f07970b831e70,6598e6ef547f20229a90e0a3,0.1347,0.1348,0,151,151,27,1,twofour,,,,,,,,,,,,,,,,,,,,,,,,,,,,,,,,,,,,,,,,,,,,,,,,,,,,,,,,,,,,,,,,,,,,,,,,,,,,,,,,,,,,,,,,,,,,,,,,,,,,,,,,,,,,,,,,,,,,,,,,,,,,,,,,,,,,,,,
,,6004ff08542fe932efbfd8a0,2024-01-06_07h38.21.048,kallum_motion_pilot,2023.2.3,Win32,61.72839506,6004ff08542fe932efbfd8a0,6598e6a5d84f07970b831e70,6598e6ef547f20229a90e0a3,0.1352,0.1354,0,152,152,112,1,fivesix,,,,,,,,,,,,,,,,,,,,,,,,,,,,,,,,,,,,,,,,,,,,,,,,,,,,,,,,,,,,,,,,,,,,,,,,,,,,,,,,,,,,,,,,,,,,,,,,,,,,,,,,,,,,,,,,,,,,,,,,,,,,,,,,,,,,,,,
,,6004ff08542fe932efbfd8a0,2024-01-06_07h38.21.048,kallum_motion_pilot,2023.2.3,Win32,61.72839506,6004ff08542fe932efbfd8a0,6598e6a5d84f07970b831e70,6598e6ef547f20229a90e0a3,0.1356,0.1358,0,153,153,5,1,threefour,,,,,,,,,,,,,,,,,,,,,,,,,,,,,,,,,,,,,,,,,,,,,,,,,,,,,,,,,,,,,,,,,,,,,,,,,,,,,,,,,,,,,,,,,,,,,,,,,,,,,,,,,,,,,,,,,,,,,,,,,,,,,,,,,,,,,,,
,,6004ff08542fe932efbfd8a0,2024-01-06_07h38.21.048,kallum_motion_pilot,2023.2.3,Win32,61.72839506,6004ff08542fe932efbfd8a0,6598e6a5d84f07970b831e70,6598e6ef547f20229a90e0a3,0.1361,0.1363,0,154,154,46,1,fourtwo,,,,,,,,,,,,,,,,,,,,,,,,,,,,,,,,,,,,,,,,,,,,,,,,,,,,,,,,,,,,,,,,,,,,,,,,,,,,,,,,,,,,,,,,,,,,,,,,,,,,,,,,,,,,,,,,,,,,,,,,,,,,,,,,,,,,,,,
,,6004ff08542fe932efbfd8a0,2024-01-06_07h38.21.048,kallum_motion_pilot,2023.2.3,Win32,61.72839506,6004ff08542fe932efbfd8a0,6598e6a5d84f07970b831e70,6598e6ef547f20229a90e0a3,0.1365,0.1367,0,155,155,140,1,sevenfive,,,,,,,,,,,,,,,,,,,,,,,,,,,,,,,,,,,,,,,,,,,,,,,,,,,,,,,,,,,,,,,,,,,,,,,,,,,,,,,,,,,,,,,,,,,,,,,,,,,,,,,,,,,,,,,,,,,,,,,,,,,,,,,,,,,,,,,
,,6004ff08542fe932efbfd8a0,2024-01-06_07h38.21.048,kallum_motion_pilot,2023.2.3,Win32,61.72839506,6004ff08542fe932efbfd8a0,6598e6a5d84f07970b831e70,6598e6ef547f20229a90e0a3,0.1369,0.1375,0,156,156,129,1,fiveseven,,,,,,,,,,,,,,,,,,,,,,,,,,,,,,,,,,,,,,,,,,,,,,,,,,,,,,,,,,,,,,,,,,,,,,,,,,,,,,,,,,,,,,,,,,,,,,,,,,,,,,,,,,,,,,,,,,,,,,,,,,,,,,,,,,,,,,,
,,6004ff08542fe932efbfd8a0,2024-01-06_07h38.21.048,kallum_motion_pilot,2023.2.3,Win32,61.72839506,6004ff08542fe932efbfd8a0,6598e6a5d84f07970b831e70,6598e6ef547f20229a90e0a3,0.1378,0.1381,0,157,157,141,1,seveneight,,,,,,,,,,,,,,,,,,,,,,,,,,,,,,,,,,,,,,,,,,,,,,,,,,,,,,,,,,,,,,,,,,,,,,,,,,,,,,,,,,,,,,,,,,,,,,,,,,,,,,,,,,,,,,,,,,,,,,,,,,,,,,,,,,,,,,,
,,6004ff08542fe932efbfd8a0,2024-01-06_07h38.21.048,kallum_motion_pilot,2023.2.3,Win32,61.72839506,6004ff08542fe932efbfd8a0,6598e6a5d84f07970b831e70,6598e6ef547f20229a90e0a3,0.1384,0.1386,0,158,158,124,1,sevenfive,,,,,,,,,,,,,,,,,,,,,,,,,,,,,,,,,,,,,,,,,,,,,,,,,,,,,,,,,,,,,,,,,,,,,,,,,,,,,,,,,,,,,,,,,,,,,,,,,,,,,,,,,,,,,,,,,,,,,,,,,,,,,,,,,,,,,,,
,,6004ff08542fe932efbfd8a0,2024-01-06_07h38.21.048,kallum_motion_pilot,2023.2.3,Win32,61.72839506,6004ff08542fe932efbfd8a0,6598e6a5d84f07970b831e70,6598e6ef547f20229a90e0a3,0.1388,0.139,0,159,159,43,1,twofour,,,,,,,,,,,,,,,,,,,,,,,,,,,,,,,,,,,,,,,,,,,,,,,,,,,,,,,,,,,,,,,,,,,,,,,,,,,,,,,,,,,,,,,,,,,,,,,,,,,,,,,,,,,,,,,,,,,,,,,,,,,,,,,,,,,,,,,
,,6004ff08542fe932efbfd8a0,2024-01-06_07h38.21.048,kallum_motion_pilot,2023.2.3,Win32,61.72839506,6004ff08542fe932efbfd8a0,6598e6a5d84f07970b831e70,6598e6ef547f20229a90e0a3,0.1393,0.1395,0,160,160,36,1,threeone,,,,,,,,,,,,,,,,,,,,,,,,,,,,,,,,,,,,,,,,,,,,,,,,,,,,,,,,,,,,,,,,,,,,,,,,,,,,,,,,,,,,,,,,,,,,,,,,,,,,,,,,,,,,,,,,,,,,,,,,,,,,,,,,,,,,,,,
,,6004ff08542fe932efbfd8a0,2024-01-06_07h38.21.048,kallum_motion_pilot,2023.2.3,Win32,61.72839506,6004ff08542fe932efbfd8a0,6598e6a5d84f07970b831e70,6598e6ef547f20229a90e0a3,0.1397,0.14,0,161,161,117,1,seveneight,,,,,,,,,,,,,,,,,,,,,,,,,,,,,,,,,,,,,,,,,,,,,,,,,,,,,,,,,,,,,,,,,,,,,,,,,,,,,,,,,,,,,,,,,,,,,,,,,,,,,,,,,,,,,,,,,,,,,,,,,,,,,,,,,,,,,,,
,,6004ff08542fe932efbfd8a0,2024-01-06_07h38.21.048,kallum_motion_pilot,2023.2.3,Win32,61.72839506,6004ff08542fe932efbfd8a0,6598e6a5d84f07970b831e70,6598e6ef547f20229a90e0a3,0.1402,0.1404,1,0,162,111,1,eightseven,,,,,,,,,,,,,,,,,,,,,,,,,,,,,,,,,,,,,,,,,,,,,,,,,,,,,,,,,,,,,,,,,,,,,,,,,,,,,,,,,,,,,,,,,,,,,,,,,,,,,,,,,,,,,,,,,,,,,,,,,,,,,,,,,,,,,,,
,,6004ff08542fe932efbfd8a0,2024-01-06_07h38.21.048,kallum_motion_pilot,2023.2.3,Win32,61.72839506,6004ff08542fe932efbfd8a0,6598e6a5d84f07970b831e70,6598e6ef547f20229a90e0a3,0.1406,0.1409,1,1,163,85,1,seveneight,,,,,,,,,,,,,,,,,,,,,,,,,,,,,,,,,,,,,,,,,,,,,,,,,,,,,,,,,,,,,,,,,,,,,,,,,,,,,,,,,,,,,,,,,,,,,,,,,,,,,,,,,,,,,,,,,,,,,,,,,,,,,,,,,,,,,,,
,,6004ff08542fe932efbfd8a0,2024-01-06_07h38.21.048,kallum_motion_pilot,2023.2.3,Win32,61.72839506,6004ff08542fe932efbfd8a0,6598e6a5d84f07970b831e70,6598e6ef547f20229a90e0a3,0.1412,0.1414,1,2,164,50,1,twoone,,,,,,,,,,,,,,,,,,,,,,,,,,,,,,,,,,,,,,,,,,,,,,,,,,,,,,,,,,,,,,,,,,,,,,,,,,,,,,,,,,,,,,,,,,,,,,,,,,,,,,,,,,,,,,,,,,,,,,,,,,,,,,,,,,,,,,,
,,6004ff08542fe932efbfd8a0,2024-01-06_07h38.21.048,kallum_motion_pilot,2023.2.3,Win32,61.72839506,6004ff08542fe932efbfd8a0,6598e6a5d84f07970b831e70,6598e6ef547f20229a90e0a3,0.1416,0.1419,1,3,165,64,1,onetwo,,,,,,,,,,,,,,,,,,,,,,,,,,,,,,,,,,,,,,,,,,,,,,,,,,,,,,,,,,,,,,,,,,,,,,,,,,,,,,,,,,,,,,,,,,,,,,,,,,,,,,,,,,,,,,,,,,,,,,,,,,,,,,,,,,,,,,,
,,6004ff08542fe932efbfd8a0,2024-01-06_07h38.21.048,kallum_motion_pilot,2023.2.3,Win32,61.72839506,6004ff08542fe932efbfd8a0,6598e6a5d84f07970b831e70,6598e6ef547f20229a90e0a3,0.1421,0.1424,1,4,166,147,1,sixeight,,,,,,,,,,,,,,,,,,,,,,,,,,,,,,,,,,,,,,,,,,,,,,,,,,,,,,,,,,,,,,,,,,,,,,,,,,,,,,,,,,,,,,,,,,,,,,,,,,,,,,,,,,,,,,,,,,,,,,,,,,,,,,,,,,,,,,,
,,6004ff08542fe932efbfd8a0,2024-01-06_07h38.21.048,kallum_motion_pilot,2023.2.3,Win32,61.72839506,6004ff08542fe932efbfd8a0,6598e6a5d84f07970b831e70,6598e6ef547f20229a90e0a3,0.1426,0.1428,1,5,167,132,1,sevenfive,,,,,,,,,,,,,,,,,,,,,,,,,,,,,,,,,,,,,,,,,,,,,,,,,,,,,,,,,,,,,,,,,,,,,,,,,,,,,,,,,,,,,,,,,,,,,,,,,,,,,,,,,,,,,,,,,,,,,,,,,,,,,,,,,,,,,,,
,,6004ff08542fe932efbfd8a0,2024-01-06_07h38.21.048,kallum_motion_pilot,2023.2.3,Win32,61.72839506,6004ff08542fe932efbfd8a0,6598e6a5d84f07970b831e70,6598e6ef547f20229a90e0a3,0.143,0.1432,1,6,168,156,1,sevenfive,,,,,,,,,,,,,,,,,,,,,,,,,,,,,,,,,,,,,,,,,,,,,,,,,,,,,,,,,,,,,,,,,,,,,,,,,,,,,,,,,,,,,,,,,,,,,,,,,,,,,,,,,,,,,,,,,,,,,,,,,,,,,,,,,,,,,,,
,,6004ff08542fe932efbfd8a0,2024-01-06_07h38.21.048,kallum_motion_pilot,2023.2.3,Win32,61.72839506,6004ff08542fe932efbfd8a0,6598e6a5d84f07970b831e70,6598e6ef547f20229a90e0a3,0.1434,0.1437,1,7,169,52,1,threeone,,,,,,,,,,,,,,,,,,,,,,,,,,,,,,,,,,,,,,,,,,,,,,,,,,,,,,,,,,,,,,,,,,,,,,,,,,,,,,,,,,,,,,,,,,,,,,,,,,,,,,,,,,,,,,,,,,,,,,,,,,,,,,,,,,,,,,,
,,6004ff08542fe932efbfd8a0,2024-01-06_07h38.21.048,kallum_motion_pilot,2023.2.3,Win32,61.72839506,6004ff08542fe932efbfd8a0,6598e6a5d84f07970b831e70,6598e6ef547f20229a90e0a3,0.1439,0.1441,1,8,170,77,1,threefour,,,,,,,,,,,,,,,,,,,,,,,,,,,,,,,,,,,,,,,,,,,,,,,,,,,,,,,,,,,,,,,,,,,,,,,,,,,,,,,,,,,,,,,,,,,,,,,,,,,,,,,,,,,,,,,,,,,,,,,,,,,,,,,,,,,,,,,
,,6004ff08542fe932efbfd8a0,2024-01-06_07h38.21.048,kallum_motion_pilot,2023.2.3,Win32,61.72839506,6004ff08542fe932efbfd8a0,6598e6a5d84f07970b831e70,6598e6ef547f20229a90e0a3,0.1444,0.1446,1,9,171,139,1,sixeight,,,,,,,,,,,,,,,,,,,,,,,,,,,,,,,,,,,,,,,,,,,,,,,,,,,,,,,,,,,,,,,,,,,,,,,,,,,,,,,,,,,,,,,,,,,,,,,,,,,,,,,,,,,,,,,,,,,,,,,,,,,,,,,,,,,,,,,
,,6004ff08542fe932efbfd8a0,2024-01-06_07h38.21.048,kallum_motion_pilot,2023.2.3,Win32,61.72839506,6004ff08542fe932efbfd8a0,6598e6a5d84f07970b831e70,6598e6ef547f20229a90e0a3,0.1448,0.145,1,10,172,94,1,eightsix,,,,,,,,,,,,,,,,,,,,,,,,,,,,,,,,,,,,,,,,,,,,,,,,,,,,,,,,,,,,,,,,,,,,,,,,,,,,,,,,,,,,,,,,,,,,,,,,,,,,,,,,,,,,,,,,,,,,,,,,,,,,,,,,,,,,,,,
,,6004ff08542fe932efbfd8a0,2024-01-06_07h38.21.048,kallum_motion_pilot,2023.2.3,Win32,61.72839506,6004ff08542fe932efbfd8a0,6598e6a5d84f07970b831e70,6598e6ef547f20229a90e0a3,0.1452,0.1454,1,11,173,96,1,fivesix,,,,,,,,,,,,,,,,,,,,,,,,,,,,,,,,,,,,,,,,,,,,,,,,,,,,,,,,,,,,,,,,,,,,,,,,,,,,,,,,,,,,,,,,,,,,,,,,,,,,,,,,,,,,,,,,,,,,,,,,,,,,,,,,,,,,,,,
,,6004ff08542fe932efbfd8a0,2024-01-06_07h38.21.048,kallum_motion_pilot,2023.2.3,Win32,61.72839506,6004ff08542fe932efbfd8a0,6598e6a5d84f07970b831e70,6598e6ef547f20229a90e0a3,0.1457,0.1459,1,12,174,7,1,fourthree,,,,,,,,,,,,,,,,,,,,,,,,,,,,,,,,,,,,,,,,,,,,,,,,,,,,,,,,,,,,,,,,,,,,,,,,,,,,,,,,,,,,,,,,,,,,,,,,,,,,,,,,,,,,,,,,,,,,,,,,,,,,,,,,,,,,,,,
,,6004ff08542fe932efbfd8a0,2024-01-06_07h38.21.048,kallum_motion_pilot,2023.2.3,Win32,61.72839506,6004ff08542fe932efbfd8a0,6598e6a5d84f07970b831e70,6598e6ef547f20229a90e0a3,0.1461,0.1464,1,13,175,41,1,onethree,,,,,,,,,,,,,,,,,,,,,,,,,,,,,,,,,,,,,,,,,,,,,,,,,,,,,,,,,,,,,,,,,,,,,,,,,,,,,,,,,,,,,,,,,,,,,,,,,,,,,,,,,,,,,,,,,,,,,,,,,,,,,,,,,,,,,,,
,,6004ff08542fe932efbfd8a0,2024-01-06_07h38.21.048,kallum_motion_pilot,2023.2.3,Win32,61.72839506,6004ff08542fe932efbfd8a0,6598e6a5d84f07970b831e70,6598e6ef547f20229a90e0a3,0.1466,0.147,1,14,176,17,1,onethree,,,,,,,,,,,,,,,,,,,,,,,,,,,,,,,,,,,,,,,,,,,,,,,,,,,,,,,,,,,,,,,,,,,,,,,,,,,,,,,,,,,,,,,,,,,,,,,,,,,,,,,,,,,,,,,,,,,,,,,,,,,,,,,,,,,,,,,
,,6004ff08542fe932efbfd8a0,2024-01-06_07h38.21.048,kallum_motion_pilot,2023.2.3,Win32,61.72839506,6004ff08542fe932efbfd8a0,6598e6a5d84f07970b831e70,6598e6ef547f20229a90e0a3,0.1477,0.1479,1,15,177,123,1,sixeight,,,,,,,,,,,,,,,,,,,,,,,,,,,,,,,,,,,,,,,,,,,,,,,,,,,,,,,,,,,,,,,,,,,,,,,,,,,,,,,,,,,,,,,,,,,,,,,,,,,,,,,,,,,,,,,,,,,,,,,,,,,,,,,,,,,,,,,
,,6004ff08542fe932efbfd8a0,2024-01-06_07h38.21.048,kallum_motion_pilot,2023.2.3,Win32,61.72839506,6004ff08542fe932efbfd8a0,6598e6a5d84f07970b831e70,6598e6ef547f20229a90e0a3,0.1481,0.1485,1,16,178,28,1,threeone,,,,,,,,,,,,,,,,,,,,,,,,,,,,,,,,,,,,,,,,,,,,,,,,,,,,,,,,,,,,,,,,,,,,,,,,,,,,,,,,,,,,,,,,,,,,,,,,,,,,,,,,,,,,,,,,,,,,,,,,,,,,,,,,,,,,,,,
,,6004ff08542fe932efbfd8a0,2024-01-06_07h38.21.048,kallum_motion_pilot,2023.2.3,Win32,61.72839506,6004ff08542fe932efbfd8a0,6598e6a5d84f07970b831e70,6598e6ef547f20229a90e0a3,0.1493,0.1494,1,17,179,81,1,fiveseven,,,,,,,,,,,,,,,,,,,,,,,,,,,,,,,,,,,,,,,,,,,,,,,,,,,,,,,,,,,,,,,,,,,,,,,,,,,,,,,,,,,,,,,,,,,,,,,,,,,,,,,,,,,,,,,,,,,,,,,,,,,,,,,,,,,,,,,
,,6004ff08542fe932efbfd8a0,2024-01-06_07h38.21.048,kallum_motion_pilot,2023.2.3,Win32,61.72839506,6004ff08542fe932efbfd8a0,6598e6a5d84f07970b831e70,6598e6ef547f20229a90e0a3,0.1497,0.1499,1,18,180,67,1,twofour,,,,,,,,,,,,,,,,,,,,,,,,,,,,,,,,,,,,,,,,,,,,,,,,,,,,,,,,,,,,,,,,,,,,,,,,,,,,,,,,,,,,,,,,,,,,,,,,,,,,,,,,,,,,,,,,,,,,,,,,,,,,,,,,,,,,,,,
,,6004ff08542fe932efbfd8a0,2024-01-06_07h38.21.048,kallum_motion_pilot,2023.2.3,Win32,61.72839506,6004ff08542fe932efbfd8a0,6598e6a5d84f07970b831e70,6598e6ef547f20229a90e0a3,0.1502,0.1504,1,19,181,62,1,fourtwo,,,,,,,,,,,,,,,,,,,,,,,,,,,,,,,,,,,,,,,,,,,,,,,,,,,,,,,,,,,,,,,,,,,,,,,,,,,,,,,,,,,,,,,,,,,,,,,,,,,,,,,,,,,,,,,,,,,,,,,,,,,,,,,,,,,,,,,
,,6004ff08542fe932efbfd8a0,2024-01-06_07h38.21.048,kallum_motion_pilot,2023.2.3,Win32,61.72839506,6004ff08542fe932efbfd8a0,6598e6a5d84f07970b831e70,6598e6ef547f20229a90e0a3,0.1511,0.1513,1,20,182,116,1,sevenfive,,,,,,,,,,,,,,,,,,,,,,,,,,,,,,,,,,,,,,,,,,,,,,,,,,,,,,,,,,,,,,,,,,,,,,,,,,,,,,,,,,,,,,,,,,,,,,,,,,,,,,,,,,,,,,,,,,,,,,,,,,,,,,,,,,,,,,,
,,6004ff08542fe932efbfd8a0,2024-01-06_07h38.21.048,kallum_motion_pilot,2023.2.3,Win32,61.72839506,6004ff08542fe932efbfd8a0,6598e6a5d84f07970b831e70,6598e6ef547f20229a90e0a3,0.1515,0.1517,1,21,183,120,1,fivesix,,,,,,,,,,,,,,,,,,,,,,,,,,,,,,,,,,,,,,,,,,,,,,,,,,,,,,,,,,,,,,,,,,,,,,,,,,,,,,,,,,,,,,,,,,,,,,,,,,,,,,,,,,,,,,,,,,,,,,,,,,,,,,,,,,,,,,,
,,6004ff08542fe932efbfd8a0,2024-01-06_07h38.21.048,kallum_motion_pilot,2023.2.3,Win32,61.72839506,6004ff08542fe932efbfd8a0,6598e6a5d84f07970b831e70,6598e6ef547f20229a90e0a3,0.152,0.1522,1,22,184,53,1,threefour,,,,,,,,,,,,,,,,,,,,,,,,,,,,,,,,,,,,,,,,,,,,,,,,,,,,,,,,,,,,,,,,,,,,,,,,,,,,,,,,,,,,,,,,,,,,,,,,,,,,,,,,,,,,,,,,,,,,,,,,,,,,,,,,,,,,,,,
,,6004ff08542fe932efbfd8a0,2024-01-06_07h38.21.048,kallum_motion_pilot,2023.2.3,Win32,61.72839506,6004ff08542fe932efbfd8a0,6598e6a5d84f07970b831e70,6598e6ef547f20229a90e0a3,0.1524,0.1527,1,23,185,51,1,twofour,,,,,,,,,,,,,,,,,,,,,,,,,,,,,,,,,,,,,,,,,,,,,,,,,,,,,,,,,,,,,,,,,,,,,,,,,,,,,,,,,,,,,,,,,,,,,,,,,,,,,,,,,,,,,,,,,,,,,,,,,,,,,,,,,,,,,,,
,,6004ff08542fe932efbfd8a0,2024-01-06_07h38.21.048,kallum_motion_pilot,2023.2.3,Win32,61.72839506,6004ff08542fe932efbfd8a0,6598e6a5d84f07970b831e70,6598e6ef547f20229a90e0a3,0.1531,0.1533,1,24,186,126,1,eightsix,,,,,,,,,,,,,,,,,,,,,,,,,,,,,,,,,,,,,,,,,,,,,,,,,,,,,,,,,,,,,,,,,,,,,,,,,,,,,,,,,,,,,,,,,,,,,,,,,,,,,,,,,,,,,,,,,,,,,,,,,,,,,,,,,,,,,,,
,,6004ff08542fe932efbfd8a0,2024-01-06_07h38.21.048,kallum_motion_pilot,2023.2.3,Win32,61.72839506,6004ff08542fe932efbfd8a0,6598e6a5d84f07970b831e70,6598e6ef547f20229a90e0a3,0.1536,0.1538,1,25,187,56,1,onetwo,,,,,,,,,,,,,,,,,,,,,,,,,,,,,,,,,,,,,,,,,,,,,,,,,,,,,,,,,,,,,,,,,,,,,,,,,,,,,,,,,,,,,,,,,,,,,,,,,,,,,,,,,,,,,,,,,,,,,,,,,,,,,,,,,,,,,,,
,,6004ff08542fe932efbfd8a0,2024-01-06_07h38.21.048,kallum_motion_pilot,2023.2.3,Win32,61.72839506,6004ff08542fe932efbfd8a0,6598e6a5d84f07970b831e70,6598e6ef547f20229a90e0a3,0.154,0.1542,1,26,188,30,1,fourtwo,,,,,,,,,,,,,,,,,,,,,,,,,,,,,,,,,,,,,,,,,,,,,,,,,,,,,,,,,,,,,,,,,,,,,,,,,,,,,,,,,,,,,,,,,,,,,,,,,,,,,,,,,,,,,,,,,,,,,,,,,,,,,,,,,,,,,,,
,,6004ff08542fe932efbfd8a0,2024-01-06_07h38.21.048,kallum_motion_pilot,2023.2.3,Win32,61.72839506,6004ff08542fe932efbfd8a0,6598e6a5d84f07970b831e70,6598e6ef547f20229a90e0a3,0.1544,0.1546,1,27,189,157,1,seveneight,,,,,,,,,,,,,,,,,,,,,,,,,,,,,,,,,,,,,,,,,,,,,,,,,,,,,,,,,,,,,,,,,,,,,,,,,,,,,,,,,,,,,,,,,,,,,,,,,,,,,,,,,,,,,,,,,,,,,,,,,,,,,,,,,,,,,,,
,,6004ff08542fe932efbfd8a0,2024-01-06_07h38.21.048,kallum_motion_pilot,2023.2.3,Win32,61.72839506,6004ff08542fe932efbfd8a0,6598e6a5d84f07970b831e70,6598e6ef547f20229a90e0a3,0.1549,0.1551,1,28,190,72,1,onetwo,,,,,,,,,,,,,,,,,,,,,,,,,,,,,,,,,,,,,,,,,,,,,,,,,,,,,,,,,,,,,,,,,,,,,,,,,,,,,,,,,,,,,,,,,,,,,,,,,,,,,,,,,,,,,,,,,,,,,,,,,,,,,,,,,,,,,,,
,,6004ff08542fe932efbfd8a0,2024-01-06_07h38.21.048,kallum_motion_pilot,2023.2.3,Win32,61.72839506,6004ff08542fe932efbfd8a0,6598e6a5d84f07970b831e70,6598e6ef547f20229a90e0a3,0.1555,0.1556,1,29,191,100,1,sevenfive,,,,,,,,,,,,,,,,,,,,,,,,,,,,,,,,,,,,,,,,,,,,,,,,,,,,,,,,,,,,,,,,,,,,,,,,,,,,,,,,,,,,,,,,,,,,,,,,,,,,,,,,,,,,,,,,,,,,,,,,,,,,,,,,,,,,,,,
,,6004ff08542fe932efbfd8a0,2024-01-06_07h38.21.048,kallum_motion_pilot,2023.2.3,Win32,61.72839506,6004ff08542fe932efbfd8a0,6598e6a5d84f07970b831e70,6598e6ef547f20229a90e0a3,0.1558,0.156,1,30,192,54,1,fourtwo,,,,,,,,,,,,,,,,,,,,,,,,,,,,,,,,,,,,,,,,,,,,,,,,,,,,,,,,,,,,,,,,,,,,,,,,,,,,,,,,,,,,,,,,,,,,,,,,,,,,,,,,,,,,,,,,,,,,,,,,,,,,,,,,,,,,,,,
,,6004ff08542fe932efbfd8a0,2024-01-06_07h38.21.048,kallum_motion_pilot,2023.2.3,Win32,61.72839506,6004ff08542fe932efbfd8a0,6598e6a5d84f07970b831e70,6598e6ef547f20229a90e0a3,0.1563,0.1564,1,31,193,37,1,threefour,,,,,,,,,,,,,,,,,,,,,,,,,,,,,,,,,,,,,,,,,,,,,,,,,,,,,,,,,,,,,,,,,,,,,,,,,,,,,,,,,,,,,,,,,,,,,,,,,,,,,,,,,,,,,,,,,,,,,,,,,,,,,,,,,,,,,,,
,,6004ff08542fe932efbfd8a0,2024-01-06_07h38.21.048,kallum_motion_pilot,2023.2.3,Win32,61.72839506,6004ff08542fe932efbfd8a0,6598e6a5d84f07970b831e70,6598e6ef547f20229a90e0a3,0.1566,0.1569,1,32,194,57,1,onethree,,,,,,,,,,,,,,,,,,,,,,,,,,,,,,,,,,,,,,,,,,,,,,,,,,,,,,,,,,,,,,,,,,,,,,,,,,,,,,,,,,,,,,,,,,,,,,,,,,,,,,,,,,,,,,,,,,,,,,,,,,,,,,,,,,,,,,,
,,6004ff08542fe932efbfd8a0,2024-01-06_07h38.21.048,kallum_motion_pilot,2023.2.3,Win32,61.72839506,6004ff08542fe932efbfd8a0,6598e6a5d84f07970b831e70,6598e6ef547f20229a90e0a3,0.1577,0.158,1,33,195,74,1,twoone,,,,,,,,,,,,,,,,,,,,,,,,,,,,,,,,,,,,,,,,,,,,,,,,,,,,,,,,,,,,,,,,,,,,,,,,,,,,,,,,,,,,,,,,,,,,,,,,,,,,,,,,,,,,,,,,,,,,,,,,,,,,,,,,,,,,,,,
,,6004ff08542fe932efbfd8a0,2024-01-06_07h38.21.048,kallum_motion_pilot,2023.2.3,Win32,61.72839506,6004ff08542fe932efbfd8a0,6598e6a5d84f07970b831e70,6598e6ef547f20229a90e0a3,0.1582,0.1584,1,34,196,43,1,twofour,,,,,,,,,,,,,,,,,,,,,,,,,,,,,,,,,,,,,,,,,,,,,,,,,,,,,,,,,,,,,,,,,,,,,,,,,,,,,,,,,,,,,,,,,,,,,,,,,,,,,,,,,,,,,,,,,,,,,,,,,,,,,,,,,,,,,,,
,,6004ff08542fe932efbfd8a0,2024-01-06_07h38.21.048,kallum_motion_pilot,2023.2.3,Win32,61.72839506,6004ff08542fe932efbfd8a0,6598e6a5d84f07970b831e70,6598e6ef547f20229a90e0a3,0.1586,0.1588,1,35,197,131,1,sixeight,,,,,,,,,,,,,,,,,,,,,,,,,,,,,,,,,,,,,,,,,,,,,,,,,,,,,,,,,,,,,,,,,,,,,,,,,,,,,,,,,,,,,,,,,,,,,,,,,,,,,,,,,,,,,,,,,,,,,,,,,,,,,,,,,,,,,,,
,,6004ff08542fe932efbfd8a0,2024-01-06_07h38.21.048,kallum_motion_pilot,2023.2.3,Win32,61.72839506,6004ff08542fe932efbfd8a0,6598e6a5d84f07970b831e70,6598e6ef547f20229a90e0a3,0.1591,0.1593,1,36,198,93,1,seveneight,,,,,,,,,,,,,,,,,,,,,,,,,,,,,,,,,,,,,,,,,,,,,,,,,,,,,,,,,,,,,,,,,,,,,,,,,,,,,,,,,,,,,,,,,,,,,,,,,,,,,,,,,,,,,,,,,,,,,,,,,,,,,,,,,,,,,,,
,,6004ff08542fe932efbfd8a0,2024-01-06_07h38.21.048,kallum_motion_pilot,2023.2.3,Win32,61.72839506,6004ff08542fe932efbfd8a0,6598e6a5d84f07970b831e70,6598e6ef547f20229a90e0a3,0.1595,0.1597,1,37,199,158,1,eightsix,,,,,,,,,,,,,,,,,,,,,,,,,,,,,,,,,,,,,,,,,,,,,,,,,,,,,,,,,,,,,,,,,,,,,,,,,,,,,,,,,,,,,,,,,,,,,,,,,,,,,,,,,,,,,,,,,,,,,,,,,,,,,,,,,,,,,,,
,,6004ff08542fe932efbfd8a0,2024-01-06_07h38.21.048,kallum_motion_pilot,2023.2.3,Win32,61.72839506,6004ff08542fe932efbfd8a0,6598e6a5d84f07970b831e70,6598e6ef547f20229a90e0a3,0.1599,0.1601,1,38,200,106,1,sixfive,,,,,,,,,,,,,,,,,,,,,,,,,,,,,,,,,,,,,,,,,,,,,,,,,,,,,,,,,,,,,,,,,,,,,,,,,,,,,,,,,,,,,,,,,,,,,,,,,,,,,,,,,,,,,,,,,,,,,,,,,,,,,,,,,,,,,,,
,,6004ff08542fe932efbfd8a0,2024-01-06_07h38.21.048,kallum_motion_pilot,2023.2.3,Win32,61.72839506,6004ff08542fe932efbfd8a0,6598e6a5d84f07970b831e70,6598e6ef547f20229a90e0a3,0.1603,0.1605,1,39,201,18,1,twoone,,,,,,,,,,,,,,,,,,,,,,,,,,,,,,,,,,,,,,,,,,,,,,,,,,,,,,,,,,,,,,,,,,,,,,,,,,,,,,,,,,,,,,,,,,,,,,,,,,,,,,,,,,,,,,,,,,,,,,,,,,,,,,,,,,,,,,,
,,6004ff08542fe932efbfd8a0,2024-01-06_07h38.21.048,kallum_motion_pilot,2023.2.3,Win32,61.72839506,6004ff08542fe932efbfd8a0,6598e6a5d84f07970b831e70,6598e6ef547f20229a90e0a3,0.1607,0.1609,1,40,202,101,1,seveneight,,,,,,,,,,,,,,,,,,,,,,,,,,,,,,,,,,,,,,,,,,,,,,,,,,,,,,,,,,,,,,,,,,,,,,,,,,,,,,,,,,,,,,,,,,,,,,,,,,,,,,,,,,,,,,,,,,,,,,,,,,,,,,,,,,,,,,,
,,6004ff08542fe932efbfd8a0,2024-01-06_07h38.21.048,kallum_motion_pilot,2023.2.3,Win32,61.72839506,6004ff08542fe932efbfd8a0,6598e6a5d84f07970b831e70,6598e6ef547f20229a90e0a3,0.1611,0.1614,1,41,203,121,1,fiveseven,,,,,,,,,,,,,,,,,,,,,,,,,,,,,,,,,,,,,,,,,,,,,,,,,,,,,,,,,,,,,,,,,,,,,,,,,,,,,,,,,,,,,,,,,,,,,,,,,,,,,,,,,,,,,,,,,,,,,,,,,,,,,,,,,,,,,,,
,,6004ff08542fe932efbfd8a0,2024-01-06_07h38.21.048,kallum_motion_pilot,2023.2.3,Win32,61.72839506,6004ff08542fe932efbfd8a0,6598e6a5d84f07970b831e70,6598e6ef547f20229a90e0a3,0.1616,0.1619,1,42,204,42,1,twoone,,,,,,,,,,,,,,,,,,,,,,,,,,,,,,,,,,,,,,,,,,,,,,,,,,,,,,,,,,,,,,,,,,,,,,,,,,,,,,,,,,,,,,,,,,,,,,,,,,,,,,,,,,,,,,,,,,,,,,,,,,,,,,,,,,,,,,,
,,6004ff08542fe932efbfd8a0,2024-01-06_07h38.21.048,kallum_motion_pilot,2023.2.3,Win32,61.72839506,6004ff08542fe932efbfd8a0,6598e6a5d84f07970b831e70,6598e6ef547f20229a90e0a3,0.1621,0.1623,1,43,205,59,1,twofour,,,,,,,,,,,,,,,,,,,,,,,,,,,,,,,,,,,,,,,,,,,,,,,,,,,,,,,,,,,,,,,,,,,,,,,,,,,,,,,,,,,,,,,,,,,,,,,,,,,,,,,,,,,,,,,,,,,,,,,,,,,,,,,,,,,,,,,
,,6004ff08542fe932efbfd8a0,2024-01-06_07h38.21.048,kallum_motion_pilot,2023.2.3,Win32,61.72839506,6004ff08542fe932efbfd8a0,6598e6a5d84f07970b831e70,6598e6ef547f20229a90e0a3,0.1625,0.1627,1,44,206,10,1,twoone,,,,,,,,,,,,,,,,,,,,,,,,,,,,,,,,,,,,,,,,,,,,,,,,,,,,,,,,,,,,,,,,,,,,,,,,,,,,,,,,,,,,,,,,,,,,,,,,,,,,,,,,,,,,,,,,,,,,,,,,,,,,,,,,,,,,,,,
,,6004ff08542fe932efbfd8a0,2024-01-06_07h38.21.048,kallum_motion_pilot,2023.2.3,Win32,61.72839506,6004ff08542fe932efbfd8a0,6598e6a5d84f07970b831e70,6598e6ef547f20229a90e0a3,0.163,0.1632,1,45,207,138,1,sixfive,,,,,,,,,,,,,,,,,,,,,,,,,,,,,,,,,,,,,,,,,,,,,,,,,,,,,,,,,,,,,,,,,,,,,,,,,,,,,,,,,,,,,,,,,,,,,,,,,,,,,,,,,,,,,,,,,,,,,,,,,,,,,,,,,,,,,,,
,,6004ff08542fe932efbfd8a0,2024-01-06_07h38.21.048,kallum_motion_pilot,2023.2.3,Win32,61.72839506,6004ff08542fe932efbfd8a0,6598e6a5d84f07970b831e70,6598e6ef547f20229a90e0a3,0.1634,0.1636,1,46,208,22,1,fourtwo,,,,,,,,,,,,,,,,,,,,,,,,,,,,,,,,,,,,,,,,,,,,,,,,,,,,,,,,,,,,,,,,,,,,,,,,,,,,,,,,,,,,,,,,,,,,,,,,,,,,,,,,,,,,,,,,,,,,,,,,,,,,,,,,,,,,,,,
,,6004ff08542fe932efbfd8a0,2024-01-06_07h38.21.048,kallum_motion_pilot,2023.2.3,Win32,61.72839506,6004ff08542fe932efbfd8a0,6598e6a5d84f07970b831e70,6598e6ef547f20229a90e0a3,0.1638,0.164,1,47,209,133,1,seveneight,,,,,,,,,,,,,,,,,,,,,,,,,,,,,,,,,,,,,,,,,,,,,,,,,,,,,,,,,,,,,,,,,,,,,,,,,,,,,,,,,,,,,,,,,,,,,,,,,,,,,,,,,,,,,,,,,,,,,,,,,,,,,,,,,,,,,,,
,,6004ff08542fe932efbfd8a0,2024-01-06_07h38.21.048,kallum_motion_pilot,2023.2.3,Win32,61.72839506,6004ff08542fe932efbfd8a0,6598e6a5d84f07970b831e70,6598e6ef547f20229a90e0a3,0.1643,0.1645,1,48,210,6,1,fourtwo,,,,,,,,,,,,,,,,,,,,,,,,,,,,,,,,,,,,,,,,,,,,,,,,,,,,,,,,,,,,,,,,,,,,,,,,,,,,,,,,,,,,,,,,,,,,,,,,,,,,,,,,,,,,,,,,,,,,,,,,,,,,,,,,,,,,,,,
,,6004ff08542fe932efbfd8a0,2024-01-06_07h38.21.048,kallum_motion_pilot,2023.2.3,Win32,61.72839506,6004ff08542fe932efbfd8a0,6598e6a5d84f07970b831e70,6598e6ef547f20229a90e0a3,0.1649,0.1653,1,49,211,45,1,threefour,,,,,,,,,,,,,,,,,,,,,,,,,,,,,,,,,,,,,,,,,,,,,,,,,,,,,,,,,,,,,,,,,,,,,,,,,,,,,,,,,,,,,,,,,,,,,,,,,,,,,,,,,,,,,,,,,,,,,,,,,,,,,,,,,,,,,,,
,,6004ff08542fe932efbfd8a0,2024-01-06_07h38.21.048,kallum_motion_pilot,2023.2.3,Win32,61.72839506,6004ff08542fe932efbfd8a0,6598e6a5d84f07970b831e70,6598e6ef547f20229a90e0a3,0.1659,0.1662,1,50,212,4,1,threeone,,,,,,,,,,,,,,,,,,,,,,,,,,,,,,,,,,,,,,,,,,,,,,,,,,,,,,,,,,,,,,,,,,,,,,,,,,,,,,,,,,,,,,,,,,,,,,,,,,,,,,,,,,,,,,,,,,,,,,,,,,,,,,,,,,,,,,,
,,6004ff08542fe932efbfd8a0,2024-01-06_07h38.21.048,kallum_motion_pilot,2023.2.3,Win32,61.72839506,6004ff08542fe932efbfd8a0,6598e6a5d84f07970b831e70,6598e6ef547f20229a90e0a3,0.1664,0.1666,1,51,213,154,1,sixfive,,,,,,,,,,,,,,,,,,,,,,,,,,,,,,,,,,,,,,,,,,,,,,,,,,,,,,,,,,,,,,,,,,,,,,,,,,,,,,,,,,,,,,,,,,,,,,,,,,,,,,,,,,,,,,,,,,,,,,,,,,,,,,,,,,,,,,,
,,6004ff08542fe932efbfd8a0,2024-01-06_07h38.21.048,kallum_motion_pilot,2023.2.3,Win32,61.72839506,6004ff08542fe932efbfd8a0,6598e6a5d84f07970b831e70,6598e6ef547f20229a90e0a3,0.1669,0.1671,1,52,214,140,1,sevenfive,,,,,,,,,,,,,,,,,,,,,,,,,,,,,,,,,,,,,,,,,,,,,,,,,,,,,,,,,,,,,,,,,,,,,,,,,,,,,,,,,,,,,,,,,,,,,,,,,,,,,,,,,,,,,,,,,,,,,,,,,,,,,,,,,,,,,,,
,,6004ff08542fe932efbfd8a0,2024-01-06_07h38.21.048,kallum_motion_pilot,2023.2.3,Win32,61.72839506,6004ff08542fe932efbfd8a0,6598e6a5d84f07970b831e70,6598e6ef547f20229a90e0a3,0.1678,0.1681,1,53,215,25,1,onethree,,,,,,,,,,,,,,,,,,,,,,,,,,,,,,,,,,,,,,,,,,,,,,,,,,,,,,,,,,,,,,,,,,,,,,,,,,,,,,,,,,,,,,,,,,,,,,,,,,,,,,,,,,,,,,,,,,,,,,,,,,,,,,,,,,,,,,,
,,6004ff08542fe932efbfd8a0,2024-01-06_07h38.21.048,kallum_motion_pilot,2023.2.3,Win32,61.72839506,6004ff08542fe932efbfd8a0,6598e6a5d84f07970b831e70,6598e6ef547f20229a90e0a3,0.1686,0.1689,1,54,216,114,1,sixfive,,,,,,,,,,,,,,,,,,,,,,,,,,,,,,,,,,,,,,,,,,,,,,,,,,,,,,,,,,,,,,,,,,,,,,,,,,,,,,,,,,,,,,,,,,,,,,,,,,,,,,,,,,,,,,,,,,,,,,,,,,,,,,,,,,,,,,,
,,6004ff08542fe932efbfd8a0,2024-01-06_07h38.21.048,kallum_motion_pilot,2023.2.3,Win32,61.72839506,6004ff08542fe932efbfd8a0,6598e6a5d84f07970b831e70,6598e6ef547f20229a90e0a3,0.1692,0.1696,1,55,217,71,1,fourthree,,,,,,,,,,,,,,,,,,,,,,,,,,,,,,,,,,,,,,,,,,,,,,,,,,,,,,,,,,,,,,,,,,,,,,,,,,,,,,,,,,,,,,,,,,,,,,,,,,,,,,,,,,,,,,,,,,,,,,,,,,,,,,,,,,,,,,,
,,6004ff08542fe932efbfd8a0,2024-01-06_07h38.21.048,kallum_motion_pilot,2023.2.3,Win32,61.72839506,6004ff08542fe932efbfd8a0,6598e6a5d84f07970b831e70,6598e6ef547f20229a90e0a3,0.1698,0.17,1,56,218,112,1,fivesix,,,,,,,,,,,,,,,,,,,,,,,,,,,,,,,,,,,,,,,,,,,,,,,,,,,,,,,,,,,,,,,,,,,,,,,,,,,,,,,,,,,,,,,,,,,,,,,,,,,,,,,,,,,,,,,,,,,,,,,,,,,,,,,,,,,,,,,
,,6004ff08542fe932efbfd8a0,2024-01-06_07h38.21.048,kallum_motion_pilot,2023.2.3,Win32,61.72839506,6004ff08542fe932efbfd8a0,6598e6a5d84f07970b831e70,6598e6ef547f20229a90e0a3,0.1702,0.1705,1,57,219,128,1,fivesix,,,,,,,,,,,,,,,,,,,,,,,,,,,,,,,,,,,,,,,,,,,,,,,,,,,,,,,,,,,,,,,,,,,,,,,,,,,,,,,,,,,,,,,,,,,,,,,,,,,,,,,,,,,,,,,,,,,,,,,,,,,,,,,,,,,,,,,
,,6004ff08542fe932efbfd8a0,2024-01-06_07h38.21.048,kallum_motion_pilot,2023.2.3,Win32,61.72839506,6004ff08542fe932efbfd8a0,6598e6a5d84f07970b831e70,6598e6ef547f20229a90e0a3,0.1708,0.1712,1,58,220,107,1,sixeight,,,,,,,,,,,,,,,,,,,,,,,,,,,,,,,,,,,,,,,,,,,,,,,,,,,,,,,,,,,,,,,,,,,,,,,,,,,,,,,,,,,,,,,,,,,,,,,,,,,,,,,,,,,,,,,,,,,,,,,,,,,,,,,,,,,,,,,
,,6004ff08542fe932efbfd8a0,2024-01-06_07h38.21.048,kallum_motion_pilot,2023.2.3,Win32,61.72839506,6004ff08542fe932efbfd8a0,6598e6a5d84f07970b831e70,6598e6ef547f20229a90e0a3,0.1714,0.1716,1,59,221,27,1,twofour,,,,,,,,,,,,,,,,,,,,,,,,,,,,,,,,,,,,,,,,,,,,,,,,,,,,,,,,,,,,,,,,,,,,,,,,,,,,,,,,,,,,,,,,,,,,,,,,,,,,,,,,,,,,,,,,,,,,,,,,,,,,,,,,,,,,,,,
,,6004ff08542fe932efbfd8a0,2024-01-06_07h38.21.048,kallum_motion_pilot,2023.2.3,Win32,61.72839506,6004ff08542fe932efbfd8a0,6598e6a5d84f07970b831e70,6598e6ef547f20229a90e0a3,0.172,0.1722,1,60,222,130,1,sixfive,,,,,,,,,,,,,,,,,,,,,,,,,,,,,,,,,,,,,,,,,,,,,,,,,,,,,,,,,,,,,,,,,,,,,,,,,,,,,,,,,,,,,,,,,,,,,,,,,,,,,,,,,,,,,,,,,,,,,,,,,,,,,,,,,,,,,,,
,,6004ff08542fe932efbfd8a0,2024-01-06_07h38.21.048,kallum_motion_pilot,2023.2.3,Win32,61.72839506,6004ff08542fe932efbfd8a0,6598e6a5d84f07970b831e70,6598e6ef547f20229a90e0a3,0.1725,0.1727,1,61,223,148,1,sevenfive,,,,,,,,,,,,,,,,,,,,,,,,,,,,,,,,,,,,,,,,,,,,,,,,,,,,,,,,,,,,,,,,,,,,,,,,,,,,,,,,,,,,,,,,,,,,,,,,,,,,,,,,,,,,,,,,,,,,,,,,,,,,,,,,,,,,,,,
,,6004ff08542fe932efbfd8a0,2024-01-06_07h38.21.048,kallum_motion_pilot,2023.2.3,Win32,61.72839506,6004ff08542fe932efbfd8a0,6598e6a5d84f07970b831e70,6598e6ef547f20229a90e0a3,0.1731,0.1735,1,62,224,1,1,onethree,,,,,,,,,,,,,,,,,,,,,,,,,,,,,,,,,,,,,,,,,,,,,,,,,,,,,,,,,,,,,,,,,,,,,,,,,,,,,,,,,,,,,,,,,,,,,,,,,,,,,,,,,,,,,,,,,,,,,,,,,,,,,,,,,,,,,,,
,,6004ff08542fe932efbfd8a0,2024-01-06_07h38.21.048,kallum_motion_pilot,2023.2.3,Win32,61.72839506,6004ff08542fe932efbfd8a0,6598e6a5d84f07970b831e70,6598e6ef547f20229a90e0a3,0.1737,0.1739,1,63,225,153,1,fiveseven,,,,,,,,,,,,,,,,,,,,,,,,,,,,,,,,,,,,,,,,,,,,,,,,,,,,,,,,,,,,,,,,,,,,,,,,,,,,,,,,,,,,,,,,,,,,,,,,,,,,,,,,,,,,,,,,,,,,,,,,,,,,,,,,,,,,,,,
,,6004ff08542fe932efbfd8a0,2024-01-06_07h38.21.048,kallum_motion_pilot,2023.2.3,Win32,61.72839506,6004ff08542fe932efbfd8a0,6598e6a5d84f07970b831e70,6598e6ef547f20229a90e0a3,0.1741,0.1744,1,64,226,115,1,sixeight,,,,,,,,,,,,,,,,,,,,,,,,,,,,,,,,,,,,,,,,,,,,,,,,,,,,,,,,,,,,,,,,,,,,,,,,,,,,,,,,,,,,,,,,,,,,,,,,,,,,,,,,,,,,,,,,,,,,,,,,,,,,,,,,,,,,,,,
,,6004ff08542fe932efbfd8a0,2024-01-06_07h38.21.048,kallum_motion_pilot,2023.2.3,Win32,61.72839506,6004ff08542fe932efbfd8a0,6598e6a5d84f07970b831e70,6598e6ef547f20229a90e0a3,0.1746,0.1748,1,65,227,47,1,fourthree,,,,,,,,,,,,,,,,,,,,,,,,,,,,,,,,,,,,,,,,,,,,,,,,,,,,,,,,,,,,,,,,,,,,,,,,,,,,,,,,,,,,,,,,,,,,,,,,,,,,,,,,,,,,,,,,,,,,,,,,,,,,,,,,,,,,,,,
,,6004ff08542fe932efbfd8a0,2024-01-06_07h38.21.048,kallum_motion_pilot,2023.2.3,Win32,61.72839506,6004ff08542fe932efbfd8a0,6598e6a5d84f07970b831e70,6598e6ef547f20229a90e0a3,0.1751,0.1752,1,66,228,65,1,onethree,,,,,,,,,,,,,,,,,,,,,,,,,,,,,,,,,,,,,,,,,,,,,,,,,,,,,,,,,,,,,,,,,,,,,,,,,,,,,,,,,,,,,,,,,,,,,,,,,,,,,,,,,,,,,,,,,,,,,,,,,,,,,,,,,,,,,,,
,,6004ff08542fe932efbfd8a0,2024-01-06_07h38.21.048,kallum_motion_pilot,2023.2.3,Win32,61.72839506,6004ff08542fe932efbfd8a0,6598e6a5d84f07970b831e70,6598e6ef547f20229a90e0a3,0.1754,0.1757,1,67,229,32,1,onetwo,,,,,,,,,,,,,,,,,,,,,,,,,,,,,,,,,,,,,,,,,,,,,,,,,,,,,,,,,,,,,,,,,,,,,,,,,,,,,,,,,,,,,,,,,,,,,,,,,,,,,,,,,,,,,,,,,,,,,,,,,,,,,,,,,,,,,,,
,,6004ff08542fe932efbfd8a0,2024-01-06_07h38.21.048,kallum_motion_pilot,2023.2.3,Win32,61.72839506,6004ff08542fe932efbfd8a0,6598e6a5d84f07970b831e70,6598e6ef547f20229a90e0a3,0.1759,0.1761,1,68,230,151,1,eightseven,,,,,,,,,,,,,,,,,,,,,,,,,,,,,,,,,,,,,,,,,,,,,,,,,,,,,,,,,,,,,,,,,,,,,,,,,,,,,,,,,,,,,,,,,,,,,,,,,,,,,,,,,,,,,,,,,,,,,,,,,,,,,,,,,,,,,,,
,,6004ff08542fe932efbfd8a0,2024-01-06_07h38.21.048,kallum_motion_pilot,2023.2.3,Win32,61.72839506,6004ff08542fe932efbfd8a0,6598e6a5d84f07970b831e70,6598e6ef547f20229a90e0a3,0.1764,0.1765,1,69,231,5,1,threefour,,,,,,,,,,,,,,,,,,,,,,,,,,,,,,,,,,,,,,,,,,,,,,,,,,,,,,,,,,,,,,,,,,,,,,,,,,,,,,,,,,,,,,,,,,,,,,,,,,,,,,,,,,,,,,,,,,,,,,,,,,,,,,,,,,,,,,,
,,6004ff08542fe932efbfd8a0,2024-01-06_07h38.21.048,kallum_motion_pilot,2023.2.3,Win32,61.72839506,6004ff08542fe932efbfd8a0,6598e6a5d84f07970b831e70,6598e6ef547f20229a90e0a3,0.1774,0.1775,1,70,232,152,1,fivesix,,,,,,,,,,,,,,,,,,,,,,,,,,,,,,,,,,,,,,,,,,,,,,,,,,,,,,,,,,,,,,,,,,,,,,,,,,,,,,,,,,,,,,,,,,,,,,,,,,,,,,,,,,,,,,,,,,,,,,,,,,,,,,,,,,,,,,,
,,6004ff08542fe932efbfd8a0,2024-01-06_07h38.21.048,kallum_motion_pilot,2023.2.3,Win32,61.72839506,6004ff08542fe932efbfd8a0,6598e6a5d84f07970b831e70,6598e6ef547f20229a90e0a3,0.1778,0.1781,1,71,233,2,1,twoone,,,,,,,,,,,,,,,,,,,,,,,,,,,,,,,,,,,,,,,,,,,,,,,,,,,,,,,,,,,,,,,,,,,,,,,,,,,,,,,,,,,,,,,,,,,,,,,,,,,,,,,,,,,,,,,,,,,,,,,,,,,,,,,,,,,,,,,
,,6004ff08542fe932efbfd8a0,2024-01-06_07h38.21.048,kallum_motion_pilot,2023.2.3,Win32,61.72839506,6004ff08542fe932efbfd8a0,6598e6a5d84f07970b831e70,6598e6ef547f20229a90e0a3,0.1784,0.1786,1,72,234,69,1,threefour,,,,,,,,,,,,,,,,,,,,,,,,,,,,,,,,,,,,,,,,,,,,,,,,,,,,,,,,,,,,,,,,,,,,,,,,,,,,,,,,,,,,,,,,,,,,,,,,,,,,,,,,,,,,,,,,,,,,,,,,,,,,,,,,,,,,,,,
,,6004ff08542fe932efbfd8a0,2024-01-06_07h38.21.048,kallum_motion_pilot,2023.2.3,Win32,61.72839506,6004ff08542fe932efbfd8a0,6598e6a5d84f07970b831e70,6598e6ef547f20229a90e0a3,0.1788,0.179,1,73,235,155,1,sixeight,,,,,,,,,,,,,,,,,,,,,,,,,,,,,,,,,,,,,,,,,,,,,,,,,,,,,,,,,,,,,,,,,,,,,,,,,,,,,,,,,,,,,,,,,,,,,,,,,,,,,,,,,,,,,,,,,,,,,,,,,,,,,,,,,,,,,,,
,,6004ff08542fe932efbfd8a0,2024-01-06_07h38.21.048,kallum_motion_pilot,2023.2.3,Win32,61.72839506,6004ff08542fe932efbfd8a0,6598e6a5d84f07970b831e70,6598e6ef547f20229a90e0a3,0.1792,0.1795,1,74,236,44,1,threeone,,,,,,,,,,,,,,,,,,,,,,,,,,,,,,,,,,,,,,,,,,,,,,,,,,,,,,,,,,,,,,,,,,,,,,,,,,,,,,,,,,,,,,,,,,,,,,,,,,,,,,,,,,,,,,,,,,,,,,,,,,,,,,,,,,,,,,,
,,6004ff08542fe932efbfd8a0,2024-01-06_07h38.21.048,kallum_motion_pilot,2023.2.3,Win32,61.72839506,6004ff08542fe932efbfd8a0,6598e6a5d84f07970b831e70,6598e6ef547f20229a90e0a3,0.1797,0.1799,1,75,237,89,1,fiveseven,,,,,,,,,,,,,,,,,,,,,,,,,,,,,,,,,,,,,,,,,,,,,,,,,,,,,,,,,,,,,,,,,,,,,,,,,,,,,,,,,,,,,,,,,,,,,,,,,,,,,,,,,,,,,,,,,,,,,,,,,,,,,,,,,,,,,,,
,,6004ff08542fe932efbfd8a0,2024-01-06_07h38.21.048,kallum_motion_pilot,2023.2.3,Win32,61.72839506,6004ff08542fe932efbfd8a0,6598e6a5d84f07970b831e70,6598e6ef547f20229a90e0a3,0.1802,0.1803,1,76,238,143,1,eightseven,,,,,,,,,,,,,,,,,,,,,,,,,,,,,,,,,,,,,,,,,,,,,,,,,,,,,,,,,,,,,,,,,,,,,,,,,,,,,,,,,,,,,,,,,,,,,,,,,,,,,,,,,,,,,,,,,,,,,,,,,,,,,,,,,,,,,,,
,,6004ff08542fe932efbfd8a0,2024-01-06_07h38.21.048,kallum_motion_pilot,2023.2.3,Win32,61.72839506,6004ff08542fe932efbfd8a0,6598e6a5d84f07970b831e70,6598e6ef547f20229a90e0a3,0.1806,0.1808,1,77,239,105,1,fiveseven,,,,,,,,,,,,,,,,,,,,,,,,,,,,,,,,,,,,,,,,,,,,,,,,,,,,,,,,,,,,,,,,,,,,,,,,,,,,,,,,,,,,,,,,,,,,,,,,,,,,,,,,,,,,,,,,,,,,,,,,,,,,,,,,,,,,,,,
,,6004ff08542fe932efbfd8a0,2024-01-06_07h38.21.048,kallum_motion_pilot,2023.2.3,Win32,61.72839506,6004ff08542fe932efbfd8a0,6598e6a5d84f07970b831e70,6598e6ef547f20229a90e0a3,0.1811,0.1813,1,78,240,14,1,fourtwo,,,,,,,,,,,,,,,,,,,,,,,,,,,,,,,,,,,,,,,,,,,,,,,,,,,,,,,,,,,,,,,,,,,,,,,,,,,,,,,,,,,,,,,,,,,,,,,,,,,,,,,,,,,,,,,,,,,,,,,,,,,,,,,,,,,,,,,
,,6004ff08542fe932efbfd8a0,2024-01-06_07h38.21.048,kallum_motion_pilot,2023.2.3,Win32,61.72839506,6004ff08542fe932efbfd8a0,6598e6a5d84f07970b831e70,6598e6ef547f20229a90e0a3,0.1815,0.1818,1,79,241,60,1,threeone,,,,,,,,,,,,,,,,,,,,,,,,,,,,,,,,,,,,,,,,,,,,,,,,,,,,,,,,,,,,,,,,,,,,,,,,,,,,,,,,,,,,,,,,,,,,,,,,,,,,,,,,,,,,,,,,,,,,,,,,,,,,,,,,,,,,,,,
,,6004ff08542fe932efbfd8a0,2024-01-06_07h38.21.048,kallum_motion_pilot,2023.2.3,Win32,61.72839506,6004ff08542fe932efbfd8a0,6598e6a5d84f07970b831e70,6598e6ef547f20229a90e0a3,0.182,0.1824,1,80,242,92,1,sevenfive,,,,,,,,,,,,,,,,,,,,,,,,,,,,,,,,,,,,,,,,,,,,,,,,,,,,,,,,,,,,,,,,,,,,,,,,,,,,,,,,,,,,,,,,,,,,,,,,,,,,,,,,,,,,,,,,,,,,,,,,,,,,,,,,,,,,,,,
,,6004ff08542fe932efbfd8a0,2024-01-06_07h38.21.048,kallum_motion_pilot,2023.2.3,Win32,61.72839506,6004ff08542fe932efbfd8a0,6598e6a5d84f07970b831e70,6598e6ef547f20229a90e0a3,0.1828,0.183,1,81,243,58,1,twoone,,,,,,,,,,,,,,,,,,,,,,,,,,,,,,,,,,,,,,,,,,,,,,,,,,,,,,,,,,,,,,,,,,,,,,,,,,,,,,,,,,,,,,,,,,,,,,,,,,,,,,,,,,,,,,,,,,,,,,,,,,,,,,,,,,,,,,,
,,6004ff08542fe932efbfd8a0,2024-01-06_07h38.21.048,kallum_motion_pilot,2023.2.3,Win32,61.72839506,6004ff08542fe932efbfd8a0,6598e6a5d84f07970b831e70,6598e6ef547f20229a90e0a3,0.1833,0.1834,1,82,244,83,1,sixeight,,,,,,,,,,,,,,,,,,,,,,,,,,,,,,,,,,,,,,,,,,,,,,,,,,,,,,,,,,,,,,,,,,,,,,,,,,,,,,,,,,,,,,,,,,,,,,,,,,,,,,,,,,,,,,,,,,,,,,,,,,,,,,,,,,,,,,,
,,6004ff08542fe932efbfd8a0,2024-01-06_07h38.21.048,kallum_motion_pilot,2023.2.3,Win32,61.72839506,6004ff08542fe932efbfd8a0,6598e6a5d84f07970b831e70,6598e6ef547f20229a90e0a3,0.1837,0.1839,1,83,245,102,1,eightsix,,,,,,,,,,,,,,,,,,,,,,,,,,,,,,,,,,,,,,,,,,,,,,,,,,,,,,,,,,,,,,,,,,,,,,,,,,,,,,,,,,,,,,,,,,,,,,,,,,,,,,,,,,,,,,,,,,,,,,,,,,,,,,,,,,,,,,,
,,6004ff08542fe932efbfd8a0,2024-01-06_07h38.21.048,kallum_motion_pilot,2023.2.3,Win32,61.72839506,6004ff08542fe932efbfd8a0,6598e6a5d84f07970b831e70,6598e6ef547f20229a90e0a3,0.1841,0.1844,1,84,246,68,1,threeone,,,,,,,,,,,,,,,,,,,,,,,,,,,,,,,,,,,,,,,,,,,,,,,,,,,,,,,,,,,,,,,,,,,,,,,,,,,,,,,,,,,,,,,,,,,,,,,,,,,,,,,,,,,,,,,,,,,,,,,,,,,,,,,,,,,,,,,
,,6004ff08542fe932efbfd8a0,2024-01-06_07h38.21.048,kallum_motion_pilot,2023.2.3,Win32,61.72839506,6004ff08542fe932efbfd8a0,6598e6a5d84f07970b831e70,6598e6ef547f20229a90e0a3,0.1846,0.1847,1,85,247,0,1,onetwo,,,,,,,,,,,,,,,,,,,,,,,,,,,,,,,,,,,,,,,,,,,,,,,,,,,,,,,,,,,,,,,,,,,,,,,,,,,,,,,,,,,,,,,,,,,,,,,,,,,,,,,,,,,,,,,,,,,,,,,,,,,,,,,,,,,,,,,
,,6004ff08542fe932efbfd8a0,2024-01-06_07h38.21.048,kallum_motion_pilot,2023.2.3,Win32,61.72839506,6004ff08542fe932efbfd8a0,6598e6a5d84f07970b831e70,6598e6ef547f20229a90e0a3,0.185,0.1852,1,86,248,160,1,fivesix,,,,,,,,,,,,,,,,,,,,,,,,,,,,,,,,,,,,,,,,,,,,,,,,,,,,,,,,,,,,,,,,,,,,,,,,,,,,,,,,,,,,,,,,,,,,,,,,,,,,,,,,,,,,,,,,,,,,,,,,,,,,,,,,,,,,,,,
,,6004ff08542fe932efbfd8a0,2024-01-06_07h38.21.048,kallum_motion_pilot,2023.2.3,Win32,61.72839506,6004ff08542fe932efbfd8a0,6598e6a5d84f07970b831e70,6598e6ef547f20229a90e0a3,0.1855,0.1857,1,87,249,40,1,onetwo,,,,,,,,,,,,,,,,,,,,,,,,,,,,,,,,,,,,,,,,,,,,,,,,,,,,,,,,,,,,,,,,,,,,,,,,,,,,,,,,,,,,,,,,,,,,,,,,,,,,,,,,,,,,,,,,,,,,,,,,,,,,,,,,,,,,,,,
,,6004ff08542fe932efbfd8a0,2024-01-06_07h38.21.048,kallum_motion_pilot,2023.2.3,Win32,61.72839506,6004ff08542fe932efbfd8a0,6598e6a5d84f07970b831e70,6598e6ef547f20229a90e0a3,0.1859,0.1861,1,88,250,63,1,fourthree,,,,,,,,,,,,,,,,,,,,,,,,,,,,,,,,,,,,,,,,,,,,,,,,,,,,,,,,,,,,,,,,,,,,,,,,,,,,,,,,,,,,,,,,,,,,,,,,,,,,,,,,,,,,,,,,,,,,,,,,,,,,,,,,,,,,,,,
,,6004ff08542fe932efbfd8a0,2024-01-06_07h38.21.048,kallum_motion_pilot,2023.2.3,Win32,61.72839506,6004ff08542fe932efbfd8a0,6598e6a5d84f07970b831e70,6598e6ef547f20229a90e0a3,0.1863,0.1866,1,89,251,145,1,fiveseven,,,,,,,,,,,,,,,,,,,,,,,,,,,,,,,,,,,,,,,,,,,,,,,,,,,,,,,,,,,,,,,,,,,,,,,,,,,,,,,,,,,,,,,,,,,,,,,,,,,,,,,,,,,,,,,,,,,,,,,,,,,,,,,,,,,,,,,
,,6004ff08542fe932efbfd8a0,2024-01-06_07h38.21.048,kallum_motion_pilot,2023.2.3,Win32,61.72839506,6004ff08542fe932efbfd8a0,6598e6a5d84f07970b831e70,6598e6ef547f20229a90e0a3,0.1868,0.1874,1,90,252,159,1,eightseven,,,,,,,,,,,,,,,,,,,,,,,,,,,,,,,,,,,,,,,,,,,,,,,,,,,,,,,,,,,,,,,,,,,,,,,,,,,,,,,,,,,,,,,,,,,,,,,,,,,,,,,,,,,,,,,,,,,,,,,,,,,,,,,,,,,,,,,
,,6004ff08542fe932efbfd8a0,2024-01-06_07h38.21.048,kallum_motion_pilot,2023.2.3,Win32,61.72839506,6004ff08542fe932efbfd8a0,6598e6a5d84f07970b831e70,6598e6ef547f20229a90e0a3,0.1876,0.1878,1,91,253,39,1,fourthree,,,,,,,,,,,,,,,,,,,,,,,,,,,,,,,,,,,,,,,,,,,,,,,,,,,,,,,,,,,,,,,,,,,,,,,,,,,,,,,,,,,,,,,,,,,,,,,,,,,,,,,,,,,,,,,,,,,,,,,,,,,,,,,,,,,,,,,
,,6004ff08542fe932efbfd8a0,2024-01-06_07h38.21.048,kallum_motion_pilot,2023.2.3,Win32,61.72839506,6004ff08542fe932efbfd8a0,6598e6a5d84f07970b831e70,6598e6ef547f20229a90e0a3,0.188,0.1882,1,92,254,11,1,twofour,,,,,,,,,,,,,,,,,,,,,,,,,,,,,,,,,,,,,,,,,,,,,,,,,,,,,,,,,,,,,,,,,,,,,,,,,,,,,,,,,,,,,,,,,,,,,,,,,,,,,,,,,,,,,,,,,,,,,,,,,,,,,,,,,,,,,,,
,,6004ff08542fe932efbfd8a0,2024-01-06_07h38.21.048,kallum_motion_pilot,2023.2.3,Win32,61.72839506,6004ff08542fe932efbfd8a0,6598e6a5d84f07970b831e70,6598e6ef547f20229a90e0a3,0.1889,0.189,1,93,255,15,1,fourthree,,,,,,,,,,,,,,,,,,,,,,,,,,,,,,,,,,,,,,,,,,,,,,,,,,,,,,,,,,,,,,,,,,,,,,,,,,,,,,,,,,,,,,,,,,,,,,,,,,,,,,,,,,,,,,,,,,,,,,,,,,,,,,,,,,,,,,,
,,6004ff08542fe932efbfd8a0,2024-01-06_07h38.21.048,kallum_motion_pilot,2023.2.3,Win32,61.72839506,6004ff08542fe932efbfd8a0,6598e6a5d84f07970b831e70,6598e6ef547f20229a90e0a3,0.1893,0.1895,1,94,256,99,1,sixeight,,,,,,,,,,,,,,,,,,,,,,,,,,,,,,,,,,,,,,,,,,,,,,,,,,,,,,,,,,,,,,,,,,,,,,,,,,,,,,,,,,,,,,,,,,,,,,,,,,,,,,,,,,,,,,,,,,,,,,,,,,,,,,,,,,,,,,,
,,6004ff08542fe932efbfd8a0,2024-01-06_07h38.21.048,kallum_motion_pilot,2023.2.3,Win32,61.72839506,6004ff08542fe932efbfd8a0,6598e6a5d84f07970b831e70,6598e6ef547f20229a90e0a3,0.1898,0.19,1,95,257,134,1,eightsix,,,,,,,,,,,,,,,,,,,,,,,,,,,,,,,,,,,,,,,,,,,,,,,,,,,,,,,,,,,,,,,,,,,,,,,,,,,,,,,,,,,,,,,,,,,,,,,,,,,,,,,,,,,,,,,,,,,,,,,,,,,,,,,,,,,,,,,
,,6004ff08542fe932efbfd8a0,2024-01-06_07h38.21.048,kallum_motion_pilot,2023.2.3,Win32,61.72839506,6004ff08542fe932efbfd8a0,6598e6a5d84f07970b831e70,6598e6ef547f20229a90e0a3,0.1904,0.1906,1,96,258,75,1,twofour,,,,,,,,,,,,,,,,,,,,,,,,,,,,,,,,,,,,,,,,,,,,,,,,,,,,,,,,,,,,,,,,,,,,,,,,,,,,,,,,,,,,,,,,,,,,,,,,,,,,,,,,,,,,,,,,,,,,,,,,,,,,,,,,,,,,,,,
,,6004ff08542fe932efbfd8a0,2024-01-06_07h38.21.048,kallum_motion_pilot,2023.2.3,Win32,61.72839506,6004ff08542fe932efbfd8a0,6598e6a5d84f07970b831e70,6598e6ef547f20229a90e0a3,0.191,0.1913,1,97,259,129,1,fiveseven,,,,,,,,,,,,,,,,,,,,,,,,,,,,,,,,,,,,,,,,,,,,,,,,,,,,,,,,,,,,,,,,,,,,,,,,,,,,,,,,,,,,,,,,,,,,,,,,,,,,,,,,,,,,,,,,,,,,,,,,,,,,,,,,,,,,,,,
,,6004ff08542fe932efbfd8a0,2024-01-06_07h38.21.048,kallum_motion_pilot,2023.2.3,Win32,61.72839506,6004ff08542fe932efbfd8a0,6598e6a5d84f07970b831e70,6598e6ef547f20229a90e0a3,0.1916,0.1918,1,98,260,79,1,eightseven,,,,,,,,,,,,,,,,,,,,,,,,,,,,,,,,,,,,,,,,,,,,,,,,,,,,,,,,,,,,,,,,,,,,,,,,,,,,,,,,,,,,,,,,,,,,,,,,,,,,,,,,,,,,,,,,,,,,,,,,,,,,,,,,,,,,,,,
,,6004ff08542fe932efbfd8a0,2024-01-06_07h38.21.048,kallum_motion_pilot,2023.2.3,Win32,61.72839506,6004ff08542fe932efbfd8a0,6598e6a5d84f07970b831e70,6598e6ef547f20229a90e0a3,0.192,0.1922,1,99,261,82,1,sixfive,,,,,,,,,,,,,,,,,,,,,,,,,,,,,,,,,,,,,,,,,,,,,,,,,,,,,,,,,,,,,,,,,,,,,,,,,,,,,,,,,,,,,,,,,,,,,,,,,,,,,,,,,,,,,,,,,,,,,,,,,,,,,,,,,,,,,,,
,,6004ff08542fe932efbfd8a0,2024-01-06_07h38.21.048,kallum_motion_pilot,2023.2.3,Win32,61.72839506,6004ff08542fe932efbfd8a0,6598e6a5d84f07970b831e70,6598e6ef547f20229a90e0a3,0.1925,0.1927,1,100,262,161,1,fiveseven,,,,,,,,,,,,,,,,,,,,,,,,,,,,,,,,,,,,,,,,,,,,,,,,,,,,,,,,,,,,,,,,,,,,,,,,,,,,,,,,,,,,,,,,,,,,,,,,,,,,,,,,,,,,,,,,,,,,,,,,,,,,,,,,,,,,,,,
,,6004ff08542fe932efbfd8a0,2024-01-06_07h38.21.048,kallum_motion_pilot,2023.2.3,Win32,61.72839506,6004ff08542fe932efbfd8a0,6598e6a5d84f07970b831e70,6598e6ef547f20229a90e0a3,0.1929,0.1931,1,101,263,135,1,eightseven,,,,,,,,,,,,,,,,,,,,,,,,,,,,,,,,,,,,,,,,,,,,,,,,,,,,,,,,,,,,,,,,,,,,,,,,,,,,,,,,,,,,,,,,,,,,,,,,,,,,,,,,,,,,,,,,,,,,,,,,,,,,,,,,,,,,,,,
,,6004ff08542fe932efbfd8a0,2024-01-06_07h38.21.048,kallum_motion_pilot,2023.2.3,Win32,61.72839506,6004ff08542fe932efbfd8a0,6598e6a5d84f07970b831e70,6598e6ef547f20229a90e0a3,0.1933,0.1936,1,102,264,73,1,onethree,,,,,,,,,,,,,,,,,,,,,,,,,,,,,,,,,,,,,,,,,,,,,,,,,,,,,,,,,,,,,,,,,,,,,,,,,,,,,,,,,,,,,,,,,,,,,,,,,,,,,,,,,,,,,,,,,,,,,,,,,,,,,,,,,,,,,,,
,,6004ff08542fe932efbfd8a0,2024-01-06_07h38.21.048,kallum_motion_pilot,2023.2.3,Win32,61.72839506,6004ff08542fe932efbfd8a0,6598e6a5d84f07970b831e70,6598e6ef547f20229a90e0a3,0.1938,0.194,1,103,265,80,1,fivesix,,,,,,,,,,,,,,,,,,,,,,,,,,,,,,,,,,,,,,,,,,,,,,,,,,,,,,,,,,,,,,,,,,,,,,,,,,,,,,,,,,,,,,,,,,,,,,,,,,,,,,,,,,,,,,,,,,,,,,,,,,,,,,,,,,,,,,,
,,6004ff08542fe932efbfd8a0,2024-01-06_07h38.21.048,kallum_motion_pilot,2023.2.3,Win32,61.72839506,6004ff08542fe932efbfd8a0,6598e6a5d84f07970b831e70,6598e6ef547f20229a90e0a3,0.1943,0.1944,1,104,266,48,1,onetwo,,,,,,,,,,,,,,,,,,,,,,,,,,,,,,,,,,,,,,,,,,,,,,,,,,,,,,,,,,,,,,,,,,,,,,,,,,,,,,,,,,,,,,,,,,,,,,,,,,,,,,,,,,,,,,,,,,,,,,,,,,,,,,,,,,,,,,,
,,6004ff08542fe932efbfd8a0,2024-01-06_07h38.21.048,kallum_motion_pilot,2023.2.3,Win32,61.72839506,6004ff08542fe932efbfd8a0,6598e6a5d84f07970b831e70,6598e6ef547f20229a90e0a3,0.1947,0.1949,1,105,267,136,1,fivesix,,,,,,,,,,,,,,,,,,,,,,,,,,,,,,,,,,,,,,,,,,,,,,,,,,,,,,,,,,,,,,,,,,,,,,,,,,,,,,,,,,,,,,,,,,,,,,,,,,,,,,,,,,,,,,,,,,,,,,,,,,,,,,,,,,,,,,,
,,6004ff08542fe932efbfd8a0,2024-01-06_07h38.21.048,kallum_motion_pilot,2023.2.3,Win32,61.72839506,6004ff08542fe932efbfd8a0,6598e6a5d84f07970b831e70,6598e6ef547f20229a90e0a3,0.1952,0.1953,1,106,268,150,1,eightsix,,,,,,,,,,,,,,,,,,,,,,,,,,,,,,,,,,,,,,,,,,,,,,,,,,,,,,,,,,,,,,,,,,,,,,,,,,,,,,,,,,,,,,,,,,,,,,,,,,,,,,,,,,,,,,,,,,,,,,,,,,,,,,,,,,,,,,,
,,6004ff08542fe932efbfd8a0,2024-01-06_07h38.21.048,kallum_motion_pilot,2023.2.3,Win32,61.72839506,6004ff08542fe932efbfd8a0,6598e6a5d84f07970b831e70,6598e6ef547f20229a90e0a3,0.1956,0.1958,1,107,269,70,1,fourtwo,,,,,,,,,,,,,,,,,,,,,,,,,,,,,,,,,,,,,,,,,,,,,,,,,,,,,,,,,,,,,,,,,,,,,,,,,,,,,,,,,,,,,,,,,,,,,,,,,,,,,,,,,,,,,,,,,,,,,,,,,,,,,,,,,,,,,,,
,,6004ff08542fe932efbfd8a0,2024-01-06_07h38.21.048,kallum_motion_pilot,2023.2.3,Win32,61.72839506,6004ff08542fe932efbfd8a0,6598e6a5d84f07970b831e70,6598e6ef547f20229a90e0a3,0.1961,0.1962,1,108,270,9,1,onethree,,,,,,,,,,,,,,,,,,,,,,,,,,,,,,,,,,,,,,,,,,,,,,,,,,,,,,,,,,,,,,,,,,,,,,,,,,,,,,,,,,,,,,,,,,,,,,,,,,,,,,,,,,,,,,,,,,,,,,,,,,,,,,,,,,,,,,,
,,6004ff08542fe932efbfd8a0,2024-01-06_07h38.21.048,kallum_motion_pilot,2023.2.3,Win32,61.72839506,6004ff08542fe932efbfd8a0,6598e6a5d84f07970b831e70,6598e6ef547f20229a90e0a3,0.1965,0.1967,1,109,271,119,1,eightseven,,,,,,,,,,,,,,,,,,,,,,,,,,,,,,,,,,,,,,,,,,,,,,,,,,,,,,,,,,,,,,,,,,,,,,,,,,,,,,,,,,,,,,,,,,,,,,,,,,,,,,,,,,,,,,,,,,,,,,,,,,,,,,,,,,,,,,,
,,6004ff08542fe932efbfd8a0,2024-01-06_07h38.21.048,kallum_motion_pilot,2023.2.3,Win32,61.72839506,6004ff08542fe932efbfd8a0,6598e6a5d84f07970b831e70,6598e6ef547f20229a90e0a3,0.197,0.1976,1,110,272,49,1,onethree,,,,,,,,,,,,,,,,,,,,,,,,,,,,,,,,,,,,,,,,,,,,,,,,,,,,,,,,,,,,,,,,,,,,,,,,,,,,,,,,,,,,,,,,,,,,,,,,,,,,,,,,,,,,,,,,,,,,,,,,,,,,,,,,,,,,,,,
,,6004ff08542fe932efbfd8a0,2024-01-06_07h38.21.048,kallum_motion_pilot,2023.2.3,Win32,61.72839506,6004ff08542fe932efbfd8a0,6598e6a5d84f07970b831e70,6598e6ef547f20229a90e0a3,0.198,0.1983,1,111,273,108,1,sevenfive,,,,,,,,,,,,,,,,,,,,,,,,,,,,,,,,,,,,,,,,,,,,,,,,,,,,,,,,,,,,,,,,,,,,,,,,,,,,,,,,,,,,,,,,,,,,,,,,,,,,,,,,,,,,,,,,,,,,,,,,,,,,,,,,,,,,,,,
,,6004ff08542fe932efbfd8a0,2024-01-06_07h38.21.048,kallum_motion_pilot,2023.2.3,Win32,61.72839506,6004ff08542fe932efbfd8a0,6598e6a5d84f07970b831e70,6598e6ef547f20229a90e0a3,0.1985,0.1992,1,112,274,36,1,threeone,,,,,,,,,,,,,,,,,,,,,,,,,,,,,,,,,,,,,,,,,,,,,,,,,,,,,,,,,,,,,,,,,,,,,,,,,,,,,,,,,,,,,,,,,,,,,,,,,,,,,,,,,,,,,,,,,,,,,,,,,,,,,,,,,,,,,,,
,,6004ff08542fe932efbfd8a0,2024-01-06_07h38.21.048,kallum_motion_pilot,2023.2.3,Win32,61.72839506,6004ff08542fe932efbfd8a0,6598e6a5d84f07970b831e70,6598e6ef547f20229a90e0a3,0.1994,0.1996,1,113,275,117,1,seveneight,,,,,,,,,,,,,,,,,,,,,,,,,,,,,,,,,,,,,,,,,,,,,,,,,,,,,,,,,,,,,,,,,,,,,,,,,,,,,,,,,,,,,,,,,,,,,,,,,,,,,,,,,,,,,,,,,,,,,,,,,,,,,,,,,,,,,,,
,,6004ff08542fe932efbfd8a0,2024-01-06_07h38.21.048,kallum_motion_pilot,2023.2.3,Win32,61.72839506,6004ff08542fe932efbfd8a0,6598e6a5d84f07970b831e70,6598e6ef547f20229a90e0a3,0.1998,0.2,1,114,276,84,1,sevenfive,,,,,,,,,,,,,,,,,,,,,,,,,,,,,,,,,,,,,,,,,,,,,,,,,,,,,,,,,,,,,,,,,,,,,,,,,,,,,,,,,,,,,,,,,,,,,,,,,,,,,,,,,,,,,,,,,,,,,,,,,,,,,,,,,,,,,,,
,,6004ff08542fe932efbfd8a0,2024-01-06_07h38.21.048,kallum_motion_pilot,2023.2.3,Win32,61.72839506,6004ff08542fe932efbfd8a0,6598e6a5d84f07970b831e70,6598e6ef547f20229a90e0a3,0.2003,0.2005,1,115,277,29,1,threefour,,,,,,,,,,,,,,,,,,,,,,,,,,,,,,,,,,,,,,,,,,,,,,,,,,,,,,,,,,,,,,,,,,,,,,,,,,,,,,,,,,,,,,,,,,,,,,,,,,,,,,,,,,,,,,,,,,,,,,,,,,,,,,,,,,,,,,,
,,6004ff08542fe932efbfd8a0,2024-01-06_07h38.21.048,kallum_motion_pilot,2023.2.3,Win32,61.72839506,6004ff08542fe932efbfd8a0,6598e6a5d84f07970b831e70,6598e6ef547f20229a90e0a3,0.2012,0.2015,1,116,278,103,1,eightseven,,,,,,,,,,,,,,,,,,,,,,,,,,,,,,,,,,,,,,,,,,,,,,,,,,,,,,,,,,,,,,,,,,,,,,,,,,,,,,,,,,,,,,,,,,,,,,,,,,,,,,,,,,,,,,,,,,,,,,,,,,,,,,,,,,,,,,,
,,6004ff08542fe932efbfd8a0,2024-01-06_07h38.21.048,kallum_motion_pilot,2023.2.3,Win32,61.72839506,6004ff08542fe932efbfd8a0,6598e6a5d84f07970b831e70,6598e6ef547f20229a90e0a3,0.2017,0.2019,1,117,279,12,1,threeone,,,,,,,,,,,,,,,,,,,,,,,,,,,,,,,,,,,,,,,,,,,,,,,,,,,,,,,,,,,,,,,,,,,,,,,,,,,,,,,,,,,,,,,,,,,,,,,,,,,,,,,,,,,,,,,,,,,,,,,,,,,,,,,,,,,,,,,
