startup.started,startup.stopped,Prolific ID*,date,expName,psychopyVersion,OS,frameRate,PROLIFIC_PID,STUDY_ID,SESSION_ID,stimpositions.started,stimpositions.stopped,hardcoded_stimulus_positions.thisRepN,hardcoded_stimulus_positions.thisTrialN,hardcoded_stimulus_positions.thisN,hardcoded_stimulus_positions.thisIndex,hardcoded_stimulus_positions.ran,StimulusPos,stimorientation.started,stimorientation.stopped,prac_stimorientation_import_loop.thisRepN,prac_stimorientation_import_loop.thisTrialN,prac_stimorientation_import_loop.thisN,prac_stimorientation_import_loop.thisIndex,prac_stimorientation_import_loop.ran,Stimorientation,welcome_instr.started,welcome_instr.stopped,key_resp.keys,key_resp.rt,key_resp.duration,response_steppedout_1.started,response_steppedout_1.stopped,key_resp_20.keys,key_resp_20.rt,key_resp_20.duration,response_steppedout_2.started,response_steppedout_2.stopped,key_resp_19.keys,key_resp_19.rt,key_resp_19.duration,stim_response_instr.started,stim_response_instr.stopped,key_resp_15.keys,key_resp_15.rt,key_resp_15.duration,direction_instr_2.started,direction_instr_2.stopped,key_resp_9.keys,key_resp_9.rt,key_resp_9.duration,instr_prac.started,instr_prac.stopped,key_resp_10.keys,key_resp_10.rt,key_resp_10.duration,Stim1_display_prac.started,Stim1_display_prac.stopped,Ecc,Circle1_ori,Circle2_ori,response_prac.started,similarity,response_time,response_prac.stopped,mouse_5.x,mouse_5.y,mouse_5.leftButton,mouse_5.midButton,mouse_5.rightButton,mouse_5.clicked_name,responseprac_feedback.started,responseprac_feedback.stopped,summary2_prac.started,summary2_prac.stopped,mouse_6.x,mouse_6.y,mouse_6.leftButton,mouse_6.midButton,mouse_6.rightButton,mouse_6.clicked_name,duringprac.thisRepN,duringprac.thisTrialN,duringprac.thisN,duringprac.thisIndex,duringprac.ran,begin.started,begin.stopped,key_resp_22.keys,key_resp_22.rt,key_resp_22.duration,Stim1_display.started,Stim1_display.stopped,circle1_ori,circle2_ori,blank.started,blank.stopped,response.started,response.stopped,mouse.x,mouse.y,mouse.leftButton,mouse.midButton,mouse.rightButton,mouse.clicked_name,response_2.started,response_2.stopped,mouse_2.x,mouse_2.y,mouse_2.leftButton,mouse_2.midButton,mouse_2.rightButton,mouse_2.clicked_name,special_trial.started,special_trial.stopped,catch_1.started,catch_1.stopped,mouse_3.x,mouse_3.y,mouse_3.leftButton,mouse_3.midButton,mouse_3.rightButton,catchresponse,catchnumber,response_time_catch,Catch,response_sum.started,response_sum.stopped,mouse_11.x,mouse_11.y,mouse_11.leftButton,mouse_11.midButton,mouse_11.rightButton,main_trial.thisRepN,main_trial.thisTrialN,main_trial.thisN,main_trial.thisIndex,main_trial.ran,Orientationtrialno,xcircle1_ori,xcircle2_ori,flip_presentation_sequence_for_double_pass.started,flip_presentation_sequence_for_double_pass.stopped,double_pass.thisRepN,double_pass.thisTrialN,double_pass.thisN,double_pass.thisIndex,double_pass.ran,goodbye.started,goodbye.stopped,key_resp_3.keys,key_resp_3.rt,key_resp_3.duration
0.0027,0.0029,616ea07fcb3f9d9971351c39,2024-01-06_07h47.17.828,kallum_motion_pilot,2023.2.3,Win32,60.24096386,616ea07fcb3f9d9971351c39,6598e6a5d84f07970b831e70,6598e9070f1f93cb1ab50914,,,,,,,,,,,,,,,,,,,,,,,,,,,,,,,,,,,,,,,,,,,,,,,,,,,,,,,,,,,,,,,,,,,,,,,,,,,,,,,,,,,,,,,,,,,,,,,,,,,,,,,,,,,,,,,,,,,,,,,,,,,,,,,,,,,,,,,,,,,,,,,
,,616ea07fcb3f9d9971351c39,2024-01-06_07h47.17.828,kallum_motion_pilot,2023.2.3,Win32,60.24096386,616ea07fcb3f9d9971351c39,6598e6a5d84f07970b831e70,6598e9070f1f93cb1ab50914,0.0586,0.0591,0,0,0,106,1,sixfive,,,,,,,,,,,,,,,,,,,,,,,,,,,,,,,,,,,,,,,,,,,,,,,,,,,,,,,,,,,,,,,,,,,,,,,,,,,,,,,,,,,,,,,,,,,,,,,,,,,,,,,,,,,,,,,,,,,,,,,,,,,,,,,,,,,,,,,
,,616ea07fcb3f9d9971351c39,2024-01-06_07h47.17.828,kallum_motion_pilot,2023.2.3,Win32,60.24096386,616ea07fcb3f9d9971351c39,6598e6a5d84f07970b831e70,6598e9070f1f93cb1ab50914,0.0596,0.0599,0,1,1,126,1,eightsix,,,,,,,,,,,,,,,,,,,,,,,,,,,,,,,,,,,,,,,,,,,,,,,,,,,,,,,,,,,,,,,,,,,,,,,,,,,,,,,,,,,,,,,,,,,,,,,,,,,,,,,,,,,,,,,,,,,,,,,,,,,,,,,,,,,,,,,
,,616ea07fcb3f9d9971351c39,2024-01-06_07h47.17.828,kallum_motion_pilot,2023.2.3,Win32,60.24096386,616ea07fcb3f9d9971351c39,6598e6a5d84f07970b831e70,6598e9070f1f93cb1ab50914,0.0602,0.0604,0,2,2,16,1,onetwo,,,,,,,,,,,,,,,,,,,,,,,,,,,,,,,,,,,,,,,,,,,,,,,,,,,,,,,,,,,,,,,,,,,,,,,,,,,,,,,,,,,,,,,,,,,,,,,,,,,,,,,,,,,,,,,,,,,,,,,,,,,,,,,,,,,,,,,
,,616ea07fcb3f9d9971351c39,2024-01-06_07h47.17.828,kallum_motion_pilot,2023.2.3,Win32,60.24096386,616ea07fcb3f9d9971351c39,6598e6a5d84f07970b831e70,6598e9070f1f93cb1ab50914,0.0607,0.0609,0,3,3,143,1,eightseven,,,,,,,,,,,,,,,,,,,,,,,,,,,,,,,,,,,,,,,,,,,,,,,,,,,,,,,,,,,,,,,,,,,,,,,,,,,,,,,,,,,,,,,,,,,,,,,,,,,,,,,,,,,,,,,,,,,,,,,,,,,,,,,,,,,,,,,
,,616ea07fcb3f9d9971351c39,2024-01-06_07h47.17.828,kallum_motion_pilot,2023.2.3,Win32,60.24096386,616ea07fcb3f9d9971351c39,6598e6a5d84f07970b831e70,6598e9070f1f93cb1ab50914,0.0612,0.0614,0,4,4,157,1,seveneight,,,,,,,,,,,,,,,,,,,,,,,,,,,,,,,,,,,,,,,,,,,,,,,,,,,,,,,,,,,,,,,,,,,,,,,,,,,,,,,,,,,,,,,,,,,,,,,,,,,,,,,,,,,,,,,,,,,,,,,,,,,,,,,,,,,,,,,
,,616ea07fcb3f9d9971351c39,2024-01-06_07h47.17.828,kallum_motion_pilot,2023.2.3,Win32,60.24096386,616ea07fcb3f9d9971351c39,6598e6a5d84f07970b831e70,6598e9070f1f93cb1ab50914,0.0617,0.0619,0,5,5,37,1,threefour,,,,,,,,,,,,,,,,,,,,,,,,,,,,,,,,,,,,,,,,,,,,,,,,,,,,,,,,,,,,,,,,,,,,,,,,,,,,,,,,,,,,,,,,,,,,,,,,,,,,,,,,,,,,,,,,,,,,,,,,,,,,,,,,,,,,,,,
,,616ea07fcb3f9d9971351c39,2024-01-06_07h47.17.828,kallum_motion_pilot,2023.2.3,Win32,60.24096386,616ea07fcb3f9d9971351c39,6598e6a5d84f07970b831e70,6598e9070f1f93cb1ab50914,0.0622,0.0624,0,6,6,160,1,fivesix,,,,,,,,,,,,,,,,,,,,,,,,,,,,,,,,,,,,,,,,,,,,,,,,,,,,,,,,,,,,,,,,,,,,,,,,,,,,,,,,,,,,,,,,,,,,,,,,,,,,,,,,,,,,,,,,,,,,,,,,,,,,,,,,,,,,,,,
,,616ea07fcb3f9d9971351c39,2024-01-06_07h47.17.828,kallum_motion_pilot,2023.2.3,Win32,60.24096386,616ea07fcb3f9d9971351c39,6598e6a5d84f07970b831e70,6598e9070f1f93cb1ab50914,0.0628,0.0629,0,7,7,18,1,twoone,,,,,,,,,,,,,,,,,,,,,,,,,,,,,,,,,,,,,,,,,,,,,,,,,,,,,,,,,,,,,,,,,,,,,,,,,,,,,,,,,,,,,,,,,,,,,,,,,,,,,,,,,,,,,,,,,,,,,,,,,,,,,,,,,,,,,,,
,,616ea07fcb3f9d9971351c39,2024-01-06_07h47.17.828,kallum_motion_pilot,2023.2.3,Win32,60.24096386,616ea07fcb3f9d9971351c39,6598e6a5d84f07970b831e70,6598e9070f1f93cb1ab50914,0.0633,0.0636,0,8,8,42,1,twoone,,,,,,,,,,,,,,,,,,,,,,,,,,,,,,,,,,,,,,,,,,,,,,,,,,,,,,,,,,,,,,,,,,,,,,,,,,,,,,,,,,,,,,,,,,,,,,,,,,,,,,,,,,,,,,,,,,,,,,,,,,,,,,,,,,,,,,,
,,616ea07fcb3f9d9971351c39,2024-01-06_07h47.17.828,kallum_motion_pilot,2023.2.3,Win32,60.24096386,616ea07fcb3f9d9971351c39,6598e6a5d84f07970b831e70,6598e9070f1f93cb1ab50914,0.0639,0.0641,0,9,9,130,1,sixfive,,,,,,,,,,,,,,,,,,,,,,,,,,,,,,,,,,,,,,,,,,,,,,,,,,,,,,,,,,,,,,,,,,,,,,,,,,,,,,,,,,,,,,,,,,,,,,,,,,,,,,,,,,,,,,,,,,,,,,,,,,,,,,,,,,,,,,,
,,616ea07fcb3f9d9971351c39,2024-01-06_07h47.17.828,kallum_motion_pilot,2023.2.3,Win32,60.24096386,616ea07fcb3f9d9971351c39,6598e6a5d84f07970b831e70,6598e9070f1f93cb1ab50914,0.0646,0.0647,0,10,10,8,1,onetwo,,,,,,,,,,,,,,,,,,,,,,,,,,,,,,,,,,,,,,,,,,,,,,,,,,,,,,,,,,,,,,,,,,,,,,,,,,,,,,,,,,,,,,,,,,,,,,,,,,,,,,,,,,,,,,,,,,,,,,,,,,,,,,,,,,,,,,,
,,616ea07fcb3f9d9971351c39,2024-01-06_07h47.17.828,kallum_motion_pilot,2023.2.3,Win32,60.24096386,616ea07fcb3f9d9971351c39,6598e6a5d84f07970b831e70,6598e9070f1f93cb1ab50914,0.065,0.0652,0,11,11,13,1,threefour,,,,,,,,,,,,,,,,,,,,,,,,,,,,,,,,,,,,,,,,,,,,,,,,,,,,,,,,,,,,,,,,,,,,,,,,,,,,,,,,,,,,,,,,,,,,,,,,,,,,,,,,,,,,,,,,,,,,,,,,,,,,,,,,,,,,,,,
,,616ea07fcb3f9d9971351c39,2024-01-06_07h47.17.828,kallum_motion_pilot,2023.2.3,Win32,60.24096386,616ea07fcb3f9d9971351c39,6598e6a5d84f07970b831e70,6598e9070f1f93cb1ab50914,0.0656,0.0658,0,12,12,3,1,twofour,,,,,,,,,,,,,,,,,,,,,,,,,,,,,,,,,,,,,,,,,,,,,,,,,,,,,,,,,,,,,,,,,,,,,,,,,,,,,,,,,,,,,,,,,,,,,,,,,,,,,,,,,,,,,,,,,,,,,,,,,,,,,,,,,,,,,,,
,,616ea07fcb3f9d9971351c39,2024-01-06_07h47.17.828,kallum_motion_pilot,2023.2.3,Win32,60.24096386,616ea07fcb3f9d9971351c39,6598e6a5d84f07970b831e70,6598e9070f1f93cb1ab50914,0.066,0.0662,0,13,13,46,1,fourtwo,,,,,,,,,,,,,,,,,,,,,,,,,,,,,,,,,,,,,,,,,,,,,,,,,,,,,,,,,,,,,,,,,,,,,,,,,,,,,,,,,,,,,,,,,,,,,,,,,,,,,,,,,,,,,,,,,,,,,,,,,,,,,,,,,,,,,,,
,,616ea07fcb3f9d9971351c39,2024-01-06_07h47.17.828,kallum_motion_pilot,2023.2.3,Win32,60.24096386,616ea07fcb3f9d9971351c39,6598e6a5d84f07970b831e70,6598e9070f1f93cb1ab50914,0.0666,0.0667,0,14,14,12,1,threeone,,,,,,,,,,,,,,,,,,,,,,,,,,,,,,,,,,,,,,,,,,,,,,,,,,,,,,,,,,,,,,,,,,,,,,,,,,,,,,,,,,,,,,,,,,,,,,,,,,,,,,,,,,,,,,,,,,,,,,,,,,,,,,,,,,,,,,,
,,616ea07fcb3f9d9971351c39,2024-01-06_07h47.17.828,kallum_motion_pilot,2023.2.3,Win32,60.24096386,616ea07fcb3f9d9971351c39,6598e6a5d84f07970b831e70,6598e9070f1f93cb1ab50914,0.0675,0.0675,0,15,15,62,1,fourtwo,,,,,,,,,,,,,,,,,,,,,,,,,,,,,,,,,,,,,,,,,,,,,,,,,,,,,,,,,,,,,,,,,,,,,,,,,,,,,,,,,,,,,,,,,,,,,,,,,,,,,,,,,,,,,,,,,,,,,,,,,,,,,,,,,,,,,,,
,,616ea07fcb3f9d9971351c39,2024-01-06_07h47.17.828,kallum_motion_pilot,2023.2.3,Win32,60.24096386,616ea07fcb3f9d9971351c39,6598e6a5d84f07970b831e70,6598e9070f1f93cb1ab50914,0.0678,0.0681,0,16,16,113,1,fiveseven,,,,,,,,,,,,,,,,,,,,,,,,,,,,,,,,,,,,,,,,,,,,,,,,,,,,,,,,,,,,,,,,,,,,,,,,,,,,,,,,,,,,,,,,,,,,,,,,,,,,,,,,,,,,,,,,,,,,,,,,,,,,,,,,,,,,,,,
,,616ea07fcb3f9d9971351c39,2024-01-06_07h47.17.828,kallum_motion_pilot,2023.2.3,Win32,60.24096386,616ea07fcb3f9d9971351c39,6598e6a5d84f07970b831e70,6598e9070f1f93cb1ab50914,0.0685,0.0688,0,17,17,88,1,fivesix,,,,,,,,,,,,,,,,,,,,,,,,,,,,,,,,,,,,,,,,,,,,,,,,,,,,,,,,,,,,,,,,,,,,,,,,,,,,,,,,,,,,,,,,,,,,,,,,,,,,,,,,,,,,,,,,,,,,,,,,,,,,,,,,,,,,,,,
,,616ea07fcb3f9d9971351c39,2024-01-06_07h47.17.828,kallum_motion_pilot,2023.2.3,Win32,60.24096386,616ea07fcb3f9d9971351c39,6598e6a5d84f07970b831e70,6598e9070f1f93cb1ab50914,0.0691,0.0693,0,18,18,36,1,threeone,,,,,,,,,,,,,,,,,,,,,,,,,,,,,,,,,,,,,,,,,,,,,,,,,,,,,,,,,,,,,,,,,,,,,,,,,,,,,,,,,,,,,,,,,,,,,,,,,,,,,,,,,,,,,,,,,,,,,,,,,,,,,,,,,,,,,,,
,,616ea07fcb3f9d9971351c39,2024-01-06_07h47.17.828,kallum_motion_pilot,2023.2.3,Win32,60.24096386,616ea07fcb3f9d9971351c39,6598e6a5d84f07970b831e70,6598e9070f1f93cb1ab50914,0.0697,0.0698,0,19,19,53,1,threefour,,,,,,,,,,,,,,,,,,,,,,,,,,,,,,,,,,,,,,,,,,,,,,,,,,,,,,,,,,,,,,,,,,,,,,,,,,,,,,,,,,,,,,,,,,,,,,,,,,,,,,,,,,,,,,,,,,,,,,,,,,,,,,,,,,,,,,,
,,616ea07fcb3f9d9971351c39,2024-01-06_07h47.17.828,kallum_motion_pilot,2023.2.3,Win32,60.24096386,616ea07fcb3f9d9971351c39,6598e6a5d84f07970b831e70,6598e9070f1f93cb1ab50914,0.0701,0.0702,0,20,20,73,1,onethree,,,,,,,,,,,,,,,,,,,,,,,,,,,,,,,,,,,,,,,,,,,,,,,,,,,,,,,,,,,,,,,,,,,,,,,,,,,,,,,,,,,,,,,,,,,,,,,,,,,,,,,,,,,,,,,,,,,,,,,,,,,,,,,,,,,,,,,
,,616ea07fcb3f9d9971351c39,2024-01-06_07h47.17.828,kallum_motion_pilot,2023.2.3,Win32,60.24096386,616ea07fcb3f9d9971351c39,6598e6a5d84f07970b831e70,6598e9070f1f93cb1ab50914,0.0704,0.0707,0,21,21,139,1,sixeight,,,,,,,,,,,,,,,,,,,,,,,,,,,,,,,,,,,,,,,,,,,,,,,,,,,,,,,,,,,,,,,,,,,,,,,,,,,,,,,,,,,,,,,,,,,,,,,,,,,,,,,,,,,,,,,,,,,,,,,,,,,,,,,,,,,,,,,
,,616ea07fcb3f9d9971351c39,2024-01-06_07h47.17.828,kallum_motion_pilot,2023.2.3,Win32,60.24096386,616ea07fcb3f9d9971351c39,6598e6a5d84f07970b831e70,6598e9070f1f93cb1ab50914,0.0709,0.071,0,22,22,86,1,eightsix,,,,,,,,,,,,,,,,,,,,,,,,,,,,,,,,,,,,,,,,,,,,,,,,,,,,,,,,,,,,,,,,,,,,,,,,,,,,,,,,,,,,,,,,,,,,,,,,,,,,,,,,,,,,,,,,,,,,,,,,,,,,,,,,,,,,,,,
,,616ea07fcb3f9d9971351c39,2024-01-06_07h47.17.828,kallum_motion_pilot,2023.2.3,Win32,60.24096386,616ea07fcb3f9d9971351c39,6598e6a5d84f07970b831e70,6598e9070f1f93cb1ab50914,0.0712,0.0714,0,23,23,95,1,eightseven,,,,,,,,,,,,,,,,,,,,,,,,,,,,,,,,,,,,,,,,,,,,,,,,,,,,,,,,,,,,,,,,,,,,,,,,,,,,,,,,,,,,,,,,,,,,,,,,,,,,,,,,,,,,,,,,,,,,,,,,,,,,,,,,,,,,,,,
,,616ea07fcb3f9d9971351c39,2024-01-06_07h47.17.828,kallum_motion_pilot,2023.2.3,Win32,60.24096386,616ea07fcb3f9d9971351c39,6598e6a5d84f07970b831e70,6598e9070f1f93cb1ab50914,0.072,0.0721,0,24,24,100,1,sevenfive,,,,,,,,,,,,,,,,,,,,,,,,,,,,,,,,,,,,,,,,,,,,,,,,,,,,,,,,,,,,,,,,,,,,,,,,,,,,,,,,,,,,,,,,,,,,,,,,,,,,,,,,,,,,,,,,,,,,,,,,,,,,,,,,,,,,,,,
,,616ea07fcb3f9d9971351c39,2024-01-06_07h47.17.828,kallum_motion_pilot,2023.2.3,Win32,60.24096386,616ea07fcb3f9d9971351c39,6598e6a5d84f07970b831e70,6598e9070f1f93cb1ab50914,0.0724,0.0726,0,25,25,28,1,threeone,,,,,,,,,,,,,,,,,,,,,,,,,,,,,,,,,,,,,,,,,,,,,,,,,,,,,,,,,,,,,,,,,,,,,,,,,,,,,,,,,,,,,,,,,,,,,,,,,,,,,,,,,,,,,,,,,,,,,,,,,,,,,,,,,,,,,,,
,,616ea07fcb3f9d9971351c39,2024-01-06_07h47.17.828,kallum_motion_pilot,2023.2.3,Win32,60.24096386,616ea07fcb3f9d9971351c39,6598e6a5d84f07970b831e70,6598e9070f1f93cb1ab50914,0.0728,0.073,0,26,26,158,1,eightsix,,,,,,,,,,,,,,,,,,,,,,,,,,,,,,,,,,,,,,,,,,,,,,,,,,,,,,,,,,,,,,,,,,,,,,,,,,,,,,,,,,,,,,,,,,,,,,,,,,,,,,,,,,,,,,,,,,,,,,,,,,,,,,,,,,,,,,,
,,616ea07fcb3f9d9971351c39,2024-01-06_07h47.17.828,kallum_motion_pilot,2023.2.3,Win32,60.24096386,616ea07fcb3f9d9971351c39,6598e6a5d84f07970b831e70,6598e9070f1f93cb1ab50914,0.0732,0.0735,0,27,27,66,1,twoone,,,,,,,,,,,,,,,,,,,,,,,,,,,,,,,,,,,,,,,,,,,,,,,,,,,,,,,,,,,,,,,,,,,,,,,,,,,,,,,,,,,,,,,,,,,,,,,,,,,,,,,,,,,,,,,,,,,,,,,,,,,,,,,,,,,,,,,
,,616ea07fcb3f9d9971351c39,2024-01-06_07h47.17.828,kallum_motion_pilot,2023.2.3,Win32,60.24096386,616ea07fcb3f9d9971351c39,6598e6a5d84f07970b831e70,6598e9070f1f93cb1ab50914,0.0736,0.0738,0,28,28,1,1,onethree,,,,,,,,,,,,,,,,,,,,,,,,,,,,,,,,,,,,,,,,,,,,,,,,,,,,,,,,,,,,,,,,,,,,,,,,,,,,,,,,,,,,,,,,,,,,,,,,,,,,,,,,,,,,,,,,,,,,,,,,,,,,,,,,,,,,,,,
,,616ea07fcb3f9d9971351c39,2024-01-06_07h47.17.828,kallum_motion_pilot,2023.2.3,Win32,60.24096386,616ea07fcb3f9d9971351c39,6598e6a5d84f07970b831e70,6598e9070f1f93cb1ab50914,0.0741,0.0743,0,29,29,153,1,fiveseven,,,,,,,,,,,,,,,,,,,,,,,,,,,,,,,,,,,,,,,,,,,,,,,,,,,,,,,,,,,,,,,,,,,,,,,,,,,,,,,,,,,,,,,,,,,,,,,,,,,,,,,,,,,,,,,,,,,,,,,,,,,,,,,,,,,,,,,
,,616ea07fcb3f9d9971351c39,2024-01-06_07h47.17.828,kallum_motion_pilot,2023.2.3,Win32,60.24096386,616ea07fcb3f9d9971351c39,6598e6a5d84f07970b831e70,6598e9070f1f93cb1ab50914,0.0745,0.0747,0,30,30,101,1,seveneight,,,,,,,,,,,,,,,,,,,,,,,,,,,,,,,,,,,,,,,,,,,,,,,,,,,,,,,,,,,,,,,,,,,,,,,,,,,,,,,,,,,,,,,,,,,,,,,,,,,,,,,,,,,,,,,,,,,,,,,,,,,,,,,,,,,,,,,
,,616ea07fcb3f9d9971351c39,2024-01-06_07h47.17.828,kallum_motion_pilot,2023.2.3,Win32,60.24096386,616ea07fcb3f9d9971351c39,6598e6a5d84f07970b831e70,6598e9070f1f93cb1ab50914,0.0749,0.0751,0,31,31,97,1,fiveseven,,,,,,,,,,,,,,,,,,,,,,,,,,,,,,,,,,,,,,,,,,,,,,,,,,,,,,,,,,,,,,,,,,,,,,,,,,,,,,,,,,,,,,,,,,,,,,,,,,,,,,,,,,,,,,,,,,,,,,,,,,,,,,,,,,,,,,,
,,616ea07fcb3f9d9971351c39,2024-01-06_07h47.17.828,kallum_motion_pilot,2023.2.3,Win32,60.24096386,616ea07fcb3f9d9971351c39,6598e6a5d84f07970b831e70,6598e9070f1f93cb1ab50914,0.0752,0.0755,0,32,32,60,1,threeone,,,,,,,,,,,,,,,,,,,,,,,,,,,,,,,,,,,,,,,,,,,,,,,,,,,,,,,,,,,,,,,,,,,,,,,,,,,,,,,,,,,,,,,,,,,,,,,,,,,,,,,,,,,,,,,,,,,,,,,,,,,,,,,,,,,,,,,
,,616ea07fcb3f9d9971351c39,2024-01-06_07h47.17.828,kallum_motion_pilot,2023.2.3,Win32,60.24096386,616ea07fcb3f9d9971351c39,6598e6a5d84f07970b831e70,6598e9070f1f93cb1ab50914,0.0757,0.0759,0,33,33,69,1,threefour,,,,,,,,,,,,,,,,,,,,,,,,,,,,,,,,,,,,,,,,,,,,,,,,,,,,,,,,,,,,,,,,,,,,,,,,,,,,,,,,,,,,,,,,,,,,,,,,,,,,,,,,,,,,,,,,,,,,,,,,,,,,,,,,,,,,,,,
,,616ea07fcb3f9d9971351c39,2024-01-06_07h47.17.828,kallum_motion_pilot,2023.2.3,Win32,60.24096386,616ea07fcb3f9d9971351c39,6598e6a5d84f07970b831e70,6598e9070f1f93cb1ab50914,0.0761,0.0762,0,34,34,134,1,eightsix,,,,,,,,,,,,,,,,,,,,,,,,,,,,,,,,,,,,,,,,,,,,,,,,,,,,,,,,,,,,,,,,,,,,,,,,,,,,,,,,,,,,,,,,,,,,,,,,,,,,,,,,,,,,,,,,,,,,,,,,,,,,,,,,,,,,,,,
,,616ea07fcb3f9d9971351c39,2024-01-06_07h47.17.828,kallum_motion_pilot,2023.2.3,Win32,60.24096386,616ea07fcb3f9d9971351c39,6598e6a5d84f07970b831e70,6598e9070f1f93cb1ab50914,0.0765,0.0767,0,35,35,108,1,sevenfive,,,,,,,,,,,,,,,,,,,,,,,,,,,,,,,,,,,,,,,,,,,,,,,,,,,,,,,,,,,,,,,,,,,,,,,,,,,,,,,,,,,,,,,,,,,,,,,,,,,,,,,,,,,,,,,,,,,,,,,,,,,,,,,,,,,,,,,
,,616ea07fcb3f9d9971351c39,2024-01-06_07h47.17.828,kallum_motion_pilot,2023.2.3,Win32,60.24096386,616ea07fcb3f9d9971351c39,6598e6a5d84f07970b831e70,6598e9070f1f93cb1ab50914,0.0782,0.0784,0,36,36,151,1,eightseven,,,,,,,,,,,,,,,,,,,,,,,,,,,,,,,,,,,,,,,,,,,,,,,,,,,,,,,,,,,,,,,,,,,,,,,,,,,,,,,,,,,,,,,,,,,,,,,,,,,,,,,,,,,,,,,,,,,,,,,,,,,,,,,,,,,,,,,
,,616ea07fcb3f9d9971351c39,2024-01-06_07h47.17.828,kallum_motion_pilot,2023.2.3,Win32,60.24096386,616ea07fcb3f9d9971351c39,6598e6a5d84f07970b831e70,6598e9070f1f93cb1ab50914,0.0787,0.0789,0,37,37,33,1,onethree,,,,,,,,,,,,,,,,,,,,,,,,,,,,,,,,,,,,,,,,,,,,,,,,,,,,,,,,,,,,,,,,,,,,,,,,,,,,,,,,,,,,,,,,,,,,,,,,,,,,,,,,,,,,,,,,,,,,,,,,,,,,,,,,,,,,,,,
,,616ea07fcb3f9d9971351c39,2024-01-06_07h47.17.828,kallum_motion_pilot,2023.2.3,Win32,60.24096386,616ea07fcb3f9d9971351c39,6598e6a5d84f07970b831e70,6598e9070f1f93cb1ab50914,0.0792,0.0793,0,38,38,11,1,twofour,,,,,,,,,,,,,,,,,,,,,,,,,,,,,,,,,,,,,,,,,,,,,,,,,,,,,,,,,,,,,,,,,,,,,,,,,,,,,,,,,,,,,,,,,,,,,,,,,,,,,,,,,,,,,,,,,,,,,,,,,,,,,,,,,,,,,,,
,,616ea07fcb3f9d9971351c39,2024-01-06_07h47.17.828,kallum_motion_pilot,2023.2.3,Win32,60.24096386,616ea07fcb3f9d9971351c39,6598e6a5d84f07970b831e70,6598e9070f1f93cb1ab50914,0.0796,0.0798,0,39,39,67,1,twofour,,,,,,,,,,,,,,,,,,,,,,,,,,,,,,,,,,,,,,,,,,,,,,,,,,,,,,,,,,,,,,,,,,,,,,,,,,,,,,,,,,,,,,,,,,,,,,,,,,,,,,,,,,,,,,,,,,,,,,,,,,,,,,,,,,,,,,,
,,616ea07fcb3f9d9971351c39,2024-01-06_07h47.17.828,kallum_motion_pilot,2023.2.3,Win32,60.24096386,616ea07fcb3f9d9971351c39,6598e6a5d84f07970b831e70,6598e9070f1f93cb1ab50914,0.0801,0.0803,0,40,40,147,1,sixeight,,,,,,,,,,,,,,,,,,,,,,,,,,,,,,,,,,,,,,,,,,,,,,,,,,,,,,,,,,,,,,,,,,,,,,,,,,,,,,,,,,,,,,,,,,,,,,,,,,,,,,,,,,,,,,,,,,,,,,,,,,,,,,,,,,,,,,,
,,616ea07fcb3f9d9971351c39,2024-01-06_07h47.17.828,kallum_motion_pilot,2023.2.3,Win32,60.24096386,616ea07fcb3f9d9971351c39,6598e6a5d84f07970b831e70,6598e9070f1f93cb1ab50914,0.0805,0.0806,0,41,41,68,1,threeone,,,,,,,,,,,,,,,,,,,,,,,,,,,,,,,,,,,,,,,,,,,,,,,,,,,,,,,,,,,,,,,,,,,,,,,,,,,,,,,,,,,,,,,,,,,,,,,,,,,,,,,,,,,,,,,,,,,,,,,,,,,,,,,,,,,,,,,
,,616ea07fcb3f9d9971351c39,2024-01-06_07h47.17.828,kallum_motion_pilot,2023.2.3,Win32,60.24096386,616ea07fcb3f9d9971351c39,6598e6a5d84f07970b831e70,6598e9070f1f93cb1ab50914,0.0809,0.081,0,42,42,154,1,sixfive,,,,,,,,,,,,,,,,,,,,,,,,,,,,,,,,,,,,,,,,,,,,,,,,,,,,,,,,,,,,,,,,,,,,,,,,,,,,,,,,,,,,,,,,,,,,,,,,,,,,,,,,,,,,,,,,,,,,,,,,,,,,,,,,,,,,,,,
,,616ea07fcb3f9d9971351c39,2024-01-06_07h47.17.828,kallum_motion_pilot,2023.2.3,Win32,60.24096386,616ea07fcb3f9d9971351c39,6598e6a5d84f07970b831e70,6598e9070f1f93cb1ab50914,0.0813,0.0815,0,43,43,87,1,eightseven,,,,,,,,,,,,,,,,,,,,,,,,,,,,,,,,,,,,,,,,,,,,,,,,,,,,,,,,,,,,,,,,,,,,,,,,,,,,,,,,,,,,,,,,,,,,,,,,,,,,,,,,,,,,,,,,,,,,,,,,,,,,,,,,,,,,,,,
,,616ea07fcb3f9d9971351c39,2024-01-06_07h47.17.828,kallum_motion_pilot,2023.2.3,Win32,60.24096386,616ea07fcb3f9d9971351c39,6598e6a5d84f07970b831e70,6598e9070f1f93cb1ab50914,0.0817,0.0819,0,44,44,65,1,onethree,,,,,,,,,,,,,,,,,,,,,,,,,,,,,,,,,,,,,,,,,,,,,,,,,,,,,,,,,,,,,,,,,,,,,,,,,,,,,,,,,,,,,,,,,,,,,,,,,,,,,,,,,,,,,,,,,,,,,,,,,,,,,,,,,,,,,,,
,,616ea07fcb3f9d9971351c39,2024-01-06_07h47.17.828,kallum_motion_pilot,2023.2.3,Win32,60.24096386,616ea07fcb3f9d9971351c39,6598e6a5d84f07970b831e70,6598e9070f1f93cb1ab50914,0.0821,0.0824,0,45,45,79,1,eightseven,,,,,,,,,,,,,,,,,,,,,,,,,,,,,,,,,,,,,,,,,,,,,,,,,,,,,,,,,,,,,,,,,,,,,,,,,,,,,,,,,,,,,,,,,,,,,,,,,,,,,,,,,,,,,,,,,,,,,,,,,,,,,,,,,,,,,,,
,,616ea07fcb3f9d9971351c39,2024-01-06_07h47.17.828,kallum_motion_pilot,2023.2.3,Win32,60.24096386,616ea07fcb3f9d9971351c39,6598e6a5d84f07970b831e70,6598e9070f1f93cb1ab50914,0.0826,0.0828,0,46,46,29,1,threefour,,,,,,,,,,,,,,,,,,,,,,,,,,,,,,,,,,,,,,,,,,,,,,,,,,,,,,,,,,,,,,,,,,,,,,,,,,,,,,,,,,,,,,,,,,,,,,,,,,,,,,,,,,,,,,,,,,,,,,,,,,,,,,,,,,,,,,,
,,616ea07fcb3f9d9971351c39,2024-01-06_07h47.17.828,kallum_motion_pilot,2023.2.3,Win32,60.24096386,616ea07fcb3f9d9971351c39,6598e6a5d84f07970b831e70,6598e9070f1f93cb1ab50914,0.083,0.0832,0,47,47,75,1,twofour,,,,,,,,,,,,,,,,,,,,,,,,,,,,,,,,,,,,,,,,,,,,,,,,,,,,,,,,,,,,,,,,,,,,,,,,,,,,,,,,,,,,,,,,,,,,,,,,,,,,,,,,,,,,,,,,,,,,,,,,,,,,,,,,,,,,,,,
,,616ea07fcb3f9d9971351c39,2024-01-06_07h47.17.828,kallum_motion_pilot,2023.2.3,Win32,60.24096386,616ea07fcb3f9d9971351c39,6598e6a5d84f07970b831e70,6598e9070f1f93cb1ab50914,0.0834,0.0837,0,48,48,82,1,sixfive,,,,,,,,,,,,,,,,,,,,,,,,,,,,,,,,,,,,,,,,,,,,,,,,,,,,,,,,,,,,,,,,,,,,,,,,,,,,,,,,,,,,,,,,,,,,,,,,,,,,,,,,,,,,,,,,,,,,,,,,,,,,,,,,,,,,,,,
,,616ea07fcb3f9d9971351c39,2024-01-06_07h47.17.828,kallum_motion_pilot,2023.2.3,Win32,60.24096386,616ea07fcb3f9d9971351c39,6598e6a5d84f07970b831e70,6598e9070f1f93cb1ab50914,0.0841,0.0843,0,49,49,118,1,eightsix,,,,,,,,,,,,,,,,,,,,,,,,,,,,,,,,,,,,,,,,,,,,,,,,,,,,,,,,,,,,,,,,,,,,,,,,,,,,,,,,,,,,,,,,,,,,,,,,,,,,,,,,,,,,,,,,,,,,,,,,,,,,,,,,,,,,,,,
,,616ea07fcb3f9d9971351c39,2024-01-06_07h47.17.828,kallum_motion_pilot,2023.2.3,Win32,60.24096386,616ea07fcb3f9d9971351c39,6598e6a5d84f07970b831e70,6598e9070f1f93cb1ab50914,0.0846,0.0848,0,50,50,120,1,fivesix,,,,,,,,,,,,,,,,,,,,,,,,,,,,,,,,,,,,,,,,,,,,,,,,,,,,,,,,,,,,,,,,,,,,,,,,,,,,,,,,,,,,,,,,,,,,,,,,,,,,,,,,,,,,,,,,,,,,,,,,,,,,,,,,,,,,,,,
,,616ea07fcb3f9d9971351c39,2024-01-06_07h47.17.828,kallum_motion_pilot,2023.2.3,Win32,60.24096386,616ea07fcb3f9d9971351c39,6598e6a5d84f07970b831e70,6598e9070f1f93cb1ab50914,0.085,0.0852,0,51,51,112,1,fivesix,,,,,,,,,,,,,,,,,,,,,,,,,,,,,,,,,,,,,,,,,,,,,,,,,,,,,,,,,,,,,,,,,,,,,,,,,,,,,,,,,,,,,,,,,,,,,,,,,,,,,,,,,,,,,,,,,,,,,,,,,,,,,,,,,,,,,,,
,,616ea07fcb3f9d9971351c39,2024-01-06_07h47.17.828,kallum_motion_pilot,2023.2.3,Win32,60.24096386,616ea07fcb3f9d9971351c39,6598e6a5d84f07970b831e70,6598e9070f1f93cb1ab50914,0.0855,0.0857,0,52,52,141,1,seveneight,,,,,,,,,,,,,,,,,,,,,,,,,,,,,,,,,,,,,,,,,,,,,,,,,,,,,,,,,,,,,,,,,,,,,,,,,,,,,,,,,,,,,,,,,,,,,,,,,,,,,,,,,,,,,,,,,,,,,,,,,,,,,,,,,,,,,,,
,,616ea07fcb3f9d9971351c39,2024-01-06_07h47.17.828,kallum_motion_pilot,2023.2.3,Win32,60.24096386,616ea07fcb3f9d9971351c39,6598e6a5d84f07970b831e70,6598e9070f1f93cb1ab50914,0.0859,0.086,0,53,53,71,1,fourthree,,,,,,,,,,,,,,,,,,,,,,,,,,,,,,,,,,,,,,,,,,,,,,,,,,,,,,,,,,,,,,,,,,,,,,,,,,,,,,,,,,,,,,,,,,,,,,,,,,,,,,,,,,,,,,,,,,,,,,,,,,,,,,,,,,,,,,,
,,616ea07fcb3f9d9971351c39,2024-01-06_07h47.17.828,kallum_motion_pilot,2023.2.3,Win32,60.24096386,616ea07fcb3f9d9971351c39,6598e6a5d84f07970b831e70,6598e9070f1f93cb1ab50914,0.0863,0.0865,0,54,54,155,1,sixeight,,,,,,,,,,,,,,,,,,,,,,,,,,,,,,,,,,,,,,,,,,,,,,,,,,,,,,,,,,,,,,,,,,,,,,,,,,,,,,,,,,,,,,,,,,,,,,,,,,,,,,,,,,,,,,,,,,,,,,,,,,,,,,,,,,,,,,,
,,616ea07fcb3f9d9971351c39,2024-01-06_07h47.17.828,kallum_motion_pilot,2023.2.3,Win32,60.24096386,616ea07fcb3f9d9971351c39,6598e6a5d84f07970b831e70,6598e9070f1f93cb1ab50914,0.0867,0.0869,0,55,55,63,1,fourthree,,,,,,,,,,,,,,,,,,,,,,,,,,,,,,,,,,,,,,,,,,,,,,,,,,,,,,,,,,,,,,,,,,,,,,,,,,,,,,,,,,,,,,,,,,,,,,,,,,,,,,,,,,,,,,,,,,,,,,,,,,,,,,,,,,,,,,,
,,616ea07fcb3f9d9971351c39,2024-01-06_07h47.17.828,kallum_motion_pilot,2023.2.3,Win32,60.24096386,616ea07fcb3f9d9971351c39,6598e6a5d84f07970b831e70,6598e9070f1f93cb1ab50914,0.0872,0.0874,0,56,56,41,1,onethree,,,,,,,,,,,,,,,,,,,,,,,,,,,,,,,,,,,,,,,,,,,,,,,,,,,,,,,,,,,,,,,,,,,,,,,,,,,,,,,,,,,,,,,,,,,,,,,,,,,,,,,,,,,,,,,,,,,,,,,,,,,,,,,,,,,,,,,
,,616ea07fcb3f9d9971351c39,2024-01-06_07h47.17.828,kallum_motion_pilot,2023.2.3,Win32,60.24096386,616ea07fcb3f9d9971351c39,6598e6a5d84f07970b831e70,6598e9070f1f93cb1ab50914,0.0876,0.0878,0,57,57,104,1,fivesix,,,,,,,,,,,,,,,,,,,,,,,,,,,,,,,,,,,,,,,,,,,,,,,,,,,,,,,,,,,,,,,,,,,,,,,,,,,,,,,,,,,,,,,,,,,,,,,,,,,,,,,,,,,,,,,,,,,,,,,,,,,,,,,,,,,,,,,
,,616ea07fcb3f9d9971351c39,2024-01-06_07h47.17.828,kallum_motion_pilot,2023.2.3,Win32,60.24096386,616ea07fcb3f9d9971351c39,6598e6a5d84f07970b831e70,6598e9070f1f93cb1ab50914,0.0881,0.0883,0,58,58,14,1,fourtwo,,,,,,,,,,,,,,,,,,,,,,,,,,,,,,,,,,,,,,,,,,,,,,,,,,,,,,,,,,,,,,,,,,,,,,,,,,,,,,,,,,,,,,,,,,,,,,,,,,,,,,,,,,,,,,,,,,,,,,,,,,,,,,,,,,,,,,,
,,616ea07fcb3f9d9971351c39,2024-01-06_07h47.17.828,kallum_motion_pilot,2023.2.3,Win32,60.24096386,616ea07fcb3f9d9971351c39,6598e6a5d84f07970b831e70,6598e9070f1f93cb1ab50914,0.0885,0.0888,0,59,59,45,1,threefour,,,,,,,,,,,,,,,,,,,,,,,,,,,,,,,,,,,,,,,,,,,,,,,,,,,,,,,,,,,,,,,,,,,,,,,,,,,,,,,,,,,,,,,,,,,,,,,,,,,,,,,,,,,,,,,,,,,,,,,,,,,,,,,,,,,,,,,
,,616ea07fcb3f9d9971351c39,2024-01-06_07h47.17.828,kallum_motion_pilot,2023.2.3,Win32,60.24096386,616ea07fcb3f9d9971351c39,6598e6a5d84f07970b831e70,6598e9070f1f93cb1ab50914,0.0892,0.0892,0,60,60,48,1,onetwo,,,,,,,,,,,,,,,,,,,,,,,,,,,,,,,,,,,,,,,,,,,,,,,,,,,,,,,,,,,,,,,,,,,,,,,,,,,,,,,,,,,,,,,,,,,,,,,,,,,,,,,,,,,,,,,,,,,,,,,,,,,,,,,,,,,,,,,
,,616ea07fcb3f9d9971351c39,2024-01-06_07h47.17.828,kallum_motion_pilot,2023.2.3,Win32,60.24096386,616ea07fcb3f9d9971351c39,6598e6a5d84f07970b831e70,6598e9070f1f93cb1ab50914,0.0897,0.0899,0,61,61,92,1,sevenfive,,,,,,,,,,,,,,,,,,,,,,,,,,,,,,,,,,,,,,,,,,,,,,,,,,,,,,,,,,,,,,,,,,,,,,,,,,,,,,,,,,,,,,,,,,,,,,,,,,,,,,,,,,,,,,,,,,,,,,,,,,,,,,,,,,,,,,,
,,616ea07fcb3f9d9971351c39,2024-01-06_07h47.17.828,kallum_motion_pilot,2023.2.3,Win32,60.24096386,616ea07fcb3f9d9971351c39,6598e6a5d84f07970b831e70,6598e9070f1f93cb1ab50914,0.0903,0.0905,0,62,62,25,1,onethree,,,,,,,,,,,,,,,,,,,,,,,,,,,,,,,,,,,,,,,,,,,,,,,,,,,,,,,,,,,,,,,,,,,,,,,,,,,,,,,,,,,,,,,,,,,,,,,,,,,,,,,,,,,,,,,,,,,,,,,,,,,,,,,,,,,,,,,
,,616ea07fcb3f9d9971351c39,2024-01-06_07h47.17.828,kallum_motion_pilot,2023.2.3,Win32,60.24096386,616ea07fcb3f9d9971351c39,6598e6a5d84f07970b831e70,6598e9070f1f93cb1ab50914,0.0908,0.091,0,63,63,124,1,sevenfive,,,,,,,,,,,,,,,,,,,,,,,,,,,,,,,,,,,,,,,,,,,,,,,,,,,,,,,,,,,,,,,,,,,,,,,,,,,,,,,,,,,,,,,,,,,,,,,,,,,,,,,,,,,,,,,,,,,,,,,,,,,,,,,,,,,,,,,
,,616ea07fcb3f9d9971351c39,2024-01-06_07h47.17.828,kallum_motion_pilot,2023.2.3,Win32,60.24096386,616ea07fcb3f9d9971351c39,6598e6a5d84f07970b831e70,6598e9070f1f93cb1ab50914,0.0913,0.0915,0,64,64,57,1,onethree,,,,,,,,,,,,,,,,,,,,,,,,,,,,,,,,,,,,,,,,,,,,,,,,,,,,,,,,,,,,,,,,,,,,,,,,,,,,,,,,,,,,,,,,,,,,,,,,,,,,,,,,,,,,,,,,,,,,,,,,,,,,,,,,,,,,,,,
,,616ea07fcb3f9d9971351c39,2024-01-06_07h47.17.828,kallum_motion_pilot,2023.2.3,Win32,60.24096386,616ea07fcb3f9d9971351c39,6598e6a5d84f07970b831e70,6598e9070f1f93cb1ab50914,0.0919,0.0921,0,65,65,59,1,twofour,,,,,,,,,,,,,,,,,,,,,,,,,,,,,,,,,,,,,,,,,,,,,,,,,,,,,,,,,,,,,,,,,,,,,,,,,,,,,,,,,,,,,,,,,,,,,,,,,,,,,,,,,,,,,,,,,,,,,,,,,,,,,,,,,,,,,,,
,,616ea07fcb3f9d9971351c39,2024-01-06_07h47.17.828,kallum_motion_pilot,2023.2.3,Win32,60.24096386,616ea07fcb3f9d9971351c39,6598e6a5d84f07970b831e70,6598e9070f1f93cb1ab50914,0.0923,0.0925,0,66,66,51,1,twofour,,,,,,,,,,,,,,,,,,,,,,,,,,,,,,,,,,,,,,,,,,,,,,,,,,,,,,,,,,,,,,,,,,,,,,,,,,,,,,,,,,,,,,,,,,,,,,,,,,,,,,,,,,,,,,,,,,,,,,,,,,,,,,,,,,,,,,,
,,616ea07fcb3f9d9971351c39,2024-01-06_07h47.17.828,kallum_motion_pilot,2023.2.3,Win32,60.24096386,616ea07fcb3f9d9971351c39,6598e6a5d84f07970b831e70,6598e9070f1f93cb1ab50914,0.0928,0.0929,0,67,67,121,1,fiveseven,,,,,,,,,,,,,,,,,,,,,,,,,,,,,,,,,,,,,,,,,,,,,,,,,,,,,,,,,,,,,,,,,,,,,,,,,,,,,,,,,,,,,,,,,,,,,,,,,,,,,,,,,,,,,,,,,,,,,,,,,,,,,,,,,,,,,,,
,,616ea07fcb3f9d9971351c39,2024-01-06_07h47.17.828,kallum_motion_pilot,2023.2.3,Win32,60.24096386,616ea07fcb3f9d9971351c39,6598e6a5d84f07970b831e70,6598e9070f1f93cb1ab50914,0.0934,0.0936,0,68,68,81,1,fiveseven,,,,,,,,,,,,,,,,,,,,,,,,,,,,,,,,,,,,,,,,,,,,,,,,,,,,,,,,,,,,,,,,,,,,,,,,,,,,,,,,,,,,,,,,,,,,,,,,,,,,,,,,,,,,,,,,,,,,,,,,,,,,,,,,,,,,,,,
,,616ea07fcb3f9d9971351c39,2024-01-06_07h47.17.828,kallum_motion_pilot,2023.2.3,Win32,60.24096386,616ea07fcb3f9d9971351c39,6598e6a5d84f07970b831e70,6598e9070f1f93cb1ab50914,0.0939,0.0941,0,69,69,76,1,threeone,,,,,,,,,,,,,,,,,,,,,,,,,,,,,,,,,,,,,,,,,,,,,,,,,,,,,,,,,,,,,,,,,,,,,,,,,,,,,,,,,,,,,,,,,,,,,,,,,,,,,,,,,,,,,,,,,,,,,,,,,,,,,,,,,,,,,,,
,,616ea07fcb3f9d9971351c39,2024-01-06_07h47.17.828,kallum_motion_pilot,2023.2.3,Win32,60.24096386,616ea07fcb3f9d9971351c39,6598e6a5d84f07970b831e70,6598e9070f1f93cb1ab50914,0.0943,0.0945,0,70,70,99,1,sixeight,,,,,,,,,,,,,,,,,,,,,,,,,,,,,,,,,,,,,,,,,,,,,,,,,,,,,,,,,,,,,,,,,,,,,,,,,,,,,,,,,,,,,,,,,,,,,,,,,,,,,,,,,,,,,,,,,,,,,,,,,,,,,,,,,,,,,,,
,,616ea07fcb3f9d9971351c39,2024-01-06_07h47.17.828,kallum_motion_pilot,2023.2.3,Win32,60.24096386,616ea07fcb3f9d9971351c39,6598e6a5d84f07970b831e70,6598e9070f1f93cb1ab50914,0.0948,0.0949,0,71,71,111,1,eightseven,,,,,,,,,,,,,,,,,,,,,,,,,,,,,,,,,,,,,,,,,,,,,,,,,,,,,,,,,,,,,,,,,,,,,,,,,,,,,,,,,,,,,,,,,,,,,,,,,,,,,,,,,,,,,,,,,,,,,,,,,,,,,,,,,,,,,,,
,,616ea07fcb3f9d9971351c39,2024-01-06_07h47.17.828,kallum_motion_pilot,2023.2.3,Win32,60.24096386,616ea07fcb3f9d9971351c39,6598e6a5d84f07970b831e70,6598e9070f1f93cb1ab50914,0.0952,0.0954,0,72,72,40,1,onetwo,,,,,,,,,,,,,,,,,,,,,,,,,,,,,,,,,,,,,,,,,,,,,,,,,,,,,,,,,,,,,,,,,,,,,,,,,,,,,,,,,,,,,,,,,,,,,,,,,,,,,,,,,,,,,,,,,,,,,,,,,,,,,,,,,,,,,,,
,,616ea07fcb3f9d9971351c39,2024-01-06_07h47.17.828,kallum_motion_pilot,2023.2.3,Win32,60.24096386,616ea07fcb3f9d9971351c39,6598e6a5d84f07970b831e70,6598e9070f1f93cb1ab50914,0.0956,0.0958,0,73,73,122,1,sixfive,,,,,,,,,,,,,,,,,,,,,,,,,,,,,,,,,,,,,,,,,,,,,,,,,,,,,,,,,,,,,,,,,,,,,,,,,,,,,,,,,,,,,,,,,,,,,,,,,,,,,,,,,,,,,,,,,,,,,,,,,,,,,,,,,,,,,,,
,,616ea07fcb3f9d9971351c39,2024-01-06_07h47.17.828,kallum_motion_pilot,2023.2.3,Win32,60.24096386,616ea07fcb3f9d9971351c39,6598e6a5d84f07970b831e70,6598e9070f1f93cb1ab50914,0.0961,0.0963,0,74,74,38,1,fourtwo,,,,,,,,,,,,,,,,,,,,,,,,,,,,,,,,,,,,,,,,,,,,,,,,,,,,,,,,,,,,,,,,,,,,,,,,,,,,,,,,,,,,,,,,,,,,,,,,,,,,,,,,,,,,,,,,,,,,,,,,,,,,,,,,,,,,,,,
,,616ea07fcb3f9d9971351c39,2024-01-06_07h47.17.828,kallum_motion_pilot,2023.2.3,Win32,60.24096386,616ea07fcb3f9d9971351c39,6598e6a5d84f07970b831e70,6598e9070f1f93cb1ab50914,0.0965,0.0967,0,75,75,125,1,seveneight,,,,,,,,,,,,,,,,,,,,,,,,,,,,,,,,,,,,,,,,,,,,,,,,,,,,,,,,,,,,,,,,,,,,,,,,,,,,,,,,,,,,,,,,,,,,,,,,,,,,,,,,,,,,,,,,,,,,,,,,,,,,,,,,,,,,,,,
,,616ea07fcb3f9d9971351c39,2024-01-06_07h47.17.828,kallum_motion_pilot,2023.2.3,Win32,60.24096386,616ea07fcb3f9d9971351c39,6598e6a5d84f07970b831e70,6598e9070f1f93cb1ab50914,0.0969,0.0971,0,76,76,149,1,seveneight,,,,,,,,,,,,,,,,,,,,,,,,,,,,,,,,,,,,,,,,,,,,,,,,,,,,,,,,,,,,,,,,,,,,,,,,,,,,,,,,,,,,,,,,,,,,,,,,,,,,,,,,,,,,,,,,,,,,,,,,,,,,,,,,,,,,,,,
,,616ea07fcb3f9d9971351c39,2024-01-06_07h47.17.828,kallum_motion_pilot,2023.2.3,Win32,60.24096386,616ea07fcb3f9d9971351c39,6598e6a5d84f07970b831e70,6598e9070f1f93cb1ab50914,0.0974,0.0976,0,77,77,21,1,threefour,,,,,,,,,,,,,,,,,,,,,,,,,,,,,,,,,,,,,,,,,,,,,,,,,,,,,,,,,,,,,,,,,,,,,,,,,,,,,,,,,,,,,,,,,,,,,,,,,,,,,,,,,,,,,,,,,,,,,,,,,,,,,,,,,,,,,,,
,,616ea07fcb3f9d9971351c39,2024-01-06_07h47.17.828,kallum_motion_pilot,2023.2.3,Win32,60.24096386,616ea07fcb3f9d9971351c39,6598e6a5d84f07970b831e70,6598e9070f1f93cb1ab50914,0.0978,0.098,0,78,78,9,1,onethree,,,,,,,,,,,,,,,,,,,,,,,,,,,,,,,,,,,,,,,,,,,,,,,,,,,,,,,,,,,,,,,,,,,,,,,,,,,,,,,,,,,,,,,,,,,,,,,,,,,,,,,,,,,,,,,,,,,,,,,,,,,,,,,,,,,,,,,
,,616ea07fcb3f9d9971351c39,2024-01-06_07h47.17.828,kallum_motion_pilot,2023.2.3,Win32,60.24096386,616ea07fcb3f9d9971351c39,6598e6a5d84f07970b831e70,6598e9070f1f93cb1ab50914,0.0982,0.0984,0,79,79,7,1,fourthree,,,,,,,,,,,,,,,,,,,,,,,,,,,,,,,,,,,,,,,,,,,,,,,,,,,,,,,,,,,,,,,,,,,,,,,,,,,,,,,,,,,,,,,,,,,,,,,,,,,,,,,,,,,,,,,,,,,,,,,,,,,,,,,,,,,,,,,
,,616ea07fcb3f9d9971351c39,2024-01-06_07h47.17.828,kallum_motion_pilot,2023.2.3,Win32,60.24096386,616ea07fcb3f9d9971351c39,6598e6a5d84f07970b831e70,6598e9070f1f93cb1ab50914,0.0987,0.0989,0,80,80,52,1,threeone,,,,,,,,,,,,,,,,,,,,,,,,,,,,,,,,,,,,,,,,,,,,,,,,,,,,,,,,,,,,,,,,,,,,,,,,,,,,,,,,,,,,,,,,,,,,,,,,,,,,,,,,,,,,,,,,,,,,,,,,,,,,,,,,,,,,,,,
,,616ea07fcb3f9d9971351c39,2024-01-06_07h47.17.828,kallum_motion_pilot,2023.2.3,Win32,60.24096386,616ea07fcb3f9d9971351c39,6598e6a5d84f07970b831e70,6598e9070f1f93cb1ab50914,0.0991,0.0994,0,81,81,24,1,onetwo,,,,,,,,,,,,,,,,,,,,,,,,,,,,,,,,,,,,,,,,,,,,,,,,,,,,,,,,,,,,,,,,,,,,,,,,,,,,,,,,,,,,,,,,,,,,,,,,,,,,,,,,,,,,,,,,,,,,,,,,,,,,,,,,,,,,,,,
,,616ea07fcb3f9d9971351c39,2024-01-06_07h47.17.828,kallum_motion_pilot,2023.2.3,Win32,60.24096386,616ea07fcb3f9d9971351c39,6598e6a5d84f07970b831e70,6598e9070f1f93cb1ab50914,0.0995,0.0998,0,82,82,129,1,fiveseven,,,,,,,,,,,,,,,,,,,,,,,,,,,,,,,,,,,,,,,,,,,,,,,,,,,,,,,,,,,,,,,,,,,,,,,,,,,,,,,,,,,,,,,,,,,,,,,,,,,,,,,,,,,,,,,,,,,,,,,,,,,,,,,,,,,,,,,
,,616ea07fcb3f9d9971351c39,2024-01-06_07h47.17.828,kallum_motion_pilot,2023.2.3,Win32,60.24096386,616ea07fcb3f9d9971351c39,6598e6a5d84f07970b831e70,6598e9070f1f93cb1ab50914,0.1,0.1002,0,83,83,30,1,fourtwo,,,,,,,,,,,,,,,,,,,,,,,,,,,,,,,,,,,,,,,,,,,,,,,,,,,,,,,,,,,,,,,,,,,,,,,,,,,,,,,,,,,,,,,,,,,,,,,,,,,,,,,,,,,,,,,,,,,,,,,,,,,,,,,,,,,,,,,
,,616ea07fcb3f9d9971351c39,2024-01-06_07h47.17.828,kallum_motion_pilot,2023.2.3,Win32,60.24096386,616ea07fcb3f9d9971351c39,6598e6a5d84f07970b831e70,6598e9070f1f93cb1ab50914,0.1007,0.1009,0,84,84,23,1,fourthree,,,,,,,,,,,,,,,,,,,,,,,,,,,,,,,,,,,,,,,,,,,,,,,,,,,,,,,,,,,,,,,,,,,,,,,,,,,,,,,,,,,,,,,,,,,,,,,,,,,,,,,,,,,,,,,,,,,,,,,,,,,,,,,,,,,,,,,
,,616ea07fcb3f9d9971351c39,2024-01-06_07h47.17.828,kallum_motion_pilot,2023.2.3,Win32,60.24096386,616ea07fcb3f9d9971351c39,6598e6a5d84f07970b831e70,6598e9070f1f93cb1ab50914,0.1013,0.1014,0,85,85,39,1,fourthree,,,,,,,,,,,,,,,,,,,,,,,,,,,,,,,,,,,,,,,,,,,,,,,,,,,,,,,,,,,,,,,,,,,,,,,,,,,,,,,,,,,,,,,,,,,,,,,,,,,,,,,,,,,,,,,,,,,,,,,,,,,,,,,,,,,,,,,
,,616ea07fcb3f9d9971351c39,2024-01-06_07h47.17.828,kallum_motion_pilot,2023.2.3,Win32,60.24096386,616ea07fcb3f9d9971351c39,6598e6a5d84f07970b831e70,6598e9070f1f93cb1ab50914,0.1021,0.1024,0,86,86,102,1,eightsix,,,,,,,,,,,,,,,,,,,,,,,,,,,,,,,,,,,,,,,,,,,,,,,,,,,,,,,,,,,,,,,,,,,,,,,,,,,,,,,,,,,,,,,,,,,,,,,,,,,,,,,,,,,,,,,,,,,,,,,,,,,,,,,,,,,,,,,
,,616ea07fcb3f9d9971351c39,2024-01-06_07h47.17.828,kallum_motion_pilot,2023.2.3,Win32,60.24096386,616ea07fcb3f9d9971351c39,6598e6a5d84f07970b831e70,6598e9070f1f93cb1ab50914,0.1027,0.1029,0,87,87,49,1,onethree,,,,,,,,,,,,,,,,,,,,,,,,,,,,,,,,,,,,,,,,,,,,,,,,,,,,,,,,,,,,,,,,,,,,,,,,,,,,,,,,,,,,,,,,,,,,,,,,,,,,,,,,,,,,,,,,,,,,,,,,,,,,,,,,,,,,,,,
,,616ea07fcb3f9d9971351c39,2024-01-06_07h47.17.828,kallum_motion_pilot,2023.2.3,Win32,60.24096386,616ea07fcb3f9d9971351c39,6598e6a5d84f07970b831e70,6598e9070f1f93cb1ab50914,0.1032,0.1033,0,88,88,103,1,eightseven,,,,,,,,,,,,,,,,,,,,,,,,,,,,,,,,,,,,,,,,,,,,,,,,,,,,,,,,,,,,,,,,,,,,,,,,,,,,,,,,,,,,,,,,,,,,,,,,,,,,,,,,,,,,,,,,,,,,,,,,,,,,,,,,,,,,,,,
,,616ea07fcb3f9d9971351c39,2024-01-06_07h47.17.828,kallum_motion_pilot,2023.2.3,Win32,60.24096386,616ea07fcb3f9d9971351c39,6598e6a5d84f07970b831e70,6598e9070f1f93cb1ab50914,0.1036,0.1038,0,89,89,148,1,sevenfive,,,,,,,,,,,,,,,,,,,,,,,,,,,,,,,,,,,,,,,,,,,,,,,,,,,,,,,,,,,,,,,,,,,,,,,,,,,,,,,,,,,,,,,,,,,,,,,,,,,,,,,,,,,,,,,,,,,,,,,,,,,,,,,,,,,,,,,
,,616ea07fcb3f9d9971351c39,2024-01-06_07h47.17.828,kallum_motion_pilot,2023.2.3,Win32,60.24096386,616ea07fcb3f9d9971351c39,6598e6a5d84f07970b831e70,6598e9070f1f93cb1ab50914,0.104,0.1043,0,90,90,64,1,onetwo,,,,,,,,,,,,,,,,,,,,,,,,,,,,,,,,,,,,,,,,,,,,,,,,,,,,,,,,,,,,,,,,,,,,,,,,,,,,,,,,,,,,,,,,,,,,,,,,,,,,,,,,,,,,,,,,,,,,,,,,,,,,,,,,,,,,,,,
,,616ea07fcb3f9d9971351c39,2024-01-06_07h47.17.828,kallum_motion_pilot,2023.2.3,Win32,60.24096386,616ea07fcb3f9d9971351c39,6598e6a5d84f07970b831e70,6598e9070f1f93cb1ab50914,0.1044,0.1046,0,91,91,128,1,fivesix,,,,,,,,,,,,,,,,,,,,,,,,,,,,,,,,,,,,,,,,,,,,,,,,,,,,,,,,,,,,,,,,,,,,,,,,,,,,,,,,,,,,,,,,,,,,,,,,,,,,,,,,,,,,,,,,,,,,,,,,,,,,,,,,,,,,,,,
,,616ea07fcb3f9d9971351c39,2024-01-06_07h47.17.828,kallum_motion_pilot,2023.2.3,Win32,60.24096386,616ea07fcb3f9d9971351c39,6598e6a5d84f07970b831e70,6598e9070f1f93cb1ab50914,0.1049,0.1051,0,92,92,84,1,sevenfive,,,,,,,,,,,,,,,,,,,,,,,,,,,,,,,,,,,,,,,,,,,,,,,,,,,,,,,,,,,,,,,,,,,,,,,,,,,,,,,,,,,,,,,,,,,,,,,,,,,,,,,,,,,,,,,,,,,,,,,,,,,,,,,,,,,,,,,
,,616ea07fcb3f9d9971351c39,2024-01-06_07h47.17.828,kallum_motion_pilot,2023.2.3,Win32,60.24096386,616ea07fcb3f9d9971351c39,6598e6a5d84f07970b831e70,6598e9070f1f93cb1ab50914,0.1054,0.1056,0,93,93,135,1,eightseven,,,,,,,,,,,,,,,,,,,,,,,,,,,,,,,,,,,,,,,,,,,,,,,,,,,,,,,,,,,,,,,,,,,,,,,,,,,,,,,,,,,,,,,,,,,,,,,,,,,,,,,,,,,,,,,,,,,,,,,,,,,,,,,,,,,,,,,
,,616ea07fcb3f9d9971351c39,2024-01-06_07h47.17.828,kallum_motion_pilot,2023.2.3,Win32,60.24096386,616ea07fcb3f9d9971351c39,6598e6a5d84f07970b831e70,6598e9070f1f93cb1ab50914,0.1064,0.1065,0,94,94,144,1,fivesix,,,,,,,,,,,,,,,,,,,,,,,,,,,,,,,,,,,,,,,,,,,,,,,,,,,,,,,,,,,,,,,,,,,,,,,,,,,,,,,,,,,,,,,,,,,,,,,,,,,,,,,,,,,,,,,,,,,,,,,,,,,,,,,,,,,,,,,
,,616ea07fcb3f9d9971351c39,2024-01-06_07h47.17.828,kallum_motion_pilot,2023.2.3,Win32,60.24096386,616ea07fcb3f9d9971351c39,6598e6a5d84f07970b831e70,6598e9070f1f93cb1ab50914,0.1068,0.107,0,95,95,117,1,seveneight,,,,,,,,,,,,,,,,,,,,,,,,,,,,,,,,,,,,,,,,,,,,,,,,,,,,,,,,,,,,,,,,,,,,,,,,,,,,,,,,,,,,,,,,,,,,,,,,,,,,,,,,,,,,,,,,,,,,,,,,,,,,,,,,,,,,,,,
,,616ea07fcb3f9d9971351c39,2024-01-06_07h47.17.828,kallum_motion_pilot,2023.2.3,Win32,60.24096386,616ea07fcb3f9d9971351c39,6598e6a5d84f07970b831e70,6598e9070f1f93cb1ab50914,0.1072,0.1074,0,96,96,142,1,eightsix,,,,,,,,,,,,,,,,,,,,,,,,,,,,,,,,,,,,,,,,,,,,,,,,,,,,,,,,,,,,,,,,,,,,,,,,,,,,,,,,,,,,,,,,,,,,,,,,,,,,,,,,,,,,,,,,,,,,,,,,,,,,,,,,,,,,,,,
,,616ea07fcb3f9d9971351c39,2024-01-06_07h47.17.828,kallum_motion_pilot,2023.2.3,Win32,60.24096386,616ea07fcb3f9d9971351c39,6598e6a5d84f07970b831e70,6598e9070f1f93cb1ab50914,0.1077,0.1078,0,97,97,47,1,fourthree,,,,,,,,,,,,,,,,,,,,,,,,,,,,,,,,,,,,,,,,,,,,,,,,,,,,,,,,,,,,,,,,,,,,,,,,,,,,,,,,,,,,,,,,,,,,,,,,,,,,,,,,,,,,,,,,,,,,,,,,,,,,,,,,,,,,,,,
,,616ea07fcb3f9d9971351c39,2024-01-06_07h47.17.828,kallum_motion_pilot,2023.2.3,Win32,60.24096386,616ea07fcb3f9d9971351c39,6598e6a5d84f07970b831e70,6598e9070f1f93cb1ab50914,0.1081,0.1083,0,98,98,15,1,fourthree,,,,,,,,,,,,,,,,,,,,,,,,,,,,,,,,,,,,,,,,,,,,,,,,,,,,,,,,,,,,,,,,,,,,,,,,,,,,,,,,,,,,,,,,,,,,,,,,,,,,,,,,,,,,,,,,,,,,,,,,,,,,,,,,,,,,,,,
,,616ea07fcb3f9d9971351c39,2024-01-06_07h47.17.828,kallum_motion_pilot,2023.2.3,Win32,60.24096386,616ea07fcb3f9d9971351c39,6598e6a5d84f07970b831e70,6598e9070f1f93cb1ab50914,0.1086,0.1088,0,99,99,32,1,onetwo,,,,,,,,,,,,,,,,,,,,,,,,,,,,,,,,,,,,,,,,,,,,,,,,,,,,,,,,,,,,,,,,,,,,,,,,,,,,,,,,,,,,,,,,,,,,,,,,,,,,,,,,,,,,,,,,,,,,,,,,,,,,,,,,,,,,,,,
,,616ea07fcb3f9d9971351c39,2024-01-06_07h47.17.828,kallum_motion_pilot,2023.2.3,Win32,60.24096386,616ea07fcb3f9d9971351c39,6598e6a5d84f07970b831e70,6598e9070f1f93cb1ab50914,0.1091,0.1092,0,100,100,127,1,eightseven,,,,,,,,,,,,,,,,,,,,,,,,,,,,,,,,,,,,,,,,,,,,,,,,,,,,,,,,,,,,,,,,,,,,,,,,,,,,,,,,,,,,,,,,,,,,,,,,,,,,,,,,,,,,,,,,,,,,,,,,,,,,,,,,,,,,,,,
,,616ea07fcb3f9d9971351c39,2024-01-06_07h47.17.828,kallum_motion_pilot,2023.2.3,Win32,60.24096386,616ea07fcb3f9d9971351c39,6598e6a5d84f07970b831e70,6598e9070f1f93cb1ab50914,0.1095,0.1096,0,101,101,109,1,seveneight,,,,,,,,,,,,,,,,,,,,,,,,,,,,,,,,,,,,,,,,,,,,,,,,,,,,,,,,,,,,,,,,,,,,,,,,,,,,,,,,,,,,,,,,,,,,,,,,,,,,,,,,,,,,,,,,,,,,,,,,,,,,,,,,,,,,,,,
,,616ea07fcb3f9d9971351c39,2024-01-06_07h47.17.828,kallum_motion_pilot,2023.2.3,Win32,60.24096386,616ea07fcb3f9d9971351c39,6598e6a5d84f07970b831e70,6598e9070f1f93cb1ab50914,0.1099,0.1102,0,102,102,77,1,threefour,,,,,,,,,,,,,,,,,,,,,,,,,,,,,,,,,,,,,,,,,,,,,,,,,,,,,,,,,,,,,,,,,,,,,,,,,,,,,,,,,,,,,,,,,,,,,,,,,,,,,,,,,,,,,,,,,,,,,,,,,,,,,,,,,,,,,,,
,,616ea07fcb3f9d9971351c39,2024-01-06_07h47.17.828,kallum_motion_pilot,2023.2.3,Win32,60.24096386,616ea07fcb3f9d9971351c39,6598e6a5d84f07970b831e70,6598e9070f1f93cb1ab50914,0.1104,0.1106,0,103,103,10,1,twoone,,,,,,,,,,,,,,,,,,,,,,,,,,,,,,,,,,,,,,,,,,,,,,,,,,,,,,,,,,,,,,,,,,,,,,,,,,,,,,,,,,,,,,,,,,,,,,,,,,,,,,,,,,,,,,,,,,,,,,,,,,,,,,,,,,,,,,,
,,616ea07fcb3f9d9971351c39,2024-01-06_07h47.17.828,kallum_motion_pilot,2023.2.3,Win32,60.24096386,616ea07fcb3f9d9971351c39,6598e6a5d84f07970b831e70,6598e9070f1f93cb1ab50914,0.1109,0.111,0,104,104,91,1,sixeight,,,,,,,,,,,,,,,,,,,,,,,,,,,,,,,,,,,,,,,,,,,,,,,,,,,,,,,,,,,,,,,,,,,,,,,,,,,,,,,,,,,,,,,,,,,,,,,,,,,,,,,,,,,,,,,,,,,,,,,,,,,,,,,,,,,,,,,
,,616ea07fcb3f9d9971351c39,2024-01-06_07h47.17.828,kallum_motion_pilot,2023.2.3,Win32,60.24096386,616ea07fcb3f9d9971351c39,6598e6a5d84f07970b831e70,6598e9070f1f93cb1ab50914,0.1113,0.1115,0,105,105,5,1,threefour,,,,,,,,,,,,,,,,,,,,,,,,,,,,,,,,,,,,,,,,,,,,,,,,,,,,,,,,,,,,,,,,,,,,,,,,,,,,,,,,,,,,,,,,,,,,,,,,,,,,,,,,,,,,,,,,,,,,,,,,,,,,,,,,,,,,,,,
,,616ea07fcb3f9d9971351c39,2024-01-06_07h47.17.828,kallum_motion_pilot,2023.2.3,Win32,60.24096386,616ea07fcb3f9d9971351c39,6598e6a5d84f07970b831e70,6598e9070f1f93cb1ab50914,0.1117,0.1119,0,106,106,6,1,fourtwo,,,,,,,,,,,,,,,,,,,,,,,,,,,,,,,,,,,,,,,,,,,,,,,,,,,,,,,,,,,,,,,,,,,,,,,,,,,,,,,,,,,,,,,,,,,,,,,,,,,,,,,,,,,,,,,,,,,,,,,,,,,,,,,,,,,,,,,
,,616ea07fcb3f9d9971351c39,2024-01-06_07h47.17.828,kallum_motion_pilot,2023.2.3,Win32,60.24096386,616ea07fcb3f9d9971351c39,6598e6a5d84f07970b831e70,6598e9070f1f93cb1ab50914,0.114,0.1142,0,107,107,107,1,sixeight,,,,,,,,,,,,,,,,,,,,,,,,,,,,,,,,,,,,,,,,,,,,,,,,,,,,,,,,,,,,,,,,,,,,,,,,,,,,,,,,,,,,,,,,,,,,,,,,,,,,,,,,,,,,,,,,,,,,,,,,,,,,,,,,,,,,,,,
,,616ea07fcb3f9d9971351c39,2024-01-06_07h47.17.828,kallum_motion_pilot,2023.2.3,Win32,60.24096386,616ea07fcb3f9d9971351c39,6598e6a5d84f07970b831e70,6598e9070f1f93cb1ab50914,0.1145,0.1148,0,108,108,74,1,twoone,,,,,,,,,,,,,,,,,,,,,,,,,,,,,,,,,,,,,,,,,,,,,,,,,,,,,,,,,,,,,,,,,,,,,,,,,,,,,,,,,,,,,,,,,,,,,,,,,,,,,,,,,,,,,,,,,,,,,,,,,,,,,,,,,,,,,,,
,,616ea07fcb3f9d9971351c39,2024-01-06_07h47.17.828,kallum_motion_pilot,2023.2.3,Win32,60.24096386,616ea07fcb3f9d9971351c39,6598e6a5d84f07970b831e70,6598e9070f1f93cb1ab50914,0.115,0.1152,0,109,109,150,1,eightsix,,,,,,,,,,,,,,,,,,,,,,,,,,,,,,,,,,,,,,,,,,,,,,,,,,,,,,,,,,,,,,,,,,,,,,,,,,,,,,,,,,,,,,,,,,,,,,,,,,,,,,,,,,,,,,,,,,,,,,,,,,,,,,,,,,,,,,,
,,616ea07fcb3f9d9971351c39,2024-01-06_07h47.17.828,kallum_motion_pilot,2023.2.3,Win32,60.24096386,616ea07fcb3f9d9971351c39,6598e6a5d84f07970b831e70,6598e9070f1f93cb1ab50914,0.1154,0.1157,0,110,110,54,1,fourtwo,,,,,,,,,,,,,,,,,,,,,,,,,,,,,,,,,,,,,,,,,,,,,,,,,,,,,,,,,,,,,,,,,,,,,,,,,,,,,,,,,,,,,,,,,,,,,,,,,,,,,,,,,,,,,,,,,,,,,,,,,,,,,,,,,,,,,,,
,,616ea07fcb3f9d9971351c39,2024-01-06_07h47.17.828,kallum_motion_pilot,2023.2.3,Win32,60.24096386,616ea07fcb3f9d9971351c39,6598e6a5d84f07970b831e70,6598e9070f1f93cb1ab50914,0.1159,0.1162,0,111,111,89,1,fiveseven,,,,,,,,,,,,,,,,,,,,,,,,,,,,,,,,,,,,,,,,,,,,,,,,,,,,,,,,,,,,,,,,,,,,,,,,,,,,,,,,,,,,,,,,,,,,,,,,,,,,,,,,,,,,,,,,,,,,,,,,,,,,,,,,,,,,,,,
,,616ea07fcb3f9d9971351c39,2024-01-06_07h47.17.828,kallum_motion_pilot,2023.2.3,Win32,60.24096386,616ea07fcb3f9d9971351c39,6598e6a5d84f07970b831e70,6598e9070f1f93cb1ab50914,0.1165,0.1167,0,112,112,19,1,twofour,,,,,,,,,,,,,,,,,,,,,,,,,,,,,,,,,,,,,,,,,,,,,,,,,,,,,,,,,,,,,,,,,,,,,,,,,,,,,,,,,,,,,,,,,,,,,,,,,,,,,,,,,,,,,,,,,,,,,,,,,,,,,,,,,,,,,,,
,,616ea07fcb3f9d9971351c39,2024-01-06_07h47.17.828,kallum_motion_pilot,2023.2.3,Win32,60.24096386,616ea07fcb3f9d9971351c39,6598e6a5d84f07970b831e70,6598e9070f1f93cb1ab50914,0.1173,0.1175,0,113,113,140,1,sevenfive,,,,,,,,,,,,,,,,,,,,,,,,,,,,,,,,,,,,,,,,,,,,,,,,,,,,,,,,,,,,,,,,,,,,,,,,,,,,,,,,,,,,,,,,,,,,,,,,,,,,,,,,,,,,,,,,,,,,,,,,,,,,,,,,,,,,,,,
,,616ea07fcb3f9d9971351c39,2024-01-06_07h47.17.828,kallum_motion_pilot,2023.2.3,Win32,60.24096386,616ea07fcb3f9d9971351c39,6598e6a5d84f07970b831e70,6598e9070f1f93cb1ab50914,0.1178,0.118,0,114,114,0,1,onetwo,,,,,,,,,,,,,,,,,,,,,,,,,,,,,,,,,,,,,,,,,,,,,,,,,,,,,,,,,,,,,,,,,,,,,,,,,,,,,,,,,,,,,,,,,,,,,,,,,,,,,,,,,,,,,,,,,,,,,,,,,,,,,,,,,,,,,,,
,,616ea07fcb3f9d9971351c39,2024-01-06_07h47.17.828,kallum_motion_pilot,2023.2.3,Win32,60.24096386,616ea07fcb3f9d9971351c39,6598e6a5d84f07970b831e70,6598e9070f1f93cb1ab50914,0.1182,0.1184,0,115,115,34,1,twoone,,,,,,,,,,,,,,,,,,,,,,,,,,,,,,,,,,,,,,,,,,,,,,,,,,,,,,,,,,,,,,,,,,,,,,,,,,,,,,,,,,,,,,,,,,,,,,,,,,,,,,,,,,,,,,,,,,,,,,,,,,,,,,,,,,,,,,,
,,616ea07fcb3f9d9971351c39,2024-01-06_07h47.17.828,kallum_motion_pilot,2023.2.3,Win32,60.24096386,616ea07fcb3f9d9971351c39,6598e6a5d84f07970b831e70,6598e9070f1f93cb1ab50914,0.1188,0.1189,0,116,116,72,1,onetwo,,,,,,,,,,,,,,,,,,,,,,,,,,,,,,,,,,,,,,,,,,,,,,,,,,,,,,,,,,,,,,,,,,,,,,,,,,,,,,,,,,,,,,,,,,,,,,,,,,,,,,,,,,,,,,,,,,,,,,,,,,,,,,,,,,,,,,,
,,616ea07fcb3f9d9971351c39,2024-01-06_07h47.17.828,kallum_motion_pilot,2023.2.3,Win32,60.24096386,616ea07fcb3f9d9971351c39,6598e6a5d84f07970b831e70,6598e9070f1f93cb1ab50914,0.1191,0.1193,0,117,117,78,1,fourtwo,,,,,,,,,,,,,,,,,,,,,,,,,,,,,,,,,,,,,,,,,,,,,,,,,,,,,,,,,,,,,,,,,,,,,,,,,,,,,,,,,,,,,,,,,,,,,,,,,,,,,,,,,,,,,,,,,,,,,,,,,,,,,,,,,,,,,,,
,,616ea07fcb3f9d9971351c39,2024-01-06_07h47.17.828,kallum_motion_pilot,2023.2.3,Win32,60.24096386,616ea07fcb3f9d9971351c39,6598e6a5d84f07970b831e70,6598e9070f1f93cb1ab50914,0.1196,0.1198,0,118,118,123,1,sixeight,,,,,,,,,,,,,,,,,,,,,,,,,,,,,,,,,,,,,,,,,,,,,,,,,,,,,,,,,,,,,,,,,,,,,,,,,,,,,,,,,,,,,,,,,,,,,,,,,,,,,,,,,,,,,,,,,,,,,,,,,,,,,,,,,,,,,,,
,,616ea07fcb3f9d9971351c39,2024-01-06_07h47.17.828,kallum_motion_pilot,2023.2.3,Win32,60.24096386,616ea07fcb3f9d9971351c39,6598e6a5d84f07970b831e70,6598e9070f1f93cb1ab50914,0.1201,0.1203,0,119,119,70,1,fourtwo,,,,,,,,,,,,,,,,,,,,,,,,,,,,,,,,,,,,,,,,,,,,,,,,,,,,,,,,,,,,,,,,,,,,,,,,,,,,,,,,,,,,,,,,,,,,,,,,,,,,,,,,,,,,,,,,,,,,,,,,,,,,,,,,,,,,,,,
,,616ea07fcb3f9d9971351c39,2024-01-06_07h47.17.828,kallum_motion_pilot,2023.2.3,Win32,60.24096386,616ea07fcb3f9d9971351c39,6598e6a5d84f07970b831e70,6598e9070f1f93cb1ab50914,0.1206,0.1207,0,120,120,145,1,fiveseven,,,,,,,,,,,,,,,,,,,,,,,,,,,,,,,,,,,,,,,,,,,,,,,,,,,,,,,,,,,,,,,,,,,,,,,,,,,,,,,,,,,,,,,,,,,,,,,,,,,,,,,,,,,,,,,,,,,,,,,,,,,,,,,,,,,,,,,
,,616ea07fcb3f9d9971351c39,2024-01-06_07h47.17.828,kallum_motion_pilot,2023.2.3,Win32,60.24096386,616ea07fcb3f9d9971351c39,6598e6a5d84f07970b831e70,6598e9070f1f93cb1ab50914,0.121,0.1212,0,121,121,105,1,fiveseven,,,,,,,,,,,,,,,,,,,,,,,,,,,,,,,,,,,,,,,,,,,,,,,,,,,,,,,,,,,,,,,,,,,,,,,,,,,,,,,,,,,,,,,,,,,,,,,,,,,,,,,,,,,,,,,,,,,,,,,,,,,,,,,,,,,,,,,
,,616ea07fcb3f9d9971351c39,2024-01-06_07h47.17.828,kallum_motion_pilot,2023.2.3,Win32,60.24096386,616ea07fcb3f9d9971351c39,6598e6a5d84f07970b831e70,6598e9070f1f93cb1ab50914,0.1215,0.1216,0,122,122,133,1,seveneight,,,,,,,,,,,,,,,,,,,,,,,,,,,,,,,,,,,,,,,,,,,,,,,,,,,,,,,,,,,,,,,,,,,,,,,,,,,,,,,,,,,,,,,,,,,,,,,,,,,,,,,,,,,,,,,,,,,,,,,,,,,,,,,,,,,,,,,
,,616ea07fcb3f9d9971351c39,2024-01-06_07h47.17.828,kallum_motion_pilot,2023.2.3,Win32,60.24096386,616ea07fcb3f9d9971351c39,6598e6a5d84f07970b831e70,6598e9070f1f93cb1ab50914,0.1219,0.1221,0,123,123,26,1,twoone,,,,,,,,,,,,,,,,,,,,,,,,,,,,,,,,,,,,,,,,,,,,,,,,,,,,,,,,,,,,,,,,,,,,,,,,,,,,,,,,,,,,,,,,,,,,,,,,,,,,,,,,,,,,,,,,,,,,,,,,,,,,,,,,,,,,,,,
,,616ea07fcb3f9d9971351c39,2024-01-06_07h47.17.828,kallum_motion_pilot,2023.2.3,Win32,60.24096386,616ea07fcb3f9d9971351c39,6598e6a5d84f07970b831e70,6598e9070f1f93cb1ab50914,0.1224,0.1227,0,124,124,132,1,sevenfive,,,,,,,,,,,,,,,,,,,,,,,,,,,,,,,,,,,,,,,,,,,,,,,,,,,,,,,,,,,,,,,,,,,,,,,,,,,,,,,,,,,,,,,,,,,,,,,,,,,,,,,,,,,,,,,,,,,,,,,,,,,,,,,,,,,,,,,
,,616ea07fcb3f9d9971351c39,2024-01-06_07h47.17.828,kallum_motion_pilot,2023.2.3,Win32,60.24096386,616ea07fcb3f9d9971351c39,6598e6a5d84f07970b831e70,6598e9070f1f93cb1ab50914,0.1232,0.1234,0,125,125,93,1,seveneight,,,,,,,,,,,,,,,,,,,,,,,,,,,,,,,,,,,,,,,,,,,,,,,,,,,,,,,,,,,,,,,,,,,,,,,,,,,,,,,,,,,,,,,,,,,,,,,,,,,,,,,,,,,,,,,,,,,,,,,,,,,,,,,,,,,,,,,
,,616ea07fcb3f9d9971351c39,2024-01-06_07h47.17.828,kallum_motion_pilot,2023.2.3,Win32,60.24096386,616ea07fcb3f9d9971351c39,6598e6a5d84f07970b831e70,6598e9070f1f93cb1ab50914,0.1238,0.1239,0,126,126,90,1,sixfive,,,,,,,,,,,,,,,,,,,,,,,,,,,,,,,,,,,,,,,,,,,,,,,,,,,,,,,,,,,,,,,,,,,,,,,,,,,,,,,,,,,,,,,,,,,,,,,,,,,,,,,,,,,,,,,,,,,,,,,,,,,,,,,,,,,,,,,
,,616ea07fcb3f9d9971351c39,2024-01-06_07h47.17.828,kallum_motion_pilot,2023.2.3,Win32,60.24096386,616ea07fcb3f9d9971351c39,6598e6a5d84f07970b831e70,6598e9070f1f93cb1ab50914,0.1243,0.1244,0,127,127,119,1,eightseven,,,,,,,,,,,,,,,,,,,,,,,,,,,,,,,,,,,,,,,,,,,,,,,,,,,,,,,,,,,,,,,,,,,,,,,,,,,,,,,,,,,,,,,,,,,,,,,,,,,,,,,,,,,,,,,,,,,,,,,,,,,,,,,,,,,,,,,
,,616ea07fcb3f9d9971351c39,2024-01-06_07h47.17.828,kallum_motion_pilot,2023.2.3,Win32,60.24096386,616ea07fcb3f9d9971351c39,6598e6a5d84f07970b831e70,6598e9070f1f93cb1ab50914,0.1248,0.1249,0,128,128,80,1,fivesix,,,,,,,,,,,,,,,,,,,,,,,,,,,,,,,,,,,,,,,,,,,,,,,,,,,,,,,,,,,,,,,,,,,,,,,,,,,,,,,,,,,,,,,,,,,,,,,,,,,,,,,,,,,,,,,,,,,,,,,,,,,,,,,,,,,,,,,
,,616ea07fcb3f9d9971351c39,2024-01-06_07h47.17.828,kallum_motion_pilot,2023.2.3,Win32,60.24096386,616ea07fcb3f9d9971351c39,6598e6a5d84f07970b831e70,6598e9070f1f93cb1ab50914,0.1252,0.1253,0,129,129,161,1,fiveseven,,,,,,,,,,,,,,,,,,,,,,,,,,,,,,,,,,,,,,,,,,,,,,,,,,,,,,,,,,,,,,,,,,,,,,,,,,,,,,,,,,,,,,,,,,,,,,,,,,,,,,,,,,,,,,,,,,,,,,,,,,,,,,,,,,,,,,,
,,616ea07fcb3f9d9971351c39,2024-01-06_07h47.17.828,kallum_motion_pilot,2023.2.3,Win32,60.24096386,616ea07fcb3f9d9971351c39,6598e6a5d84f07970b831e70,6598e9070f1f93cb1ab50914,0.1257,0.1258,0,130,130,44,1,threeone,,,,,,,,,,,,,,,,,,,,,,,,,,,,,,,,,,,,,,,,,,,,,,,,,,,,,,,,,,,,,,,,,,,,,,,,,,,,,,,,,,,,,,,,,,,,,,,,,,,,,,,,,,,,,,,,,,,,,,,,,,,,,,,,,,,,,,,
,,616ea07fcb3f9d9971351c39,2024-01-06_07h47.17.828,kallum_motion_pilot,2023.2.3,Win32,60.24096386,616ea07fcb3f9d9971351c39,6598e6a5d84f07970b831e70,6598e9070f1f93cb1ab50914,0.1261,0.1263,0,131,131,152,1,fivesix,,,,,,,,,,,,,,,,,,,,,,,,,,,,,,,,,,,,,,,,,,,,,,,,,,,,,,,,,,,,,,,,,,,,,,,,,,,,,,,,,,,,,,,,,,,,,,,,,,,,,,,,,,,,,,,,,,,,,,,,,,,,,,,,,,,,,,,
,,616ea07fcb3f9d9971351c39,2024-01-06_07h47.17.828,kallum_motion_pilot,2023.2.3,Win32,60.24096386,616ea07fcb3f9d9971351c39,6598e6a5d84f07970b831e70,6598e9070f1f93cb1ab50914,0.1268,0.1271,0,132,132,43,1,twofour,,,,,,,,,,,,,,,,,,,,,,,,,,,,,,,,,,,,,,,,,,,,,,,,,,,,,,,,,,,,,,,,,,,,,,,,,,,,,,,,,,,,,,,,,,,,,,,,,,,,,,,,,,,,,,,,,,,,,,,,,,,,,,,,,,,,,,,
,,616ea07fcb3f9d9971351c39,2024-01-06_07h47.17.828,kallum_motion_pilot,2023.2.3,Win32,60.24096386,616ea07fcb3f9d9971351c39,6598e6a5d84f07970b831e70,6598e9070f1f93cb1ab50914,0.1277,0.1278,0,133,133,138,1,sixfive,,,,,,,,,,,,,,,,,,,,,,,,,,,,,,,,,,,,,,,,,,,,,,,,,,,,,,,,,,,,,,,,,,,,,,,,,,,,,,,,,,,,,,,,,,,,,,,,,,,,,,,,,,,,,,,,,,,,,,,,,,,,,,,,,,,,,,,
,,616ea07fcb3f9d9971351c39,2024-01-06_07h47.17.828,kallum_motion_pilot,2023.2.3,Win32,60.24096386,616ea07fcb3f9d9971351c39,6598e6a5d84f07970b831e70,6598e9070f1f93cb1ab50914,0.1282,0.1284,0,134,134,85,1,seveneight,,,,,,,,,,,,,,,,,,,,,,,,,,,,,,,,,,,,,,,,,,,,,,,,,,,,,,,,,,,,,,,,,,,,,,,,,,,,,,,,,,,,,,,,,,,,,,,,,,,,,,,,,,,,,,,,,,,,,,,,,,,,,,,,,,,,,,,
,,616ea07fcb3f9d9971351c39,2024-01-06_07h47.17.828,kallum_motion_pilot,2023.2.3,Win32,60.24096386,616ea07fcb3f9d9971351c39,6598e6a5d84f07970b831e70,6598e9070f1f93cb1ab50914,0.1288,0.1289,0,135,135,50,1,twoone,,,,,,,,,,,,,,,,,,,,,,,,,,,,,,,,,,,,,,,,,,,,,,,,,,,,,,,,,,,,,,,,,,,,,,,,,,,,,,,,,,,,,,,,,,,,,,,,,,,,,,,,,,,,,,,,,,,,,,,,,,,,,,,,,,,,,,,
,,616ea07fcb3f9d9971351c39,2024-01-06_07h47.17.828,kallum_motion_pilot,2023.2.3,Win32,60.24096386,616ea07fcb3f9d9971351c39,6598e6a5d84f07970b831e70,6598e9070f1f93cb1ab50914,0.1293,0.1295,0,136,136,27,1,twofour,,,,,,,,,,,,,,,,,,,,,,,,,,,,,,,,,,,,,,,,,,,,,,,,,,,,,,,,,,,,,,,,,,,,,,,,,,,,,,,,,,,,,,,,,,,,,,,,,,,,,,,,,,,,,,,,,,,,,,,,,,,,,,,,,,,,,,,
,,616ea07fcb3f9d9971351c39,2024-01-06_07h47.17.828,kallum_motion_pilot,2023.2.3,Win32,60.24096386,616ea07fcb3f9d9971351c39,6598e6a5d84f07970b831e70,6598e9070f1f93cb1ab50914,0.1298,0.13,0,137,137,61,1,threefour,,,,,,,,,,,,,,,,,,,,,,,,,,,,,,,,,,,,,,,,,,,,,,,,,,,,,,,,,,,,,,,,,,,,,,,,,,,,,,,,,,,,,,,,,,,,,,,,,,,,,,,,,,,,,,,,,,,,,,,,,,,,,,,,,,,,,,,
,,616ea07fcb3f9d9971351c39,2024-01-06_07h47.17.828,kallum_motion_pilot,2023.2.3,Win32,60.24096386,616ea07fcb3f9d9971351c39,6598e6a5d84f07970b831e70,6598e9070f1f93cb1ab50914,0.1304,0.1305,0,138,138,2,1,twoone,,,,,,,,,,,,,,,,,,,,,,,,,,,,,,,,,,,,,,,,,,,,,,,,,,,,,,,,,,,,,,,,,,,,,,,,,,,,,,,,,,,,,,,,,,,,,,,,,,,,,,,,,,,,,,,,,,,,,,,,,,,,,,,,,,,,,,,
,,616ea07fcb3f9d9971351c39,2024-01-06_07h47.17.828,kallum_motion_pilot,2023.2.3,Win32,60.24096386,616ea07fcb3f9d9971351c39,6598e6a5d84f07970b831e70,6598e9070f1f93cb1ab50914,0.1307,0.1309,0,139,139,22,1,fourtwo,,,,,,,,,,,,,,,,,,,,,,,,,,,,,,,,,,,,,,,,,,,,,,,,,,,,,,,,,,,,,,,,,,,,,,,,,,,,,,,,,,,,,,,,,,,,,,,,,,,,,,,,,,,,,,,,,,,,,,,,,,,,,,,,,,,,,,,
,,616ea07fcb3f9d9971351c39,2024-01-06_07h47.17.828,kallum_motion_pilot,2023.2.3,Win32,60.24096386,616ea07fcb3f9d9971351c39,6598e6a5d84f07970b831e70,6598e9070f1f93cb1ab50914,0.1312,0.1314,0,140,140,58,1,twoone,,,,,,,,,,,,,,,,,,,,,,,,,,,,,,,,,,,,,,,,,,,,,,,,,,,,,,,,,,,,,,,,,,,,,,,,,,,,,,,,,,,,,,,,,,,,,,,,,,,,,,,,,,,,,,,,,,,,,,,,,,,,,,,,,,,,,,,
,,616ea07fcb3f9d9971351c39,2024-01-06_07h47.17.828,kallum_motion_pilot,2023.2.3,Win32,60.24096386,616ea07fcb3f9d9971351c39,6598e6a5d84f07970b831e70,6598e9070f1f93cb1ab50914,0.1317,0.1318,0,141,141,159,1,eightseven,,,,,,,,,,,,,,,,,,,,,,,,,,,,,,,,,,,,,,,,,,,,,,,,,,,,,,,,,,,,,,,,,,,,,,,,,,,,,,,,,,,,,,,,,,,,,,,,,,,,,,,,,,,,,,,,,,,,,,,,,,,,,,,,,,,,,,,
,,616ea07fcb3f9d9971351c39,2024-01-06_07h47.17.828,kallum_motion_pilot,2023.2.3,Win32,60.24096386,616ea07fcb3f9d9971351c39,6598e6a5d84f07970b831e70,6598e9070f1f93cb1ab50914,0.1321,0.1323,0,142,142,20,1,threeone,,,,,,,,,,,,,,,,,,,,,,,,,,,,,,,,,,,,,,,,,,,,,,,,,,,,,,,,,,,,,,,,,,,,,,,,,,,,,,,,,,,,,,,,,,,,,,,,,,,,,,,,,,,,,,,,,,,,,,,,,,,,,,,,,,,,,,,
,,616ea07fcb3f9d9971351c39,2024-01-06_07h47.17.828,kallum_motion_pilot,2023.2.3,Win32,60.24096386,616ea07fcb3f9d9971351c39,6598e6a5d84f07970b831e70,6598e9070f1f93cb1ab50914,0.1326,0.1327,0,143,143,136,1,fivesix,,,,,,,,,,,,,,,,,,,,,,,,,,,,,,,,,,,,,,,,,,,,,,,,,,,,,,,,,,,,,,,,,,,,,,,,,,,,,,,,,,,,,,,,,,,,,,,,,,,,,,,,,,,,,,,,,,,,,,,,,,,,,,,,,,,,,,,
,,616ea07fcb3f9d9971351c39,2024-01-06_07h47.17.828,kallum_motion_pilot,2023.2.3,Win32,60.24096386,616ea07fcb3f9d9971351c39,6598e6a5d84f07970b831e70,6598e9070f1f93cb1ab50914,0.1331,0.1333,0,144,144,110,1,eightsix,,,,,,,,,,,,,,,,,,,,,,,,,,,,,,,,,,,,,,,,,,,,,,,,,,,,,,,,,,,,,,,,,,,,,,,,,,,,,,,,,,,,,,,,,,,,,,,,,,,,,,,,,,,,,,,,,,,,,,,,,,,,,,,,,,,,,,,
,,616ea07fcb3f9d9971351c39,2024-01-06_07h47.17.828,kallum_motion_pilot,2023.2.3,Win32,60.24096386,616ea07fcb3f9d9971351c39,6598e6a5d84f07970b831e70,6598e9070f1f93cb1ab50914,0.1335,0.134,0,145,145,98,1,sixfive,,,,,,,,,,,,,,,,,,,,,,,,,,,,,,,,,,,,,,,,,,,,,,,,,,,,,,,,,,,,,,,,,,,,,,,,,,,,,,,,,,,,,,,,,,,,,,,,,,,,,,,,,,,,,,,,,,,,,,,,,,,,,,,,,,,,,,,
,,616ea07fcb3f9d9971351c39,2024-01-06_07h47.17.828,kallum_motion_pilot,2023.2.3,Win32,60.24096386,616ea07fcb3f9d9971351c39,6598e6a5d84f07970b831e70,6598e9070f1f93cb1ab50914,0.1343,0.1344,0,146,146,56,1,onetwo,,,,,,,,,,,,,,,,,,,,,,,,,,,,,,,,,,,,,,,,,,,,,,,,,,,,,,,,,,,,,,,,,,,,,,,,,,,,,,,,,,,,,,,,,,,,,,,,,,,,,,,,,,,,,,,,,,,,,,,,,,,,,,,,,,,,,,,
,,616ea07fcb3f9d9971351c39,2024-01-06_07h47.17.828,kallum_motion_pilot,2023.2.3,Win32,60.24096386,616ea07fcb3f9d9971351c39,6598e6a5d84f07970b831e70,6598e9070f1f93cb1ab50914,0.1348,0.1349,0,147,147,114,1,sixfive,,,,,,,,,,,,,,,,,,,,,,,,,,,,,,,,,,,,,,,,,,,,,,,,,,,,,,,,,,,,,,,,,,,,,,,,,,,,,,,,,,,,,,,,,,,,,,,,,,,,,,,,,,,,,,,,,,,,,,,,,,,,,,,,,,,,,,,
,,616ea07fcb3f9d9971351c39,2024-01-06_07h47.17.828,kallum_motion_pilot,2023.2.3,Win32,60.24096386,616ea07fcb3f9d9971351c39,6598e6a5d84f07970b831e70,6598e9070f1f93cb1ab50914,0.1352,0.1354,0,148,148,156,1,sevenfive,,,,,,,,,,,,,,,,,,,,,,,,,,,,,,,,,,,,,,,,,,,,,,,,,,,,,,,,,,,,,,,,,,,,,,,,,,,,,,,,,,,,,,,,,,,,,,,,,,,,,,,,,,,,,,,,,,,,,,,,,,,,,,,,,,,,,,,
,,616ea07fcb3f9d9971351c39,2024-01-06_07h47.17.828,kallum_motion_pilot,2023.2.3,Win32,60.24096386,616ea07fcb3f9d9971351c39,6598e6a5d84f07970b831e70,6598e9070f1f93cb1ab50914,0.1356,0.1358,0,149,149,31,1,fourthree,,,,,,,,,,,,,,,,,,,,,,,,,,,,,,,,,,,,,,,,,,,,,,,,,,,,,,,,,,,,,,,,,,,,,,,,,,,,,,,,,,,,,,,,,,,,,,,,,,,,,,,,,,,,,,,,,,,,,,,,,,,,,,,,,,,,,,,
,,616ea07fcb3f9d9971351c39,2024-01-06_07h47.17.828,kallum_motion_pilot,2023.2.3,Win32,60.24096386,616ea07fcb3f9d9971351c39,6598e6a5d84f07970b831e70,6598e9070f1f93cb1ab50914,0.1361,0.1363,0,150,150,137,1,fiveseven,,,,,,,,,,,,,,,,,,,,,,,,,,,,,,,,,,,,,,,,,,,,,,,,,,,,,,,,,,,,,,,,,,,,,,,,,,,,,,,,,,,,,,,,,,,,,,,,,,,,,,,,,,,,,,,,,,,,,,,,,,,,,,,,,,,,,,,
,,616ea07fcb3f9d9971351c39,2024-01-06_07h47.17.828,kallum_motion_pilot,2023.2.3,Win32,60.24096386,616ea07fcb3f9d9971351c39,6598e6a5d84f07970b831e70,6598e9070f1f93cb1ab50914,0.1366,0.1367,0,151,151,96,1,fivesix,,,,,,,,,,,,,,,,,,,,,,,,,,,,,,,,,,,,,,,,,,,,,,,,,,,,,,,,,,,,,,,,,,,,,,,,,,,,,,,,,,,,,,,,,,,,,,,,,,,,,,,,,,,,,,,,,,,,,,,,,,,,,,,,,,,,,,,
,,616ea07fcb3f9d9971351c39,2024-01-06_07h47.17.828,kallum_motion_pilot,2023.2.3,Win32,60.24096386,616ea07fcb3f9d9971351c39,6598e6a5d84f07970b831e70,6598e9070f1f93cb1ab50914,0.1371,0.1372,0,152,152,115,1,sixeight,,,,,,,,,,,,,,,,,,,,,,,,,,,,,,,,,,,,,,,,,,,,,,,,,,,,,,,,,,,,,,,,,,,,,,,,,,,,,,,,,,,,,,,,,,,,,,,,,,,,,,,,,,,,,,,,,,,,,,,,,,,,,,,,,,,,,,,
,,616ea07fcb3f9d9971351c39,2024-01-06_07h47.17.828,kallum_motion_pilot,2023.2.3,Win32,60.24096386,616ea07fcb3f9d9971351c39,6598e6a5d84f07970b831e70,6598e9070f1f93cb1ab50914,0.1376,0.1377,0,153,153,83,1,sixeight,,,,,,,,,,,,,,,,,,,,,,,,,,,,,,,,,,,,,,,,,,,,,,,,,,,,,,,,,,,,,,,,,,,,,,,,,,,,,,,,,,,,,,,,,,,,,,,,,,,,,,,,,,,,,,,,,,,,,,,,,,,,,,,,,,,,,,,
,,616ea07fcb3f9d9971351c39,2024-01-06_07h47.17.828,kallum_motion_pilot,2023.2.3,Win32,60.24096386,616ea07fcb3f9d9971351c39,6598e6a5d84f07970b831e70,6598e9070f1f93cb1ab50914,0.1379,0.1381,0,154,154,35,1,twofour,,,,,,,,,,,,,,,,,,,,,,,,,,,,,,,,,,,,,,,,,,,,,,,,,,,,,,,,,,,,,,,,,,,,,,,,,,,,,,,,,,,,,,,,,,,,,,,,,,,,,,,,,,,,,,,,,,,,,,,,,,,,,,,,,,,,,,,
,,616ea07fcb3f9d9971351c39,2024-01-06_07h47.17.828,kallum_motion_pilot,2023.2.3,Win32,60.24096386,616ea07fcb3f9d9971351c39,6598e6a5d84f07970b831e70,6598e9070f1f93cb1ab50914,0.1384,0.1386,0,155,155,4,1,threeone,,,,,,,,,,,,,,,,,,,,,,,,,,,,,,,,,,,,,,,,,,,,,,,,,,,,,,,,,,,,,,,,,,,,,,,,,,,,,,,,,,,,,,,,,,,,,,,,,,,,,,,,,,,,,,,,,,,,,,,,,,,,,,,,,,,,,,,
,,616ea07fcb3f9d9971351c39,2024-01-06_07h47.17.828,kallum_motion_pilot,2023.2.3,Win32,60.24096386,616ea07fcb3f9d9971351c39,6598e6a5d84f07970b831e70,6598e9070f1f93cb1ab50914,0.1389,0.139,0,156,156,55,1,fourthree,,,,,,,,,,,,,,,,,,,,,,,,,,,,,,,,,,,,,,,,,,,,,,,,,,,,,,,,,,,,,,,,,,,,,,,,,,,,,,,,,,,,,,,,,,,,,,,,,,,,,,,,,,,,,,,,,,,,,,,,,,,,,,,,,,,,,,,
,,616ea07fcb3f9d9971351c39,2024-01-06_07h47.17.828,kallum_motion_pilot,2023.2.3,Win32,60.24096386,616ea07fcb3f9d9971351c39,6598e6a5d84f07970b831e70,6598e9070f1f93cb1ab50914,0.1393,0.1395,0,157,157,116,1,sevenfive,,,,,,,,,,,,,,,,,,,,,,,,,,,,,,,,,,,,,,,,,,,,,,,,,,,,,,,,,,,,,,,,,,,,,,,,,,,,,,,,,,,,,,,,,,,,,,,,,,,,,,,,,,,,,,,,,,,,,,,,,,,,,,,,,,,,,,,
,,616ea07fcb3f9d9971351c39,2024-01-06_07h47.17.828,kallum_motion_pilot,2023.2.3,Win32,60.24096386,616ea07fcb3f9d9971351c39,6598e6a5d84f07970b831e70,6598e9070f1f93cb1ab50914,0.1398,0.1399,0,158,158,94,1,eightsix,,,,,,,,,,,,,,,,,,,,,,,,,,,,,,,,,,,,,,,,,,,,,,,,,,,,,,,,,,,,,,,,,,,,,,,,,,,,,,,,,,,,,,,,,,,,,,,,,,,,,,,,,,,,,,,,,,,,,,,,,,,,,,,,,,,,,,,
,,616ea07fcb3f9d9971351c39,2024-01-06_07h47.17.828,kallum_motion_pilot,2023.2.3,Win32,60.24096386,616ea07fcb3f9d9971351c39,6598e6a5d84f07970b831e70,6598e9070f1f93cb1ab50914,0.1402,0.1404,0,159,159,146,1,sixfive,,,,,,,,,,,,,,,,,,,,,,,,,,,,,,,,,,,,,,,,,,,,,,,,,,,,,,,,,,,,,,,,,,,,,,,,,,,,,,,,,,,,,,,,,,,,,,,,,,,,,,,,,,,,,,,,,,,,,,,,,,,,,,,,,,,,,,,
,,616ea07fcb3f9d9971351c39,2024-01-06_07h47.17.828,kallum_motion_pilot,2023.2.3,Win32,60.24096386,616ea07fcb3f9d9971351c39,6598e6a5d84f07970b831e70,6598e9070f1f93cb1ab50914,0.1406,0.1409,0,160,160,17,1,onethree,,,,,,,,,,,,,,,,,,,,,,,,,,,,,,,,,,,,,,,,,,,,,,,,,,,,,,,,,,,,,,,,,,,,,,,,,,,,,,,,,,,,,,,,,,,,,,,,,,,,,,,,,,,,,,,,,,,,,,,,,,,,,,,,,,,,,,,
,,616ea07fcb3f9d9971351c39,2024-01-06_07h47.17.828,kallum_motion_pilot,2023.2.3,Win32,60.24096386,616ea07fcb3f9d9971351c39,6598e6a5d84f07970b831e70,6598e9070f1f93cb1ab50914,0.1411,0.1413,0,161,161,131,1,sixeight,,,,,,,,,,,,,,,,,,,,,,,,,,,,,,,,,,,,,,,,,,,,,,,,,,,,,,,,,,,,,,,,,,,,,,,,,,,,,,,,,,,,,,,,,,,,,,,,,,,,,,,,,,,,,,,,,,,,,,,,,,,,,,,,,,,,,,,
,,616ea07fcb3f9d9971351c39,2024-01-06_07h47.17.828,kallum_motion_pilot,2023.2.3,Win32,60.24096386,616ea07fcb3f9d9971351c39,6598e6a5d84f07970b831e70,6598e9070f1f93cb1ab50914,0.1418,0.1419,1,0,162,19,1,twofour,,,,,,,,,,,,,,,,,,,,,,,,,,,,,,,,,,,,,,,,,,,,,,,,,,,,,,,,,,,,,,,,,,,,,,,,,,,,,,,,,,,,,,,,,,,,,,,,,,,,,,,,,,,,,,,,,,,,,,,,,,,,,,,,,,,,,,,
,,616ea07fcb3f9d9971351c39,2024-01-06_07h47.17.828,kallum_motion_pilot,2023.2.3,Win32,60.24096386,616ea07fcb3f9d9971351c39,6598e6a5d84f07970b831e70,6598e9070f1f93cb1ab50914,0.1422,0.1424,1,1,163,150,1,eightsix,,,,,,,,,,,,,,,,,,,,,,,,,,,,,,,,,,,,,,,,,,,,,,,,,,,,,,,,,,,,,,,,,,,,,,,,,,,,,,,,,,,,,,,,,,,,,,,,,,,,,,,,,,,,,,,,,,,,,,,,,,,,,,,,,,,,,,,
,,616ea07fcb3f9d9971351c39,2024-01-06_07h47.17.828,kallum_motion_pilot,2023.2.3,Win32,60.24096386,616ea07fcb3f9d9971351c39,6598e6a5d84f07970b831e70,6598e9070f1f93cb1ab50914,0.1427,0.1429,1,2,164,73,1,onethree,,,,,,,,,,,,,,,,,,,,,,,,,,,,,,,,,,,,,,,,,,,,,,,,,,,,,,,,,,,,,,,,,,,,,,,,,,,,,,,,,,,,,,,,,,,,,,,,,,,,,,,,,,,,,,,,,,,,,,,,,,,,,,,,,,,,,,,
,,616ea07fcb3f9d9971351c39,2024-01-06_07h47.17.828,kallum_motion_pilot,2023.2.3,Win32,60.24096386,616ea07fcb3f9d9971351c39,6598e6a5d84f07970b831e70,6598e9070f1f93cb1ab50914,0.1431,0.1433,1,3,165,131,1,sixeight,,,,,,,,,,,,,,,,,,,,,,,,,,,,,,,,,,,,,,,,,,,,,,,,,,,,,,,,,,,,,,,,,,,,,,,,,,,,,,,,,,,,,,,,,,,,,,,,,,,,,,,,,,,,,,,,,,,,,,,,,,,,,,,,,,,,,,,
,,616ea07fcb3f9d9971351c39,2024-01-06_07h47.17.828,kallum_motion_pilot,2023.2.3,Win32,60.24096386,616ea07fcb3f9d9971351c39,6598e6a5d84f07970b831e70,6598e9070f1f93cb1ab50914,0.1436,0.1439,1,4,166,93,1,seveneight,,,,,,,,,,,,,,,,,,,,,,,,,,,,,,,,,,,,,,,,,,,,,,,,,,,,,,,,,,,,,,,,,,,,,,,,,,,,,,,,,,,,,,,,,,,,,,,,,,,,,,,,,,,,,,,,,,,,,,,,,,,,,,,,,,,,,,,
,,616ea07fcb3f9d9971351c39,2024-01-06_07h47.17.828,kallum_motion_pilot,2023.2.3,Win32,60.24096386,616ea07fcb3f9d9971351c39,6598e6a5d84f07970b831e70,6598e9070f1f93cb1ab50914,0.144,0.1442,1,5,167,145,1,fiveseven,,,,,,,,,,,,,,,,,,,,,,,,,,,,,,,,,,,,,,,,,,,,,,,,,,,,,,,,,,,,,,,,,,,,,,,,,,,,,,,,,,,,,,,,,,,,,,,,,,,,,,,,,,,,,,,,,,,,,,,,,,,,,,,,,,,,,,,
,,616ea07fcb3f9d9971351c39,2024-01-06_07h47.17.828,kallum_motion_pilot,2023.2.3,Win32,60.24096386,616ea07fcb3f9d9971351c39,6598e6a5d84f07970b831e70,6598e9070f1f93cb1ab50914,0.1445,0.1447,1,6,168,34,1,twoone,,,,,,,,,,,,,,,,,,,,,,,,,,,,,,,,,,,,,,,,,,,,,,,,,,,,,,,,,,,,,,,,,,,,,,,,,,,,,,,,,,,,,,,,,,,,,,,,,,,,,,,,,,,,,,,,,,,,,,,,,,,,,,,,,,,,,,,
,,616ea07fcb3f9d9971351c39,2024-01-06_07h47.17.828,kallum_motion_pilot,2023.2.3,Win32,60.24096386,616ea07fcb3f9d9971351c39,6598e6a5d84f07970b831e70,6598e9070f1f93cb1ab50914,0.145,0.1452,1,7,169,30,1,fourtwo,,,,,,,,,,,,,,,,,,,,,,,,,,,,,,,,,,,,,,,,,,,,,,,,,,,,,,,,,,,,,,,,,,,,,,,,,,,,,,,,,,,,,,,,,,,,,,,,,,,,,,,,,,,,,,,,,,,,,,,,,,,,,,,,,,,,,,,
,,616ea07fcb3f9d9971351c39,2024-01-06_07h47.17.828,kallum_motion_pilot,2023.2.3,Win32,60.24096386,616ea07fcb3f9d9971351c39,6598e6a5d84f07970b831e70,6598e9070f1f93cb1ab50914,0.1454,0.1457,1,8,170,77,1,threefour,,,,,,,,,,,,,,,,,,,,,,,,,,,,,,,,,,,,,,,,,,,,,,,,,,,,,,,,,,,,,,,,,,,,,,,,,,,,,,,,,,,,,,,,,,,,,,,,,,,,,,,,,,,,,,,,,,,,,,,,,,,,,,,,,,,,,,,
,,616ea07fcb3f9d9971351c39,2024-01-06_07h47.17.828,kallum_motion_pilot,2023.2.3,Win32,60.24096386,616ea07fcb3f9d9971351c39,6598e6a5d84f07970b831e70,6598e9070f1f93cb1ab50914,0.1459,0.1461,1,9,171,18,1,twoone,,,,,,,,,,,,,,,,,,,,,,,,,,,,,,,,,,,,,,,,,,,,,,,,,,,,,,,,,,,,,,,,,,,,,,,,,,,,,,,,,,,,,,,,,,,,,,,,,,,,,,,,,,,,,,,,,,,,,,,,,,,,,,,,,,,,,,,
,,616ea07fcb3f9d9971351c39,2024-01-06_07h47.17.828,kallum_motion_pilot,2023.2.3,Win32,60.24096386,616ea07fcb3f9d9971351c39,6598e6a5d84f07970b831e70,6598e9070f1f93cb1ab50914,0.1463,0.1467,1,10,172,33,1,onethree,,,,,,,,,,,,,,,,,,,,,,,,,,,,,,,,,,,,,,,,,,,,,,,,,,,,,,,,,,,,,,,,,,,,,,,,,,,,,,,,,,,,,,,,,,,,,,,,,,,,,,,,,,,,,,,,,,,,,,,,,,,,,,,,,,,,,,,
,,616ea07fcb3f9d9971351c39,2024-01-06_07h47.17.828,kallum_motion_pilot,2023.2.3,Win32,60.24096386,616ea07fcb3f9d9971351c39,6598e6a5d84f07970b831e70,6598e9070f1f93cb1ab50914,0.147,0.1474,1,11,173,140,1,sevenfive,,,,,,,,,,,,,,,,,,,,,,,,,,,,,,,,,,,,,,,,,,,,,,,,,,,,,,,,,,,,,,,,,,,,,,,,,,,,,,,,,,,,,,,,,,,,,,,,,,,,,,,,,,,,,,,,,,,,,,,,,,,,,,,,,,,,,,,
,,616ea07fcb3f9d9971351c39,2024-01-06_07h47.17.828,kallum_motion_pilot,2023.2.3,Win32,60.24096386,616ea07fcb3f9d9971351c39,6598e6a5d84f07970b831e70,6598e9070f1f93cb1ab50914,0.1477,0.148,1,12,174,39,1,fourthree,,,,,,,,,,,,,,,,,,,,,,,,,,,,,,,,,,,,,,,,,,,,,,,,,,,,,,,,,,,,,,,,,,,,,,,,,,,,,,,,,,,,,,,,,,,,,,,,,,,,,,,,,,,,,,,,,,,,,,,,,,,,,,,,,,,,,,,
,,616ea07fcb3f9d9971351c39,2024-01-06_07h47.17.828,kallum_motion_pilot,2023.2.3,Win32,60.24096386,616ea07fcb3f9d9971351c39,6598e6a5d84f07970b831e70,6598e9070f1f93cb1ab50914,0.1482,0.1485,1,13,175,4,1,threeone,,,,,,,,,,,,,,,,,,,,,,,,,,,,,,,,,,,,,,,,,,,,,,,,,,,,,,,,,,,,,,,,,,,,,,,,,,,,,,,,,,,,,,,,,,,,,,,,,,,,,,,,,,,,,,,,,,,,,,,,,,,,,,,,,,,,,,,
,,616ea07fcb3f9d9971351c39,2024-01-06_07h47.17.828,kallum_motion_pilot,2023.2.3,Win32,60.24096386,616ea07fcb3f9d9971351c39,6598e6a5d84f07970b831e70,6598e9070f1f93cb1ab50914,0.1488,0.149,1,14,176,127,1,eightseven,,,,,,,,,,,,,,,,,,,,,,,,,,,,,,,,,,,,,,,,,,,,,,,,,,,,,,,,,,,,,,,,,,,,,,,,,,,,,,,,,,,,,,,,,,,,,,,,,,,,,,,,,,,,,,,,,,,,,,,,,,,,,,,,,,,,,,,
,,616ea07fcb3f9d9971351c39,2024-01-06_07h47.17.828,kallum_motion_pilot,2023.2.3,Win32,60.24096386,616ea07fcb3f9d9971351c39,6598e6a5d84f07970b831e70,6598e9070f1f93cb1ab50914,0.1495,0.1497,1,15,177,16,1,onetwo,,,,,,,,,,,,,,,,,,,,,,,,,,,,,,,,,,,,,,,,,,,,,,,,,,,,,,,,,,,,,,,,,,,,,,,,,,,,,,,,,,,,,,,,,,,,,,,,,,,,,,,,,,,,,,,,,,,,,,,,,,,,,,,,,,,,,,,
,,616ea07fcb3f9d9971351c39,2024-01-06_07h47.17.828,kallum_motion_pilot,2023.2.3,Win32,60.24096386,616ea07fcb3f9d9971351c39,6598e6a5d84f07970b831e70,6598e9070f1f93cb1ab50914,0.15,0.1502,1,16,178,107,1,sixeight,,,,,,,,,,,,,,,,,,,,,,,,,,,,,,,,,,,,,,,,,,,,,,,,,,,,,,,,,,,,,,,,,,,,,,,,,,,,,,,,,,,,,,,,,,,,,,,,,,,,,,,,,,,,,,,,,,,,,,,,,,,,,,,,,,,,,,,
,,616ea07fcb3f9d9971351c39,2024-01-06_07h47.17.828,kallum_motion_pilot,2023.2.3,Win32,60.24096386,616ea07fcb3f9d9971351c39,6598e6a5d84f07970b831e70,6598e9070f1f93cb1ab50914,0.1509,0.1511,1,17,179,148,1,sevenfive,,,,,,,,,,,,,,,,,,,,,,,,,,,,,,,,,,,,,,,,,,,,,,,,,,,,,,,,,,,,,,,,,,,,,,,,,,,,,,,,,,,,,,,,,,,,,,,,,,,,,,,,,,,,,,,,,,,,,,,,,,,,,,,,,,,,,,,
,,616ea07fcb3f9d9971351c39,2024-01-06_07h47.17.828,kallum_motion_pilot,2023.2.3,Win32,60.24096386,616ea07fcb3f9d9971351c39,6598e6a5d84f07970b831e70,6598e9070f1f93cb1ab50914,0.1514,0.1516,1,18,180,117,1,seveneight,,,,,,,,,,,,,,,,,,,,,,,,,,,,,,,,,,,,,,,,,,,,,,,,,,,,,,,,,,,,,,,,,,,,,,,,,,,,,,,,,,,,,,,,,,,,,,,,,,,,,,,,,,,,,,,,,,,,,,,,,,,,,,,,,,,,,,,
,,616ea07fcb3f9d9971351c39,2024-01-06_07h47.17.828,kallum_motion_pilot,2023.2.3,Win32,60.24096386,616ea07fcb3f9d9971351c39,6598e6a5d84f07970b831e70,6598e9070f1f93cb1ab50914,0.1519,0.1521,1,19,181,83,1,sixeight,,,,,,,,,,,,,,,,,,,,,,,,,,,,,,,,,,,,,,,,,,,,,,,,,,,,,,,,,,,,,,,,,,,,,,,,,,,,,,,,,,,,,,,,,,,,,,,,,,,,,,,,,,,,,,,,,,,,,,,,,,,,,,,,,,,,,,,
,,616ea07fcb3f9d9971351c39,2024-01-06_07h47.17.828,kallum_motion_pilot,2023.2.3,Win32,60.24096386,616ea07fcb3f9d9971351c39,6598e6a5d84f07970b831e70,6598e9070f1f93cb1ab50914,0.1527,0.153,1,20,182,152,1,fivesix,,,,,,,,,,,,,,,,,,,,,,,,,,,,,,,,,,,,,,,,,,,,,,,,,,,,,,,,,,,,,,,,,,,,,,,,,,,,,,,,,,,,,,,,,,,,,,,,,,,,,,,,,,,,,,,,,,,,,,,,,,,,,,,,,,,,,,,
,,616ea07fcb3f9d9971351c39,2024-01-06_07h47.17.828,kallum_motion_pilot,2023.2.3,Win32,60.24096386,616ea07fcb3f9d9971351c39,6598e6a5d84f07970b831e70,6598e9070f1f93cb1ab50914,0.1533,0.1534,1,21,183,3,1,twofour,,,,,,,,,,,,,,,,,,,,,,,,,,,,,,,,,,,,,,,,,,,,,,,,,,,,,,,,,,,,,,,,,,,,,,,,,,,,,,,,,,,,,,,,,,,,,,,,,,,,,,,,,,,,,,,,,,,,,,,,,,,,,,,,,,,,,,,
,,616ea07fcb3f9d9971351c39,2024-01-06_07h47.17.828,kallum_motion_pilot,2023.2.3,Win32,60.24096386,616ea07fcb3f9d9971351c39,6598e6a5d84f07970b831e70,6598e9070f1f93cb1ab50914,0.1541,0.1544,1,22,184,81,1,fiveseven,,,,,,,,,,,,,,,,,,,,,,,,,,,,,,,,,,,,,,,,,,,,,,,,,,,,,,,,,,,,,,,,,,,,,,,,,,,,,,,,,,,,,,,,,,,,,,,,,,,,,,,,,,,,,,,,,,,,,,,,,,,,,,,,,,,,,,,
,,616ea07fcb3f9d9971351c39,2024-01-06_07h47.17.828,kallum_motion_pilot,2023.2.3,Win32,60.24096386,616ea07fcb3f9d9971351c39,6598e6a5d84f07970b831e70,6598e9070f1f93cb1ab50914,0.1547,0.1549,1,23,185,71,1,fourthree,,,,,,,,,,,,,,,,,,,,,,,,,,,,,,,,,,,,,,,,,,,,,,,,,,,,,,,,,,,,,,,,,,,,,,,,,,,,,,,,,,,,,,,,,,,,,,,,,,,,,,,,,,,,,,,,,,,,,,,,,,,,,,,,,,,,,,,
,,616ea07fcb3f9d9971351c39,2024-01-06_07h47.17.828,kallum_motion_pilot,2023.2.3,Win32,60.24096386,616ea07fcb3f9d9971351c39,6598e6a5d84f07970b831e70,6598e9070f1f93cb1ab50914,0.1551,0.1554,1,24,186,27,1,twofour,,,,,,,,,,,,,,,,,,,,,,,,,,,,,,,,,,,,,,,,,,,,,,,,,,,,,,,,,,,,,,,,,,,,,,,,,,,,,,,,,,,,,,,,,,,,,,,,,,,,,,,,,,,,,,,,,,,,,,,,,,,,,,,,,,,,,,,
,,616ea07fcb3f9d9971351c39,2024-01-06_07h47.17.828,kallum_motion_pilot,2023.2.3,Win32,60.24096386,616ea07fcb3f9d9971351c39,6598e6a5d84f07970b831e70,6598e9070f1f93cb1ab50914,0.1556,0.1558,1,25,187,155,1,sixeight,,,,,,,,,,,,,,,,,,,,,,,,,,,,,,,,,,,,,,,,,,,,,,,,,,,,,,,,,,,,,,,,,,,,,,,,,,,,,,,,,,,,,,,,,,,,,,,,,,,,,,,,,,,,,,,,,,,,,,,,,,,,,,,,,,,,,,,
,,616ea07fcb3f9d9971351c39,2024-01-06_07h47.17.828,kallum_motion_pilot,2023.2.3,Win32,60.24096386,616ea07fcb3f9d9971351c39,6598e6a5d84f07970b831e70,6598e9070f1f93cb1ab50914,0.1561,0.1563,1,26,188,132,1,sevenfive,,,,,,,,,,,,,,,,,,,,,,,,,,,,,,,,,,,,,,,,,,,,,,,,,,,,,,,,,,,,,,,,,,,,,,,,,,,,,,,,,,,,,,,,,,,,,,,,,,,,,,,,,,,,,,,,,,,,,,,,,,,,,,,,,,,,,,,
,,616ea07fcb3f9d9971351c39,2024-01-06_07h47.17.828,kallum_motion_pilot,2023.2.3,Win32,60.24096386,616ea07fcb3f9d9971351c39,6598e6a5d84f07970b831e70,6598e9070f1f93cb1ab50914,0.1566,0.1568,1,27,189,135,1,eightseven,,,,,,,,,,,,,,,,,,,,,,,,,,,,,,,,,,,,,,,,,,,,,,,,,,,,,,,,,,,,,,,,,,,,,,,,,,,,,,,,,,,,,,,,,,,,,,,,,,,,,,,,,,,,,,,,,,,,,,,,,,,,,,,,,,,,,,,
,,616ea07fcb3f9d9971351c39,2024-01-06_07h47.17.828,kallum_motion_pilot,2023.2.3,Win32,60.24096386,616ea07fcb3f9d9971351c39,6598e6a5d84f07970b831e70,6598e9070f1f93cb1ab50914,0.157,0.1572,1,28,190,24,1,onetwo,,,,,,,,,,,,,,,,,,,,,,,,,,,,,,,,,,,,,,,,,,,,,,,,,,,,,,,,,,,,,,,,,,,,,,,,,,,,,,,,,,,,,,,,,,,,,,,,,,,,,,,,,,,,,,,,,,,,,,,,,,,,,,,,,,,,,,,
,,616ea07fcb3f9d9971351c39,2024-01-06_07h47.17.828,kallum_motion_pilot,2023.2.3,Win32,60.24096386,616ea07fcb3f9d9971351c39,6598e6a5d84f07970b831e70,6598e9070f1f93cb1ab50914,0.1576,0.1578,1,29,191,159,1,eightseven,,,,,,,,,,,,,,,,,,,,,,,,,,,,,,,,,,,,,,,,,,,,,,,,,,,,,,,,,,,,,,,,,,,,,,,,,,,,,,,,,,,,,,,,,,,,,,,,,,,,,,,,,,,,,,,,,,,,,,,,,,,,,,,,,,,,,,,
,,616ea07fcb3f9d9971351c39,2024-01-06_07h47.17.828,kallum_motion_pilot,2023.2.3,Win32,60.24096386,616ea07fcb3f9d9971351c39,6598e6a5d84f07970b831e70,6598e9070f1f93cb1ab50914,0.158,0.1582,1,30,192,136,1,fivesix,,,,,,,,,,,,,,,,,,,,,,,,,,,,,,,,,,,,,,,,,,,,,,,,,,,,,,,,,,,,,,,,,,,,,,,,,,,,,,,,,,,,,,,,,,,,,,,,,,,,,,,,,,,,,,,,,,,,,,,,,,,,,,,,,,,,,,,
,,616ea07fcb3f9d9971351c39,2024-01-06_07h47.17.828,kallum_motion_pilot,2023.2.3,Win32,60.24096386,616ea07fcb3f9d9971351c39,6598e6a5d84f07970b831e70,6598e9070f1f93cb1ab50914,0.1586,0.1588,1,31,193,134,1,eightsix,,,,,,,,,,,,,,,,,,,,,,,,,,,,,,,,,,,,,,,,,,,,,,,,,,,,,,,,,,,,,,,,,,,,,,,,,,,,,,,,,,,,,,,,,,,,,,,,,,,,,,,,,,,,,,,,,,,,,,,,,,,,,,,,,,,,,,,
,,616ea07fcb3f9d9971351c39,2024-01-06_07h47.17.828,kallum_motion_pilot,2023.2.3,Win32,60.24096386,616ea07fcb3f9d9971351c39,6598e6a5d84f07970b831e70,6598e9070f1f93cb1ab50914,0.1593,0.1595,1,32,194,95,1,eightseven,,,,,,,,,,,,,,,,,,,,,,,,,,,,,,,,,,,,,,,,,,,,,,,,,,,,,,,,,,,,,,,,,,,,,,,,,,,,,,,,,,,,,,,,,,,,,,,,,,,,,,,,,,,,,,,,,,,,,,,,,,,,,,,,,,,,,,,
,,616ea07fcb3f9d9971351c39,2024-01-06_07h47.17.828,kallum_motion_pilot,2023.2.3,Win32,60.24096386,616ea07fcb3f9d9971351c39,6598e6a5d84f07970b831e70,6598e9070f1f93cb1ab50914,0.16,0.1602,1,33,195,55,1,fourthree,,,,,,,,,,,,,,,,,,,,,,,,,,,,,,,,,,,,,,,,,,,,,,,,,,,,,,,,,,,,,,,,,,,,,,,,,,,,,,,,,,,,,,,,,,,,,,,,,,,,,,,,,,,,,,,,,,,,,,,,,,,,,,,,,,,,,,,
,,616ea07fcb3f9d9971351c39,2024-01-06_07h47.17.828,kallum_motion_pilot,2023.2.3,Win32,60.24096386,616ea07fcb3f9d9971351c39,6598e6a5d84f07970b831e70,6598e9070f1f93cb1ab50914,0.1607,0.1609,1,34,196,1,1,onethree,,,,,,,,,,,,,,,,,,,,,,,,,,,,,,,,,,,,,,,,,,,,,,,,,,,,,,,,,,,,,,,,,,,,,,,,,,,,,,,,,,,,,,,,,,,,,,,,,,,,,,,,,,,,,,,,,,,,,,,,,,,,,,,,,,,,,,,
,,616ea07fcb3f9d9971351c39,2024-01-06_07h47.17.828,kallum_motion_pilot,2023.2.3,Win32,60.24096386,616ea07fcb3f9d9971351c39,6598e6a5d84f07970b831e70,6598e9070f1f93cb1ab50914,0.1612,0.1614,1,35,197,89,1,fiveseven,,,,,,,,,,,,,,,,,,,,,,,,,,,,,,,,,,,,,,,,,,,,,,,,,,,,,,,,,,,,,,,,,,,,,,,,,,,,,,,,,,,,,,,,,,,,,,,,,,,,,,,,,,,,,,,,,,,,,,,,,,,,,,,,,,,,,,,
,,616ea07fcb3f9d9971351c39,2024-01-06_07h47.17.828,kallum_motion_pilot,2023.2.3,Win32,60.24096386,616ea07fcb3f9d9971351c39,6598e6a5d84f07970b831e70,6598e9070f1f93cb1ab50914,0.1616,0.1618,1,36,198,37,1,threefour,,,,,,,,,,,,,,,,,,,,,,,,,,,,,,,,,,,,,,,,,,,,,,,,,,,,,,,,,,,,,,,,,,,,,,,,,,,,,,,,,,,,,,,,,,,,,,,,,,,,,,,,,,,,,,,,,,,,,,,,,,,,,,,,,,,,,,,
,,616ea07fcb3f9d9971351c39,2024-01-06_07h47.17.828,kallum_motion_pilot,2023.2.3,Win32,60.24096386,616ea07fcb3f9d9971351c39,6598e6a5d84f07970b831e70,6598e9070f1f93cb1ab50914,0.1621,0.1623,1,37,199,137,1,fiveseven,,,,,,,,,,,,,,,,,,,,,,,,,,,,,,,,,,,,,,,,,,,,,,,,,,,,,,,,,,,,,,,,,,,,,,,,,,,,,,,,,,,,,,,,,,,,,,,,,,,,,,,,,,,,,,,,,,,,,,,,,,,,,,,,,,,,,,,
,,616ea07fcb3f9d9971351c39,2024-01-06_07h47.17.828,kallum_motion_pilot,2023.2.3,Win32,60.24096386,616ea07fcb3f9d9971351c39,6598e6a5d84f07970b831e70,6598e9070f1f93cb1ab50914,0.1626,0.1627,1,38,200,133,1,seveneight,,,,,,,,,,,,,,,,,,,,,,,,,,,,,,,,,,,,,,,,,,,,,,,,,,,,,,,,,,,,,,,,,,,,,,,,,,,,,,,,,,,,,,,,,,,,,,,,,,,,,,,,,,,,,,,,,,,,,,,,,,,,,,,,,,,,,,,
,,616ea07fcb3f9d9971351c39,2024-01-06_07h47.17.828,kallum_motion_pilot,2023.2.3,Win32,60.24096386,616ea07fcb3f9d9971351c39,6598e6a5d84f07970b831e70,6598e9070f1f93cb1ab50914,0.1631,0.1633,1,39,201,147,1,sixeight,,,,,,,,,,,,,,,,,,,,,,,,,,,,,,,,,,,,,,,,,,,,,,,,,,,,,,,,,,,,,,,,,,,,,,,,,,,,,,,,,,,,,,,,,,,,,,,,,,,,,,,,,,,,,,,,,,,,,,,,,,,,,,,,,,,,,,,
,,616ea07fcb3f9d9971351c39,2024-01-06_07h47.17.828,kallum_motion_pilot,2023.2.3,Win32,60.24096386,616ea07fcb3f9d9971351c39,6598e6a5d84f07970b831e70,6598e9070f1f93cb1ab50914,0.1635,0.1638,1,40,202,28,1,threeone,,,,,,,,,,,,,,,,,,,,,,,,,,,,,,,,,,,,,,,,,,,,,,,,,,,,,,,,,,,,,,,,,,,,,,,,,,,,,,,,,,,,,,,,,,,,,,,,,,,,,,,,,,,,,,,,,,,,,,,,,,,,,,,,,,,,,,,
,,616ea07fcb3f9d9971351c39,2024-01-06_07h47.17.828,kallum_motion_pilot,2023.2.3,Win32,60.24096386,616ea07fcb3f9d9971351c39,6598e6a5d84f07970b831e70,6598e9070f1f93cb1ab50914,0.164,0.1642,1,41,203,31,1,fourthree,,,,,,,,,,,,,,,,,,,,,,,,,,,,,,,,,,,,,,,,,,,,,,,,,,,,,,,,,,,,,,,,,,,,,,,,,,,,,,,,,,,,,,,,,,,,,,,,,,,,,,,,,,,,,,,,,,,,,,,,,,,,,,,,,,,,,,,
,,616ea07fcb3f9d9971351c39,2024-01-06_07h47.17.828,kallum_motion_pilot,2023.2.3,Win32,60.24096386,616ea07fcb3f9d9971351c39,6598e6a5d84f07970b831e70,6598e9070f1f93cb1ab50914,0.1644,0.1646,1,42,204,21,1,threefour,,,,,,,,,,,,,,,,,,,,,,,,,,,,,,,,,,,,,,,,,,,,,,,,,,,,,,,,,,,,,,,,,,,,,,,,,,,,,,,,,,,,,,,,,,,,,,,,,,,,,,,,,,,,,,,,,,,,,,,,,,,,,,,,,,,,,,,
,,616ea07fcb3f9d9971351c39,2024-01-06_07h47.17.828,kallum_motion_pilot,2023.2.3,Win32,60.24096386,616ea07fcb3f9d9971351c39,6598e6a5d84f07970b831e70,6598e9070f1f93cb1ab50914,0.1649,0.1651,1,43,205,91,1,sixeight,,,,,,,,,,,,,,,,,,,,,,,,,,,,,,,,,,,,,,,,,,,,,,,,,,,,,,,,,,,,,,,,,,,,,,,,,,,,,,,,,,,,,,,,,,,,,,,,,,,,,,,,,,,,,,,,,,,,,,,,,,,,,,,,,,,,,,,
,,616ea07fcb3f9d9971351c39,2024-01-06_07h47.17.828,kallum_motion_pilot,2023.2.3,Win32,60.24096386,616ea07fcb3f9d9971351c39,6598e6a5d84f07970b831e70,6598e9070f1f93cb1ab50914,0.1653,0.1656,1,44,206,64,1,onetwo,,,,,,,,,,,,,,,,,,,,,,,,,,,,,,,,,,,,,,,,,,,,,,,,,,,,,,,,,,,,,,,,,,,,,,,,,,,,,,,,,,,,,,,,,,,,,,,,,,,,,,,,,,,,,,,,,,,,,,,,,,,,,,,,,,,,,,,
,,616ea07fcb3f9d9971351c39,2024-01-06_07h47.17.828,kallum_motion_pilot,2023.2.3,Win32,60.24096386,616ea07fcb3f9d9971351c39,6598e6a5d84f07970b831e70,6598e9070f1f93cb1ab50914,0.1659,0.1661,1,45,207,115,1,sixeight,,,,,,,,,,,,,,,,,,,,,,,,,,,,,,,,,,,,,,,,,,,,,,,,,,,,,,,,,,,,,,,,,,,,,,,,,,,,,,,,,,,,,,,,,,,,,,,,,,,,,,,,,,,,,,,,,,,,,,,,,,,,,,,,,,,,,,,
,,616ea07fcb3f9d9971351c39,2024-01-06_07h47.17.828,kallum_motion_pilot,2023.2.3,Win32,60.24096386,616ea07fcb3f9d9971351c39,6598e6a5d84f07970b831e70,6598e9070f1f93cb1ab50914,0.1662,0.1665,1,46,208,141,1,seveneight,,,,,,,,,,,,,,,,,,,,,,,,,,,,,,,,,,,,,,,,,,,,,,,,,,,,,,,,,,,,,,,,,,,,,,,,,,,,,,,,,,,,,,,,,,,,,,,,,,,,,,,,,,,,,,,,,,,,,,,,,,,,,,,,,,,,,,,
,,616ea07fcb3f9d9971351c39,2024-01-06_07h47.17.828,kallum_motion_pilot,2023.2.3,Win32,60.24096386,616ea07fcb3f9d9971351c39,6598e6a5d84f07970b831e70,6598e9070f1f93cb1ab50914,0.1668,0.1673,1,47,209,139,1,sixeight,,,,,,,,,,,,,,,,,,,,,,,,,,,,,,,,,,,,,,,,,,,,,,,,,,,,,,,,,,,,,,,,,,,,,,,,,,,,,,,,,,,,,,,,,,,,,,,,,,,,,,,,,,,,,,,,,,,,,,,,,,,,,,,,,,,,,,,
,,616ea07fcb3f9d9971351c39,2024-01-06_07h47.17.828,kallum_motion_pilot,2023.2.3,Win32,60.24096386,616ea07fcb3f9d9971351c39,6598e6a5d84f07970b831e70,6598e9070f1f93cb1ab50914,0.1681,0.1684,1,48,210,142,1,eightsix,,,,,,,,,,,,,,,,,,,,,,,,,,,,,,,,,,,,,,,,,,,,,,,,,,,,,,,,,,,,,,,,,,,,,,,,,,,,,,,,,,,,,,,,,,,,,,,,,,,,,,,,,,,,,,,,,,,,,,,,,,,,,,,,,,,,,,,
,,616ea07fcb3f9d9971351c39,2024-01-06_07h47.17.828,kallum_motion_pilot,2023.2.3,Win32,60.24096386,616ea07fcb3f9d9971351c39,6598e6a5d84f07970b831e70,6598e9070f1f93cb1ab50914,0.1687,0.1688,1,49,211,158,1,eightsix,,,,,,,,,,,,,,,,,,,,,,,,,,,,,,,,,,,,,,,,,,,,,,,,,,,,,,,,,,,,,,,,,,,,,,,,,,,,,,,,,,,,,,,,,,,,,,,,,,,,,,,,,,,,,,,,,,,,,,,,,,,,,,,,,,,,,,,
,,616ea07fcb3f9d9971351c39,2024-01-06_07h47.17.828,kallum_motion_pilot,2023.2.3,Win32,60.24096386,616ea07fcb3f9d9971351c39,6598e6a5d84f07970b831e70,6598e9070f1f93cb1ab50914,0.1691,0.1695,1,50,212,29,1,threefour,,,,,,,,,,,,,,,,,,,,,,,,,,,,,,,,,,,,,,,,,,,,,,,,,,,,,,,,,,,,,,,,,,,,,,,,,,,,,,,,,,,,,,,,,,,,,,,,,,,,,,,,,,,,,,,,,,,,,,,,,,,,,,,,,,,,,,,
,,616ea07fcb3f9d9971351c39,2024-01-06_07h47.17.828,kallum_motion_pilot,2023.2.3,Win32,60.24096386,616ea07fcb3f9d9971351c39,6598e6a5d84f07970b831e70,6598e9070f1f93cb1ab50914,0.1698,0.17,1,51,213,88,1,fivesix,,,,,,,,,,,,,,,,,,,,,,,,,,,,,,,,,,,,,,,,,,,,,,,,,,,,,,,,,,,,,,,,,,,,,,,,,,,,,,,,,,,,,,,,,,,,,,,,,,,,,,,,,,,,,,,,,,,,,,,,,,,,,,,,,,,,,,,
,,616ea07fcb3f9d9971351c39,2024-01-06_07h47.17.828,kallum_motion_pilot,2023.2.3,Win32,60.24096386,616ea07fcb3f9d9971351c39,6598e6a5d84f07970b831e70,6598e9070f1f93cb1ab50914,0.1703,0.1705,1,52,214,70,1,fourtwo,,,,,,,,,,,,,,,,,,,,,,,,,,,,,,,,,,,,,,,,,,,,,,,,,,,,,,,,,,,,,,,,,,,,,,,,,,,,,,,,,,,,,,,,,,,,,,,,,,,,,,,,,,,,,,,,,,,,,,,,,,,,,,,,,,,,,,,
,,616ea07fcb3f9d9971351c39,2024-01-06_07h47.17.828,kallum_motion_pilot,2023.2.3,Win32,60.24096386,616ea07fcb3f9d9971351c39,6598e6a5d84f07970b831e70,6598e9070f1f93cb1ab50914,0.1708,0.1709,1,53,215,60,1,threeone,,,,,,,,,,,,,,,,,,,,,,,,,,,,,,,,,,,,,,,,,,,,,,,,,,,,,,,,,,,,,,,,,,,,,,,,,,,,,,,,,,,,,,,,,,,,,,,,,,,,,,,,,,,,,,,,,,,,,,,,,,,,,,,,,,,,,,,
,,616ea07fcb3f9d9971351c39,2024-01-06_07h47.17.828,kallum_motion_pilot,2023.2.3,Win32,60.24096386,616ea07fcb3f9d9971351c39,6598e6a5d84f07970b831e70,6598e9070f1f93cb1ab50914,0.1713,0.1714,1,54,216,144,1,fivesix,,,,,,,,,,,,,,,,,,,,,,,,,,,,,,,,,,,,,,,,,,,,,,,,,,,,,,,,,,,,,,,,,,,,,,,,,,,,,,,,,,,,,,,,,,,,,,,,,,,,,,,,,,,,,,,,,,,,,,,,,,,,,,,,,,,,,,,
,,616ea07fcb3f9d9971351c39,2024-01-06_07h47.17.828,kallum_motion_pilot,2023.2.3,Win32,60.24096386,616ea07fcb3f9d9971351c39,6598e6a5d84f07970b831e70,6598e9070f1f93cb1ab50914,0.1717,0.1719,1,55,217,130,1,sixfive,,,,,,,,,,,,,,,,,,,,,,,,,,,,,,,,,,,,,,,,,,,,,,,,,,,,,,,,,,,,,,,,,,,,,,,,,,,,,,,,,,,,,,,,,,,,,,,,,,,,,,,,,,,,,,,,,,,,,,,,,,,,,,,,,,,,,,,
,,616ea07fcb3f9d9971351c39,2024-01-06_07h47.17.828,kallum_motion_pilot,2023.2.3,Win32,60.24096386,616ea07fcb3f9d9971351c39,6598e6a5d84f07970b831e70,6598e9070f1f93cb1ab50914,0.1723,0.1725,1,56,218,124,1,sevenfive,,,,,,,,,,,,,,,,,,,,,,,,,,,,,,,,,,,,,,,,,,,,,,,,,,,,,,,,,,,,,,,,,,,,,,,,,,,,,,,,,,,,,,,,,,,,,,,,,,,,,,,,,,,,,,,,,,,,,,,,,,,,,,,,,,,,,,,
,,616ea07fcb3f9d9971351c39,2024-01-06_07h47.17.828,kallum_motion_pilot,2023.2.3,Win32,60.24096386,616ea07fcb3f9d9971351c39,6598e6a5d84f07970b831e70,6598e9070f1f93cb1ab50914,0.1728,0.173,1,57,219,82,1,sixfive,,,,,,,,,,,,,,,,,,,,,,,,,,,,,,,,,,,,,,,,,,,,,,,,,,,,,,,,,,,,,,,,,,,,,,,,,,,,,,,,,,,,,,,,,,,,,,,,,,,,,,,,,,,,,,,,,,,,,,,,,,,,,,,,,,,,,,,
,,616ea07fcb3f9d9971351c39,2024-01-06_07h47.17.828,kallum_motion_pilot,2023.2.3,Win32,60.24096386,616ea07fcb3f9d9971351c39,6598e6a5d84f07970b831e70,6598e9070f1f93cb1ab50914,0.1734,0.1736,1,58,220,35,1,twofour,,,,,,,,,,,,,,,,,,,,,,,,,,,,,,,,,,,,,,,,,,,,,,,,,,,,,,,,,,,,,,,,,,,,,,,,,,,,,,,,,,,,,,,,,,,,,,,,,,,,,,,,,,,,,,,,,,,,,,,,,,,,,,,,,,,,,,,
,,616ea07fcb3f9d9971351c39,2024-01-06_07h47.17.828,kallum_motion_pilot,2023.2.3,Win32,60.24096386,616ea07fcb3f9d9971351c39,6598e6a5d84f07970b831e70,6598e9070f1f93cb1ab50914,0.1739,0.1741,1,59,221,61,1,threefour,,,,,,,,,,,,,,,,,,,,,,,,,,,,,,,,,,,,,,,,,,,,,,,,,,,,,,,,,,,,,,,,,,,,,,,,,,,,,,,,,,,,,,,,,,,,,,,,,,,,,,,,,,,,,,,,,,,,,,,,,,,,,,,,,,,,,,,
,,616ea07fcb3f9d9971351c39,2024-01-06_07h47.17.828,kallum_motion_pilot,2023.2.3,Win32,60.24096386,616ea07fcb3f9d9971351c39,6598e6a5d84f07970b831e70,6598e9070f1f93cb1ab50914,0.1744,0.1746,1,60,222,10,1,twoone,,,,,,,,,,,,,,,,,,,,,,,,,,,,,,,,,,,,,,,,,,,,,,,,,,,,,,,,,,,,,,,,,,,,,,,,,,,,,,,,,,,,,,,,,,,,,,,,,,,,,,,,,,,,,,,,,,,,,,,,,,,,,,,,,,,,,,,
,,616ea07fcb3f9d9971351c39,2024-01-06_07h47.17.828,kallum_motion_pilot,2023.2.3,Win32,60.24096386,616ea07fcb3f9d9971351c39,6598e6a5d84f07970b831e70,6598e9070f1f93cb1ab50914,0.1749,0.1751,1,61,223,74,1,twoone,,,,,,,,,,,,,,,,,,,,,,,,,,,,,,,,,,,,,,,,,,,,,,,,,,,,,,,,,,,,,,,,,,,,,,,,,,,,,,,,,,,,,,,,,,,,,,,,,,,,,,,,,,,,,,,,,,,,,,,,,,,,,,,,,,,,,,,
,,616ea07fcb3f9d9971351c39,2024-01-06_07h47.17.828,kallum_motion_pilot,2023.2.3,Win32,60.24096386,616ea07fcb3f9d9971351c39,6598e6a5d84f07970b831e70,6598e9070f1f93cb1ab50914,0.1754,0.1757,1,62,224,104,1,fivesix,,,,,,,,,,,,,,,,,,,,,,,,,,,,,,,,,,,,,,,,,,,,,,,,,,,,,,,,,,,,,,,,,,,,,,,,,,,,,,,,,,,,,,,,,,,,,,,,,,,,,,,,,,,,,,,,,,,,,,,,,,,,,,,,,,,,,,,
,,616ea07fcb3f9d9971351c39,2024-01-06_07h47.17.828,kallum_motion_pilot,2023.2.3,Win32,60.24096386,616ea07fcb3f9d9971351c39,6598e6a5d84f07970b831e70,6598e9070f1f93cb1ab50914,0.176,0.1761,1,63,225,85,1,seveneight,,,,,,,,,,,,,,,,,,,,,,,,,,,,,,,,,,,,,,,,,,,,,,,,,,,,,,,,,,,,,,,,,,,,,,,,,,,,,,,,,,,,,,,,,,,,,,,,,,,,,,,,,,,,,,,,,,,,,,,,,,,,,,,,,,,,,,,
,,616ea07fcb3f9d9971351c39,2024-01-06_07h47.17.828,kallum_motion_pilot,2023.2.3,Win32,60.24096386,616ea07fcb3f9d9971351c39,6598e6a5d84f07970b831e70,6598e9070f1f93cb1ab50914,0.1765,0.1767,1,64,226,116,1,sevenfive,,,,,,,,,,,,,,,,,,,,,,,,,,,,,,,,,,,,,,,,,,,,,,,,,,,,,,,,,,,,,,,,,,,,,,,,,,,,,,,,,,,,,,,,,,,,,,,,,,,,,,,,,,,,,,,,,,,,,,,,,,,,,,,,,,,,,,,
,,616ea07fcb3f9d9971351c39,2024-01-06_07h47.17.828,kallum_motion_pilot,2023.2.3,Win32,60.24096386,616ea07fcb3f9d9971351c39,6598e6a5d84f07970b831e70,6598e9070f1f93cb1ab50914,0.177,0.1772,1,65,227,7,1,fourthree,,,,,,,,,,,,,,,,,,,,,,,,,,,,,,,,,,,,,,,,,,,,,,,,,,,,,,,,,,,,,,,,,,,,,,,,,,,,,,,,,,,,,,,,,,,,,,,,,,,,,,,,,,,,,,,,,,,,,,,,,,,,,,,,,,,,,,,
,,616ea07fcb3f9d9971351c39,2024-01-06_07h47.17.828,kallum_motion_pilot,2023.2.3,Win32,60.24096386,616ea07fcb3f9d9971351c39,6598e6a5d84f07970b831e70,6598e9070f1f93cb1ab50914,0.1775,0.1777,1,66,228,160,1,fivesix,,,,,,,,,,,,,,,,,,,,,,,,,,,,,,,,,,,,,,,,,,,,,,,,,,,,,,,,,,,,,,,,,,,,,,,,,,,,,,,,,,,,,,,,,,,,,,,,,,,,,,,,,,,,,,,,,,,,,,,,,,,,,,,,,,,,,,,
,,616ea07fcb3f9d9971351c39,2024-01-06_07h47.17.828,kallum_motion_pilot,2023.2.3,Win32,60.24096386,616ea07fcb3f9d9971351c39,6598e6a5d84f07970b831e70,6598e9070f1f93cb1ab50914,0.178,0.1783,1,67,229,149,1,seveneight,,,,,,,,,,,,,,,,,,,,,,,,,,,,,,,,,,,,,,,,,,,,,,,,,,,,,,,,,,,,,,,,,,,,,,,,,,,,,,,,,,,,,,,,,,,,,,,,,,,,,,,,,,,,,,,,,,,,,,,,,,,,,,,,,,,,,,,
,,616ea07fcb3f9d9971351c39,2024-01-06_07h47.17.828,kallum_motion_pilot,2023.2.3,Win32,60.24096386,616ea07fcb3f9d9971351c39,6598e6a5d84f07970b831e70,6598e9070f1f93cb1ab50914,0.1786,0.1788,1,68,230,105,1,fiveseven,,,,,,,,,,,,,,,,,,,,,,,,,,,,,,,,,,,,,,,,,,,,,,,,,,,,,,,,,,,,,,,,,,,,,,,,,,,,,,,,,,,,,,,,,,,,,,,,,,,,,,,,,,,,,,,,,,,,,,,,,,,,,,,,,,,,,,,
,,616ea07fcb3f9d9971351c39,2024-01-06_07h47.17.828,kallum_motion_pilot,2023.2.3,Win32,60.24096386,616ea07fcb3f9d9971351c39,6598e6a5d84f07970b831e70,6598e9070f1f93cb1ab50914,0.1793,0.1797,1,69,231,112,1,fivesix,,,,,,,,,,,,,,,,,,,,,,,,,,,,,,,,,,,,,,,,,,,,,,,,,,,,,,,,,,,,,,,,,,,,,,,,,,,,,,,,,,,,,,,,,,,,,,,,,,,,,,,,,,,,,,,,,,,,,,,,,,,,,,,,,,,,,,,
,,616ea07fcb3f9d9971351c39,2024-01-06_07h47.17.828,kallum_motion_pilot,2023.2.3,Win32,60.24096386,616ea07fcb3f9d9971351c39,6598e6a5d84f07970b831e70,6598e9070f1f93cb1ab50914,0.18,0.1805,1,70,232,0,1,onetwo,,,,,,,,,,,,,,,,,,,,,,,,,,,,,,,,,,,,,,,,,,,,,,,,,,,,,,,,,,,,,,,,,,,,,,,,,,,,,,,,,,,,,,,,,,,,,,,,,,,,,,,,,,,,,,,,,,,,,,,,,,,,,,,,,,,,,,,
,,616ea07fcb3f9d9971351c39,2024-01-06_07h47.17.828,kallum_motion_pilot,2023.2.3,Win32,60.24096386,616ea07fcb3f9d9971351c39,6598e6a5d84f07970b831e70,6598e9070f1f93cb1ab50914,0.1809,0.1812,1,71,233,103,1,eightseven,,,,,,,,,,,,,,,,,,,,,,,,,,,,,,,,,,,,,,,,,,,,,,,,,,,,,,,,,,,,,,,,,,,,,,,,,,,,,,,,,,,,,,,,,,,,,,,,,,,,,,,,,,,,,,,,,,,,,,,,,,,,,,,,,,,,,,,
,,616ea07fcb3f9d9971351c39,2024-01-06_07h47.17.828,kallum_motion_pilot,2023.2.3,Win32,60.24096386,616ea07fcb3f9d9971351c39,6598e6a5d84f07970b831e70,6598e9070f1f93cb1ab50914,0.1816,0.1817,1,72,234,99,1,sixeight,,,,,,,,,,,,,,,,,,,,,,,,,,,,,,,,,,,,,,,,,,,,,,,,,,,,,,,,,,,,,,,,,,,,,,,,,,,,,,,,,,,,,,,,,,,,,,,,,,,,,,,,,,,,,,,,,,,,,,,,,,,,,,,,,,,,,,,
,,616ea07fcb3f9d9971351c39,2024-01-06_07h47.17.828,kallum_motion_pilot,2023.2.3,Win32,60.24096386,616ea07fcb3f9d9971351c39,6598e6a5d84f07970b831e70,6598e9070f1f93cb1ab50914,0.182,0.1823,1,73,235,20,1,threeone,,,,,,,,,,,,,,,,,,,,,,,,,,,,,,,,,,,,,,,,,,,,,,,,,,,,,,,,,,,,,,,,,,,,,,,,,,,,,,,,,,,,,,,,,,,,,,,,,,,,,,,,,,,,,,,,,,,,,,,,,,,,,,,,,,,,,,,
,,616ea07fcb3f9d9971351c39,2024-01-06_07h47.17.828,kallum_motion_pilot,2023.2.3,Win32,60.24096386,616ea07fcb3f9d9971351c39,6598e6a5d84f07970b831e70,6598e9070f1f93cb1ab50914,0.1825,0.1827,1,74,236,101,1,seveneight,,,,,,,,,,,,,,,,,,,,,,,,,,,,,,,,,,,,,,,,,,,,,,,,,,,,,,,,,,,,,,,,,,,,,,,,,,,,,,,,,,,,,,,,,,,,,,,,,,,,,,,,,,,,,,,,,,,,,,,,,,,,,,,,,,,,,,,
,,616ea07fcb3f9d9971351c39,2024-01-06_07h47.17.828,kallum_motion_pilot,2023.2.3,Win32,60.24096386,616ea07fcb3f9d9971351c39,6598e6a5d84f07970b831e70,6598e9070f1f93cb1ab50914,0.183,0.1832,1,75,237,69,1,threefour,,,,,,,,,,,,,,,,,,,,,,,,,,,,,,,,,,,,,,,,,,,,,,,,,,,,,,,,,,,,,,,,,,,,,,,,,,,,,,,,,,,,,,,,,,,,,,,,,,,,,,,,,,,,,,,,,,,,,,,,,,,,,,,,,,,,,,,
,,616ea07fcb3f9d9971351c39,2024-01-06_07h47.17.828,kallum_motion_pilot,2023.2.3,Win32,60.24096386,616ea07fcb3f9d9971351c39,6598e6a5d84f07970b831e70,6598e9070f1f93cb1ab50914,0.1838,0.1842,1,76,238,57,1,onethree,,,,,,,,,,,,,,,,,,,,,,,,,,,,,,,,,,,,,,,,,,,,,,,,,,,,,,,,,,,,,,,,,,,,,,,,,,,,,,,,,,,,,,,,,,,,,,,,,,,,,,,,,,,,,,,,,,,,,,,,,,,,,,,,,,,,,,,
,,616ea07fcb3f9d9971351c39,2024-01-06_07h47.17.828,kallum_motion_pilot,2023.2.3,Win32,60.24096386,616ea07fcb3f9d9971351c39,6598e6a5d84f07970b831e70,6598e9070f1f93cb1ab50914,0.1845,0.1847,1,77,239,22,1,fourtwo,,,,,,,,,,,,,,,,,,,,,,,,,,,,,,,,,,,,,,,,,,,,,,,,,,,,,,,,,,,,,,,,,,,,,,,,,,,,,,,,,,,,,,,,,,,,,,,,,,,,,,,,,,,,,,,,,,,,,,,,,,,,,,,,,,,,,,,
,,616ea07fcb3f9d9971351c39,2024-01-06_07h47.17.828,kallum_motion_pilot,2023.2.3,Win32,60.24096386,616ea07fcb3f9d9971351c39,6598e6a5d84f07970b831e70,6598e9070f1f93cb1ab50914,0.185,0.1852,1,78,240,143,1,eightseven,,,,,,,,,,,,,,,,,,,,,,,,,,,,,,,,,,,,,,,,,,,,,,,,,,,,,,,,,,,,,,,,,,,,,,,,,,,,,,,,,,,,,,,,,,,,,,,,,,,,,,,,,,,,,,,,,,,,,,,,,,,,,,,,,,,,,,,
,,616ea07fcb3f9d9971351c39,2024-01-06_07h47.17.828,kallum_motion_pilot,2023.2.3,Win32,60.24096386,616ea07fcb3f9d9971351c39,6598e6a5d84f07970b831e70,6598e9070f1f93cb1ab50914,0.1855,0.1857,1,79,241,51,1,twofour,,,,,,,,,,,,,,,,,,,,,,,,,,,,,,,,,,,,,,,,,,,,,,,,,,,,,,,,,,,,,,,,,,,,,,,,,,,,,,,,,,,,,,,,,,,,,,,,,,,,,,,,,,,,,,,,,,,,,,,,,,,,,,,,,,,,,,,
,,616ea07fcb3f9d9971351c39,2024-01-06_07h47.17.828,kallum_motion_pilot,2023.2.3,Win32,60.24096386,616ea07fcb3f9d9971351c39,6598e6a5d84f07970b831e70,6598e9070f1f93cb1ab50914,0.186,0.1862,1,80,242,157,1,seveneight,,,,,,,,,,,,,,,,,,,,,,,,,,,,,,,,,,,,,,,,,,,,,,,,,,,,,,,,,,,,,,,,,,,,,,,,,,,,,,,,,,,,,,,,,,,,,,,,,,,,,,,,,,,,,,,,,,,,,,,,,,,,,,,,,,,,,,,
,,616ea07fcb3f9d9971351c39,2024-01-06_07h47.17.828,kallum_motion_pilot,2023.2.3,Win32,60.24096386,616ea07fcb3f9d9971351c39,6598e6a5d84f07970b831e70,6598e9070f1f93cb1ab50914,0.1865,0.1867,1,81,243,100,1,sevenfive,,,,,,,,,,,,,,,,,,,,,,,,,,,,,,,,,,,,,,,,,,,,,,,,,,,,,,,,,,,,,,,,,,,,,,,,,,,,,,,,,,,,,,,,,,,,,,,,,,,,,,,,,,,,,,,,,,,,,,,,,,,,,,,,,,,,,,,
,,616ea07fcb3f9d9971351c39,2024-01-06_07h47.17.828,kallum_motion_pilot,2023.2.3,Win32,60.24096386,616ea07fcb3f9d9971351c39,6598e6a5d84f07970b831e70,6598e9070f1f93cb1ab50914,0.187,0.1872,1,82,244,126,1,eightsix,,,,,,,,,,,,,,,,,,,,,,,,,,,,,,,,,,,,,,,,,,,,,,,,,,,,,,,,,,,,,,,,,,,,,,,,,,,,,,,,,,,,,,,,,,,,,,,,,,,,,,,,,,,,,,,,,,,,,,,,,,,,,,,,,,,,,,,
,,616ea07fcb3f9d9971351c39,2024-01-06_07h47.17.828,kallum_motion_pilot,2023.2.3,Win32,60.24096386,616ea07fcb3f9d9971351c39,6598e6a5d84f07970b831e70,6598e9070f1f93cb1ab50914,0.1875,0.1877,1,83,245,59,1,twofour,,,,,,,,,,,,,,,,,,,,,,,,,,,,,,,,,,,,,,,,,,,,,,,,,,,,,,,,,,,,,,,,,,,,,,,,,,,,,,,,,,,,,,,,,,,,,,,,,,,,,,,,,,,,,,,,,,,,,,,,,,,,,,,,,,,,,,,
,,616ea07fcb3f9d9971351c39,2024-01-06_07h47.17.828,kallum_motion_pilot,2023.2.3,Win32,60.24096386,616ea07fcb3f9d9971351c39,6598e6a5d84f07970b831e70,6598e9070f1f93cb1ab50914,0.188,0.1882,1,84,246,102,1,eightsix,,,,,,,,,,,,,,,,,,,,,,,,,,,,,,,,,,,,,,,,,,,,,,,,,,,,,,,,,,,,,,,,,,,,,,,,,,,,,,,,,,,,,,,,,,,,,,,,,,,,,,,,,,,,,,,,,,,,,,,,,,,,,,,,,,,,,,,
,,616ea07fcb3f9d9971351c39,2024-01-06_07h47.17.828,kallum_motion_pilot,2023.2.3,Win32,60.24096386,616ea07fcb3f9d9971351c39,6598e6a5d84f07970b831e70,6598e9070f1f93cb1ab50914,0.1884,0.1887,1,85,247,122,1,sixfive,,,,,,,,,,,,,,,,,,,,,,,,,,,,,,,,,,,,,,,,,,,,,,,,,,,,,,,,,,,,,,,,,,,,,,,,,,,,,,,,,,,,,,,,,,,,,,,,,,,,,,,,,,,,,,,,,,,,,,,,,,,,,,,,,,,,,,,
,,616ea07fcb3f9d9971351c39,2024-01-06_07h47.17.828,kallum_motion_pilot,2023.2.3,Win32,60.24096386,616ea07fcb3f9d9971351c39,6598e6a5d84f07970b831e70,6598e9070f1f93cb1ab50914,0.1889,0.1892,1,86,248,96,1,fivesix,,,,,,,,,,,,,,,,,,,,,,,,,,,,,,,,,,,,,,,,,,,,,,,,,,,,,,,,,,,,,,,,,,,,,,,,,,,,,,,,,,,,,,,,,,,,,,,,,,,,,,,,,,,,,,,,,,,,,,,,,,,,,,,,,,,,,,,
,,616ea07fcb3f9d9971351c39,2024-01-06_07h47.17.828,kallum_motion_pilot,2023.2.3,Win32,60.24096386,616ea07fcb3f9d9971351c39,6598e6a5d84f07970b831e70,6598e9070f1f93cb1ab50914,0.1895,0.1897,1,87,249,90,1,sixfive,,,,,,,,,,,,,,,,,,,,,,,,,,,,,,,,,,,,,,,,,,,,,,,,,,,,,,,,,,,,,,,,,,,,,,,,,,,,,,,,,,,,,,,,,,,,,,,,,,,,,,,,,,,,,,,,,,,,,,,,,,,,,,,,,,,,,,,
,,616ea07fcb3f9d9971351c39,2024-01-06_07h47.17.828,kallum_motion_pilot,2023.2.3,Win32,60.24096386,616ea07fcb3f9d9971351c39,6598e6a5d84f07970b831e70,6598e9070f1f93cb1ab50914,0.1899,0.1901,1,88,250,58,1,twoone,,,,,,,,,,,,,,,,,,,,,,,,,,,,,,,,,,,,,,,,,,,,,,,,,,,,,,,,,,,,,,,,,,,,,,,,,,,,,,,,,,,,,,,,,,,,,,,,,,,,,,,,,,,,,,,,,,,,,,,,,,,,,,,,,,,,,,,
,,616ea07fcb3f9d9971351c39,2024-01-06_07h47.17.828,kallum_motion_pilot,2023.2.3,Win32,60.24096386,616ea07fcb3f9d9971351c39,6598e6a5d84f07970b831e70,6598e9070f1f93cb1ab50914,0.1904,0.1906,1,89,251,76,1,threeone,,,,,,,,,,,,,,,,,,,,,,,,,,,,,,,,,,,,,,,,,,,,,,,,,,,,,,,,,,,,,,,,,,,,,,,,,,,,,,,,,,,,,,,,,,,,,,,,,,,,,,,,,,,,,,,,,,,,,,,,,,,,,,,,,,,,,,,
,,616ea07fcb3f9d9971351c39,2024-01-06_07h47.17.828,kallum_motion_pilot,2023.2.3,Win32,60.24096386,616ea07fcb3f9d9971351c39,6598e6a5d84f07970b831e70,6598e9070f1f93cb1ab50914,0.1909,0.1911,1,90,252,119,1,eightseven,,,,,,,,,,,,,,,,,,,,,,,,,,,,,,,,,,,,,,,,,,,,,,,,,,,,,,,,,,,,,,,,,,,,,,,,,,,,,,,,,,,,,,,,,,,,,,,,,,,,,,,,,,,,,,,,,,,,,,,,,,,,,,,,,,,,,,,
,,616ea07fcb3f9d9971351c39,2024-01-06_07h47.17.828,kallum_motion_pilot,2023.2.3,Win32,60.24096386,616ea07fcb3f9d9971351c39,6598e6a5d84f07970b831e70,6598e9070f1f93cb1ab50914,0.1914,0.1916,1,91,253,49,1,onethree,,,,,,,,,,,,,,,,,,,,,,,,,,,,,,,,,,,,,,,,,,,,,,,,,,,,,,,,,,,,,,,,,,,,,,,,,,,,,,,,,,,,,,,,,,,,,,,,,,,,,,,,,,,,,,,,,,,,,,,,,,,,,,,,,,,,,,,
,,616ea07fcb3f9d9971351c39,2024-01-06_07h47.17.828,kallum_motion_pilot,2023.2.3,Win32,60.24096386,616ea07fcb3f9d9971351c39,6598e6a5d84f07970b831e70,6598e9070f1f93cb1ab50914,0.1918,0.192,1,92,254,45,1,threefour,,,,,,,,,,,,,,,,,,,,,,,,,,,,,,,,,,,,,,,,,,,,,,,,,,,,,,,,,,,,,,,,,,,,,,,,,,,,,,,,,,,,,,,,,,,,,,,,,,,,,,,,,,,,,,,,,,,,,,,,,,,,,,,,,,,,,,,
,,616ea07fcb3f9d9971351c39,2024-01-06_07h47.17.828,kallum_motion_pilot,2023.2.3,Win32,60.24096386,616ea07fcb3f9d9971351c39,6598e6a5d84f07970b831e70,6598e9070f1f93cb1ab50914,0.1926,0.1929,1,93,255,109,1,seveneight,,,,,,,,,,,,,,,,,,,,,,,,,,,,,,,,,,,,,,,,,,,,,,,,,,,,,,,,,,,,,,,,,,,,,,,,,,,,,,,,,,,,,,,,,,,,,,,,,,,,,,,,,,,,,,,,,,,,,,,,,,,,,,,,,,,,,,,
,,616ea07fcb3f9d9971351c39,2024-01-06_07h47.17.828,kallum_motion_pilot,2023.2.3,Win32,60.24096386,616ea07fcb3f9d9971351c39,6598e6a5d84f07970b831e70,6598e9070f1f93cb1ab50914,0.1933,0.1934,1,94,256,17,1,onethree,,,,,,,,,,,,,,,,,,,,,,,,,,,,,,,,,,,,,,,,,,,,,,,,,,,,,,,,,,,,,,,,,,,,,,,,,,,,,,,,,,,,,,,,,,,,,,,,,,,,,,,,,,,,,,,,,,,,,,,,,,,,,,,,,,,,,,,
,,616ea07fcb3f9d9971351c39,2024-01-06_07h47.17.828,kallum_motion_pilot,2023.2.3,Win32,60.24096386,616ea07fcb3f9d9971351c39,6598e6a5d84f07970b831e70,6598e9070f1f93cb1ab50914,0.1937,0.1939,1,95,257,41,1,onethree,,,,,,,,,,,,,,,,,,,,,,,,,,,,,,,,,,,,,,,,,,,,,,,,,,,,,,,,,,,,,,,,,,,,,,,,,,,,,,,,,,,,,,,,,,,,,,,,,,,,,,,,,,,,,,,,,,,,,,,,,,,,,,,,,,,,,,,
,,616ea07fcb3f9d9971351c39,2024-01-06_07h47.17.828,kallum_motion_pilot,2023.2.3,Win32,60.24096386,616ea07fcb3f9d9971351c39,6598e6a5d84f07970b831e70,6598e9070f1f93cb1ab50914,0.1942,0.1944,1,96,258,125,1,seveneight,,,,,,,,,,,,,,,,,,,,,,,,,,,,,,,,,,,,,,,,,,,,,,,,,,,,,,,,,,,,,,,,,,,,,,,,,,,,,,,,,,,,,,,,,,,,,,,,,,,,,,,,,,,,,,,,,,,,,,,,,,,,,,,,,,,,,,,
,,616ea07fcb3f9d9971351c39,2024-01-06_07h47.17.828,kallum_motion_pilot,2023.2.3,Win32,60.24096386,616ea07fcb3f9d9971351c39,6598e6a5d84f07970b831e70,6598e9070f1f93cb1ab50914,0.1947,0.1949,1,97,259,128,1,fivesix,,,,,,,,,,,,,,,,,,,,,,,,,,,,,,,,,,,,,,,,,,,,,,,,,,,,,,,,,,,,,,,,,,,,,,,,,,,,,,,,,,,,,,,,,,,,,,,,,,,,,,,,,,,,,,,,,,,,,,,,,,,,,,,,,,,,,,,
,,616ea07fcb3f9d9971351c39,2024-01-06_07h47.17.828,kallum_motion_pilot,2023.2.3,Win32,60.24096386,616ea07fcb3f9d9971351c39,6598e6a5d84f07970b831e70,6598e9070f1f93cb1ab50914,0.1952,0.1954,1,98,260,23,1,fourthree,,,,,,,,,,,,,,,,,,,,,,,,,,,,,,,,,,,,,,,,,,,,,,,,,,,,,,,,,,,,,,,,,,,,,,,,,,,,,,,,,,,,,,,,,,,,,,,,,,,,,,,,,,,,,,,,,,,,,,,,,,,,,,,,,,,,,,,
,,616ea07fcb3f9d9971351c39,2024-01-06_07h47.17.828,kallum_motion_pilot,2023.2.3,Win32,60.24096386,616ea07fcb3f9d9971351c39,6598e6a5d84f07970b831e70,6598e9070f1f93cb1ab50914,0.1957,0.1959,1,99,261,68,1,threeone,,,,,,,,,,,,,,,,,,,,,,,,,,,,,,,,,,,,,,,,,,,,,,,,,,,,,,,,,,,,,,,,,,,,,,,,,,,,,,,,,,,,,,,,,,,,,,,,,,,,,,,,,,,,,,,,,,,,,,,,,,,,,,,,,,,,,,,
,,616ea07fcb3f9d9971351c39,2024-01-06_07h47.17.828,kallum_motion_pilot,2023.2.3,Win32,60.24096386,616ea07fcb3f9d9971351c39,6598e6a5d84f07970b831e70,6598e9070f1f93cb1ab50914,0.1962,0.1964,1,100,262,11,1,twofour,,,,,,,,,,,,,,,,,,,,,,,,,,,,,,,,,,,,,,,,,,,,,,,,,,,,,,,,,,,,,,,,,,,,,,,,,,,,,,,,,,,,,,,,,,,,,,,,,,,,,,,,,,,,,,,,,,,,,,,,,,,,,,,,,,,,,,,
,,616ea07fcb3f9d9971351c39,2024-01-06_07h47.17.828,kallum_motion_pilot,2023.2.3,Win32,60.24096386,616ea07fcb3f9d9971351c39,6598e6a5d84f07970b831e70,6598e9070f1f93cb1ab50914,0.1967,0.1969,1,101,263,6,1,fourtwo,,,,,,,,,,,,,,,,,,,,,,,,,,,,,,,,,,,,,,,,,,,,,,,,,,,,,,,,,,,,,,,,,,,,,,,,,,,,,,,,,,,,,,,,,,,,,,,,,,,,,,,,,,,,,,,,,,,,,,,,,,,,,,,,,,,,,,,
,,616ea07fcb3f9d9971351c39,2024-01-06_07h47.17.828,kallum_motion_pilot,2023.2.3,Win32,60.24096386,616ea07fcb3f9d9971351c39,6598e6a5d84f07970b831e70,6598e9070f1f93cb1ab50914,0.1972,0.1974,1,102,264,62,1,fourtwo,,,,,,,,,,,,,,,,,,,,,,,,,,,,,,,,,,,,,,,,,,,,,,,,,,,,,,,,,,,,,,,,,,,,,,,,,,,,,,,,,,,,,,,,,,,,,,,,,,,,,,,,,,,,,,,,,,,,,,,,,,,,,,,,,,,,,,,
,,616ea07fcb3f9d9971351c39,2024-01-06_07h47.17.828,kallum_motion_pilot,2023.2.3,Win32,60.24096386,616ea07fcb3f9d9971351c39,6598e6a5d84f07970b831e70,6598e9070f1f93cb1ab50914,0.1976,0.1979,1,103,265,52,1,threeone,,,,,,,,,,,,,,,,,,,,,,,,,,,,,,,,,,,,,,,,,,,,,,,,,,,,,,,,,,,,,,,,,,,,,,,,,,,,,,,,,,,,,,,,,,,,,,,,,,,,,,,,,,,,,,,,,,,,,,,,,,,,,,,,,,,,,,,
,,616ea07fcb3f9d9971351c39,2024-01-06_07h47.17.828,kallum_motion_pilot,2023.2.3,Win32,60.24096386,616ea07fcb3f9d9971351c39,6598e6a5d84f07970b831e70,6598e9070f1f93cb1ab50914,0.1982,0.1984,1,104,266,146,1,sixfive,,,,,,,,,,,,,,,,,,,,,,,,,,,,,,,,,,,,,,,,,,,,,,,,,,,,,,,,,,,,,,,,,,,,,,,,,,,,,,,,,,,,,,,,,,,,,,,,,,,,,,,,,,,,,,,,,,,,,,,,,,,,,,,,,,,,,,,
,,616ea07fcb3f9d9971351c39,2024-01-06_07h47.17.828,kallum_motion_pilot,2023.2.3,Win32,60.24096386,616ea07fcb3f9d9971351c39,6598e6a5d84f07970b831e70,6598e9070f1f93cb1ab50914,0.1987,0.1989,1,105,267,78,1,fourtwo,,,,,,,,,,,,,,,,,,,,,,,,,,,,,,,,,,,,,,,,,,,,,,,,,,,,,,,,,,,,,,,,,,,,,,,,,,,,,,,,,,,,,,,,,,,,,,,,,,,,,,,,,,,,,,,,,,,,,,,,,,,,,,,,,,,,,,,
,,616ea07fcb3f9d9971351c39,2024-01-06_07h47.17.828,kallum_motion_pilot,2023.2.3,Win32,60.24096386,616ea07fcb3f9d9971351c39,6598e6a5d84f07970b831e70,6598e9070f1f93cb1ab50914,0.1991,0.1994,1,106,268,12,1,threeone,,,,,,,,,,,,,,,,,,,,,,,,,,,,,,,,,,,,,,,,,,,,,,,,,,,,,,,,,,,,,,,,,,,,,,,,,,,,,,,,,,,,,,,,,,,,,,,,,,,,,,,,,,,,,,,,,,,,,,,,,,,,,,,,,,,,,,,
,,616ea07fcb3f9d9971351c39,2024-01-06_07h47.17.828,kallum_motion_pilot,2023.2.3,Win32,60.24096386,616ea07fcb3f9d9971351c39,6598e6a5d84f07970b831e70,6598e9070f1f93cb1ab50914,0.1996,0.1998,1,107,269,36,1,threeone,,,,,,,,,,,,,,,,,,,,,,,,,,,,,,,,,,,,,,,,,,,,,,,,,,,,,,,,,,,,,,,,,,,,,,,,,,,,,,,,,,,,,,,,,,,,,,,,,,,,,,,,,,,,,,,,,,,,,,,,,,,,,,,,,,,,,,,
,,616ea07fcb3f9d9971351c39,2024-01-06_07h47.17.828,kallum_motion_pilot,2023.2.3,Win32,60.24096386,616ea07fcb3f9d9971351c39,6598e6a5d84f07970b831e70,6598e9070f1f93cb1ab50914,0.2001,0.201,1,108,270,94,1,eightsix,,,,,,,,,,,,,,,,,,,,,,,,,,,,,,,,,,,,,,,,,,,,,,,,,,,,,,,,,,,,,,,,,,,,,,,,,,,,,,,,,,,,,,,,,,,,,,,,,,,,,,,,,,,,,,,,,,,,,,,,,,,,,,,,,,,,,,,
,,616ea07fcb3f9d9971351c39,2024-01-06_07h47.17.828,kallum_motion_pilot,2023.2.3,Win32,60.24096386,616ea07fcb3f9d9971351c39,6598e6a5d84f07970b831e70,6598e9070f1f93cb1ab50914,0.2013,0.2015,1,109,271,48,1,onetwo,,,,,,,,,,,,,,,,,,,,,,,,,,,,,,,,,,,,,,,,,,,,,,,,,,,,,,,,,,,,,,,,,,,,,,,,,,,,,,,,,,,,,,,,,,,,,,,,,,,,,,,,,,,,,,,,,,,,,,,,,,,,,,,,,,,,,,,
,,616ea07fcb3f9d9971351c39,2024-01-06_07h47.17.828,kallum_motion_pilot,2023.2.3,Win32,60.24096386,616ea07fcb3f9d9971351c39,6598e6a5d84f07970b831e70,6598e9070f1f93cb1ab50914,0.2017,0.2019,1,110,272,97,1,fiveseven,,,,,,,,,,,,,,,,,,,,,,,,,,,,,,,,,,,,,,,,,,,,,,,,,,,,,,,,,,,,,,,,,,,,,,,,,,,,,,,,,,,,,,,,,,,,,,,,,,,,,,,,,,,,,,,,,,,,,,,,,,,,,,,,,,,,,,,
,,616ea07fcb3f9d9971351c39,2024-01-06_07h47.17.828,kallum_motion_pilot,2023.2.3,Win32,60.24096386,616ea07fcb3f9d9971351c39,6598e6a5d84f07970b831e70,6598e9070f1f93cb1ab50914,0.2023,0.2024,1,111,273,75,1,twofour,,,,,,,,,,,,,,,,,,,,,,,,,,,,,,,,,,,,,,,,,,,,,,,,,,,,,,,,,,,,,,,,,,,,,,,,,,,,,,,,,,,,,,,,,,,,,,,,,,,,,,,,,,,,,,,,,,,,,,,,,,,,,,,,,,,,,,,
,,616ea07fcb3f9d9971351c39,2024-01-06_07h47.17.828,kallum_motion_pilot,2023.2.3,Win32,60.24096386,616ea07fcb3f9d9971351c39,6598e6a5d84f07970b831e70,6598e9070f1f93cb1ab50914,0.2027,0.2029,1,112,274,87,1,eightseven,,,,,,,,,,,,,,,,,,,,,,,,,,,,,,,,,,,,,,,,,,,,,,,,,,,,,,,,,,,,,,,,,,,,,,,,,,,,,,,,,,,,,,,,,,,,,,,,,,,,,,,,,,,,,,,,,,,,,,,,,,,,,,,,,,,,,,,
,,616ea07fcb3f9d9971351c39,2024-01-06_07h47.17.828,kallum_motion_pilot,2023.2.3,Win32,60.24096386,616ea07fcb3f9d9971351c39,6598e6a5d84f07970b831e70,6598e9070f1f93cb1ab50914,0.2032,0.2035,1,113,275,25,1,onethree,,,,,,,,,,,,,,,,,,,,,,,,,,,,,,,,,,,,,,,,,,,,,,,,,,,,,,,,,,,,,,,,,,,,,,,,,,,,,,,,,,,,,,,,,,,,,,,,,,,,,,,,,,,,,,,,,,,,,,,,,,,,,,,,,,,,,,,
,,616ea07fcb3f9d9971351c39,2024-01-06_07h47.17.828,kallum_motion_pilot,2023.2.3,Win32,60.24096386,616ea07fcb3f9d9971351c39,6598e6a5d84f07970b831e70,6598e9070f1f93cb1ab50914,0.2038,0.204,1,114,276,86,1,eightsix,,,,,,,,,,,,,,,,,,,,,,,,,,,,,,,,,,,,,,,,,,,,,,,,,,,,,,,,,,,,,,,,,,,,,,,,,,,,,,,,,,,,,,,,,,,,,,,,,,,,,,,,,,,,,,,,,,,,,,,,,,,,,,,,,,,,,,,
,,616ea07fcb3f9d9971351c39,2024-01-06_07h47.17.828,kallum_motion_pilot,2023.2.3,Win32,60.24096386,616ea07fcb3f9d9971351c39,6598e6a5d84f07970b831e70,6598e9070f1f93cb1ab50914,0.2043,0.2044,1,115,277,154,1,sixfive,,,,,,,,,,,,,,,,,,,,,,,,,,,,,,,,,,,,,,,,,,,,,,,,,,,,,,,,,,,,,,,,,,,,,,,,,,,,,,,,,,,,,,,,,,,,,,,,,,,,,,,,,,,,,,,,,,,,,,,,,,,,,,,,,,,,,,,
,,616ea07fcb3f9d9971351c39,2024-01-06_07h47.17.828,kallum_motion_pilot,2023.2.3,Win32,60.24096386,616ea07fcb3f9d9971351c39,6598e6a5d84f07970b831e70,6598e9070f1f93cb1ab50914,0.2047,0.2049,1,116,278,56,1,onetwo,,,,,,,,,,,,,,,,,,,,,,,,,,,,,,,,,,,,,,,,,,,,,,,,,,,,,,,,,,,,,,,,,,,,,,,,,,,,,,,,,,,,,,,,,,,,,,,,,,,,,,,,,,,,,,,,,,,,,,,,,,,,,,,,,,,,,,,
,,616ea07fcb3f9d9971351c39,2024-01-06_07h47.17.828,kallum_motion_pilot,2023.2.3,Win32,60.24096386,616ea07fcb3f9d9971351c39,6598e6a5d84f07970b831e70,6598e9070f1f93cb1ab50914,0.2052,0.2055,1,117,279,120,1,fivesix,,,,,,,,,,,,,,,,,,,,,,,,,,,,,,,,,,,,,,,,,,,,,,,,,,,,,,,,,,,,,,,,,,,,,,,,,,,,,,,,,,,,,,,,,,,,,,,,,,,,,,,,,,,,,,,,,,,,,,,,,,,,,,,,,,,,,,,
