startup.started,startup.stopped,Prolific ID*,date,expName,psychopyVersion,OS,frameRate,PROLIFIC_PID,STUDY_ID,SESSION_ID,stimpositions.started,stimpositions.stopped,hardcoded_stimulus_positions.thisRepN,hardcoded_stimulus_positions.thisTrialN,hardcoded_stimulus_positions.thisN,hardcoded_stimulus_positions.thisIndex,hardcoded_stimulus_positions.ran,StimulusPos,stimorientation.started,stimorientation.stopped,prac_stimorientation_import_loop.thisRepN,prac_stimorientation_import_loop.thisTrialN,prac_stimorientation_import_loop.thisN,prac_stimorientation_import_loop.thisIndex,prac_stimorientation_import_loop.ran,Stimorientation,welcome_instr.started,welcome_instr.stopped,key_resp.keys,key_resp.rt,key_resp.duration,response_steppedout_1.started,response_steppedout_1.stopped,key_resp_20.keys,key_resp_20.rt,key_resp_20.duration,response_steppedout_2.started,response_steppedout_2.stopped,key_resp_19.keys,key_resp_19.rt,key_resp_19.duration,stim_response_instr.started,stim_response_instr.stopped,key_resp_15.keys,key_resp_15.rt,key_resp_15.duration,direction_instr_2.started,direction_instr_2.stopped,key_resp_9.keys,key_resp_9.rt,key_resp_9.duration,instr_prac.started,instr_prac.stopped,key_resp_10.keys,key_resp_10.rt,key_resp_10.duration,Stim1_display_prac.started,Stim1_display_prac.stopped,Ecc,Circle1_ori,Circle2_ori,response_prac.started,similarity,response_time,response_prac.stopped,mouse_5.x,mouse_5.y,mouse_5.leftButton,mouse_5.midButton,mouse_5.rightButton,mouse_5.clicked_name,responseprac_feedback.started,responseprac_feedback.stopped,summary2_prac.started,summary2_prac.stopped,mouse_6.x,mouse_6.y,mouse_6.leftButton,mouse_6.midButton,mouse_6.rightButton,mouse_6.clicked_name,duringprac.thisRepN,duringprac.thisTrialN,duringprac.thisN,duringprac.thisIndex,duringprac.ran,begin.started,begin.stopped,key_resp_22.keys,key_resp_22.rt,key_resp_22.duration,Stim1_display.started,Stim1_display.stopped,circle1_ori,circle2_ori,blank.started,blank.stopped,response.started,response.stopped,mouse.x,mouse.y,mouse.leftButton,mouse.midButton,mouse.rightButton,mouse.clicked_name,response_2.started,response_2.stopped,mouse_2.x,mouse_2.y,mouse_2.leftButton,mouse_2.midButton,mouse_2.rightButton,mouse_2.clicked_name,special_trial.started,special_trial.stopped,catch_1.started,catch_1.stopped,mouse_3.x,mouse_3.y,mouse_3.leftButton,mouse_3.midButton,mouse_3.rightButton,catchresponse,catchnumber,response_time_catch,Catch,response_sum.started,response_sum.stopped,mouse_11.x,mouse_11.y,mouse_11.leftButton,mouse_11.midButton,mouse_11.rightButton,main_trial.thisRepN,main_trial.thisTrialN,main_trial.thisN,main_trial.thisIndex,main_trial.ran,Orientationtrialno,xcircle1_ori,xcircle2_ori,flip_presentation_sequence_for_double_pass.started,flip_presentation_sequence_for_double_pass.stopped,double_pass.thisRepN,double_pass.thisTrialN,double_pass.thisN,double_pass.thisIndex,double_pass.ran,goodbye.started,goodbye.stopped,key_resp_3.keys,key_resp_3.rt,key_resp_3.duration
0.0005,0.0006,613ac4fcfa4b7e01abd45dc7,2024-01-05_23h39.29.767,kallum_motion_pilot,2023.2.3,MacIntel,59.88023952,613ac4fcfa4b7e01abd45dc7,6598e6a5d84f07970b831e70,6598e76e7fa14c73800c3d3d,,,,,,,,,,,,,,,,,,,,,,,,,,,,,,,,,,,,,,,,,,,,,,,,,,,,,,,,,,,,,,,,,,,,,,,,,,,,,,,,,,,,,,,,,,,,,,,,,,,,,,,,,,,,,,,,,,,,,,,,,,,,,,,,,,,,,,,,,,,,,,,
,,613ac4fcfa4b7e01abd45dc7,2024-01-05_23h39.29.767,kallum_motion_pilot,2023.2.3,MacIntel,59.88023952,613ac4fcfa4b7e01abd45dc7,6598e6a5d84f07970b831e70,6598e76e7fa14c73800c3d3d,0.0113,0.0114,0,0,0,28,1,threeone,,,,,,,,,,,,,,,,,,,,,,,,,,,,,,,,,,,,,,,,,,,,,,,,,,,,,,,,,,,,,,,,,,,,,,,,,,,,,,,,,,,,,,,,,,,,,,,,,,,,,,,,,,,,,,,,,,,,,,,,,,,,,,,,,,,,,,,
,,613ac4fcfa4b7e01abd45dc7,2024-01-05_23h39.29.767,kallum_motion_pilot,2023.2.3,MacIntel,59.88023952,613ac4fcfa4b7e01abd45dc7,6598e6a5d84f07970b831e70,6598e76e7fa14c73800c3d3d,0.0114,0.0114,0,1,1,81,1,fiveseven,,,,,,,,,,,,,,,,,,,,,,,,,,,,,,,,,,,,,,,,,,,,,,,,,,,,,,,,,,,,,,,,,,,,,,,,,,,,,,,,,,,,,,,,,,,,,,,,,,,,,,,,,,,,,,,,,,,,,,,,,,,,,,,,,,,,,,,
,,613ac4fcfa4b7e01abd45dc7,2024-01-05_23h39.29.767,kallum_motion_pilot,2023.2.3,MacIntel,59.88023952,613ac4fcfa4b7e01abd45dc7,6598e6a5d84f07970b831e70,6598e76e7fa14c73800c3d3d,0.0115,0.0115,0,2,2,119,1,eightseven,,,,,,,,,,,,,,,,,,,,,,,,,,,,,,,,,,,,,,,,,,,,,,,,,,,,,,,,,,,,,,,,,,,,,,,,,,,,,,,,,,,,,,,,,,,,,,,,,,,,,,,,,,,,,,,,,,,,,,,,,,,,,,,,,,,,,,,
,,613ac4fcfa4b7e01abd45dc7,2024-01-05_23h39.29.767,kallum_motion_pilot,2023.2.3,MacIntel,59.88023952,613ac4fcfa4b7e01abd45dc7,6598e6a5d84f07970b831e70,6598e76e7fa14c73800c3d3d,0.0116,0.0116,0,3,3,80,1,fivesix,,,,,,,,,,,,,,,,,,,,,,,,,,,,,,,,,,,,,,,,,,,,,,,,,,,,,,,,,,,,,,,,,,,,,,,,,,,,,,,,,,,,,,,,,,,,,,,,,,,,,,,,,,,,,,,,,,,,,,,,,,,,,,,,,,,,,,,
,,613ac4fcfa4b7e01abd45dc7,2024-01-05_23h39.29.767,kallum_motion_pilot,2023.2.3,MacIntel,59.88023952,613ac4fcfa4b7e01abd45dc7,6598e6a5d84f07970b831e70,6598e76e7fa14c73800c3d3d,0.0117,0.0117,0,4,4,94,1,eightsix,,,,,,,,,,,,,,,,,,,,,,,,,,,,,,,,,,,,,,,,,,,,,,,,,,,,,,,,,,,,,,,,,,,,,,,,,,,,,,,,,,,,,,,,,,,,,,,,,,,,,,,,,,,,,,,,,,,,,,,,,,,,,,,,,,,,,,,
,,613ac4fcfa4b7e01abd45dc7,2024-01-05_23h39.29.767,kallum_motion_pilot,2023.2.3,MacIntel,59.88023952,613ac4fcfa4b7e01abd45dc7,6598e6a5d84f07970b831e70,6598e76e7fa14c73800c3d3d,0.0118,0.0118,0,5,5,52,1,threeone,,,,,,,,,,,,,,,,,,,,,,,,,,,,,,,,,,,,,,,,,,,,,,,,,,,,,,,,,,,,,,,,,,,,,,,,,,,,,,,,,,,,,,,,,,,,,,,,,,,,,,,,,,,,,,,,,,,,,,,,,,,,,,,,,,,,,,,
,,613ac4fcfa4b7e01abd45dc7,2024-01-05_23h39.29.767,kallum_motion_pilot,2023.2.3,MacIntel,59.88023952,613ac4fcfa4b7e01abd45dc7,6598e6a5d84f07970b831e70,6598e76e7fa14c73800c3d3d,0.0118,0.0118,0,6,6,82,1,sixfive,,,,,,,,,,,,,,,,,,,,,,,,,,,,,,,,,,,,,,,,,,,,,,,,,,,,,,,,,,,,,,,,,,,,,,,,,,,,,,,,,,,,,,,,,,,,,,,,,,,,,,,,,,,,,,,,,,,,,,,,,,,,,,,,,,,,,,,
,,613ac4fcfa4b7e01abd45dc7,2024-01-05_23h39.29.767,kallum_motion_pilot,2023.2.3,MacIntel,59.88023952,613ac4fcfa4b7e01abd45dc7,6598e6a5d84f07970b831e70,6598e76e7fa14c73800c3d3d,0.0119,0.0119,0,7,7,117,1,seveneight,,,,,,,,,,,,,,,,,,,,,,,,,,,,,,,,,,,,,,,,,,,,,,,,,,,,,,,,,,,,,,,,,,,,,,,,,,,,,,,,,,,,,,,,,,,,,,,,,,,,,,,,,,,,,,,,,,,,,,,,,,,,,,,,,,,,,,,
,,613ac4fcfa4b7e01abd45dc7,2024-01-05_23h39.29.767,kallum_motion_pilot,2023.2.3,MacIntel,59.88023952,613ac4fcfa4b7e01abd45dc7,6598e6a5d84f07970b831e70,6598e76e7fa14c73800c3d3d,0.012,0.012,0,8,8,69,1,threefour,,,,,,,,,,,,,,,,,,,,,,,,,,,,,,,,,,,,,,,,,,,,,,,,,,,,,,,,,,,,,,,,,,,,,,,,,,,,,,,,,,,,,,,,,,,,,,,,,,,,,,,,,,,,,,,,,,,,,,,,,,,,,,,,,,,,,,,
,,613ac4fcfa4b7e01abd45dc7,2024-01-05_23h39.29.767,kallum_motion_pilot,2023.2.3,MacIntel,59.88023952,613ac4fcfa4b7e01abd45dc7,6598e6a5d84f07970b831e70,6598e76e7fa14c73800c3d3d,0.012,0.0121,0,9,9,63,1,fourthree,,,,,,,,,,,,,,,,,,,,,,,,,,,,,,,,,,,,,,,,,,,,,,,,,,,,,,,,,,,,,,,,,,,,,,,,,,,,,,,,,,,,,,,,,,,,,,,,,,,,,,,,,,,,,,,,,,,,,,,,,,,,,,,,,,,,,,,
,,613ac4fcfa4b7e01abd45dc7,2024-01-05_23h39.29.767,kallum_motion_pilot,2023.2.3,MacIntel,59.88023952,613ac4fcfa4b7e01abd45dc7,6598e6a5d84f07970b831e70,6598e76e7fa14c73800c3d3d,0.0122,0.0122,0,10,10,24,1,onetwo,,,,,,,,,,,,,,,,,,,,,,,,,,,,,,,,,,,,,,,,,,,,,,,,,,,,,,,,,,,,,,,,,,,,,,,,,,,,,,,,,,,,,,,,,,,,,,,,,,,,,,,,,,,,,,,,,,,,,,,,,,,,,,,,,,,,,,,
,,613ac4fcfa4b7e01abd45dc7,2024-01-05_23h39.29.767,kallum_motion_pilot,2023.2.3,MacIntel,59.88023952,613ac4fcfa4b7e01abd45dc7,6598e6a5d84f07970b831e70,6598e76e7fa14c73800c3d3d,0.0122,0.0122,0,11,11,38,1,fourtwo,,,,,,,,,,,,,,,,,,,,,,,,,,,,,,,,,,,,,,,,,,,,,,,,,,,,,,,,,,,,,,,,,,,,,,,,,,,,,,,,,,,,,,,,,,,,,,,,,,,,,,,,,,,,,,,,,,,,,,,,,,,,,,,,,,,,,,,
,,613ac4fcfa4b7e01abd45dc7,2024-01-05_23h39.29.767,kallum_motion_pilot,2023.2.3,MacIntel,59.88023952,613ac4fcfa4b7e01abd45dc7,6598e6a5d84f07970b831e70,6598e76e7fa14c73800c3d3d,0.0123,0.0124,0,12,12,45,1,threefour,,,,,,,,,,,,,,,,,,,,,,,,,,,,,,,,,,,,,,,,,,,,,,,,,,,,,,,,,,,,,,,,,,,,,,,,,,,,,,,,,,,,,,,,,,,,,,,,,,,,,,,,,,,,,,,,,,,,,,,,,,,,,,,,,,,,,,,
,,613ac4fcfa4b7e01abd45dc7,2024-01-05_23h39.29.767,kallum_motion_pilot,2023.2.3,MacIntel,59.88023952,613ac4fcfa4b7e01abd45dc7,6598e6a5d84f07970b831e70,6598e76e7fa14c73800c3d3d,0.0125,0.0125,0,13,13,140,1,sevenfive,,,,,,,,,,,,,,,,,,,,,,,,,,,,,,,,,,,,,,,,,,,,,,,,,,,,,,,,,,,,,,,,,,,,,,,,,,,,,,,,,,,,,,,,,,,,,,,,,,,,,,,,,,,,,,,,,,,,,,,,,,,,,,,,,,,,,,,
,,613ac4fcfa4b7e01abd45dc7,2024-01-05_23h39.29.767,kallum_motion_pilot,2023.2.3,MacIntel,59.88023952,613ac4fcfa4b7e01abd45dc7,6598e6a5d84f07970b831e70,6598e76e7fa14c73800c3d3d,0.0125,0.0125,0,14,14,138,1,sixfive,,,,,,,,,,,,,,,,,,,,,,,,,,,,,,,,,,,,,,,,,,,,,,,,,,,,,,,,,,,,,,,,,,,,,,,,,,,,,,,,,,,,,,,,,,,,,,,,,,,,,,,,,,,,,,,,,,,,,,,,,,,,,,,,,,,,,,,
,,613ac4fcfa4b7e01abd45dc7,2024-01-05_23h39.29.767,kallum_motion_pilot,2023.2.3,MacIntel,59.88023952,613ac4fcfa4b7e01abd45dc7,6598e6a5d84f07970b831e70,6598e76e7fa14c73800c3d3d,0.0125,0.0125,0,15,15,4,1,threeone,,,,,,,,,,,,,,,,,,,,,,,,,,,,,,,,,,,,,,,,,,,,,,,,,,,,,,,,,,,,,,,,,,,,,,,,,,,,,,,,,,,,,,,,,,,,,,,,,,,,,,,,,,,,,,,,,,,,,,,,,,,,,,,,,,,,,,,
,,613ac4fcfa4b7e01abd45dc7,2024-01-05_23h39.29.767,kallum_motion_pilot,2023.2.3,MacIntel,59.88023952,613ac4fcfa4b7e01abd45dc7,6598e6a5d84f07970b831e70,6598e76e7fa14c73800c3d3d,0.0127,0.0128,0,16,16,3,1,twofour,,,,,,,,,,,,,,,,,,,,,,,,,,,,,,,,,,,,,,,,,,,,,,,,,,,,,,,,,,,,,,,,,,,,,,,,,,,,,,,,,,,,,,,,,,,,,,,,,,,,,,,,,,,,,,,,,,,,,,,,,,,,,,,,,,,,,,,
,,613ac4fcfa4b7e01abd45dc7,2024-01-05_23h39.29.767,kallum_motion_pilot,2023.2.3,MacIntel,59.88023952,613ac4fcfa4b7e01abd45dc7,6598e6a5d84f07970b831e70,6598e76e7fa14c73800c3d3d,0.0128,0.0128,0,17,17,49,1,onethree,,,,,,,,,,,,,,,,,,,,,,,,,,,,,,,,,,,,,,,,,,,,,,,,,,,,,,,,,,,,,,,,,,,,,,,,,,,,,,,,,,,,,,,,,,,,,,,,,,,,,,,,,,,,,,,,,,,,,,,,,,,,,,,,,,,,,,,
,,613ac4fcfa4b7e01abd45dc7,2024-01-05_23h39.29.767,kallum_motion_pilot,2023.2.3,MacIntel,59.88023952,613ac4fcfa4b7e01abd45dc7,6598e6a5d84f07970b831e70,6598e76e7fa14c73800c3d3d,0.0129,0.0129,0,18,18,10,1,twoone,,,,,,,,,,,,,,,,,,,,,,,,,,,,,,,,,,,,,,,,,,,,,,,,,,,,,,,,,,,,,,,,,,,,,,,,,,,,,,,,,,,,,,,,,,,,,,,,,,,,,,,,,,,,,,,,,,,,,,,,,,,,,,,,,,,,,,,
,,613ac4fcfa4b7e01abd45dc7,2024-01-05_23h39.29.767,kallum_motion_pilot,2023.2.3,MacIntel,59.88023952,613ac4fcfa4b7e01abd45dc7,6598e6a5d84f07970b831e70,6598e76e7fa14c73800c3d3d,0.0131,0.0131,0,19,19,23,1,fourthree,,,,,,,,,,,,,,,,,,,,,,,,,,,,,,,,,,,,,,,,,,,,,,,,,,,,,,,,,,,,,,,,,,,,,,,,,,,,,,,,,,,,,,,,,,,,,,,,,,,,,,,,,,,,,,,,,,,,,,,,,,,,,,,,,,,,,,,
,,613ac4fcfa4b7e01abd45dc7,2024-01-05_23h39.29.767,kallum_motion_pilot,2023.2.3,MacIntel,59.88023952,613ac4fcfa4b7e01abd45dc7,6598e6a5d84f07970b831e70,6598e76e7fa14c73800c3d3d,0.0131,0.0132,0,20,20,9,1,onethree,,,,,,,,,,,,,,,,,,,,,,,,,,,,,,,,,,,,,,,,,,,,,,,,,,,,,,,,,,,,,,,,,,,,,,,,,,,,,,,,,,,,,,,,,,,,,,,,,,,,,,,,,,,,,,,,,,,,,,,,,,,,,,,,,,,,,,,
,,613ac4fcfa4b7e01abd45dc7,2024-01-05_23h39.29.767,kallum_motion_pilot,2023.2.3,MacIntel,59.88023952,613ac4fcfa4b7e01abd45dc7,6598e6a5d84f07970b831e70,6598e76e7fa14c73800c3d3d,0.0132,0.0132,0,21,21,12,1,threeone,,,,,,,,,,,,,,,,,,,,,,,,,,,,,,,,,,,,,,,,,,,,,,,,,,,,,,,,,,,,,,,,,,,,,,,,,,,,,,,,,,,,,,,,,,,,,,,,,,,,,,,,,,,,,,,,,,,,,,,,,,,,,,,,,,,,,,,
,,613ac4fcfa4b7e01abd45dc7,2024-01-05_23h39.29.767,kallum_motion_pilot,2023.2.3,MacIntel,59.88023952,613ac4fcfa4b7e01abd45dc7,6598e6a5d84f07970b831e70,6598e76e7fa14c73800c3d3d,0.0133,0.0133,0,22,22,61,1,threefour,,,,,,,,,,,,,,,,,,,,,,,,,,,,,,,,,,,,,,,,,,,,,,,,,,,,,,,,,,,,,,,,,,,,,,,,,,,,,,,,,,,,,,,,,,,,,,,,,,,,,,,,,,,,,,,,,,,,,,,,,,,,,,,,,,,,,,,
,,613ac4fcfa4b7e01abd45dc7,2024-01-05_23h39.29.767,kallum_motion_pilot,2023.2.3,MacIntel,59.88023952,613ac4fcfa4b7e01abd45dc7,6598e6a5d84f07970b831e70,6598e76e7fa14c73800c3d3d,0.0133,0.0133,0,23,23,104,1,fivesix,,,,,,,,,,,,,,,,,,,,,,,,,,,,,,,,,,,,,,,,,,,,,,,,,,,,,,,,,,,,,,,,,,,,,,,,,,,,,,,,,,,,,,,,,,,,,,,,,,,,,,,,,,,,,,,,,,,,,,,,,,,,,,,,,,,,,,,
,,613ac4fcfa4b7e01abd45dc7,2024-01-05_23h39.29.767,kallum_motion_pilot,2023.2.3,MacIntel,59.88023952,613ac4fcfa4b7e01abd45dc7,6598e6a5d84f07970b831e70,6598e76e7fa14c73800c3d3d,0.0134,0.0134,0,24,24,159,1,eightseven,,,,,,,,,,,,,,,,,,,,,,,,,,,,,,,,,,,,,,,,,,,,,,,,,,,,,,,,,,,,,,,,,,,,,,,,,,,,,,,,,,,,,,,,,,,,,,,,,,,,,,,,,,,,,,,,,,,,,,,,,,,,,,,,,,,,,,,
,,613ac4fcfa4b7e01abd45dc7,2024-01-05_23h39.29.767,kallum_motion_pilot,2023.2.3,MacIntel,59.88023952,613ac4fcfa4b7e01abd45dc7,6598e6a5d84f07970b831e70,6598e76e7fa14c73800c3d3d,0.0135,0.0135,0,25,25,51,1,twofour,,,,,,,,,,,,,,,,,,,,,,,,,,,,,,,,,,,,,,,,,,,,,,,,,,,,,,,,,,,,,,,,,,,,,,,,,,,,,,,,,,,,,,,,,,,,,,,,,,,,,,,,,,,,,,,,,,,,,,,,,,,,,,,,,,,,,,,
,,613ac4fcfa4b7e01abd45dc7,2024-01-05_23h39.29.767,kallum_motion_pilot,2023.2.3,MacIntel,59.88023952,613ac4fcfa4b7e01abd45dc7,6598e6a5d84f07970b831e70,6598e76e7fa14c73800c3d3d,0.0135,0.0135,0,26,26,139,1,sixeight,,,,,,,,,,,,,,,,,,,,,,,,,,,,,,,,,,,,,,,,,,,,,,,,,,,,,,,,,,,,,,,,,,,,,,,,,,,,,,,,,,,,,,,,,,,,,,,,,,,,,,,,,,,,,,,,,,,,,,,,,,,,,,,,,,,,,,,
,,613ac4fcfa4b7e01abd45dc7,2024-01-05_23h39.29.767,kallum_motion_pilot,2023.2.3,MacIntel,59.88023952,613ac4fcfa4b7e01abd45dc7,6598e6a5d84f07970b831e70,6598e76e7fa14c73800c3d3d,0.0135,0.0135,0,27,27,131,1,sixeight,,,,,,,,,,,,,,,,,,,,,,,,,,,,,,,,,,,,,,,,,,,,,,,,,,,,,,,,,,,,,,,,,,,,,,,,,,,,,,,,,,,,,,,,,,,,,,,,,,,,,,,,,,,,,,,,,,,,,,,,,,,,,,,,,,,,,,,
,,613ac4fcfa4b7e01abd45dc7,2024-01-05_23h39.29.767,kallum_motion_pilot,2023.2.3,MacIntel,59.88023952,613ac4fcfa4b7e01abd45dc7,6598e6a5d84f07970b831e70,6598e76e7fa14c73800c3d3d,0.0136,0.0136,0,28,28,123,1,sixeight,,,,,,,,,,,,,,,,,,,,,,,,,,,,,,,,,,,,,,,,,,,,,,,,,,,,,,,,,,,,,,,,,,,,,,,,,,,,,,,,,,,,,,,,,,,,,,,,,,,,,,,,,,,,,,,,,,,,,,,,,,,,,,,,,,,,,,,
,,613ac4fcfa4b7e01abd45dc7,2024-01-05_23h39.29.767,kallum_motion_pilot,2023.2.3,MacIntel,59.88023952,613ac4fcfa4b7e01abd45dc7,6598e6a5d84f07970b831e70,6598e76e7fa14c73800c3d3d,0.0137,0.0137,0,29,29,100,1,sevenfive,,,,,,,,,,,,,,,,,,,,,,,,,,,,,,,,,,,,,,,,,,,,,,,,,,,,,,,,,,,,,,,,,,,,,,,,,,,,,,,,,,,,,,,,,,,,,,,,,,,,,,,,,,,,,,,,,,,,,,,,,,,,,,,,,,,,,,,
,,613ac4fcfa4b7e01abd45dc7,2024-01-05_23h39.29.767,kallum_motion_pilot,2023.2.3,MacIntel,59.88023952,613ac4fcfa4b7e01abd45dc7,6598e6a5d84f07970b831e70,6598e76e7fa14c73800c3d3d,0.0137,0.0137,0,30,30,74,1,twoone,,,,,,,,,,,,,,,,,,,,,,,,,,,,,,,,,,,,,,,,,,,,,,,,,,,,,,,,,,,,,,,,,,,,,,,,,,,,,,,,,,,,,,,,,,,,,,,,,,,,,,,,,,,,,,,,,,,,,,,,,,,,,,,,,,,,,,,
,,613ac4fcfa4b7e01abd45dc7,2024-01-05_23h39.29.767,kallum_motion_pilot,2023.2.3,MacIntel,59.88023952,613ac4fcfa4b7e01abd45dc7,6598e6a5d84f07970b831e70,6598e76e7fa14c73800c3d3d,0.0138,0.0138,0,31,31,76,1,threeone,,,,,,,,,,,,,,,,,,,,,,,,,,,,,,,,,,,,,,,,,,,,,,,,,,,,,,,,,,,,,,,,,,,,,,,,,,,,,,,,,,,,,,,,,,,,,,,,,,,,,,,,,,,,,,,,,,,,,,,,,,,,,,,,,,,,,,,
,,613ac4fcfa4b7e01abd45dc7,2024-01-05_23h39.29.767,kallum_motion_pilot,2023.2.3,MacIntel,59.88023952,613ac4fcfa4b7e01abd45dc7,6598e6a5d84f07970b831e70,6598e76e7fa14c73800c3d3d,0.0138,0.0138,0,32,32,19,1,twofour,,,,,,,,,,,,,,,,,,,,,,,,,,,,,,,,,,,,,,,,,,,,,,,,,,,,,,,,,,,,,,,,,,,,,,,,,,,,,,,,,,,,,,,,,,,,,,,,,,,,,,,,,,,,,,,,,,,,,,,,,,,,,,,,,,,,,,,
,,613ac4fcfa4b7e01abd45dc7,2024-01-05_23h39.29.767,kallum_motion_pilot,2023.2.3,MacIntel,59.88023952,613ac4fcfa4b7e01abd45dc7,6598e6a5d84f07970b831e70,6598e76e7fa14c73800c3d3d,0.0139,0.0139,0,33,33,153,1,fiveseven,,,,,,,,,,,,,,,,,,,,,,,,,,,,,,,,,,,,,,,,,,,,,,,,,,,,,,,,,,,,,,,,,,,,,,,,,,,,,,,,,,,,,,,,,,,,,,,,,,,,,,,,,,,,,,,,,,,,,,,,,,,,,,,,,,,,,,,
,,613ac4fcfa4b7e01abd45dc7,2024-01-05_23h39.29.767,kallum_motion_pilot,2023.2.3,MacIntel,59.88023952,613ac4fcfa4b7e01abd45dc7,6598e6a5d84f07970b831e70,6598e76e7fa14c73800c3d3d,0.0139,0.014,0,34,34,84,1,sevenfive,,,,,,,,,,,,,,,,,,,,,,,,,,,,,,,,,,,,,,,,,,,,,,,,,,,,,,,,,,,,,,,,,,,,,,,,,,,,,,,,,,,,,,,,,,,,,,,,,,,,,,,,,,,,,,,,,,,,,,,,,,,,,,,,,,,,,,,
,,613ac4fcfa4b7e01abd45dc7,2024-01-05_23h39.29.767,kallum_motion_pilot,2023.2.3,MacIntel,59.88023952,613ac4fcfa4b7e01abd45dc7,6598e6a5d84f07970b831e70,6598e76e7fa14c73800c3d3d,0.014,0.014,0,35,35,110,1,eightsix,,,,,,,,,,,,,,,,,,,,,,,,,,,,,,,,,,,,,,,,,,,,,,,,,,,,,,,,,,,,,,,,,,,,,,,,,,,,,,,,,,,,,,,,,,,,,,,,,,,,,,,,,,,,,,,,,,,,,,,,,,,,,,,,,,,,,,,
,,613ac4fcfa4b7e01abd45dc7,2024-01-05_23h39.29.767,kallum_motion_pilot,2023.2.3,MacIntel,59.88023952,613ac4fcfa4b7e01abd45dc7,6598e6a5d84f07970b831e70,6598e76e7fa14c73800c3d3d,0.0141,0.0141,0,36,36,129,1,fiveseven,,,,,,,,,,,,,,,,,,,,,,,,,,,,,,,,,,,,,,,,,,,,,,,,,,,,,,,,,,,,,,,,,,,,,,,,,,,,,,,,,,,,,,,,,,,,,,,,,,,,,,,,,,,,,,,,,,,,,,,,,,,,,,,,,,,,,,,
,,613ac4fcfa4b7e01abd45dc7,2024-01-05_23h39.29.767,kallum_motion_pilot,2023.2.3,MacIntel,59.88023952,613ac4fcfa4b7e01abd45dc7,6598e6a5d84f07970b831e70,6598e76e7fa14c73800c3d3d,0.0141,0.0141,0,37,37,149,1,seveneight,,,,,,,,,,,,,,,,,,,,,,,,,,,,,,,,,,,,,,,,,,,,,,,,,,,,,,,,,,,,,,,,,,,,,,,,,,,,,,,,,,,,,,,,,,,,,,,,,,,,,,,,,,,,,,,,,,,,,,,,,,,,,,,,,,,,,,,
,,613ac4fcfa4b7e01abd45dc7,2024-01-05_23h39.29.767,kallum_motion_pilot,2023.2.3,MacIntel,59.88023952,613ac4fcfa4b7e01abd45dc7,6598e6a5d84f07970b831e70,6598e76e7fa14c73800c3d3d,0.0141,0.0141,0,38,38,62,1,fourtwo,,,,,,,,,,,,,,,,,,,,,,,,,,,,,,,,,,,,,,,,,,,,,,,,,,,,,,,,,,,,,,,,,,,,,,,,,,,,,,,,,,,,,,,,,,,,,,,,,,,,,,,,,,,,,,,,,,,,,,,,,,,,,,,,,,,,,,,
,,613ac4fcfa4b7e01abd45dc7,2024-01-05_23h39.29.767,kallum_motion_pilot,2023.2.3,MacIntel,59.88023952,613ac4fcfa4b7e01abd45dc7,6598e6a5d84f07970b831e70,6598e76e7fa14c73800c3d3d,0.0142,0.0142,0,39,39,150,1,eightsix,,,,,,,,,,,,,,,,,,,,,,,,,,,,,,,,,,,,,,,,,,,,,,,,,,,,,,,,,,,,,,,,,,,,,,,,,,,,,,,,,,,,,,,,,,,,,,,,,,,,,,,,,,,,,,,,,,,,,,,,,,,,,,,,,,,,,,,
,,613ac4fcfa4b7e01abd45dc7,2024-01-05_23h39.29.767,kallum_motion_pilot,2023.2.3,MacIntel,59.88023952,613ac4fcfa4b7e01abd45dc7,6598e6a5d84f07970b831e70,6598e76e7fa14c73800c3d3d,0.0142,0.0142,0,40,40,37,1,threefour,,,,,,,,,,,,,,,,,,,,,,,,,,,,,,,,,,,,,,,,,,,,,,,,,,,,,,,,,,,,,,,,,,,,,,,,,,,,,,,,,,,,,,,,,,,,,,,,,,,,,,,,,,,,,,,,,,,,,,,,,,,,,,,,,,,,,,,
,,613ac4fcfa4b7e01abd45dc7,2024-01-05_23h39.29.767,kallum_motion_pilot,2023.2.3,MacIntel,59.88023952,613ac4fcfa4b7e01abd45dc7,6598e6a5d84f07970b831e70,6598e76e7fa14c73800c3d3d,0.0143,0.0143,0,41,41,92,1,sevenfive,,,,,,,,,,,,,,,,,,,,,,,,,,,,,,,,,,,,,,,,,,,,,,,,,,,,,,,,,,,,,,,,,,,,,,,,,,,,,,,,,,,,,,,,,,,,,,,,,,,,,,,,,,,,,,,,,,,,,,,,,,,,,,,,,,,,,,,
,,613ac4fcfa4b7e01abd45dc7,2024-01-05_23h39.29.767,kallum_motion_pilot,2023.2.3,MacIntel,59.88023952,613ac4fcfa4b7e01abd45dc7,6598e6a5d84f07970b831e70,6598e76e7fa14c73800c3d3d,0.0143,0.0144,0,42,42,25,1,onethree,,,,,,,,,,,,,,,,,,,,,,,,,,,,,,,,,,,,,,,,,,,,,,,,,,,,,,,,,,,,,,,,,,,,,,,,,,,,,,,,,,,,,,,,,,,,,,,,,,,,,,,,,,,,,,,,,,,,,,,,,,,,,,,,,,,,,,,
,,613ac4fcfa4b7e01abd45dc7,2024-01-05_23h39.29.767,kallum_motion_pilot,2023.2.3,MacIntel,59.88023952,613ac4fcfa4b7e01abd45dc7,6598e6a5d84f07970b831e70,6598e76e7fa14c73800c3d3d,0.0144,0.0144,0,43,43,14,1,fourtwo,,,,,,,,,,,,,,,,,,,,,,,,,,,,,,,,,,,,,,,,,,,,,,,,,,,,,,,,,,,,,,,,,,,,,,,,,,,,,,,,,,,,,,,,,,,,,,,,,,,,,,,,,,,,,,,,,,,,,,,,,,,,,,,,,,,,,,,
,,613ac4fcfa4b7e01abd45dc7,2024-01-05_23h39.29.767,kallum_motion_pilot,2023.2.3,MacIntel,59.88023952,613ac4fcfa4b7e01abd45dc7,6598e6a5d84f07970b831e70,6598e76e7fa14c73800c3d3d,0.0144,0.0144,0,44,44,93,1,seveneight,,,,,,,,,,,,,,,,,,,,,,,,,,,,,,,,,,,,,,,,,,,,,,,,,,,,,,,,,,,,,,,,,,,,,,,,,,,,,,,,,,,,,,,,,,,,,,,,,,,,,,,,,,,,,,,,,,,,,,,,,,,,,,,,,,,,,,,
,,613ac4fcfa4b7e01abd45dc7,2024-01-05_23h39.29.767,kallum_motion_pilot,2023.2.3,MacIntel,59.88023952,613ac4fcfa4b7e01abd45dc7,6598e6a5d84f07970b831e70,6598e76e7fa14c73800c3d3d,0.0145,0.0145,0,45,45,41,1,onethree,,,,,,,,,,,,,,,,,,,,,,,,,,,,,,,,,,,,,,,,,,,,,,,,,,,,,,,,,,,,,,,,,,,,,,,,,,,,,,,,,,,,,,,,,,,,,,,,,,,,,,,,,,,,,,,,,,,,,,,,,,,,,,,,,,,,,,,
,,613ac4fcfa4b7e01abd45dc7,2024-01-05_23h39.29.767,kallum_motion_pilot,2023.2.3,MacIntel,59.88023952,613ac4fcfa4b7e01abd45dc7,6598e6a5d84f07970b831e70,6598e76e7fa14c73800c3d3d,0.0146,0.0146,0,46,46,11,1,twofour,,,,,,,,,,,,,,,,,,,,,,,,,,,,,,,,,,,,,,,,,,,,,,,,,,,,,,,,,,,,,,,,,,,,,,,,,,,,,,,,,,,,,,,,,,,,,,,,,,,,,,,,,,,,,,,,,,,,,,,,,,,,,,,,,,,,,,,
,,613ac4fcfa4b7e01abd45dc7,2024-01-05_23h39.29.767,kallum_motion_pilot,2023.2.3,MacIntel,59.88023952,613ac4fcfa4b7e01abd45dc7,6598e6a5d84f07970b831e70,6598e76e7fa14c73800c3d3d,0.0146,0.0146,0,47,47,148,1,sevenfive,,,,,,,,,,,,,,,,,,,,,,,,,,,,,,,,,,,,,,,,,,,,,,,,,,,,,,,,,,,,,,,,,,,,,,,,,,,,,,,,,,,,,,,,,,,,,,,,,,,,,,,,,,,,,,,,,,,,,,,,,,,,,,,,,,,,,,,
,,613ac4fcfa4b7e01abd45dc7,2024-01-05_23h39.29.767,kallum_motion_pilot,2023.2.3,MacIntel,59.88023952,613ac4fcfa4b7e01abd45dc7,6598e6a5d84f07970b831e70,6598e76e7fa14c73800c3d3d,0.0146,0.0146,0,48,48,125,1,seveneight,,,,,,,,,,,,,,,,,,,,,,,,,,,,,,,,,,,,,,,,,,,,,,,,,,,,,,,,,,,,,,,,,,,,,,,,,,,,,,,,,,,,,,,,,,,,,,,,,,,,,,,,,,,,,,,,,,,,,,,,,,,,,,,,,,,,,,,
,,613ac4fcfa4b7e01abd45dc7,2024-01-05_23h39.29.767,kallum_motion_pilot,2023.2.3,MacIntel,59.88023952,613ac4fcfa4b7e01abd45dc7,6598e6a5d84f07970b831e70,6598e76e7fa14c73800c3d3d,0.0147,0.0147,0,49,49,142,1,eightsix,,,,,,,,,,,,,,,,,,,,,,,,,,,,,,,,,,,,,,,,,,,,,,,,,,,,,,,,,,,,,,,,,,,,,,,,,,,,,,,,,,,,,,,,,,,,,,,,,,,,,,,,,,,,,,,,,,,,,,,,,,,,,,,,,,,,,,,
,,613ac4fcfa4b7e01abd45dc7,2024-01-05_23h39.29.767,kallum_motion_pilot,2023.2.3,MacIntel,59.88023952,613ac4fcfa4b7e01abd45dc7,6598e6a5d84f07970b831e70,6598e76e7fa14c73800c3d3d,0.0147,0.0147,0,50,50,72,1,onetwo,,,,,,,,,,,,,,,,,,,,,,,,,,,,,,,,,,,,,,,,,,,,,,,,,,,,,,,,,,,,,,,,,,,,,,,,,,,,,,,,,,,,,,,,,,,,,,,,,,,,,,,,,,,,,,,,,,,,,,,,,,,,,,,,,,,,,,,
,,613ac4fcfa4b7e01abd45dc7,2024-01-05_23h39.29.767,kallum_motion_pilot,2023.2.3,MacIntel,59.88023952,613ac4fcfa4b7e01abd45dc7,6598e6a5d84f07970b831e70,6598e76e7fa14c73800c3d3d,0.0148,0.0148,0,51,51,158,1,eightsix,,,,,,,,,,,,,,,,,,,,,,,,,,,,,,,,,,,,,,,,,,,,,,,,,,,,,,,,,,,,,,,,,,,,,,,,,,,,,,,,,,,,,,,,,,,,,,,,,,,,,,,,,,,,,,,,,,,,,,,,,,,,,,,,,,,,,,,
,,613ac4fcfa4b7e01abd45dc7,2024-01-05_23h39.29.767,kallum_motion_pilot,2023.2.3,MacIntel,59.88023952,613ac4fcfa4b7e01abd45dc7,6598e6a5d84f07970b831e70,6598e76e7fa14c73800c3d3d,0.0148,0.0148,0,52,52,107,1,sixeight,,,,,,,,,,,,,,,,,,,,,,,,,,,,,,,,,,,,,,,,,,,,,,,,,,,,,,,,,,,,,,,,,,,,,,,,,,,,,,,,,,,,,,,,,,,,,,,,,,,,,,,,,,,,,,,,,,,,,,,,,,,,,,,,,,,,,,,
,,613ac4fcfa4b7e01abd45dc7,2024-01-05_23h39.29.767,kallum_motion_pilot,2023.2.3,MacIntel,59.88023952,613ac4fcfa4b7e01abd45dc7,6598e6a5d84f07970b831e70,6598e76e7fa14c73800c3d3d,0.0149,0.0149,0,53,53,132,1,sevenfive,,,,,,,,,,,,,,,,,,,,,,,,,,,,,,,,,,,,,,,,,,,,,,,,,,,,,,,,,,,,,,,,,,,,,,,,,,,,,,,,,,,,,,,,,,,,,,,,,,,,,,,,,,,,,,,,,,,,,,,,,,,,,,,,,,,,,,,
,,613ac4fcfa4b7e01abd45dc7,2024-01-05_23h39.29.767,kallum_motion_pilot,2023.2.3,MacIntel,59.88023952,613ac4fcfa4b7e01abd45dc7,6598e6a5d84f07970b831e70,6598e76e7fa14c73800c3d3d,0.0149,0.0149,0,54,54,128,1,fivesix,,,,,,,,,,,,,,,,,,,,,,,,,,,,,,,,,,,,,,,,,,,,,,,,,,,,,,,,,,,,,,,,,,,,,,,,,,,,,,,,,,,,,,,,,,,,,,,,,,,,,,,,,,,,,,,,,,,,,,,,,,,,,,,,,,,,,,,
,,613ac4fcfa4b7e01abd45dc7,2024-01-05_23h39.29.767,kallum_motion_pilot,2023.2.3,MacIntel,59.88023952,613ac4fcfa4b7e01abd45dc7,6598e6a5d84f07970b831e70,6598e76e7fa14c73800c3d3d,0.0149,0.0149,0,55,55,112,1,fivesix,,,,,,,,,,,,,,,,,,,,,,,,,,,,,,,,,,,,,,,,,,,,,,,,,,,,,,,,,,,,,,,,,,,,,,,,,,,,,,,,,,,,,,,,,,,,,,,,,,,,,,,,,,,,,,,,,,,,,,,,,,,,,,,,,,,,,,,
,,613ac4fcfa4b7e01abd45dc7,2024-01-05_23h39.29.767,kallum_motion_pilot,2023.2.3,MacIntel,59.88023952,613ac4fcfa4b7e01abd45dc7,6598e6a5d84f07970b831e70,6598e76e7fa14c73800c3d3d,0.015,0.0151,0,56,56,146,1,sixfive,,,,,,,,,,,,,,,,,,,,,,,,,,,,,,,,,,,,,,,,,,,,,,,,,,,,,,,,,,,,,,,,,,,,,,,,,,,,,,,,,,,,,,,,,,,,,,,,,,,,,,,,,,,,,,,,,,,,,,,,,,,,,,,,,,,,,,,
,,613ac4fcfa4b7e01abd45dc7,2024-01-05_23h39.29.767,kallum_motion_pilot,2023.2.3,MacIntel,59.88023952,613ac4fcfa4b7e01abd45dc7,6598e6a5d84f07970b831e70,6598e76e7fa14c73800c3d3d,0.0151,0.0151,0,57,57,136,1,fivesix,,,,,,,,,,,,,,,,,,,,,,,,,,,,,,,,,,,,,,,,,,,,,,,,,,,,,,,,,,,,,,,,,,,,,,,,,,,,,,,,,,,,,,,,,,,,,,,,,,,,,,,,,,,,,,,,,,,,,,,,,,,,,,,,,,,,,,,
,,613ac4fcfa4b7e01abd45dc7,2024-01-05_23h39.29.767,kallum_motion_pilot,2023.2.3,MacIntel,59.88023952,613ac4fcfa4b7e01abd45dc7,6598e6a5d84f07970b831e70,6598e76e7fa14c73800c3d3d,0.0151,0.0151,0,58,58,115,1,sixeight,,,,,,,,,,,,,,,,,,,,,,,,,,,,,,,,,,,,,,,,,,,,,,,,,,,,,,,,,,,,,,,,,,,,,,,,,,,,,,,,,,,,,,,,,,,,,,,,,,,,,,,,,,,,,,,,,,,,,,,,,,,,,,,,,,,,,,,
,,613ac4fcfa4b7e01abd45dc7,2024-01-05_23h39.29.767,kallum_motion_pilot,2023.2.3,MacIntel,59.88023952,613ac4fcfa4b7e01abd45dc7,6598e6a5d84f07970b831e70,6598e76e7fa14c73800c3d3d,0.0152,0.0153,0,59,59,33,1,onethree,,,,,,,,,,,,,,,,,,,,,,,,,,,,,,,,,,,,,,,,,,,,,,,,,,,,,,,,,,,,,,,,,,,,,,,,,,,,,,,,,,,,,,,,,,,,,,,,,,,,,,,,,,,,,,,,,,,,,,,,,,,,,,,,,,,,,,,
,,613ac4fcfa4b7e01abd45dc7,2024-01-05_23h39.29.767,kallum_motion_pilot,2023.2.3,MacIntel,59.88023952,613ac4fcfa4b7e01abd45dc7,6598e6a5d84f07970b831e70,6598e76e7fa14c73800c3d3d,0.0153,0.0153,0,60,60,29,1,threefour,,,,,,,,,,,,,,,,,,,,,,,,,,,,,,,,,,,,,,,,,,,,,,,,,,,,,,,,,,,,,,,,,,,,,,,,,,,,,,,,,,,,,,,,,,,,,,,,,,,,,,,,,,,,,,,,,,,,,,,,,,,,,,,,,,,,,,,
,,613ac4fcfa4b7e01abd45dc7,2024-01-05_23h39.29.767,kallum_motion_pilot,2023.2.3,MacIntel,59.88023952,613ac4fcfa4b7e01abd45dc7,6598e6a5d84f07970b831e70,6598e76e7fa14c73800c3d3d,0.0154,0.0154,0,61,61,127,1,eightseven,,,,,,,,,,,,,,,,,,,,,,,,,,,,,,,,,,,,,,,,,,,,,,,,,,,,,,,,,,,,,,,,,,,,,,,,,,,,,,,,,,,,,,,,,,,,,,,,,,,,,,,,,,,,,,,,,,,,,,,,,,,,,,,,,,,,,,,
,,613ac4fcfa4b7e01abd45dc7,2024-01-05_23h39.29.767,kallum_motion_pilot,2023.2.3,MacIntel,59.88023952,613ac4fcfa4b7e01abd45dc7,6598e6a5d84f07970b831e70,6598e76e7fa14c73800c3d3d,0.0154,0.0154,0,62,62,90,1,sixfive,,,,,,,,,,,,,,,,,,,,,,,,,,,,,,,,,,,,,,,,,,,,,,,,,,,,,,,,,,,,,,,,,,,,,,,,,,,,,,,,,,,,,,,,,,,,,,,,,,,,,,,,,,,,,,,,,,,,,,,,,,,,,,,,,,,,,,,
,,613ac4fcfa4b7e01abd45dc7,2024-01-05_23h39.29.767,kallum_motion_pilot,2023.2.3,MacIntel,59.88023952,613ac4fcfa4b7e01abd45dc7,6598e6a5d84f07970b831e70,6598e76e7fa14c73800c3d3d,0.0155,0.0155,0,63,63,157,1,seveneight,,,,,,,,,,,,,,,,,,,,,,,,,,,,,,,,,,,,,,,,,,,,,,,,,,,,,,,,,,,,,,,,,,,,,,,,,,,,,,,,,,,,,,,,,,,,,,,,,,,,,,,,,,,,,,,,,,,,,,,,,,,,,,,,,,,,,,,
,,613ac4fcfa4b7e01abd45dc7,2024-01-05_23h39.29.767,kallum_motion_pilot,2023.2.3,MacIntel,59.88023952,613ac4fcfa4b7e01abd45dc7,6598e6a5d84f07970b831e70,6598e76e7fa14c73800c3d3d,0.0155,0.0155,0,64,64,99,1,sixeight,,,,,,,,,,,,,,,,,,,,,,,,,,,,,,,,,,,,,,,,,,,,,,,,,,,,,,,,,,,,,,,,,,,,,,,,,,,,,,,,,,,,,,,,,,,,,,,,,,,,,,,,,,,,,,,,,,,,,,,,,,,,,,,,,,,,,,,
,,613ac4fcfa4b7e01abd45dc7,2024-01-05_23h39.29.767,kallum_motion_pilot,2023.2.3,MacIntel,59.88023952,613ac4fcfa4b7e01abd45dc7,6598e6a5d84f07970b831e70,6598e76e7fa14c73800c3d3d,0.0156,0.0156,0,65,65,0,1,onetwo,,,,,,,,,,,,,,,,,,,,,,,,,,,,,,,,,,,,,,,,,,,,,,,,,,,,,,,,,,,,,,,,,,,,,,,,,,,,,,,,,,,,,,,,,,,,,,,,,,,,,,,,,,,,,,,,,,,,,,,,,,,,,,,,,,,,,,,
,,613ac4fcfa4b7e01abd45dc7,2024-01-05_23h39.29.767,kallum_motion_pilot,2023.2.3,MacIntel,59.88023952,613ac4fcfa4b7e01abd45dc7,6598e6a5d84f07970b831e70,6598e76e7fa14c73800c3d3d,0.0156,0.0156,0,66,66,106,1,sixfive,,,,,,,,,,,,,,,,,,,,,,,,,,,,,,,,,,,,,,,,,,,,,,,,,,,,,,,,,,,,,,,,,,,,,,,,,,,,,,,,,,,,,,,,,,,,,,,,,,,,,,,,,,,,,,,,,,,,,,,,,,,,,,,,,,,,,,,
,,613ac4fcfa4b7e01abd45dc7,2024-01-05_23h39.29.767,kallum_motion_pilot,2023.2.3,MacIntel,59.88023952,613ac4fcfa4b7e01abd45dc7,6598e6a5d84f07970b831e70,6598e76e7fa14c73800c3d3d,0.0157,0.0161,0,67,67,36,1,threeone,,,,,,,,,,,,,,,,,,,,,,,,,,,,,,,,,,,,,,,,,,,,,,,,,,,,,,,,,,,,,,,,,,,,,,,,,,,,,,,,,,,,,,,,,,,,,,,,,,,,,,,,,,,,,,,,,,,,,,,,,,,,,,,,,,,,,,,
,,613ac4fcfa4b7e01abd45dc7,2024-01-05_23h39.29.767,kallum_motion_pilot,2023.2.3,MacIntel,59.88023952,613ac4fcfa4b7e01abd45dc7,6598e6a5d84f07970b831e70,6598e76e7fa14c73800c3d3d,0.0161,0.0161,0,68,68,48,1,onetwo,,,,,,,,,,,,,,,,,,,,,,,,,,,,,,,,,,,,,,,,,,,,,,,,,,,,,,,,,,,,,,,,,,,,,,,,,,,,,,,,,,,,,,,,,,,,,,,,,,,,,,,,,,,,,,,,,,,,,,,,,,,,,,,,,,,,,,,
,,613ac4fcfa4b7e01abd45dc7,2024-01-05_23h39.29.767,kallum_motion_pilot,2023.2.3,MacIntel,59.88023952,613ac4fcfa4b7e01abd45dc7,6598e6a5d84f07970b831e70,6598e76e7fa14c73800c3d3d,0.0162,0.0162,0,69,69,68,1,threeone,,,,,,,,,,,,,,,,,,,,,,,,,,,,,,,,,,,,,,,,,,,,,,,,,,,,,,,,,,,,,,,,,,,,,,,,,,,,,,,,,,,,,,,,,,,,,,,,,,,,,,,,,,,,,,,,,,,,,,,,,,,,,,,,,,,,,,,
,,613ac4fcfa4b7e01abd45dc7,2024-01-05_23h39.29.767,kallum_motion_pilot,2023.2.3,MacIntel,59.88023952,613ac4fcfa4b7e01abd45dc7,6598e6a5d84f07970b831e70,6598e76e7fa14c73800c3d3d,0.0162,0.0163,0,70,70,102,1,eightsix,,,,,,,,,,,,,,,,,,,,,,,,,,,,,,,,,,,,,,,,,,,,,,,,,,,,,,,,,,,,,,,,,,,,,,,,,,,,,,,,,,,,,,,,,,,,,,,,,,,,,,,,,,,,,,,,,,,,,,,,,,,,,,,,,,,,,,,
,,613ac4fcfa4b7e01abd45dc7,2024-01-05_23h39.29.767,kallum_motion_pilot,2023.2.3,MacIntel,59.88023952,613ac4fcfa4b7e01abd45dc7,6598e6a5d84f07970b831e70,6598e76e7fa14c73800c3d3d,0.0163,0.0163,0,71,71,15,1,fourthree,,,,,,,,,,,,,,,,,,,,,,,,,,,,,,,,,,,,,,,,,,,,,,,,,,,,,,,,,,,,,,,,,,,,,,,,,,,,,,,,,,,,,,,,,,,,,,,,,,,,,,,,,,,,,,,,,,,,,,,,,,,,,,,,,,,,,,,
,,613ac4fcfa4b7e01abd45dc7,2024-01-05_23h39.29.767,kallum_motion_pilot,2023.2.3,MacIntel,59.88023952,613ac4fcfa4b7e01abd45dc7,6598e6a5d84f07970b831e70,6598e76e7fa14c73800c3d3d,0.0164,0.0164,0,72,72,160,1,fivesix,,,,,,,,,,,,,,,,,,,,,,,,,,,,,,,,,,,,,,,,,,,,,,,,,,,,,,,,,,,,,,,,,,,,,,,,,,,,,,,,,,,,,,,,,,,,,,,,,,,,,,,,,,,,,,,,,,,,,,,,,,,,,,,,,,,,,,,
,,613ac4fcfa4b7e01abd45dc7,2024-01-05_23h39.29.767,kallum_motion_pilot,2023.2.3,MacIntel,59.88023952,613ac4fcfa4b7e01abd45dc7,6598e6a5d84f07970b831e70,6598e76e7fa14c73800c3d3d,0.0164,0.0164,0,73,73,1,1,onethree,,,,,,,,,,,,,,,,,,,,,,,,,,,,,,,,,,,,,,,,,,,,,,,,,,,,,,,,,,,,,,,,,,,,,,,,,,,,,,,,,,,,,,,,,,,,,,,,,,,,,,,,,,,,,,,,,,,,,,,,,,,,,,,,,,,,,,,
,,613ac4fcfa4b7e01abd45dc7,2024-01-05_23h39.29.767,kallum_motion_pilot,2023.2.3,MacIntel,59.88023952,613ac4fcfa4b7e01abd45dc7,6598e6a5d84f07970b831e70,6598e76e7fa14c73800c3d3d,0.0164,0.0165,0,74,74,55,1,fourthree,,,,,,,,,,,,,,,,,,,,,,,,,,,,,,,,,,,,,,,,,,,,,,,,,,,,,,,,,,,,,,,,,,,,,,,,,,,,,,,,,,,,,,,,,,,,,,,,,,,,,,,,,,,,,,,,,,,,,,,,,,,,,,,,,,,,,,,
,,613ac4fcfa4b7e01abd45dc7,2024-01-05_23h39.29.767,kallum_motion_pilot,2023.2.3,MacIntel,59.88023952,613ac4fcfa4b7e01abd45dc7,6598e6a5d84f07970b831e70,6598e76e7fa14c73800c3d3d,0.0165,0.0165,0,75,75,65,1,onethree,,,,,,,,,,,,,,,,,,,,,,,,,,,,,,,,,,,,,,,,,,,,,,,,,,,,,,,,,,,,,,,,,,,,,,,,,,,,,,,,,,,,,,,,,,,,,,,,,,,,,,,,,,,,,,,,,,,,,,,,,,,,,,,,,,,,,,,
,,613ac4fcfa4b7e01abd45dc7,2024-01-05_23h39.29.767,kallum_motion_pilot,2023.2.3,MacIntel,59.88023952,613ac4fcfa4b7e01abd45dc7,6598e6a5d84f07970b831e70,6598e76e7fa14c73800c3d3d,0.0165,0.0165,0,76,76,59,1,twofour,,,,,,,,,,,,,,,,,,,,,,,,,,,,,,,,,,,,,,,,,,,,,,,,,,,,,,,,,,,,,,,,,,,,,,,,,,,,,,,,,,,,,,,,,,,,,,,,,,,,,,,,,,,,,,,,,,,,,,,,,,,,,,,,,,,,,,,
,,613ac4fcfa4b7e01abd45dc7,2024-01-05_23h39.29.767,kallum_motion_pilot,2023.2.3,MacIntel,59.88023952,613ac4fcfa4b7e01abd45dc7,6598e6a5d84f07970b831e70,6598e76e7fa14c73800c3d3d,0.0165,0.0165,0,77,77,44,1,threeone,,,,,,,,,,,,,,,,,,,,,,,,,,,,,,,,,,,,,,,,,,,,,,,,,,,,,,,,,,,,,,,,,,,,,,,,,,,,,,,,,,,,,,,,,,,,,,,,,,,,,,,,,,,,,,,,,,,,,,,,,,,,,,,,,,,,,,,
,,613ac4fcfa4b7e01abd45dc7,2024-01-05_23h39.29.767,kallum_motion_pilot,2023.2.3,MacIntel,59.88023952,613ac4fcfa4b7e01abd45dc7,6598e6a5d84f07970b831e70,6598e76e7fa14c73800c3d3d,0.0166,0.0166,0,78,78,86,1,eightsix,,,,,,,,,,,,,,,,,,,,,,,,,,,,,,,,,,,,,,,,,,,,,,,,,,,,,,,,,,,,,,,,,,,,,,,,,,,,,,,,,,,,,,,,,,,,,,,,,,,,,,,,,,,,,,,,,,,,,,,,,,,,,,,,,,,,,,,
,,613ac4fcfa4b7e01abd45dc7,2024-01-05_23h39.29.767,kallum_motion_pilot,2023.2.3,MacIntel,59.88023952,613ac4fcfa4b7e01abd45dc7,6598e6a5d84f07970b831e70,6598e76e7fa14c73800c3d3d,0.0167,0.0167,0,79,79,43,1,twofour,,,,,,,,,,,,,,,,,,,,,,,,,,,,,,,,,,,,,,,,,,,,,,,,,,,,,,,,,,,,,,,,,,,,,,,,,,,,,,,,,,,,,,,,,,,,,,,,,,,,,,,,,,,,,,,,,,,,,,,,,,,,,,,,,,,,,,,
,,613ac4fcfa4b7e01abd45dc7,2024-01-05_23h39.29.767,kallum_motion_pilot,2023.2.3,MacIntel,59.88023952,613ac4fcfa4b7e01abd45dc7,6598e6a5d84f07970b831e70,6598e76e7fa14c73800c3d3d,0.0167,0.0167,0,80,80,145,1,fiveseven,,,,,,,,,,,,,,,,,,,,,,,,,,,,,,,,,,,,,,,,,,,,,,,,,,,,,,,,,,,,,,,,,,,,,,,,,,,,,,,,,,,,,,,,,,,,,,,,,,,,,,,,,,,,,,,,,,,,,,,,,,,,,,,,,,,,,,,
,,613ac4fcfa4b7e01abd45dc7,2024-01-05_23h39.29.767,kallum_motion_pilot,2023.2.3,MacIntel,59.88023952,613ac4fcfa4b7e01abd45dc7,6598e6a5d84f07970b831e70,6598e76e7fa14c73800c3d3d,0.0167,0.0167,0,81,81,35,1,twofour,,,,,,,,,,,,,,,,,,,,,,,,,,,,,,,,,,,,,,,,,,,,,,,,,,,,,,,,,,,,,,,,,,,,,,,,,,,,,,,,,,,,,,,,,,,,,,,,,,,,,,,,,,,,,,,,,,,,,,,,,,,,,,,,,,,,,,,
,,613ac4fcfa4b7e01abd45dc7,2024-01-05_23h39.29.767,kallum_motion_pilot,2023.2.3,MacIntel,59.88023952,613ac4fcfa4b7e01abd45dc7,6598e6a5d84f07970b831e70,6598e76e7fa14c73800c3d3d,0.0168,0.0169,0,82,82,143,1,eightseven,,,,,,,,,,,,,,,,,,,,,,,,,,,,,,,,,,,,,,,,,,,,,,,,,,,,,,,,,,,,,,,,,,,,,,,,,,,,,,,,,,,,,,,,,,,,,,,,,,,,,,,,,,,,,,,,,,,,,,,,,,,,,,,,,,,,,,,
,,613ac4fcfa4b7e01abd45dc7,2024-01-05_23h39.29.767,kallum_motion_pilot,2023.2.3,MacIntel,59.88023952,613ac4fcfa4b7e01abd45dc7,6598e6a5d84f07970b831e70,6598e76e7fa14c73800c3d3d,0.0169,0.0169,0,83,83,89,1,fiveseven,,,,,,,,,,,,,,,,,,,,,,,,,,,,,,,,,,,,,,,,,,,,,,,,,,,,,,,,,,,,,,,,,,,,,,,,,,,,,,,,,,,,,,,,,,,,,,,,,,,,,,,,,,,,,,,,,,,,,,,,,,,,,,,,,,,,,,,
,,613ac4fcfa4b7e01abd45dc7,2024-01-05_23h39.29.767,kallum_motion_pilot,2023.2.3,MacIntel,59.88023952,613ac4fcfa4b7e01abd45dc7,6598e6a5d84f07970b831e70,6598e76e7fa14c73800c3d3d,0.0169,0.017,0,84,84,34,1,twoone,,,,,,,,,,,,,,,,,,,,,,,,,,,,,,,,,,,,,,,,,,,,,,,,,,,,,,,,,,,,,,,,,,,,,,,,,,,,,,,,,,,,,,,,,,,,,,,,,,,,,,,,,,,,,,,,,,,,,,,,,,,,,,,,,,,,,,,
,,613ac4fcfa4b7e01abd45dc7,2024-01-05_23h39.29.767,kallum_motion_pilot,2023.2.3,MacIntel,59.88023952,613ac4fcfa4b7e01abd45dc7,6598e6a5d84f07970b831e70,6598e76e7fa14c73800c3d3d,0.017,0.017,0,85,85,20,1,threeone,,,,,,,,,,,,,,,,,,,,,,,,,,,,,,,,,,,,,,,,,,,,,,,,,,,,,,,,,,,,,,,,,,,,,,,,,,,,,,,,,,,,,,,,,,,,,,,,,,,,,,,,,,,,,,,,,,,,,,,,,,,,,,,,,,,,,,,
,,613ac4fcfa4b7e01abd45dc7,2024-01-05_23h39.29.767,kallum_motion_pilot,2023.2.3,MacIntel,59.88023952,613ac4fcfa4b7e01abd45dc7,6598e6a5d84f07970b831e70,6598e76e7fa14c73800c3d3d,0.017,0.0171,0,86,86,54,1,fourtwo,,,,,,,,,,,,,,,,,,,,,,,,,,,,,,,,,,,,,,,,,,,,,,,,,,,,,,,,,,,,,,,,,,,,,,,,,,,,,,,,,,,,,,,,,,,,,,,,,,,,,,,,,,,,,,,,,,,,,,,,,,,,,,,,,,,,,,,
,,613ac4fcfa4b7e01abd45dc7,2024-01-05_23h39.29.767,kallum_motion_pilot,2023.2.3,MacIntel,59.88023952,613ac4fcfa4b7e01abd45dc7,6598e6a5d84f07970b831e70,6598e76e7fa14c73800c3d3d,0.0171,0.0172,0,87,87,103,1,eightseven,,,,,,,,,,,,,,,,,,,,,,,,,,,,,,,,,,,,,,,,,,,,,,,,,,,,,,,,,,,,,,,,,,,,,,,,,,,,,,,,,,,,,,,,,,,,,,,,,,,,,,,,,,,,,,,,,,,,,,,,,,,,,,,,,,,,,,,
,,613ac4fcfa4b7e01abd45dc7,2024-01-05_23h39.29.767,kallum_motion_pilot,2023.2.3,MacIntel,59.88023952,613ac4fcfa4b7e01abd45dc7,6598e6a5d84f07970b831e70,6598e76e7fa14c73800c3d3d,0.0172,0.0172,0,88,88,13,1,threefour,,,,,,,,,,,,,,,,,,,,,,,,,,,,,,,,,,,,,,,,,,,,,,,,,,,,,,,,,,,,,,,,,,,,,,,,,,,,,,,,,,,,,,,,,,,,,,,,,,,,,,,,,,,,,,,,,,,,,,,,,,,,,,,,,,,,,,,
,,613ac4fcfa4b7e01abd45dc7,2024-01-05_23h39.29.767,kallum_motion_pilot,2023.2.3,MacIntel,59.88023952,613ac4fcfa4b7e01abd45dc7,6598e6a5d84f07970b831e70,6598e76e7fa14c73800c3d3d,0.0172,0.0172,0,89,89,70,1,fourtwo,,,,,,,,,,,,,,,,,,,,,,,,,,,,,,,,,,,,,,,,,,,,,,,,,,,,,,,,,,,,,,,,,,,,,,,,,,,,,,,,,,,,,,,,,,,,,,,,,,,,,,,,,,,,,,,,,,,,,,,,,,,,,,,,,,,,,,,
,,613ac4fcfa4b7e01abd45dc7,2024-01-05_23h39.29.767,kallum_motion_pilot,2023.2.3,MacIntel,59.88023952,613ac4fcfa4b7e01abd45dc7,6598e6a5d84f07970b831e70,6598e76e7fa14c73800c3d3d,0.0173,0.0173,0,90,90,95,1,eightseven,,,,,,,,,,,,,,,,,,,,,,,,,,,,,,,,,,,,,,,,,,,,,,,,,,,,,,,,,,,,,,,,,,,,,,,,,,,,,,,,,,,,,,,,,,,,,,,,,,,,,,,,,,,,,,,,,,,,,,,,,,,,,,,,,,,,,,,
,,613ac4fcfa4b7e01abd45dc7,2024-01-05_23h39.29.767,kallum_motion_pilot,2023.2.3,MacIntel,59.88023952,613ac4fcfa4b7e01abd45dc7,6598e6a5d84f07970b831e70,6598e76e7fa14c73800c3d3d,0.0174,0.0174,0,91,91,134,1,eightsix,,,,,,,,,,,,,,,,,,,,,,,,,,,,,,,,,,,,,,,,,,,,,,,,,,,,,,,,,,,,,,,,,,,,,,,,,,,,,,,,,,,,,,,,,,,,,,,,,,,,,,,,,,,,,,,,,,,,,,,,,,,,,,,,,,,,,,,
,,613ac4fcfa4b7e01abd45dc7,2024-01-05_23h39.29.767,kallum_motion_pilot,2023.2.3,MacIntel,59.88023952,613ac4fcfa4b7e01abd45dc7,6598e6a5d84f07970b831e70,6598e76e7fa14c73800c3d3d,0.0174,0.0174,0,92,92,85,1,seveneight,,,,,,,,,,,,,,,,,,,,,,,,,,,,,,,,,,,,,,,,,,,,,,,,,,,,,,,,,,,,,,,,,,,,,,,,,,,,,,,,,,,,,,,,,,,,,,,,,,,,,,,,,,,,,,,,,,,,,,,,,,,,,,,,,,,,,,,
,,613ac4fcfa4b7e01abd45dc7,2024-01-05_23h39.29.767,kallum_motion_pilot,2023.2.3,MacIntel,59.88023952,613ac4fcfa4b7e01abd45dc7,6598e6a5d84f07970b831e70,6598e76e7fa14c73800c3d3d,0.0175,0.0175,0,93,93,42,1,twoone,,,,,,,,,,,,,,,,,,,,,,,,,,,,,,,,,,,,,,,,,,,,,,,,,,,,,,,,,,,,,,,,,,,,,,,,,,,,,,,,,,,,,,,,,,,,,,,,,,,,,,,,,,,,,,,,,,,,,,,,,,,,,,,,,,,,,,,
,,613ac4fcfa4b7e01abd45dc7,2024-01-05_23h39.29.767,kallum_motion_pilot,2023.2.3,MacIntel,59.88023952,613ac4fcfa4b7e01abd45dc7,6598e6a5d84f07970b831e70,6598e76e7fa14c73800c3d3d,0.0175,0.0175,0,94,94,18,1,twoone,,,,,,,,,,,,,,,,,,,,,,,,,,,,,,,,,,,,,,,,,,,,,,,,,,,,,,,,,,,,,,,,,,,,,,,,,,,,,,,,,,,,,,,,,,,,,,,,,,,,,,,,,,,,,,,,,,,,,,,,,,,,,,,,,,,,,,,
,,613ac4fcfa4b7e01abd45dc7,2024-01-05_23h39.29.767,kallum_motion_pilot,2023.2.3,MacIntel,59.88023952,613ac4fcfa4b7e01abd45dc7,6598e6a5d84f07970b831e70,6598e76e7fa14c73800c3d3d,0.0176,0.0176,0,95,95,124,1,sevenfive,,,,,,,,,,,,,,,,,,,,,,,,,,,,,,,,,,,,,,,,,,,,,,,,,,,,,,,,,,,,,,,,,,,,,,,,,,,,,,,,,,,,,,,,,,,,,,,,,,,,,,,,,,,,,,,,,,,,,,,,,,,,,,,,,,,,,,,
,,613ac4fcfa4b7e01abd45dc7,2024-01-05_23h39.29.767,kallum_motion_pilot,2023.2.3,MacIntel,59.88023952,613ac4fcfa4b7e01abd45dc7,6598e6a5d84f07970b831e70,6598e76e7fa14c73800c3d3d,0.0176,0.0176,0,96,96,60,1,threeone,,,,,,,,,,,,,,,,,,,,,,,,,,,,,,,,,,,,,,,,,,,,,,,,,,,,,,,,,,,,,,,,,,,,,,,,,,,,,,,,,,,,,,,,,,,,,,,,,,,,,,,,,,,,,,,,,,,,,,,,,,,,,,,,,,,,,,,
,,613ac4fcfa4b7e01abd45dc7,2024-01-05_23h39.29.767,kallum_motion_pilot,2023.2.3,MacIntel,59.88023952,613ac4fcfa4b7e01abd45dc7,6598e6a5d84f07970b831e70,6598e76e7fa14c73800c3d3d,0.0176,0.0176,0,97,97,156,1,sevenfive,,,,,,,,,,,,,,,,,,,,,,,,,,,,,,,,,,,,,,,,,,,,,,,,,,,,,,,,,,,,,,,,,,,,,,,,,,,,,,,,,,,,,,,,,,,,,,,,,,,,,,,,,,,,,,,,,,,,,,,,,,,,,,,,,,,,,,,
,,613ac4fcfa4b7e01abd45dc7,2024-01-05_23h39.29.767,kallum_motion_pilot,2023.2.3,MacIntel,59.88023952,613ac4fcfa4b7e01abd45dc7,6598e6a5d84f07970b831e70,6598e76e7fa14c73800c3d3d,0.0177,0.0178,0,98,98,126,1,eightsix,,,,,,,,,,,,,,,,,,,,,,,,,,,,,,,,,,,,,,,,,,,,,,,,,,,,,,,,,,,,,,,,,,,,,,,,,,,,,,,,,,,,,,,,,,,,,,,,,,,,,,,,,,,,,,,,,,,,,,,,,,,,,,,,,,,,,,,
,,613ac4fcfa4b7e01abd45dc7,2024-01-05_23h39.29.767,kallum_motion_pilot,2023.2.3,MacIntel,59.88023952,613ac4fcfa4b7e01abd45dc7,6598e6a5d84f07970b831e70,6598e76e7fa14c73800c3d3d,0.0178,0.0178,0,99,99,113,1,fiveseven,,,,,,,,,,,,,,,,,,,,,,,,,,,,,,,,,,,,,,,,,,,,,,,,,,,,,,,,,,,,,,,,,,,,,,,,,,,,,,,,,,,,,,,,,,,,,,,,,,,,,,,,,,,,,,,,,,,,,,,,,,,,,,,,,,,,,,,
,,613ac4fcfa4b7e01abd45dc7,2024-01-05_23h39.29.767,kallum_motion_pilot,2023.2.3,MacIntel,59.88023952,613ac4fcfa4b7e01abd45dc7,6598e6a5d84f07970b831e70,6598e76e7fa14c73800c3d3d,0.0178,0.0178,0,100,100,77,1,threefour,,,,,,,,,,,,,,,,,,,,,,,,,,,,,,,,,,,,,,,,,,,,,,,,,,,,,,,,,,,,,,,,,,,,,,,,,,,,,,,,,,,,,,,,,,,,,,,,,,,,,,,,,,,,,,,,,,,,,,,,,,,,,,,,,,,,,,,
,,613ac4fcfa4b7e01abd45dc7,2024-01-05_23h39.29.767,kallum_motion_pilot,2023.2.3,MacIntel,59.88023952,613ac4fcfa4b7e01abd45dc7,6598e6a5d84f07970b831e70,6598e76e7fa14c73800c3d3d,0.0178,0.0178,0,101,101,67,1,twofour,,,,,,,,,,,,,,,,,,,,,,,,,,,,,,,,,,,,,,,,,,,,,,,,,,,,,,,,,,,,,,,,,,,,,,,,,,,,,,,,,,,,,,,,,,,,,,,,,,,,,,,,,,,,,,,,,,,,,,,,,,,,,,,,,,,,,,,
,,613ac4fcfa4b7e01abd45dc7,2024-01-05_23h39.29.767,kallum_motion_pilot,2023.2.3,MacIntel,59.88023952,613ac4fcfa4b7e01abd45dc7,6598e6a5d84f07970b831e70,6598e76e7fa14c73800c3d3d,0.0179,0.0179,0,102,102,144,1,fivesix,,,,,,,,,,,,,,,,,,,,,,,,,,,,,,,,,,,,,,,,,,,,,,,,,,,,,,,,,,,,,,,,,,,,,,,,,,,,,,,,,,,,,,,,,,,,,,,,,,,,,,,,,,,,,,,,,,,,,,,,,,,,,,,,,,,,,,,
,,613ac4fcfa4b7e01abd45dc7,2024-01-05_23h39.29.767,kallum_motion_pilot,2023.2.3,MacIntel,59.88023952,613ac4fcfa4b7e01abd45dc7,6598e6a5d84f07970b831e70,6598e76e7fa14c73800c3d3d,0.0179,0.018,0,103,103,73,1,onethree,,,,,,,,,,,,,,,,,,,,,,,,,,,,,,,,,,,,,,,,,,,,,,,,,,,,,,,,,,,,,,,,,,,,,,,,,,,,,,,,,,,,,,,,,,,,,,,,,,,,,,,,,,,,,,,,,,,,,,,,,,,,,,,,,,,,,,,
,,613ac4fcfa4b7e01abd45dc7,2024-01-05_23h39.29.767,kallum_motion_pilot,2023.2.3,MacIntel,59.88023952,613ac4fcfa4b7e01abd45dc7,6598e6a5d84f07970b831e70,6598e76e7fa14c73800c3d3d,0.0181,0.0181,0,104,104,155,1,sixeight,,,,,,,,,,,,,,,,,,,,,,,,,,,,,,,,,,,,,,,,,,,,,,,,,,,,,,,,,,,,,,,,,,,,,,,,,,,,,,,,,,,,,,,,,,,,,,,,,,,,,,,,,,,,,,,,,,,,,,,,,,,,,,,,,,,,,,,
,,613ac4fcfa4b7e01abd45dc7,2024-01-05_23h39.29.767,kallum_motion_pilot,2023.2.3,MacIntel,59.88023952,613ac4fcfa4b7e01abd45dc7,6598e6a5d84f07970b831e70,6598e76e7fa14c73800c3d3d,0.0181,0.0181,0,105,105,141,1,seveneight,,,,,,,,,,,,,,,,,,,,,,,,,,,,,,,,,,,,,,,,,,,,,,,,,,,,,,,,,,,,,,,,,,,,,,,,,,,,,,,,,,,,,,,,,,,,,,,,,,,,,,,,,,,,,,,,,,,,,,,,,,,,,,,,,,,,,,,
,,613ac4fcfa4b7e01abd45dc7,2024-01-05_23h39.29.767,kallum_motion_pilot,2023.2.3,MacIntel,59.88023952,613ac4fcfa4b7e01abd45dc7,6598e6a5d84f07970b831e70,6598e76e7fa14c73800c3d3d,0.0182,0.0182,0,106,106,152,1,fivesix,,,,,,,,,,,,,,,,,,,,,,,,,,,,,,,,,,,,,,,,,,,,,,,,,,,,,,,,,,,,,,,,,,,,,,,,,,,,,,,,,,,,,,,,,,,,,,,,,,,,,,,,,,,,,,,,,,,,,,,,,,,,,,,,,,,,,,,
,,613ac4fcfa4b7e01abd45dc7,2024-01-05_23h39.29.767,kallum_motion_pilot,2023.2.3,MacIntel,59.88023952,613ac4fcfa4b7e01abd45dc7,6598e6a5d84f07970b831e70,6598e76e7fa14c73800c3d3d,0.0182,0.0182,0,107,107,5,1,threefour,,,,,,,,,,,,,,,,,,,,,,,,,,,,,,,,,,,,,,,,,,,,,,,,,,,,,,,,,,,,,,,,,,,,,,,,,,,,,,,,,,,,,,,,,,,,,,,,,,,,,,,,,,,,,,,,,,,,,,,,,,,,,,,,,,,,,,,
,,613ac4fcfa4b7e01abd45dc7,2024-01-05_23h39.29.767,kallum_motion_pilot,2023.2.3,MacIntel,59.88023952,613ac4fcfa4b7e01abd45dc7,6598e6a5d84f07970b831e70,6598e76e7fa14c73800c3d3d,0.0182,0.0182,0,108,108,7,1,fourthree,,,,,,,,,,,,,,,,,,,,,,,,,,,,,,,,,,,,,,,,,,,,,,,,,,,,,,,,,,,,,,,,,,,,,,,,,,,,,,,,,,,,,,,,,,,,,,,,,,,,,,,,,,,,,,,,,,,,,,,,,,,,,,,,,,,,,,,
,,613ac4fcfa4b7e01abd45dc7,2024-01-05_23h39.29.767,kallum_motion_pilot,2023.2.3,MacIntel,59.88023952,613ac4fcfa4b7e01abd45dc7,6598e6a5d84f07970b831e70,6598e76e7fa14c73800c3d3d,0.0183,0.0183,0,109,109,122,1,sixfive,,,,,,,,,,,,,,,,,,,,,,,,,,,,,,,,,,,,,,,,,,,,,,,,,,,,,,,,,,,,,,,,,,,,,,,,,,,,,,,,,,,,,,,,,,,,,,,,,,,,,,,,,,,,,,,,,,,,,,,,,,,,,,,,,,,,,,,
,,613ac4fcfa4b7e01abd45dc7,2024-01-05_23h39.29.767,kallum_motion_pilot,2023.2.3,MacIntel,59.88023952,613ac4fcfa4b7e01abd45dc7,6598e6a5d84f07970b831e70,6598e76e7fa14c73800c3d3d,0.0183,0.0183,0,110,110,27,1,twofour,,,,,,,,,,,,,,,,,,,,,,,,,,,,,,,,,,,,,,,,,,,,,,,,,,,,,,,,,,,,,,,,,,,,,,,,,,,,,,,,,,,,,,,,,,,,,,,,,,,,,,,,,,,,,,,,,,,,,,,,,,,,,,,,,,,,,,,
,,613ac4fcfa4b7e01abd45dc7,2024-01-05_23h39.29.767,kallum_motion_pilot,2023.2.3,MacIntel,59.88023952,613ac4fcfa4b7e01abd45dc7,6598e6a5d84f07970b831e70,6598e76e7fa14c73800c3d3d,0.0184,0.0184,0,111,111,161,1,fiveseven,,,,,,,,,,,,,,,,,,,,,,,,,,,,,,,,,,,,,,,,,,,,,,,,,,,,,,,,,,,,,,,,,,,,,,,,,,,,,,,,,,,,,,,,,,,,,,,,,,,,,,,,,,,,,,,,,,,,,,,,,,,,,,,,,,,,,,,
,,613ac4fcfa4b7e01abd45dc7,2024-01-05_23h39.29.767,kallum_motion_pilot,2023.2.3,MacIntel,59.88023952,613ac4fcfa4b7e01abd45dc7,6598e6a5d84f07970b831e70,6598e76e7fa14c73800c3d3d,0.0185,0.0185,0,112,112,109,1,seveneight,,,,,,,,,,,,,,,,,,,,,,,,,,,,,,,,,,,,,,,,,,,,,,,,,,,,,,,,,,,,,,,,,,,,,,,,,,,,,,,,,,,,,,,,,,,,,,,,,,,,,,,,,,,,,,,,,,,,,,,,,,,,,,,,,,,,,,,
,,613ac4fcfa4b7e01abd45dc7,2024-01-05_23h39.29.767,kallum_motion_pilot,2023.2.3,MacIntel,59.88023952,613ac4fcfa4b7e01abd45dc7,6598e6a5d84f07970b831e70,6598e76e7fa14c73800c3d3d,0.0185,0.0186,0,113,113,116,1,sevenfive,,,,,,,,,,,,,,,,,,,,,,,,,,,,,,,,,,,,,,,,,,,,,,,,,,,,,,,,,,,,,,,,,,,,,,,,,,,,,,,,,,,,,,,,,,,,,,,,,,,,,,,,,,,,,,,,,,,,,,,,,,,,,,,,,,,,,,,
,,613ac4fcfa4b7e01abd45dc7,2024-01-05_23h39.29.767,kallum_motion_pilot,2023.2.3,MacIntel,59.88023952,613ac4fcfa4b7e01abd45dc7,6598e6a5d84f07970b831e70,6598e76e7fa14c73800c3d3d,0.0186,0.0186,0,114,114,111,1,eightseven,,,,,,,,,,,,,,,,,,,,,,,,,,,,,,,,,,,,,,,,,,,,,,,,,,,,,,,,,,,,,,,,,,,,,,,,,,,,,,,,,,,,,,,,,,,,,,,,,,,,,,,,,,,,,,,,,,,,,,,,,,,,,,,,,,,,,,,
,,613ac4fcfa4b7e01abd45dc7,2024-01-05_23h39.29.767,kallum_motion_pilot,2023.2.3,MacIntel,59.88023952,613ac4fcfa4b7e01abd45dc7,6598e6a5d84f07970b831e70,6598e76e7fa14c73800c3d3d,0.0187,0.0187,0,115,115,71,1,fourthree,,,,,,,,,,,,,,,,,,,,,,,,,,,,,,,,,,,,,,,,,,,,,,,,,,,,,,,,,,,,,,,,,,,,,,,,,,,,,,,,,,,,,,,,,,,,,,,,,,,,,,,,,,,,,,,,,,,,,,,,,,,,,,,,,,,,,,,
,,613ac4fcfa4b7e01abd45dc7,2024-01-05_23h39.29.767,kallum_motion_pilot,2023.2.3,MacIntel,59.88023952,613ac4fcfa4b7e01abd45dc7,6598e6a5d84f07970b831e70,6598e76e7fa14c73800c3d3d,0.0187,0.0188,0,116,116,118,1,eightsix,,,,,,,,,,,,,,,,,,,,,,,,,,,,,,,,,,,,,,,,,,,,,,,,,,,,,,,,,,,,,,,,,,,,,,,,,,,,,,,,,,,,,,,,,,,,,,,,,,,,,,,,,,,,,,,,,,,,,,,,,,,,,,,,,,,,,,,
,,613ac4fcfa4b7e01abd45dc7,2024-01-05_23h39.29.767,kallum_motion_pilot,2023.2.3,MacIntel,59.88023952,613ac4fcfa4b7e01abd45dc7,6598e6a5d84f07970b831e70,6598e76e7fa14c73800c3d3d,0.0188,0.0188,0,117,117,26,1,twoone,,,,,,,,,,,,,,,,,,,,,,,,,,,,,,,,,,,,,,,,,,,,,,,,,,,,,,,,,,,,,,,,,,,,,,,,,,,,,,,,,,,,,,,,,,,,,,,,,,,,,,,,,,,,,,,,,,,,,,,,,,,,,,,,,,,,,,,
,,613ac4fcfa4b7e01abd45dc7,2024-01-05_23h39.29.767,kallum_motion_pilot,2023.2.3,MacIntel,59.88023952,613ac4fcfa4b7e01abd45dc7,6598e6a5d84f07970b831e70,6598e76e7fa14c73800c3d3d,0.0189,0.0189,0,118,118,17,1,onethree,,,,,,,,,,,,,,,,,,,,,,,,,,,,,,,,,,,,,,,,,,,,,,,,,,,,,,,,,,,,,,,,,,,,,,,,,,,,,,,,,,,,,,,,,,,,,,,,,,,,,,,,,,,,,,,,,,,,,,,,,,,,,,,,,,,,,,,
,,613ac4fcfa4b7e01abd45dc7,2024-01-05_23h39.29.767,kallum_motion_pilot,2023.2.3,MacIntel,59.88023952,613ac4fcfa4b7e01abd45dc7,6598e6a5d84f07970b831e70,6598e76e7fa14c73800c3d3d,0.0189,0.0189,0,119,119,101,1,seveneight,,,,,,,,,,,,,,,,,,,,,,,,,,,,,,,,,,,,,,,,,,,,,,,,,,,,,,,,,,,,,,,,,,,,,,,,,,,,,,,,,,,,,,,,,,,,,,,,,,,,,,,,,,,,,,,,,,,,,,,,,,,,,,,,,,,,,,,
,,613ac4fcfa4b7e01abd45dc7,2024-01-05_23h39.29.767,kallum_motion_pilot,2023.2.3,MacIntel,59.88023952,613ac4fcfa4b7e01abd45dc7,6598e6a5d84f07970b831e70,6598e76e7fa14c73800c3d3d,0.0189,0.019,0,120,120,120,1,fivesix,,,,,,,,,,,,,,,,,,,,,,,,,,,,,,,,,,,,,,,,,,,,,,,,,,,,,,,,,,,,,,,,,,,,,,,,,,,,,,,,,,,,,,,,,,,,,,,,,,,,,,,,,,,,,,,,,,,,,,,,,,,,,,,,,,,,,,,
,,613ac4fcfa4b7e01abd45dc7,2024-01-05_23h39.29.767,kallum_motion_pilot,2023.2.3,MacIntel,59.88023952,613ac4fcfa4b7e01abd45dc7,6598e6a5d84f07970b831e70,6598e76e7fa14c73800c3d3d,0.019,0.019,0,121,121,32,1,onetwo,,,,,,,,,,,,,,,,,,,,,,,,,,,,,,,,,,,,,,,,,,,,,,,,,,,,,,,,,,,,,,,,,,,,,,,,,,,,,,,,,,,,,,,,,,,,,,,,,,,,,,,,,,,,,,,,,,,,,,,,,,,,,,,,,,,,,,,
,,613ac4fcfa4b7e01abd45dc7,2024-01-05_23h39.29.767,kallum_motion_pilot,2023.2.3,MacIntel,59.88023952,613ac4fcfa4b7e01abd45dc7,6598e6a5d84f07970b831e70,6598e76e7fa14c73800c3d3d,0.0191,0.0191,0,122,122,147,1,sixeight,,,,,,,,,,,,,,,,,,,,,,,,,,,,,,,,,,,,,,,,,,,,,,,,,,,,,,,,,,,,,,,,,,,,,,,,,,,,,,,,,,,,,,,,,,,,,,,,,,,,,,,,,,,,,,,,,,,,,,,,,,,,,,,,,,,,,,,
,,613ac4fcfa4b7e01abd45dc7,2024-01-05_23h39.29.767,kallum_motion_pilot,2023.2.3,MacIntel,59.88023952,613ac4fcfa4b7e01abd45dc7,6598e6a5d84f07970b831e70,6598e76e7fa14c73800c3d3d,0.0191,0.0191,0,123,123,57,1,onethree,,,,,,,,,,,,,,,,,,,,,,,,,,,,,,,,,,,,,,,,,,,,,,,,,,,,,,,,,,,,,,,,,,,,,,,,,,,,,,,,,,,,,,,,,,,,,,,,,,,,,,,,,,,,,,,,,,,,,,,,,,,,,,,,,,,,,,,
,,613ac4fcfa4b7e01abd45dc7,2024-01-05_23h39.29.767,kallum_motion_pilot,2023.2.3,MacIntel,59.88023952,613ac4fcfa4b7e01abd45dc7,6598e6a5d84f07970b831e70,6598e76e7fa14c73800c3d3d,0.0192,0.0192,0,124,124,98,1,sixfive,,,,,,,,,,,,,,,,,,,,,,,,,,,,,,,,,,,,,,,,,,,,,,,,,,,,,,,,,,,,,,,,,,,,,,,,,,,,,,,,,,,,,,,,,,,,,,,,,,,,,,,,,,,,,,,,,,,,,,,,,,,,,,,,,,,,,,,
,,613ac4fcfa4b7e01abd45dc7,2024-01-05_23h39.29.767,kallum_motion_pilot,2023.2.3,MacIntel,59.88023952,613ac4fcfa4b7e01abd45dc7,6598e6a5d84f07970b831e70,6598e76e7fa14c73800c3d3d,0.0193,0.0193,0,125,125,47,1,fourthree,,,,,,,,,,,,,,,,,,,,,,,,,,,,,,,,,,,,,,,,,,,,,,,,,,,,,,,,,,,,,,,,,,,,,,,,,,,,,,,,,,,,,,,,,,,,,,,,,,,,,,,,,,,,,,,,,,,,,,,,,,,,,,,,,,,,,,,
,,613ac4fcfa4b7e01abd45dc7,2024-01-05_23h39.29.767,kallum_motion_pilot,2023.2.3,MacIntel,59.88023952,613ac4fcfa4b7e01abd45dc7,6598e6a5d84f07970b831e70,6598e76e7fa14c73800c3d3d,0.0193,0.0193,0,126,126,46,1,fourtwo,,,,,,,,,,,,,,,,,,,,,,,,,,,,,,,,,,,,,,,,,,,,,,,,,,,,,,,,,,,,,,,,,,,,,,,,,,,,,,,,,,,,,,,,,,,,,,,,,,,,,,,,,,,,,,,,,,,,,,,,,,,,,,,,,,,,,,,
,,613ac4fcfa4b7e01abd45dc7,2024-01-05_23h39.29.767,kallum_motion_pilot,2023.2.3,MacIntel,59.88023952,613ac4fcfa4b7e01abd45dc7,6598e6a5d84f07970b831e70,6598e76e7fa14c73800c3d3d,0.0194,0.0194,0,127,127,88,1,fivesix,,,,,,,,,,,,,,,,,,,,,,,,,,,,,,,,,,,,,,,,,,,,,,,,,,,,,,,,,,,,,,,,,,,,,,,,,,,,,,,,,,,,,,,,,,,,,,,,,,,,,,,,,,,,,,,,,,,,,,,,,,,,,,,,,,,,,,,
,,613ac4fcfa4b7e01abd45dc7,2024-01-05_23h39.29.767,kallum_motion_pilot,2023.2.3,MacIntel,59.88023952,613ac4fcfa4b7e01abd45dc7,6598e6a5d84f07970b831e70,6598e76e7fa14c73800c3d3d,0.0194,0.0195,0,128,128,8,1,onetwo,,,,,,,,,,,,,,,,,,,,,,,,,,,,,,,,,,,,,,,,,,,,,,,,,,,,,,,,,,,,,,,,,,,,,,,,,,,,,,,,,,,,,,,,,,,,,,,,,,,,,,,,,,,,,,,,,,,,,,,,,,,,,,,,,,,,,,,
,,613ac4fcfa4b7e01abd45dc7,2024-01-05_23h39.29.767,kallum_motion_pilot,2023.2.3,MacIntel,59.88023952,613ac4fcfa4b7e01abd45dc7,6598e6a5d84f07970b831e70,6598e76e7fa14c73800c3d3d,0.0195,0.0196,0,129,129,22,1,fourtwo,,,,,,,,,,,,,,,,,,,,,,,,,,,,,,,,,,,,,,,,,,,,,,,,,,,,,,,,,,,,,,,,,,,,,,,,,,,,,,,,,,,,,,,,,,,,,,,,,,,,,,,,,,,,,,,,,,,,,,,,,,,,,,,,,,,,,,,
,,613ac4fcfa4b7e01abd45dc7,2024-01-05_23h39.29.767,kallum_motion_pilot,2023.2.3,MacIntel,59.88023952,613ac4fcfa4b7e01abd45dc7,6598e6a5d84f07970b831e70,6598e76e7fa14c73800c3d3d,0.0196,0.0196,0,130,130,114,1,sixfive,,,,,,,,,,,,,,,,,,,,,,,,,,,,,,,,,,,,,,,,,,,,,,,,,,,,,,,,,,,,,,,,,,,,,,,,,,,,,,,,,,,,,,,,,,,,,,,,,,,,,,,,,,,,,,,,,,,,,,,,,,,,,,,,,,,,,,,
,,613ac4fcfa4b7e01abd45dc7,2024-01-05_23h39.29.767,kallum_motion_pilot,2023.2.3,MacIntel,59.88023952,613ac4fcfa4b7e01abd45dc7,6598e6a5d84f07970b831e70,6598e76e7fa14c73800c3d3d,0.0196,0.0196,0,131,131,133,1,seveneight,,,,,,,,,,,,,,,,,,,,,,,,,,,,,,,,,,,,,,,,,,,,,,,,,,,,,,,,,,,,,,,,,,,,,,,,,,,,,,,,,,,,,,,,,,,,,,,,,,,,,,,,,,,,,,,,,,,,,,,,,,,,,,,,,,,,,,,
,,613ac4fcfa4b7e01abd45dc7,2024-01-05_23h39.29.767,kallum_motion_pilot,2023.2.3,MacIntel,59.88023952,613ac4fcfa4b7e01abd45dc7,6598e6a5d84f07970b831e70,6598e76e7fa14c73800c3d3d,0.0196,0.0197,0,132,132,108,1,sevenfive,,,,,,,,,,,,,,,,,,,,,,,,,,,,,,,,,,,,,,,,,,,,,,,,,,,,,,,,,,,,,,,,,,,,,,,,,,,,,,,,,,,,,,,,,,,,,,,,,,,,,,,,,,,,,,,,,,,,,,,,,,,,,,,,,,,,,,,
,,613ac4fcfa4b7e01abd45dc7,2024-01-05_23h39.29.767,kallum_motion_pilot,2023.2.3,MacIntel,59.88023952,613ac4fcfa4b7e01abd45dc7,6598e6a5d84f07970b831e70,6598e76e7fa14c73800c3d3d,0.0197,0.0198,0,133,133,83,1,sixeight,,,,,,,,,,,,,,,,,,,,,,,,,,,,,,,,,,,,,,,,,,,,,,,,,,,,,,,,,,,,,,,,,,,,,,,,,,,,,,,,,,,,,,,,,,,,,,,,,,,,,,,,,,,,,,,,,,,,,,,,,,,,,,,,,,,,,,,
,,613ac4fcfa4b7e01abd45dc7,2024-01-05_23h39.29.767,kallum_motion_pilot,2023.2.3,MacIntel,59.88023952,613ac4fcfa4b7e01abd45dc7,6598e6a5d84f07970b831e70,6598e76e7fa14c73800c3d3d,0.0198,0.0198,0,134,134,87,1,eightseven,,,,,,,,,,,,,,,,,,,,,,,,,,,,,,,,,,,,,,,,,,,,,,,,,,,,,,,,,,,,,,,,,,,,,,,,,,,,,,,,,,,,,,,,,,,,,,,,,,,,,,,,,,,,,,,,,,,,,,,,,,,,,,,,,,,,,,,
,,613ac4fcfa4b7e01abd45dc7,2024-01-05_23h39.29.767,kallum_motion_pilot,2023.2.3,MacIntel,59.88023952,613ac4fcfa4b7e01abd45dc7,6598e6a5d84f07970b831e70,6598e76e7fa14c73800c3d3d,0.0199,0.0199,0,135,135,30,1,fourtwo,,,,,,,,,,,,,,,,,,,,,,,,,,,,,,,,,,,,,,,,,,,,,,,,,,,,,,,,,,,,,,,,,,,,,,,,,,,,,,,,,,,,,,,,,,,,,,,,,,,,,,,,,,,,,,,,,,,,,,,,,,,,,,,,,,,,,,,
,,613ac4fcfa4b7e01abd45dc7,2024-01-05_23h39.29.767,kallum_motion_pilot,2023.2.3,MacIntel,59.88023952,613ac4fcfa4b7e01abd45dc7,6598e6a5d84f07970b831e70,6598e76e7fa14c73800c3d3d,0.0199,0.0199,0,136,136,75,1,twofour,,,,,,,,,,,,,,,,,,,,,,,,,,,,,,,,,,,,,,,,,,,,,,,,,,,,,,,,,,,,,,,,,,,,,,,,,,,,,,,,,,,,,,,,,,,,,,,,,,,,,,,,,,,,,,,,,,,,,,,,,,,,,,,,,,,,,,,
,,613ac4fcfa4b7e01abd45dc7,2024-01-05_23h39.29.767,kallum_motion_pilot,2023.2.3,MacIntel,59.88023952,613ac4fcfa4b7e01abd45dc7,6598e6a5d84f07970b831e70,6598e76e7fa14c73800c3d3d,0.0199,0.02,0,137,137,64,1,onetwo,,,,,,,,,,,,,,,,,,,,,,,,,,,,,,,,,,,,,,,,,,,,,,,,,,,,,,,,,,,,,,,,,,,,,,,,,,,,,,,,,,,,,,,,,,,,,,,,,,,,,,,,,,,,,,,,,,,,,,,,,,,,,,,,,,,,,,,
,,613ac4fcfa4b7e01abd45dc7,2024-01-05_23h39.29.767,kallum_motion_pilot,2023.2.3,MacIntel,59.88023952,613ac4fcfa4b7e01abd45dc7,6598e6a5d84f07970b831e70,6598e76e7fa14c73800c3d3d,0.02,0.0201,0,138,138,2,1,twoone,,,,,,,,,,,,,,,,,,,,,,,,,,,,,,,,,,,,,,,,,,,,,,,,,,,,,,,,,,,,,,,,,,,,,,,,,,,,,,,,,,,,,,,,,,,,,,,,,,,,,,,,,,,,,,,,,,,,,,,,,,,,,,,,,,,,,,,
,,613ac4fcfa4b7e01abd45dc7,2024-01-05_23h39.29.767,kallum_motion_pilot,2023.2.3,MacIntel,59.88023952,613ac4fcfa4b7e01abd45dc7,6598e6a5d84f07970b831e70,6598e76e7fa14c73800c3d3d,0.0201,0.0201,0,139,139,91,1,sixeight,,,,,,,,,,,,,,,,,,,,,,,,,,,,,,,,,,,,,,,,,,,,,,,,,,,,,,,,,,,,,,,,,,,,,,,,,,,,,,,,,,,,,,,,,,,,,,,,,,,,,,,,,,,,,,,,,,,,,,,,,,,,,,,,,,,,,,,
,,613ac4fcfa4b7e01abd45dc7,2024-01-05_23h39.29.767,kallum_motion_pilot,2023.2.3,MacIntel,59.88023952,613ac4fcfa4b7e01abd45dc7,6598e6a5d84f07970b831e70,6598e76e7fa14c73800c3d3d,0.0202,0.0202,0,140,140,151,1,eightseven,,,,,,,,,,,,,,,,,,,,,,,,,,,,,,,,,,,,,,,,,,,,,,,,,,,,,,,,,,,,,,,,,,,,,,,,,,,,,,,,,,,,,,,,,,,,,,,,,,,,,,,,,,,,,,,,,,,,,,,,,,,,,,,,,,,,,,,
,,613ac4fcfa4b7e01abd45dc7,2024-01-05_23h39.29.767,kallum_motion_pilot,2023.2.3,MacIntel,59.88023952,613ac4fcfa4b7e01abd45dc7,6598e6a5d84f07970b831e70,6598e76e7fa14c73800c3d3d,0.0203,0.0203,0,141,141,39,1,fourthree,,,,,,,,,,,,,,,,,,,,,,,,,,,,,,,,,,,,,,,,,,,,,,,,,,,,,,,,,,,,,,,,,,,,,,,,,,,,,,,,,,,,,,,,,,,,,,,,,,,,,,,,,,,,,,,,,,,,,,,,,,,,,,,,,,,,,,,
,,613ac4fcfa4b7e01abd45dc7,2024-01-05_23h39.29.767,kallum_motion_pilot,2023.2.3,MacIntel,59.88023952,613ac4fcfa4b7e01abd45dc7,6598e6a5d84f07970b831e70,6598e76e7fa14c73800c3d3d,0.0204,0.0205,0,142,142,79,1,eightseven,,,,,,,,,,,,,,,,,,,,,,,,,,,,,,,,,,,,,,,,,,,,,,,,,,,,,,,,,,,,,,,,,,,,,,,,,,,,,,,,,,,,,,,,,,,,,,,,,,,,,,,,,,,,,,,,,,,,,,,,,,,,,,,,,,,,,,,
,,613ac4fcfa4b7e01abd45dc7,2024-01-05_23h39.29.767,kallum_motion_pilot,2023.2.3,MacIntel,59.88023952,613ac4fcfa4b7e01abd45dc7,6598e6a5d84f07970b831e70,6598e76e7fa14c73800c3d3d,0.0205,0.0205,0,143,143,121,1,fiveseven,,,,,,,,,,,,,,,,,,,,,,,,,,,,,,,,,,,,,,,,,,,,,,,,,,,,,,,,,,,,,,,,,,,,,,,,,,,,,,,,,,,,,,,,,,,,,,,,,,,,,,,,,,,,,,,,,,,,,,,,,,,,,,,,,,,,,,,
,,613ac4fcfa4b7e01abd45dc7,2024-01-05_23h39.29.767,kallum_motion_pilot,2023.2.3,MacIntel,59.88023952,613ac4fcfa4b7e01abd45dc7,6598e6a5d84f07970b831e70,6598e76e7fa14c73800c3d3d,0.0205,0.0206,0,144,144,16,1,onetwo,,,,,,,,,,,,,,,,,,,,,,,,,,,,,,,,,,,,,,,,,,,,,,,,,,,,,,,,,,,,,,,,,,,,,,,,,,,,,,,,,,,,,,,,,,,,,,,,,,,,,,,,,,,,,,,,,,,,,,,,,,,,,,,,,,,,,,,
,,613ac4fcfa4b7e01abd45dc7,2024-01-05_23h39.29.767,kallum_motion_pilot,2023.2.3,MacIntel,59.88023952,613ac4fcfa4b7e01abd45dc7,6598e6a5d84f07970b831e70,6598e76e7fa14c73800c3d3d,0.0206,0.0206,0,145,145,66,1,twoone,,,,,,,,,,,,,,,,,,,,,,,,,,,,,,,,,,,,,,,,,,,,,,,,,,,,,,,,,,,,,,,,,,,,,,,,,,,,,,,,,,,,,,,,,,,,,,,,,,,,,,,,,,,,,,,,,,,,,,,,,,,,,,,,,,,,,,,
,,613ac4fcfa4b7e01abd45dc7,2024-01-05_23h39.29.767,kallum_motion_pilot,2023.2.3,MacIntel,59.88023952,613ac4fcfa4b7e01abd45dc7,6598e6a5d84f07970b831e70,6598e76e7fa14c73800c3d3d,0.0207,0.0207,0,146,146,53,1,threefour,,,,,,,,,,,,,,,,,,,,,,,,,,,,,,,,,,,,,,,,,,,,,,,,,,,,,,,,,,,,,,,,,,,,,,,,,,,,,,,,,,,,,,,,,,,,,,,,,,,,,,,,,,,,,,,,,,,,,,,,,,,,,,,,,,,,,,,
,,613ac4fcfa4b7e01abd45dc7,2024-01-05_23h39.29.767,kallum_motion_pilot,2023.2.3,MacIntel,59.88023952,613ac4fcfa4b7e01abd45dc7,6598e6a5d84f07970b831e70,6598e76e7fa14c73800c3d3d,0.0207,0.0208,0,147,147,31,1,fourthree,,,,,,,,,,,,,,,,,,,,,,,,,,,,,,,,,,,,,,,,,,,,,,,,,,,,,,,,,,,,,,,,,,,,,,,,,,,,,,,,,,,,,,,,,,,,,,,,,,,,,,,,,,,,,,,,,,,,,,,,,,,,,,,,,,,,,,,
,,613ac4fcfa4b7e01abd45dc7,2024-01-05_23h39.29.767,kallum_motion_pilot,2023.2.3,MacIntel,59.88023952,613ac4fcfa4b7e01abd45dc7,6598e6a5d84f07970b831e70,6598e76e7fa14c73800c3d3d,0.0208,0.0208,0,148,148,137,1,fiveseven,,,,,,,,,,,,,,,,,,,,,,,,,,,,,,,,,,,,,,,,,,,,,,,,,,,,,,,,,,,,,,,,,,,,,,,,,,,,,,,,,,,,,,,,,,,,,,,,,,,,,,,,,,,,,,,,,,,,,,,,,,,,,,,,,,,,,,,
,,613ac4fcfa4b7e01abd45dc7,2024-01-05_23h39.29.767,kallum_motion_pilot,2023.2.3,MacIntel,59.88023952,613ac4fcfa4b7e01abd45dc7,6598e6a5d84f07970b831e70,6598e76e7fa14c73800c3d3d,0.0208,0.0209,0,149,149,56,1,onetwo,,,,,,,,,,,,,,,,,,,,,,,,,,,,,,,,,,,,,,,,,,,,,,,,,,,,,,,,,,,,,,,,,,,,,,,,,,,,,,,,,,,,,,,,,,,,,,,,,,,,,,,,,,,,,,,,,,,,,,,,,,,,,,,,,,,,,,,
,,613ac4fcfa4b7e01abd45dc7,2024-01-05_23h39.29.767,kallum_motion_pilot,2023.2.3,MacIntel,59.88023952,613ac4fcfa4b7e01abd45dc7,6598e6a5d84f07970b831e70,6598e76e7fa14c73800c3d3d,0.0209,0.021,0,150,150,50,1,twoone,,,,,,,,,,,,,,,,,,,,,,,,,,,,,,,,,,,,,,,,,,,,,,,,,,,,,,,,,,,,,,,,,,,,,,,,,,,,,,,,,,,,,,,,,,,,,,,,,,,,,,,,,,,,,,,,,,,,,,,,,,,,,,,,,,,,,,,
,,613ac4fcfa4b7e01abd45dc7,2024-01-05_23h39.29.767,kallum_motion_pilot,2023.2.3,MacIntel,59.88023952,613ac4fcfa4b7e01abd45dc7,6598e6a5d84f07970b831e70,6598e76e7fa14c73800c3d3d,0.021,0.021,0,151,151,78,1,fourtwo,,,,,,,,,,,,,,,,,,,,,,,,,,,,,,,,,,,,,,,,,,,,,,,,,,,,,,,,,,,,,,,,,,,,,,,,,,,,,,,,,,,,,,,,,,,,,,,,,,,,,,,,,,,,,,,,,,,,,,,,,,,,,,,,,,,,,,,
,,613ac4fcfa4b7e01abd45dc7,2024-01-05_23h39.29.767,kallum_motion_pilot,2023.2.3,MacIntel,59.88023952,613ac4fcfa4b7e01abd45dc7,6598e6a5d84f07970b831e70,6598e76e7fa14c73800c3d3d,0.021,0.0211,0,152,152,105,1,fiveseven,,,,,,,,,,,,,,,,,,,,,,,,,,,,,,,,,,,,,,,,,,,,,,,,,,,,,,,,,,,,,,,,,,,,,,,,,,,,,,,,,,,,,,,,,,,,,,,,,,,,,,,,,,,,,,,,,,,,,,,,,,,,,,,,,,,,,,,
,,613ac4fcfa4b7e01abd45dc7,2024-01-05_23h39.29.767,kallum_motion_pilot,2023.2.3,MacIntel,59.88023952,613ac4fcfa4b7e01abd45dc7,6598e6a5d84f07970b831e70,6598e76e7fa14c73800c3d3d,0.0212,0.0212,0,153,153,135,1,eightseven,,,,,,,,,,,,,,,,,,,,,,,,,,,,,,,,,,,,,,,,,,,,,,,,,,,,,,,,,,,,,,,,,,,,,,,,,,,,,,,,,,,,,,,,,,,,,,,,,,,,,,,,,,,,,,,,,,,,,,,,,,,,,,,,,,,,,,,
,,613ac4fcfa4b7e01abd45dc7,2024-01-05_23h39.29.767,kallum_motion_pilot,2023.2.3,MacIntel,59.88023952,613ac4fcfa4b7e01abd45dc7,6598e6a5d84f07970b831e70,6598e76e7fa14c73800c3d3d,0.0212,0.0213,0,154,154,21,1,threefour,,,,,,,,,,,,,,,,,,,,,,,,,,,,,,,,,,,,,,,,,,,,,,,,,,,,,,,,,,,,,,,,,,,,,,,,,,,,,,,,,,,,,,,,,,,,,,,,,,,,,,,,,,,,,,,,,,,,,,,,,,,,,,,,,,,,,,,
,,613ac4fcfa4b7e01abd45dc7,2024-01-05_23h39.29.767,kallum_motion_pilot,2023.2.3,MacIntel,59.88023952,613ac4fcfa4b7e01abd45dc7,6598e6a5d84f07970b831e70,6598e76e7fa14c73800c3d3d,0.0213,0.0213,0,155,155,58,1,twoone,,,,,,,,,,,,,,,,,,,,,,,,,,,,,,,,,,,,,,,,,,,,,,,,,,,,,,,,,,,,,,,,,,,,,,,,,,,,,,,,,,,,,,,,,,,,,,,,,,,,,,,,,,,,,,,,,,,,,,,,,,,,,,,,,,,,,,,
,,613ac4fcfa4b7e01abd45dc7,2024-01-05_23h39.29.767,kallum_motion_pilot,2023.2.3,MacIntel,59.88023952,613ac4fcfa4b7e01abd45dc7,6598e6a5d84f07970b831e70,6598e76e7fa14c73800c3d3d,0.0213,0.0214,0,156,156,96,1,fivesix,,,,,,,,,,,,,,,,,,,,,,,,,,,,,,,,,,,,,,,,,,,,,,,,,,,,,,,,,,,,,,,,,,,,,,,,,,,,,,,,,,,,,,,,,,,,,,,,,,,,,,,,,,,,,,,,,,,,,,,,,,,,,,,,,,,,,,,
,,613ac4fcfa4b7e01abd45dc7,2024-01-05_23h39.29.767,kallum_motion_pilot,2023.2.3,MacIntel,59.88023952,613ac4fcfa4b7e01abd45dc7,6598e6a5d84f07970b831e70,6598e76e7fa14c73800c3d3d,0.0214,0.0214,0,157,157,40,1,onetwo,,,,,,,,,,,,,,,,,,,,,,,,,,,,,,,,,,,,,,,,,,,,,,,,,,,,,,,,,,,,,,,,,,,,,,,,,,,,,,,,,,,,,,,,,,,,,,,,,,,,,,,,,,,,,,,,,,,,,,,,,,,,,,,,,,,,,,,
,,613ac4fcfa4b7e01abd45dc7,2024-01-05_23h39.29.767,kallum_motion_pilot,2023.2.3,MacIntel,59.88023952,613ac4fcfa4b7e01abd45dc7,6598e6a5d84f07970b831e70,6598e76e7fa14c73800c3d3d,0.0215,0.0215,0,158,158,6,1,fourtwo,,,,,,,,,,,,,,,,,,,,,,,,,,,,,,,,,,,,,,,,,,,,,,,,,,,,,,,,,,,,,,,,,,,,,,,,,,,,,,,,,,,,,,,,,,,,,,,,,,,,,,,,,,,,,,,,,,,,,,,,,,,,,,,,,,,,,,,
,,613ac4fcfa4b7e01abd45dc7,2024-01-05_23h39.29.767,kallum_motion_pilot,2023.2.3,MacIntel,59.88023952,613ac4fcfa4b7e01abd45dc7,6598e6a5d84f07970b831e70,6598e76e7fa14c73800c3d3d,0.0215,0.0216,0,159,159,97,1,fiveseven,,,,,,,,,,,,,,,,,,,,,,,,,,,,,,,,,,,,,,,,,,,,,,,,,,,,,,,,,,,,,,,,,,,,,,,,,,,,,,,,,,,,,,,,,,,,,,,,,,,,,,,,,,,,,,,,,,,,,,,,,,,,,,,,,,,,,,,
,,613ac4fcfa4b7e01abd45dc7,2024-01-05_23h39.29.767,kallum_motion_pilot,2023.2.3,MacIntel,59.88023952,613ac4fcfa4b7e01abd45dc7,6598e6a5d84f07970b831e70,6598e76e7fa14c73800c3d3d,0.0216,0.0216,0,160,160,130,1,sixfive,,,,,,,,,,,,,,,,,,,,,,,,,,,,,,,,,,,,,,,,,,,,,,,,,,,,,,,,,,,,,,,,,,,,,,,,,,,,,,,,,,,,,,,,,,,,,,,,,,,,,,,,,,,,,,,,,,,,,,,,,,,,,,,,,,,,,,,
,,613ac4fcfa4b7e01abd45dc7,2024-01-05_23h39.29.767,kallum_motion_pilot,2023.2.3,MacIntel,59.88023952,613ac4fcfa4b7e01abd45dc7,6598e6a5d84f07970b831e70,6598e76e7fa14c73800c3d3d,0.0217,0.0217,0,161,161,154,1,sixfive,,,,,,,,,,,,,,,,,,,,,,,,,,,,,,,,,,,,,,,,,,,,,,,,,,,,,,,,,,,,,,,,,,,,,,,,,,,,,,,,,,,,,,,,,,,,,,,,,,,,,,,,,,,,,,,,,,,,,,,,,,,,,,,,,,,,,,,
,,613ac4fcfa4b7e01abd45dc7,2024-01-05_23h39.29.767,kallum_motion_pilot,2023.2.3,MacIntel,59.88023952,613ac4fcfa4b7e01abd45dc7,6598e6a5d84f07970b831e70,6598e76e7fa14c73800c3d3d,0.0218,0.0218,1,0,162,1,1,onethree,,,,,,,,,,,,,,,,,,,,,,,,,,,,,,,,,,,,,,,,,,,,,,,,,,,,,,,,,,,,,,,,,,,,,,,,,,,,,,,,,,,,,,,,,,,,,,,,,,,,,,,,,,,,,,,,,,,,,,,,,,,,,,,,,,,,,,,
,,613ac4fcfa4b7e01abd45dc7,2024-01-05_23h39.29.767,kallum_motion_pilot,2023.2.3,MacIntel,59.88023952,613ac4fcfa4b7e01abd45dc7,6598e6a5d84f07970b831e70,6598e76e7fa14c73800c3d3d,0.0218,0.0218,1,1,163,56,1,onetwo,,,,,,,,,,,,,,,,,,,,,,,,,,,,,,,,,,,,,,,,,,,,,,,,,,,,,,,,,,,,,,,,,,,,,,,,,,,,,,,,,,,,,,,,,,,,,,,,,,,,,,,,,,,,,,,,,,,,,,,,,,,,,,,,,,,,,,,
,,613ac4fcfa4b7e01abd45dc7,2024-01-05_23h39.29.767,kallum_motion_pilot,2023.2.3,MacIntel,59.88023952,613ac4fcfa4b7e01abd45dc7,6598e6a5d84f07970b831e70,6598e76e7fa14c73800c3d3d,0.0219,0.0219,1,2,164,73,1,onethree,,,,,,,,,,,,,,,,,,,,,,,,,,,,,,,,,,,,,,,,,,,,,,,,,,,,,,,,,,,,,,,,,,,,,,,,,,,,,,,,,,,,,,,,,,,,,,,,,,,,,,,,,,,,,,,,,,,,,,,,,,,,,,,,,,,,,,,
,,613ac4fcfa4b7e01abd45dc7,2024-01-05_23h39.29.767,kallum_motion_pilot,2023.2.3,MacIntel,59.88023952,613ac4fcfa4b7e01abd45dc7,6598e6a5d84f07970b831e70,6598e76e7fa14c73800c3d3d,0.022,0.022,1,3,165,126,1,eightsix,,,,,,,,,,,,,,,,,,,,,,,,,,,,,,,,,,,,,,,,,,,,,,,,,,,,,,,,,,,,,,,,,,,,,,,,,,,,,,,,,,,,,,,,,,,,,,,,,,,,,,,,,,,,,,,,,,,,,,,,,,,,,,,,,,,,,,,
,,613ac4fcfa4b7e01abd45dc7,2024-01-05_23h39.29.767,kallum_motion_pilot,2023.2.3,MacIntel,59.88023952,613ac4fcfa4b7e01abd45dc7,6598e6a5d84f07970b831e70,6598e76e7fa14c73800c3d3d,0.022,0.022,1,4,166,34,1,twoone,,,,,,,,,,,,,,,,,,,,,,,,,,,,,,,,,,,,,,,,,,,,,,,,,,,,,,,,,,,,,,,,,,,,,,,,,,,,,,,,,,,,,,,,,,,,,,,,,,,,,,,,,,,,,,,,,,,,,,,,,,,,,,,,,,,,,,,
,,613ac4fcfa4b7e01abd45dc7,2024-01-05_23h39.29.767,kallum_motion_pilot,2023.2.3,MacIntel,59.88023952,613ac4fcfa4b7e01abd45dc7,6598e6a5d84f07970b831e70,6598e76e7fa14c73800c3d3d,0.022,0.0221,1,5,167,98,1,sixfive,,,,,,,,,,,,,,,,,,,,,,,,,,,,,,,,,,,,,,,,,,,,,,,,,,,,,,,,,,,,,,,,,,,,,,,,,,,,,,,,,,,,,,,,,,,,,,,,,,,,,,,,,,,,,,,,,,,,,,,,,,,,,,,,,,,,,,,
,,613ac4fcfa4b7e01abd45dc7,2024-01-05_23h39.29.767,kallum_motion_pilot,2023.2.3,MacIntel,59.88023952,613ac4fcfa4b7e01abd45dc7,6598e6a5d84f07970b831e70,6598e76e7fa14c73800c3d3d,0.0221,0.0222,1,6,168,53,1,threefour,,,,,,,,,,,,,,,,,,,,,,,,,,,,,,,,,,,,,,,,,,,,,,,,,,,,,,,,,,,,,,,,,,,,,,,,,,,,,,,,,,,,,,,,,,,,,,,,,,,,,,,,,,,,,,,,,,,,,,,,,,,,,,,,,,,,,,,
,,613ac4fcfa4b7e01abd45dc7,2024-01-05_23h39.29.767,kallum_motion_pilot,2023.2.3,MacIntel,59.88023952,613ac4fcfa4b7e01abd45dc7,6598e6a5d84f07970b831e70,6598e76e7fa14c73800c3d3d,0.0222,0.0222,1,7,169,36,1,threeone,,,,,,,,,,,,,,,,,,,,,,,,,,,,,,,,,,,,,,,,,,,,,,,,,,,,,,,,,,,,,,,,,,,,,,,,,,,,,,,,,,,,,,,,,,,,,,,,,,,,,,,,,,,,,,,,,,,,,,,,,,,,,,,,,,,,,,,
,,613ac4fcfa4b7e01abd45dc7,2024-01-05_23h39.29.767,kallum_motion_pilot,2023.2.3,MacIntel,59.88023952,613ac4fcfa4b7e01abd45dc7,6598e6a5d84f07970b831e70,6598e76e7fa14c73800c3d3d,0.0222,0.0222,1,8,170,146,1,sixfive,,,,,,,,,,,,,,,,,,,,,,,,,,,,,,,,,,,,,,,,,,,,,,,,,,,,,,,,,,,,,,,,,,,,,,,,,,,,,,,,,,,,,,,,,,,,,,,,,,,,,,,,,,,,,,,,,,,,,,,,,,,,,,,,,,,,,,,
,,613ac4fcfa4b7e01abd45dc7,2024-01-05_23h39.29.767,kallum_motion_pilot,2023.2.3,MacIntel,59.88023952,613ac4fcfa4b7e01abd45dc7,6598e6a5d84f07970b831e70,6598e76e7fa14c73800c3d3d,0.0223,0.0223,1,9,171,58,1,twoone,,,,,,,,,,,,,,,,,,,,,,,,,,,,,,,,,,,,,,,,,,,,,,,,,,,,,,,,,,,,,,,,,,,,,,,,,,,,,,,,,,,,,,,,,,,,,,,,,,,,,,,,,,,,,,,,,,,,,,,,,,,,,,,,,,,,,,,
,,613ac4fcfa4b7e01abd45dc7,2024-01-05_23h39.29.767,kallum_motion_pilot,2023.2.3,MacIntel,59.88023952,613ac4fcfa4b7e01abd45dc7,6598e6a5d84f07970b831e70,6598e76e7fa14c73800c3d3d,0.0223,0.0224,1,10,172,55,1,fourthree,,,,,,,,,,,,,,,,,,,,,,,,,,,,,,,,,,,,,,,,,,,,,,,,,,,,,,,,,,,,,,,,,,,,,,,,,,,,,,,,,,,,,,,,,,,,,,,,,,,,,,,,,,,,,,,,,,,,,,,,,,,,,,,,,,,,,,,
,,613ac4fcfa4b7e01abd45dc7,2024-01-05_23h39.29.767,kallum_motion_pilot,2023.2.3,MacIntel,59.88023952,613ac4fcfa4b7e01abd45dc7,6598e6a5d84f07970b831e70,6598e76e7fa14c73800c3d3d,0.0225,0.0225,1,11,173,80,1,fivesix,,,,,,,,,,,,,,,,,,,,,,,,,,,,,,,,,,,,,,,,,,,,,,,,,,,,,,,,,,,,,,,,,,,,,,,,,,,,,,,,,,,,,,,,,,,,,,,,,,,,,,,,,,,,,,,,,,,,,,,,,,,,,,,,,,,,,,,
,,613ac4fcfa4b7e01abd45dc7,2024-01-05_23h39.29.767,kallum_motion_pilot,2023.2.3,MacIntel,59.88023952,613ac4fcfa4b7e01abd45dc7,6598e6a5d84f07970b831e70,6598e76e7fa14c73800c3d3d,0.0226,0.0226,1,12,174,109,1,seveneight,,,,,,,,,,,,,,,,,,,,,,,,,,,,,,,,,,,,,,,,,,,,,,,,,,,,,,,,,,,,,,,,,,,,,,,,,,,,,,,,,,,,,,,,,,,,,,,,,,,,,,,,,,,,,,,,,,,,,,,,,,,,,,,,,,,,,,,
,,613ac4fcfa4b7e01abd45dc7,2024-01-05_23h39.29.767,kallum_motion_pilot,2023.2.3,MacIntel,59.88023952,613ac4fcfa4b7e01abd45dc7,6598e6a5d84f07970b831e70,6598e76e7fa14c73800c3d3d,0.0227,0.0227,1,13,175,158,1,eightsix,,,,,,,,,,,,,,,,,,,,,,,,,,,,,,,,,,,,,,,,,,,,,,,,,,,,,,,,,,,,,,,,,,,,,,,,,,,,,,,,,,,,,,,,,,,,,,,,,,,,,,,,,,,,,,,,,,,,,,,,,,,,,,,,,,,,,,,
,,613ac4fcfa4b7e01abd45dc7,2024-01-05_23h39.29.767,kallum_motion_pilot,2023.2.3,MacIntel,59.88023952,613ac4fcfa4b7e01abd45dc7,6598e6a5d84f07970b831e70,6598e76e7fa14c73800c3d3d,0.0227,0.0228,1,14,176,157,1,seveneight,,,,,,,,,,,,,,,,,,,,,,,,,,,,,,,,,,,,,,,,,,,,,,,,,,,,,,,,,,,,,,,,,,,,,,,,,,,,,,,,,,,,,,,,,,,,,,,,,,,,,,,,,,,,,,,,,,,,,,,,,,,,,,,,,,,,,,,
,,613ac4fcfa4b7e01abd45dc7,2024-01-05_23h39.29.767,kallum_motion_pilot,2023.2.3,MacIntel,59.88023952,613ac4fcfa4b7e01abd45dc7,6598e6a5d84f07970b831e70,6598e76e7fa14c73800c3d3d,0.0228,0.0228,1,15,177,115,1,sixeight,,,,,,,,,,,,,,,,,,,,,,,,,,,,,,,,,,,,,,,,,,,,,,,,,,,,,,,,,,,,,,,,,,,,,,,,,,,,,,,,,,,,,,,,,,,,,,,,,,,,,,,,,,,,,,,,,,,,,,,,,,,,,,,,,,,,,,,
,,613ac4fcfa4b7e01abd45dc7,2024-01-05_23h39.29.767,kallum_motion_pilot,2023.2.3,MacIntel,59.88023952,613ac4fcfa4b7e01abd45dc7,6598e6a5d84f07970b831e70,6598e76e7fa14c73800c3d3d,0.0228,0.0229,1,16,178,35,1,twofour,,,,,,,,,,,,,,,,,,,,,,,,,,,,,,,,,,,,,,,,,,,,,,,,,,,,,,,,,,,,,,,,,,,,,,,,,,,,,,,,,,,,,,,,,,,,,,,,,,,,,,,,,,,,,,,,,,,,,,,,,,,,,,,,,,,,,,,
,,613ac4fcfa4b7e01abd45dc7,2024-01-05_23h39.29.767,kallum_motion_pilot,2023.2.3,MacIntel,59.88023952,613ac4fcfa4b7e01abd45dc7,6598e6a5d84f07970b831e70,6598e76e7fa14c73800c3d3d,0.023,0.023,1,17,179,11,1,twofour,,,,,,,,,,,,,,,,,,,,,,,,,,,,,,,,,,,,,,,,,,,,,,,,,,,,,,,,,,,,,,,,,,,,,,,,,,,,,,,,,,,,,,,,,,,,,,,,,,,,,,,,,,,,,,,,,,,,,,,,,,,,,,,,,,,,,,,
,,613ac4fcfa4b7e01abd45dc7,2024-01-05_23h39.29.767,kallum_motion_pilot,2023.2.3,MacIntel,59.88023952,613ac4fcfa4b7e01abd45dc7,6598e6a5d84f07970b831e70,6598e76e7fa14c73800c3d3d,0.023,0.023,1,18,180,4,1,threeone,,,,,,,,,,,,,,,,,,,,,,,,,,,,,,,,,,,,,,,,,,,,,,,,,,,,,,,,,,,,,,,,,,,,,,,,,,,,,,,,,,,,,,,,,,,,,,,,,,,,,,,,,,,,,,,,,,,,,,,,,,,,,,,,,,,,,,,
,,613ac4fcfa4b7e01abd45dc7,2024-01-05_23h39.29.767,kallum_motion_pilot,2023.2.3,MacIntel,59.88023952,613ac4fcfa4b7e01abd45dc7,6598e6a5d84f07970b831e70,6598e76e7fa14c73800c3d3d,0.0231,0.0231,1,19,181,45,1,threefour,,,,,,,,,,,,,,,,,,,,,,,,,,,,,,,,,,,,,,,,,,,,,,,,,,,,,,,,,,,,,,,,,,,,,,,,,,,,,,,,,,,,,,,,,,,,,,,,,,,,,,,,,,,,,,,,,,,,,,,,,,,,,,,,,,,,,,,
,,613ac4fcfa4b7e01abd45dc7,2024-01-05_23h39.29.767,kallum_motion_pilot,2023.2.3,MacIntel,59.88023952,613ac4fcfa4b7e01abd45dc7,6598e6a5d84f07970b831e70,6598e76e7fa14c73800c3d3d,0.0232,0.0232,1,20,182,129,1,fiveseven,,,,,,,,,,,,,,,,,,,,,,,,,,,,,,,,,,,,,,,,,,,,,,,,,,,,,,,,,,,,,,,,,,,,,,,,,,,,,,,,,,,,,,,,,,,,,,,,,,,,,,,,,,,,,,,,,,,,,,,,,,,,,,,,,,,,,,,
,,613ac4fcfa4b7e01abd45dc7,2024-01-05_23h39.29.767,kallum_motion_pilot,2023.2.3,MacIntel,59.88023952,613ac4fcfa4b7e01abd45dc7,6598e6a5d84f07970b831e70,6598e76e7fa14c73800c3d3d,0.0233,0.0233,1,21,183,120,1,fivesix,,,,,,,,,,,,,,,,,,,,,,,,,,,,,,,,,,,,,,,,,,,,,,,,,,,,,,,,,,,,,,,,,,,,,,,,,,,,,,,,,,,,,,,,,,,,,,,,,,,,,,,,,,,,,,,,,,,,,,,,,,,,,,,,,,,,,,,
,,613ac4fcfa4b7e01abd45dc7,2024-01-05_23h39.29.767,kallum_motion_pilot,2023.2.3,MacIntel,59.88023952,613ac4fcfa4b7e01abd45dc7,6598e6a5d84f07970b831e70,6598e76e7fa14c73800c3d3d,0.0234,0.0234,1,22,184,64,1,onetwo,,,,,,,,,,,,,,,,,,,,,,,,,,,,,,,,,,,,,,,,,,,,,,,,,,,,,,,,,,,,,,,,,,,,,,,,,,,,,,,,,,,,,,,,,,,,,,,,,,,,,,,,,,,,,,,,,,,,,,,,,,,,,,,,,,,,,,,
,,613ac4fcfa4b7e01abd45dc7,2024-01-05_23h39.29.767,kallum_motion_pilot,2023.2.3,MacIntel,59.88023952,613ac4fcfa4b7e01abd45dc7,6598e6a5d84f07970b831e70,6598e76e7fa14c73800c3d3d,0.0234,0.0234,1,23,185,132,1,sevenfive,,,,,,,,,,,,,,,,,,,,,,,,,,,,,,,,,,,,,,,,,,,,,,,,,,,,,,,,,,,,,,,,,,,,,,,,,,,,,,,,,,,,,,,,,,,,,,,,,,,,,,,,,,,,,,,,,,,,,,,,,,,,,,,,,,,,,,,
,,613ac4fcfa4b7e01abd45dc7,2024-01-05_23h39.29.767,kallum_motion_pilot,2023.2.3,MacIntel,59.88023952,613ac4fcfa4b7e01abd45dc7,6598e6a5d84f07970b831e70,6598e76e7fa14c73800c3d3d,0.0235,0.0235,1,24,186,48,1,onetwo,,,,,,,,,,,,,,,,,,,,,,,,,,,,,,,,,,,,,,,,,,,,,,,,,,,,,,,,,,,,,,,,,,,,,,,,,,,,,,,,,,,,,,,,,,,,,,,,,,,,,,,,,,,,,,,,,,,,,,,,,,,,,,,,,,,,,,,
,,613ac4fcfa4b7e01abd45dc7,2024-01-05_23h39.29.767,kallum_motion_pilot,2023.2.3,MacIntel,59.88023952,613ac4fcfa4b7e01abd45dc7,6598e6a5d84f07970b831e70,6598e76e7fa14c73800c3d3d,0.0236,0.0236,1,25,187,142,1,eightsix,,,,,,,,,,,,,,,,,,,,,,,,,,,,,,,,,,,,,,,,,,,,,,,,,,,,,,,,,,,,,,,,,,,,,,,,,,,,,,,,,,,,,,,,,,,,,,,,,,,,,,,,,,,,,,,,,,,,,,,,,,,,,,,,,,,,,,,
,,613ac4fcfa4b7e01abd45dc7,2024-01-05_23h39.29.767,kallum_motion_pilot,2023.2.3,MacIntel,59.88023952,613ac4fcfa4b7e01abd45dc7,6598e6a5d84f07970b831e70,6598e76e7fa14c73800c3d3d,0.0236,0.0236,1,26,188,155,1,sixeight,,,,,,,,,,,,,,,,,,,,,,,,,,,,,,,,,,,,,,,,,,,,,,,,,,,,,,,,,,,,,,,,,,,,,,,,,,,,,,,,,,,,,,,,,,,,,,,,,,,,,,,,,,,,,,,,,,,,,,,,,,,,,,,,,,,,,,,
,,613ac4fcfa4b7e01abd45dc7,2024-01-05_23h39.29.767,kallum_motion_pilot,2023.2.3,MacIntel,59.88023952,613ac4fcfa4b7e01abd45dc7,6598e6a5d84f07970b831e70,6598e76e7fa14c73800c3d3d,0.0236,0.0237,1,27,189,94,1,eightsix,,,,,,,,,,,,,,,,,,,,,,,,,,,,,,,,,,,,,,,,,,,,,,,,,,,,,,,,,,,,,,,,,,,,,,,,,,,,,,,,,,,,,,,,,,,,,,,,,,,,,,,,,,,,,,,,,,,,,,,,,,,,,,,,,,,,,,,
,,613ac4fcfa4b7e01abd45dc7,2024-01-05_23h39.29.767,kallum_motion_pilot,2023.2.3,MacIntel,59.88023952,613ac4fcfa4b7e01abd45dc7,6598e6a5d84f07970b831e70,6598e76e7fa14c73800c3d3d,0.0238,0.0238,1,28,190,127,1,eightseven,,,,,,,,,,,,,,,,,,,,,,,,,,,,,,,,,,,,,,,,,,,,,,,,,,,,,,,,,,,,,,,,,,,,,,,,,,,,,,,,,,,,,,,,,,,,,,,,,,,,,,,,,,,,,,,,,,,,,,,,,,,,,,,,,,,,,,,
,,613ac4fcfa4b7e01abd45dc7,2024-01-05_23h39.29.767,kallum_motion_pilot,2023.2.3,MacIntel,59.88023952,613ac4fcfa4b7e01abd45dc7,6598e6a5d84f07970b831e70,6598e76e7fa14c73800c3d3d,0.0238,0.0238,1,29,191,25,1,onethree,,,,,,,,,,,,,,,,,,,,,,,,,,,,,,,,,,,,,,,,,,,,,,,,,,,,,,,,,,,,,,,,,,,,,,,,,,,,,,,,,,,,,,,,,,,,,,,,,,,,,,,,,,,,,,,,,,,,,,,,,,,,,,,,,,,,,,,
,,613ac4fcfa4b7e01abd45dc7,2024-01-05_23h39.29.767,kallum_motion_pilot,2023.2.3,MacIntel,59.88023952,613ac4fcfa4b7e01abd45dc7,6598e6a5d84f07970b831e70,6598e76e7fa14c73800c3d3d,0.0239,0.0239,1,30,192,68,1,threeone,,,,,,,,,,,,,,,,,,,,,,,,,,,,,,,,,,,,,,,,,,,,,,,,,,,,,,,,,,,,,,,,,,,,,,,,,,,,,,,,,,,,,,,,,,,,,,,,,,,,,,,,,,,,,,,,,,,,,,,,,,,,,,,,,,,,,,,
,,613ac4fcfa4b7e01abd45dc7,2024-01-05_23h39.29.767,kallum_motion_pilot,2023.2.3,MacIntel,59.88023952,613ac4fcfa4b7e01abd45dc7,6598e6a5d84f07970b831e70,6598e76e7fa14c73800c3d3d,0.0239,0.024,1,31,193,59,1,twofour,,,,,,,,,,,,,,,,,,,,,,,,,,,,,,,,,,,,,,,,,,,,,,,,,,,,,,,,,,,,,,,,,,,,,,,,,,,,,,,,,,,,,,,,,,,,,,,,,,,,,,,,,,,,,,,,,,,,,,,,,,,,,,,,,,,,,,,
,,613ac4fcfa4b7e01abd45dc7,2024-01-05_23h39.29.767,kallum_motion_pilot,2023.2.3,MacIntel,59.88023952,613ac4fcfa4b7e01abd45dc7,6598e6a5d84f07970b831e70,6598e76e7fa14c73800c3d3d,0.024,0.024,1,32,194,54,1,fourtwo,,,,,,,,,,,,,,,,,,,,,,,,,,,,,,,,,,,,,,,,,,,,,,,,,,,,,,,,,,,,,,,,,,,,,,,,,,,,,,,,,,,,,,,,,,,,,,,,,,,,,,,,,,,,,,,,,,,,,,,,,,,,,,,,,,,,,,,
,,613ac4fcfa4b7e01abd45dc7,2024-01-05_23h39.29.767,kallum_motion_pilot,2023.2.3,MacIntel,59.88023952,613ac4fcfa4b7e01abd45dc7,6598e6a5d84f07970b831e70,6598e76e7fa14c73800c3d3d,0.024,0.0241,1,33,195,79,1,eightseven,,,,,,,,,,,,,,,,,,,,,,,,,,,,,,,,,,,,,,,,,,,,,,,,,,,,,,,,,,,,,,,,,,,,,,,,,,,,,,,,,,,,,,,,,,,,,,,,,,,,,,,,,,,,,,,,,,,,,,,,,,,,,,,,,,,,,,,
,,613ac4fcfa4b7e01abd45dc7,2024-01-05_23h39.29.767,kallum_motion_pilot,2023.2.3,MacIntel,59.88023952,613ac4fcfa4b7e01abd45dc7,6598e6a5d84f07970b831e70,6598e76e7fa14c73800c3d3d,0.0241,0.0242,1,34,196,145,1,fiveseven,,,,,,,,,,,,,,,,,,,,,,,,,,,,,,,,,,,,,,,,,,,,,,,,,,,,,,,,,,,,,,,,,,,,,,,,,,,,,,,,,,,,,,,,,,,,,,,,,,,,,,,,,,,,,,,,,,,,,,,,,,,,,,,,,,,,,,,
,,613ac4fcfa4b7e01abd45dc7,2024-01-05_23h39.29.767,kallum_motion_pilot,2023.2.3,MacIntel,59.88023952,613ac4fcfa4b7e01abd45dc7,6598e6a5d84f07970b831e70,6598e76e7fa14c73800c3d3d,0.0242,0.0242,1,35,197,140,1,sevenfive,,,,,,,,,,,,,,,,,,,,,,,,,,,,,,,,,,,,,,,,,,,,,,,,,,,,,,,,,,,,,,,,,,,,,,,,,,,,,,,,,,,,,,,,,,,,,,,,,,,,,,,,,,,,,,,,,,,,,,,,,,,,,,,,,,,,,,,
,,613ac4fcfa4b7e01abd45dc7,2024-01-05_23h39.29.767,kallum_motion_pilot,2023.2.3,MacIntel,59.88023952,613ac4fcfa4b7e01abd45dc7,6598e6a5d84f07970b831e70,6598e76e7fa14c73800c3d3d,0.0242,0.0244,1,36,198,161,1,fiveseven,,,,,,,,,,,,,,,,,,,,,,,,,,,,,,,,,,,,,,,,,,,,,,,,,,,,,,,,,,,,,,,,,,,,,,,,,,,,,,,,,,,,,,,,,,,,,,,,,,,,,,,,,,,,,,,,,,,,,,,,,,,,,,,,,,,,,,,
,,613ac4fcfa4b7e01abd45dc7,2024-01-05_23h39.29.767,kallum_motion_pilot,2023.2.3,MacIntel,59.88023952,613ac4fcfa4b7e01abd45dc7,6598e6a5d84f07970b831e70,6598e76e7fa14c73800c3d3d,0.0244,0.0244,1,37,199,122,1,sixfive,,,,,,,,,,,,,,,,,,,,,,,,,,,,,,,,,,,,,,,,,,,,,,,,,,,,,,,,,,,,,,,,,,,,,,,,,,,,,,,,,,,,,,,,,,,,,,,,,,,,,,,,,,,,,,,,,,,,,,,,,,,,,,,,,,,,,,,
,,613ac4fcfa4b7e01abd45dc7,2024-01-05_23h39.29.767,kallum_motion_pilot,2023.2.3,MacIntel,59.88023952,613ac4fcfa4b7e01abd45dc7,6598e6a5d84f07970b831e70,6598e76e7fa14c73800c3d3d,0.0244,0.0244,1,38,200,21,1,threefour,,,,,,,,,,,,,,,,,,,,,,,,,,,,,,,,,,,,,,,,,,,,,,,,,,,,,,,,,,,,,,,,,,,,,,,,,,,,,,,,,,,,,,,,,,,,,,,,,,,,,,,,,,,,,,,,,,,,,,,,,,,,,,,,,,,,,,,
,,613ac4fcfa4b7e01abd45dc7,2024-01-05_23h39.29.767,kallum_motion_pilot,2023.2.3,MacIntel,59.88023952,613ac4fcfa4b7e01abd45dc7,6598e6a5d84f07970b831e70,6598e76e7fa14c73800c3d3d,0.0245,0.0245,1,39,201,105,1,fiveseven,,,,,,,,,,,,,,,,,,,,,,,,,,,,,,,,,,,,,,,,,,,,,,,,,,,,,,,,,,,,,,,,,,,,,,,,,,,,,,,,,,,,,,,,,,,,,,,,,,,,,,,,,,,,,,,,,,,,,,,,,,,,,,,,,,,,,,,
,,613ac4fcfa4b7e01abd45dc7,2024-01-05_23h39.29.767,kallum_motion_pilot,2023.2.3,MacIntel,59.88023952,613ac4fcfa4b7e01abd45dc7,6598e6a5d84f07970b831e70,6598e76e7fa14c73800c3d3d,0.0245,0.0246,1,40,202,89,1,fiveseven,,,,,,,,,,,,,,,,,,,,,,,,,,,,,,,,,,,,,,,,,,,,,,,,,,,,,,,,,,,,,,,,,,,,,,,,,,,,,,,,,,,,,,,,,,,,,,,,,,,,,,,,,,,,,,,,,,,,,,,,,,,,,,,,,,,,,,,
,,613ac4fcfa4b7e01abd45dc7,2024-01-05_23h39.29.767,kallum_motion_pilot,2023.2.3,MacIntel,59.88023952,613ac4fcfa4b7e01abd45dc7,6598e6a5d84f07970b831e70,6598e76e7fa14c73800c3d3d,0.0246,0.0247,1,41,203,160,1,fivesix,,,,,,,,,,,,,,,,,,,,,,,,,,,,,,,,,,,,,,,,,,,,,,,,,,,,,,,,,,,,,,,,,,,,,,,,,,,,,,,,,,,,,,,,,,,,,,,,,,,,,,,,,,,,,,,,,,,,,,,,,,,,,,,,,,,,,,,
,,613ac4fcfa4b7e01abd45dc7,2024-01-05_23h39.29.767,kallum_motion_pilot,2023.2.3,MacIntel,59.88023952,613ac4fcfa4b7e01abd45dc7,6598e6a5d84f07970b831e70,6598e76e7fa14c73800c3d3d,0.0247,0.0247,1,42,204,72,1,onetwo,,,,,,,,,,,,,,,,,,,,,,,,,,,,,,,,,,,,,,,,,,,,,,,,,,,,,,,,,,,,,,,,,,,,,,,,,,,,,,,,,,,,,,,,,,,,,,,,,,,,,,,,,,,,,,,,,,,,,,,,,,,,,,,,,,,,,,,
,,613ac4fcfa4b7e01abd45dc7,2024-01-05_23h39.29.767,kallum_motion_pilot,2023.2.3,MacIntel,59.88023952,613ac4fcfa4b7e01abd45dc7,6598e6a5d84f07970b831e70,6598e76e7fa14c73800c3d3d,0.0247,0.0248,1,43,205,117,1,seveneight,,,,,,,,,,,,,,,,,,,,,,,,,,,,,,,,,,,,,,,,,,,,,,,,,,,,,,,,,,,,,,,,,,,,,,,,,,,,,,,,,,,,,,,,,,,,,,,,,,,,,,,,,,,,,,,,,,,,,,,,,,,,,,,,,,,,,,,
,,613ac4fcfa4b7e01abd45dc7,2024-01-05_23h39.29.767,kallum_motion_pilot,2023.2.3,MacIntel,59.88023952,613ac4fcfa4b7e01abd45dc7,6598e6a5d84f07970b831e70,6598e76e7fa14c73800c3d3d,0.0249,0.0249,1,44,206,82,1,sixfive,,,,,,,,,,,,,,,,,,,,,,,,,,,,,,,,,,,,,,,,,,,,,,,,,,,,,,,,,,,,,,,,,,,,,,,,,,,,,,,,,,,,,,,,,,,,,,,,,,,,,,,,,,,,,,,,,,,,,,,,,,,,,,,,,,,,,,,
,,613ac4fcfa4b7e01abd45dc7,2024-01-05_23h39.29.767,kallum_motion_pilot,2023.2.3,MacIntel,59.88023952,613ac4fcfa4b7e01abd45dc7,6598e6a5d84f07970b831e70,6598e76e7fa14c73800c3d3d,0.0249,0.0249,1,45,207,99,1,sixeight,,,,,,,,,,,,,,,,,,,,,,,,,,,,,,,,,,,,,,,,,,,,,,,,,,,,,,,,,,,,,,,,,,,,,,,,,,,,,,,,,,,,,,,,,,,,,,,,,,,,,,,,,,,,,,,,,,,,,,,,,,,,,,,,,,,,,,,
,,613ac4fcfa4b7e01abd45dc7,2024-01-05_23h39.29.767,kallum_motion_pilot,2023.2.3,MacIntel,59.88023952,613ac4fcfa4b7e01abd45dc7,6598e6a5d84f07970b831e70,6598e76e7fa14c73800c3d3d,0.025,0.025,1,46,208,46,1,fourtwo,,,,,,,,,,,,,,,,,,,,,,,,,,,,,,,,,,,,,,,,,,,,,,,,,,,,,,,,,,,,,,,,,,,,,,,,,,,,,,,,,,,,,,,,,,,,,,,,,,,,,,,,,,,,,,,,,,,,,,,,,,,,,,,,,,,,,,,
,,613ac4fcfa4b7e01abd45dc7,2024-01-05_23h39.29.767,kallum_motion_pilot,2023.2.3,MacIntel,59.88023952,613ac4fcfa4b7e01abd45dc7,6598e6a5d84f07970b831e70,6598e76e7fa14c73800c3d3d,0.025,0.025,1,47,209,107,1,sixeight,,,,,,,,,,,,,,,,,,,,,,,,,,,,,,,,,,,,,,,,,,,,,,,,,,,,,,,,,,,,,,,,,,,,,,,,,,,,,,,,,,,,,,,,,,,,,,,,,,,,,,,,,,,,,,,,,,,,,,,,,,,,,,,,,,,,,,,
,,613ac4fcfa4b7e01abd45dc7,2024-01-05_23h39.29.767,kallum_motion_pilot,2023.2.3,MacIntel,59.88023952,613ac4fcfa4b7e01abd45dc7,6598e6a5d84f07970b831e70,6598e76e7fa14c73800c3d3d,0.0251,0.0251,1,48,210,40,1,onetwo,,,,,,,,,,,,,,,,,,,,,,,,,,,,,,,,,,,,,,,,,,,,,,,,,,,,,,,,,,,,,,,,,,,,,,,,,,,,,,,,,,,,,,,,,,,,,,,,,,,,,,,,,,,,,,,,,,,,,,,,,,,,,,,,,,,,,,,
,,613ac4fcfa4b7e01abd45dc7,2024-01-05_23h39.29.767,kallum_motion_pilot,2023.2.3,MacIntel,59.88023952,613ac4fcfa4b7e01abd45dc7,6598e6a5d84f07970b831e70,6598e76e7fa14c73800c3d3d,0.0251,0.0252,1,49,211,125,1,seveneight,,,,,,,,,,,,,,,,,,,,,,,,,,,,,,,,,,,,,,,,,,,,,,,,,,,,,,,,,,,,,,,,,,,,,,,,,,,,,,,,,,,,,,,,,,,,,,,,,,,,,,,,,,,,,,,,,,,,,,,,,,,,,,,,,,,,,,,
,,613ac4fcfa4b7e01abd45dc7,2024-01-05_23h39.29.767,kallum_motion_pilot,2023.2.3,MacIntel,59.88023952,613ac4fcfa4b7e01abd45dc7,6598e6a5d84f07970b831e70,6598e76e7fa14c73800c3d3d,0.0252,0.0252,1,50,212,151,1,eightseven,,,,,,,,,,,,,,,,,,,,,,,,,,,,,,,,,,,,,,,,,,,,,,,,,,,,,,,,,,,,,,,,,,,,,,,,,,,,,,,,,,,,,,,,,,,,,,,,,,,,,,,,,,,,,,,,,,,,,,,,,,,,,,,,,,,,,,,
,,613ac4fcfa4b7e01abd45dc7,2024-01-05_23h39.29.767,kallum_motion_pilot,2023.2.3,MacIntel,59.88023952,613ac4fcfa4b7e01abd45dc7,6598e6a5d84f07970b831e70,6598e76e7fa14c73800c3d3d,0.0252,0.0253,1,51,213,138,1,sixfive,,,,,,,,,,,,,,,,,,,,,,,,,,,,,,,,,,,,,,,,,,,,,,,,,,,,,,,,,,,,,,,,,,,,,,,,,,,,,,,,,,,,,,,,,,,,,,,,,,,,,,,,,,,,,,,,,,,,,,,,,,,,,,,,,,,,,,,
,,613ac4fcfa4b7e01abd45dc7,2024-01-05_23h39.29.767,kallum_motion_pilot,2023.2.3,MacIntel,59.88023952,613ac4fcfa4b7e01abd45dc7,6598e6a5d84f07970b831e70,6598e76e7fa14c73800c3d3d,0.0254,0.0254,1,52,214,32,1,onetwo,,,,,,,,,,,,,,,,,,,,,,,,,,,,,,,,,,,,,,,,,,,,,,,,,,,,,,,,,,,,,,,,,,,,,,,,,,,,,,,,,,,,,,,,,,,,,,,,,,,,,,,,,,,,,,,,,,,,,,,,,,,,,,,,,,,,,,,
,,613ac4fcfa4b7e01abd45dc7,2024-01-05_23h39.29.767,kallum_motion_pilot,2023.2.3,MacIntel,59.88023952,613ac4fcfa4b7e01abd45dc7,6598e6a5d84f07970b831e70,6598e76e7fa14c73800c3d3d,0.0254,0.0255,1,53,215,156,1,sevenfive,,,,,,,,,,,,,,,,,,,,,,,,,,,,,,,,,,,,,,,,,,,,,,,,,,,,,,,,,,,,,,,,,,,,,,,,,,,,,,,,,,,,,,,,,,,,,,,,,,,,,,,,,,,,,,,,,,,,,,,,,,,,,,,,,,,,,,,
,,613ac4fcfa4b7e01abd45dc7,2024-01-05_23h39.29.767,kallum_motion_pilot,2023.2.3,MacIntel,59.88023952,613ac4fcfa4b7e01abd45dc7,6598e6a5d84f07970b831e70,6598e76e7fa14c73800c3d3d,0.0255,0.0255,1,54,216,9,1,onethree,,,,,,,,,,,,,,,,,,,,,,,,,,,,,,,,,,,,,,,,,,,,,,,,,,,,,,,,,,,,,,,,,,,,,,,,,,,,,,,,,,,,,,,,,,,,,,,,,,,,,,,,,,,,,,,,,,,,,,,,,,,,,,,,,,,,,,,
,,613ac4fcfa4b7e01abd45dc7,2024-01-05_23h39.29.767,kallum_motion_pilot,2023.2.3,MacIntel,59.88023952,613ac4fcfa4b7e01abd45dc7,6598e6a5d84f07970b831e70,6598e76e7fa14c73800c3d3d,0.0256,0.0256,1,55,217,37,1,threefour,,,,,,,,,,,,,,,,,,,,,,,,,,,,,,,,,,,,,,,,,,,,,,,,,,,,,,,,,,,,,,,,,,,,,,,,,,,,,,,,,,,,,,,,,,,,,,,,,,,,,,,,,,,,,,,,,,,,,,,,,,,,,,,,,,,,,,,
,,613ac4fcfa4b7e01abd45dc7,2024-01-05_23h39.29.767,kallum_motion_pilot,2023.2.3,MacIntel,59.88023952,613ac4fcfa4b7e01abd45dc7,6598e6a5d84f07970b831e70,6598e76e7fa14c73800c3d3d,0.0256,0.0256,1,56,218,135,1,eightseven,,,,,,,,,,,,,,,,,,,,,,,,,,,,,,,,,,,,,,,,,,,,,,,,,,,,,,,,,,,,,,,,,,,,,,,,,,,,,,,,,,,,,,,,,,,,,,,,,,,,,,,,,,,,,,,,,,,,,,,,,,,,,,,,,,,,,,,
,,613ac4fcfa4b7e01abd45dc7,2024-01-05_23h39.29.767,kallum_motion_pilot,2023.2.3,MacIntel,59.88023952,613ac4fcfa4b7e01abd45dc7,6598e6a5d84f07970b831e70,6598e76e7fa14c73800c3d3d,0.0257,0.0257,1,57,219,121,1,fiveseven,,,,,,,,,,,,,,,,,,,,,,,,,,,,,,,,,,,,,,,,,,,,,,,,,,,,,,,,,,,,,,,,,,,,,,,,,,,,,,,,,,,,,,,,,,,,,,,,,,,,,,,,,,,,,,,,,,,,,,,,,,,,,,,,,,,,,,,
,,613ac4fcfa4b7e01abd45dc7,2024-01-05_23h39.29.767,kallum_motion_pilot,2023.2.3,MacIntel,59.88023952,613ac4fcfa4b7e01abd45dc7,6598e6a5d84f07970b831e70,6598e76e7fa14c73800c3d3d,0.0258,0.0258,1,58,220,76,1,threeone,,,,,,,,,,,,,,,,,,,,,,,,,,,,,,,,,,,,,,,,,,,,,,,,,,,,,,,,,,,,,,,,,,,,,,,,,,,,,,,,,,,,,,,,,,,,,,,,,,,,,,,,,,,,,,,,,,,,,,,,,,,,,,,,,,,,,,,
,,613ac4fcfa4b7e01abd45dc7,2024-01-05_23h39.29.767,kallum_motion_pilot,2023.2.3,MacIntel,59.88023952,613ac4fcfa4b7e01abd45dc7,6598e6a5d84f07970b831e70,6598e76e7fa14c73800c3d3d,0.0259,0.0259,1,59,221,153,1,fiveseven,,,,,,,,,,,,,,,,,,,,,,,,,,,,,,,,,,,,,,,,,,,,,,,,,,,,,,,,,,,,,,,,,,,,,,,,,,,,,,,,,,,,,,,,,,,,,,,,,,,,,,,,,,,,,,,,,,,,,,,,,,,,,,,,,,,,,,,
,,613ac4fcfa4b7e01abd45dc7,2024-01-05_23h39.29.767,kallum_motion_pilot,2023.2.3,MacIntel,59.88023952,613ac4fcfa4b7e01abd45dc7,6598e6a5d84f07970b831e70,6598e76e7fa14c73800c3d3d,0.0259,0.026,1,60,222,97,1,fiveseven,,,,,,,,,,,,,,,,,,,,,,,,,,,,,,,,,,,,,,,,,,,,,,,,,,,,,,,,,,,,,,,,,,,,,,,,,,,,,,,,,,,,,,,,,,,,,,,,,,,,,,,,,,,,,,,,,,,,,,,,,,,,,,,,,,,,,,,
,,613ac4fcfa4b7e01abd45dc7,2024-01-05_23h39.29.767,kallum_motion_pilot,2023.2.3,MacIntel,59.88023952,613ac4fcfa4b7e01abd45dc7,6598e6a5d84f07970b831e70,6598e76e7fa14c73800c3d3d,0.026,0.026,1,61,223,12,1,threeone,,,,,,,,,,,,,,,,,,,,,,,,,,,,,,,,,,,,,,,,,,,,,,,,,,,,,,,,,,,,,,,,,,,,,,,,,,,,,,,,,,,,,,,,,,,,,,,,,,,,,,,,,,,,,,,,,,,,,,,,,,,,,,,,,,,,,,,
,,613ac4fcfa4b7e01abd45dc7,2024-01-05_23h39.29.767,kallum_motion_pilot,2023.2.3,MacIntel,59.88023952,613ac4fcfa4b7e01abd45dc7,6598e6a5d84f07970b831e70,6598e76e7fa14c73800c3d3d,0.026,0.0261,1,62,224,95,1,eightseven,,,,,,,,,,,,,,,,,,,,,,,,,,,,,,,,,,,,,,,,,,,,,,,,,,,,,,,,,,,,,,,,,,,,,,,,,,,,,,,,,,,,,,,,,,,,,,,,,,,,,,,,,,,,,,,,,,,,,,,,,,,,,,,,,,,,,,,
,,613ac4fcfa4b7e01abd45dc7,2024-01-05_23h39.29.767,kallum_motion_pilot,2023.2.3,MacIntel,59.88023952,613ac4fcfa4b7e01abd45dc7,6598e6a5d84f07970b831e70,6598e76e7fa14c73800c3d3d,0.0261,0.0261,1,63,225,93,1,seveneight,,,,,,,,,,,,,,,,,,,,,,,,,,,,,,,,,,,,,,,,,,,,,,,,,,,,,,,,,,,,,,,,,,,,,,,,,,,,,,,,,,,,,,,,,,,,,,,,,,,,,,,,,,,,,,,,,,,,,,,,,,,,,,,,,,,,,,,
,,613ac4fcfa4b7e01abd45dc7,2024-01-05_23h39.29.767,kallum_motion_pilot,2023.2.3,MacIntel,59.88023952,613ac4fcfa4b7e01abd45dc7,6598e6a5d84f07970b831e70,6598e76e7fa14c73800c3d3d,0.0262,0.0263,1,64,226,69,1,threefour,,,,,,,,,,,,,,,,,,,,,,,,,,,,,,,,,,,,,,,,,,,,,,,,,,,,,,,,,,,,,,,,,,,,,,,,,,,,,,,,,,,,,,,,,,,,,,,,,,,,,,,,,,,,,,,,,,,,,,,,,,,,,,,,,,,,,,,
,,613ac4fcfa4b7e01abd45dc7,2024-01-05_23h39.29.767,kallum_motion_pilot,2023.2.3,MacIntel,59.88023952,613ac4fcfa4b7e01abd45dc7,6598e6a5d84f07970b831e70,6598e76e7fa14c73800c3d3d,0.0263,0.0264,1,65,227,43,1,twofour,,,,,,,,,,,,,,,,,,,,,,,,,,,,,,,,,,,,,,,,,,,,,,,,,,,,,,,,,,,,,,,,,,,,,,,,,,,,,,,,,,,,,,,,,,,,,,,,,,,,,,,,,,,,,,,,,,,,,,,,,,,,,,,,,,,,,,,
,,613ac4fcfa4b7e01abd45dc7,2024-01-05_23h39.29.767,kallum_motion_pilot,2023.2.3,MacIntel,59.88023952,613ac4fcfa4b7e01abd45dc7,6598e6a5d84f07970b831e70,6598e76e7fa14c73800c3d3d,0.0264,0.0265,1,66,228,149,1,seveneight,,,,,,,,,,,,,,,,,,,,,,,,,,,,,,,,,,,,,,,,,,,,,,,,,,,,,,,,,,,,,,,,,,,,,,,,,,,,,,,,,,,,,,,,,,,,,,,,,,,,,,,,,,,,,,,,,,,,,,,,,,,,,,,,,,,,,,,
,,613ac4fcfa4b7e01abd45dc7,2024-01-05_23h39.29.767,kallum_motion_pilot,2023.2.3,MacIntel,59.88023952,613ac4fcfa4b7e01abd45dc7,6598e6a5d84f07970b831e70,6598e76e7fa14c73800c3d3d,0.0265,0.0266,1,67,229,112,1,fivesix,,,,,,,,,,,,,,,,,,,,,,,,,,,,,,,,,,,,,,,,,,,,,,,,,,,,,,,,,,,,,,,,,,,,,,,,,,,,,,,,,,,,,,,,,,,,,,,,,,,,,,,,,,,,,,,,,,,,,,,,,,,,,,,,,,,,,,,
,,613ac4fcfa4b7e01abd45dc7,2024-01-05_23h39.29.767,kallum_motion_pilot,2023.2.3,MacIntel,59.88023952,613ac4fcfa4b7e01abd45dc7,6598e6a5d84f07970b831e70,6598e76e7fa14c73800c3d3d,0.0266,0.0266,1,68,230,70,1,fourtwo,,,,,,,,,,,,,,,,,,,,,,,,,,,,,,,,,,,,,,,,,,,,,,,,,,,,,,,,,,,,,,,,,,,,,,,,,,,,,,,,,,,,,,,,,,,,,,,,,,,,,,,,,,,,,,,,,,,,,,,,,,,,,,,,,,,,,,,
,,613ac4fcfa4b7e01abd45dc7,2024-01-05_23h39.29.767,kallum_motion_pilot,2023.2.3,MacIntel,59.88023952,613ac4fcfa4b7e01abd45dc7,6598e6a5d84f07970b831e70,6598e76e7fa14c73800c3d3d,0.0266,0.0266,1,69,231,26,1,twoone,,,,,,,,,,,,,,,,,,,,,,,,,,,,,,,,,,,,,,,,,,,,,,,,,,,,,,,,,,,,,,,,,,,,,,,,,,,,,,,,,,,,,,,,,,,,,,,,,,,,,,,,,,,,,,,,,,,,,,,,,,,,,,,,,,,,,,,
,,613ac4fcfa4b7e01abd45dc7,2024-01-05_23h39.29.767,kallum_motion_pilot,2023.2.3,MacIntel,59.88023952,613ac4fcfa4b7e01abd45dc7,6598e6a5d84f07970b831e70,6598e76e7fa14c73800c3d3d,0.0268,0.0268,1,70,232,116,1,sevenfive,,,,,,,,,,,,,,,,,,,,,,,,,,,,,,,,,,,,,,,,,,,,,,,,,,,,,,,,,,,,,,,,,,,,,,,,,,,,,,,,,,,,,,,,,,,,,,,,,,,,,,,,,,,,,,,,,,,,,,,,,,,,,,,,,,,,,,,
,,613ac4fcfa4b7e01abd45dc7,2024-01-05_23h39.29.767,kallum_motion_pilot,2023.2.3,MacIntel,59.88023952,613ac4fcfa4b7e01abd45dc7,6598e6a5d84f07970b831e70,6598e76e7fa14c73800c3d3d,0.0268,0.0268,1,71,233,16,1,onetwo,,,,,,,,,,,,,,,,,,,,,,,,,,,,,,,,,,,,,,,,,,,,,,,,,,,,,,,,,,,,,,,,,,,,,,,,,,,,,,,,,,,,,,,,,,,,,,,,,,,,,,,,,,,,,,,,,,,,,,,,,,,,,,,,,,,,,,,
,,613ac4fcfa4b7e01abd45dc7,2024-01-05_23h39.29.767,kallum_motion_pilot,2023.2.3,MacIntel,59.88023952,613ac4fcfa4b7e01abd45dc7,6598e6a5d84f07970b831e70,6598e76e7fa14c73800c3d3d,0.0272,0.0272,1,72,234,62,1,fourtwo,,,,,,,,,,,,,,,,,,,,,,,,,,,,,,,,,,,,,,,,,,,,,,,,,,,,,,,,,,,,,,,,,,,,,,,,,,,,,,,,,,,,,,,,,,,,,,,,,,,,,,,,,,,,,,,,,,,,,,,,,,,,,,,,,,,,,,,
,,613ac4fcfa4b7e01abd45dc7,2024-01-05_23h39.29.767,kallum_motion_pilot,2023.2.3,MacIntel,59.88023952,613ac4fcfa4b7e01abd45dc7,6598e6a5d84f07970b831e70,6598e76e7fa14c73800c3d3d,0.0273,0.0273,1,73,235,139,1,sixeight,,,,,,,,,,,,,,,,,,,,,,,,,,,,,,,,,,,,,,,,,,,,,,,,,,,,,,,,,,,,,,,,,,,,,,,,,,,,,,,,,,,,,,,,,,,,,,,,,,,,,,,,,,,,,,,,,,,,,,,,,,,,,,,,,,,,,,,
,,613ac4fcfa4b7e01abd45dc7,2024-01-05_23h39.29.767,kallum_motion_pilot,2023.2.3,MacIntel,59.88023952,613ac4fcfa4b7e01abd45dc7,6598e6a5d84f07970b831e70,6598e76e7fa14c73800c3d3d,0.0273,0.0273,1,74,236,136,1,fivesix,,,,,,,,,,,,,,,,,,,,,,,,,,,,,,,,,,,,,,,,,,,,,,,,,,,,,,,,,,,,,,,,,,,,,,,,,,,,,,,,,,,,,,,,,,,,,,,,,,,,,,,,,,,,,,,,,,,,,,,,,,,,,,,,,,,,,,,
,,613ac4fcfa4b7e01abd45dc7,2024-01-05_23h39.29.767,kallum_motion_pilot,2023.2.3,MacIntel,59.88023952,613ac4fcfa4b7e01abd45dc7,6598e6a5d84f07970b831e70,6598e76e7fa14c73800c3d3d,0.0274,0.0275,1,75,237,134,1,eightsix,,,,,,,,,,,,,,,,,,,,,,,,,,,,,,,,,,,,,,,,,,,,,,,,,,,,,,,,,,,,,,,,,,,,,,,,,,,,,,,,,,,,,,,,,,,,,,,,,,,,,,,,,,,,,,,,,,,,,,,,,,,,,,,,,,,,,,,
,,613ac4fcfa4b7e01abd45dc7,2024-01-05_23h39.29.767,kallum_motion_pilot,2023.2.3,MacIntel,59.88023952,613ac4fcfa4b7e01abd45dc7,6598e6a5d84f07970b831e70,6598e76e7fa14c73800c3d3d,0.0275,0.0275,1,76,238,67,1,twofour,,,,,,,,,,,,,,,,,,,,,,,,,,,,,,,,,,,,,,,,,,,,,,,,,,,,,,,,,,,,,,,,,,,,,,,,,,,,,,,,,,,,,,,,,,,,,,,,,,,,,,,,,,,,,,,,,,,,,,,,,,,,,,,,,,,,,,,
,,613ac4fcfa4b7e01abd45dc7,2024-01-05_23h39.29.767,kallum_motion_pilot,2023.2.3,MacIntel,59.88023952,613ac4fcfa4b7e01abd45dc7,6598e6a5d84f07970b831e70,6598e76e7fa14c73800c3d3d,0.0276,0.0276,1,77,239,65,1,onethree,,,,,,,,,,,,,,,,,,,,,,,,,,,,,,,,,,,,,,,,,,,,,,,,,,,,,,,,,,,,,,,,,,,,,,,,,,,,,,,,,,,,,,,,,,,,,,,,,,,,,,,,,,,,,,,,,,,,,,,,,,,,,,,,,,,,,,,
,,613ac4fcfa4b7e01abd45dc7,2024-01-05_23h39.29.767,kallum_motion_pilot,2023.2.3,MacIntel,59.88023952,613ac4fcfa4b7e01abd45dc7,6598e6a5d84f07970b831e70,6598e76e7fa14c73800c3d3d,0.0276,0.0276,1,78,240,152,1,fivesix,,,,,,,,,,,,,,,,,,,,,,,,,,,,,,,,,,,,,,,,,,,,,,,,,,,,,,,,,,,,,,,,,,,,,,,,,,,,,,,,,,,,,,,,,,,,,,,,,,,,,,,,,,,,,,,,,,,,,,,,,,,,,,,,,,,,,,,
,,613ac4fcfa4b7e01abd45dc7,2024-01-05_23h39.29.767,kallum_motion_pilot,2023.2.3,MacIntel,59.88023952,613ac4fcfa4b7e01abd45dc7,6598e6a5d84f07970b831e70,6598e76e7fa14c73800c3d3d,0.0276,0.0277,1,79,241,50,1,twoone,,,,,,,,,,,,,,,,,,,,,,,,,,,,,,,,,,,,,,,,,,,,,,,,,,,,,,,,,,,,,,,,,,,,,,,,,,,,,,,,,,,,,,,,,,,,,,,,,,,,,,,,,,,,,,,,,,,,,,,,,,,,,,,,,,,,,,,
,,613ac4fcfa4b7e01abd45dc7,2024-01-05_23h39.29.767,kallum_motion_pilot,2023.2.3,MacIntel,59.88023952,613ac4fcfa4b7e01abd45dc7,6598e6a5d84f07970b831e70,6598e76e7fa14c73800c3d3d,0.0277,0.0277,1,80,242,10,1,twoone,,,,,,,,,,,,,,,,,,,,,,,,,,,,,,,,,,,,,,,,,,,,,,,,,,,,,,,,,,,,,,,,,,,,,,,,,,,,,,,,,,,,,,,,,,,,,,,,,,,,,,,,,,,,,,,,,,,,,,,,,,,,,,,,,,,,,,,
,,613ac4fcfa4b7e01abd45dc7,2024-01-05_23h39.29.767,kallum_motion_pilot,2023.2.3,MacIntel,59.88023952,613ac4fcfa4b7e01abd45dc7,6598e6a5d84f07970b831e70,6598e76e7fa14c73800c3d3d,0.0278,0.0278,1,81,243,86,1,eightsix,,,,,,,,,,,,,,,,,,,,,,,,,,,,,,,,,,,,,,,,,,,,,,,,,,,,,,,,,,,,,,,,,,,,,,,,,,,,,,,,,,,,,,,,,,,,,,,,,,,,,,,,,,,,,,,,,,,,,,,,,,,,,,,,,,,,,,,
,,613ac4fcfa4b7e01abd45dc7,2024-01-05_23h39.29.767,kallum_motion_pilot,2023.2.3,MacIntel,59.88023952,613ac4fcfa4b7e01abd45dc7,6598e6a5d84f07970b831e70,6598e76e7fa14c73800c3d3d,0.0279,0.0279,1,82,244,49,1,onethree,,,,,,,,,,,,,,,,,,,,,,,,,,,,,,,,,,,,,,,,,,,,,,,,,,,,,,,,,,,,,,,,,,,,,,,,,,,,,,,,,,,,,,,,,,,,,,,,,,,,,,,,,,,,,,,,,,,,,,,,,,,,,,,,,,,,,,,
,,613ac4fcfa4b7e01abd45dc7,2024-01-05_23h39.29.767,kallum_motion_pilot,2023.2.3,MacIntel,59.88023952,613ac4fcfa4b7e01abd45dc7,6598e6a5d84f07970b831e70,6598e76e7fa14c73800c3d3d,0.0279,0.028,1,83,245,104,1,fivesix,,,,,,,,,,,,,,,,,,,,,,,,,,,,,,,,,,,,,,,,,,,,,,,,,,,,,,,,,,,,,,,,,,,,,,,,,,,,,,,,,,,,,,,,,,,,,,,,,,,,,,,,,,,,,,,,,,,,,,,,,,,,,,,,,,,,,,,
,,613ac4fcfa4b7e01abd45dc7,2024-01-05_23h39.29.767,kallum_motion_pilot,2023.2.3,MacIntel,59.88023952,613ac4fcfa4b7e01abd45dc7,6598e6a5d84f07970b831e70,6598e76e7fa14c73800c3d3d,0.028,0.0281,1,84,246,119,1,eightseven,,,,,,,,,,,,,,,,,,,,,,,,,,,,,,,,,,,,,,,,,,,,,,,,,,,,,,,,,,,,,,,,,,,,,,,,,,,,,,,,,,,,,,,,,,,,,,,,,,,,,,,,,,,,,,,,,,,,,,,,,,,,,,,,,,,,,,,
,,613ac4fcfa4b7e01abd45dc7,2024-01-05_23h39.29.767,kallum_motion_pilot,2023.2.3,MacIntel,59.88023952,613ac4fcfa4b7e01abd45dc7,6598e6a5d84f07970b831e70,6598e76e7fa14c73800c3d3d,0.0281,0.0281,1,85,247,44,1,threeone,,,,,,,,,,,,,,,,,,,,,,,,,,,,,,,,,,,,,,,,,,,,,,,,,,,,,,,,,,,,,,,,,,,,,,,,,,,,,,,,,,,,,,,,,,,,,,,,,,,,,,,,,,,,,,,,,,,,,,,,,,,,,,,,,,,,,,,
,,613ac4fcfa4b7e01abd45dc7,2024-01-05_23h39.29.767,kallum_motion_pilot,2023.2.3,MacIntel,59.88023952,613ac4fcfa4b7e01abd45dc7,6598e6a5d84f07970b831e70,6598e76e7fa14c73800c3d3d,0.0281,0.0282,1,86,248,60,1,threeone,,,,,,,,,,,,,,,,,,,,,,,,,,,,,,,,,,,,,,,,,,,,,,,,,,,,,,,,,,,,,,,,,,,,,,,,,,,,,,,,,,,,,,,,,,,,,,,,,,,,,,,,,,,,,,,,,,,,,,,,,,,,,,,,,,,,,,,
,,613ac4fcfa4b7e01abd45dc7,2024-01-05_23h39.29.767,kallum_motion_pilot,2023.2.3,MacIntel,59.88023952,613ac4fcfa4b7e01abd45dc7,6598e6a5d84f07970b831e70,6598e76e7fa14c73800c3d3d,0.0283,0.0283,1,87,249,42,1,twoone,,,,,,,,,,,,,,,,,,,,,,,,,,,,,,,,,,,,,,,,,,,,,,,,,,,,,,,,,,,,,,,,,,,,,,,,,,,,,,,,,,,,,,,,,,,,,,,,,,,,,,,,,,,,,,,,,,,,,,,,,,,,,,,,,,,,,,,
,,613ac4fcfa4b7e01abd45dc7,2024-01-05_23h39.29.767,kallum_motion_pilot,2023.2.3,MacIntel,59.88023952,613ac4fcfa4b7e01abd45dc7,6598e6a5d84f07970b831e70,6598e76e7fa14c73800c3d3d,0.0283,0.0284,1,88,250,75,1,twofour,,,,,,,,,,,,,,,,,,,,,,,,,,,,,,,,,,,,,,,,,,,,,,,,,,,,,,,,,,,,,,,,,,,,,,,,,,,,,,,,,,,,,,,,,,,,,,,,,,,,,,,,,,,,,,,,,,,,,,,,,,,,,,,,,,,,,,,
,,613ac4fcfa4b7e01abd45dc7,2024-01-05_23h39.29.767,kallum_motion_pilot,2023.2.3,MacIntel,59.88023952,613ac4fcfa4b7e01abd45dc7,6598e6a5d84f07970b831e70,6598e76e7fa14c73800c3d3d,0.0284,0.0284,1,89,251,52,1,threeone,,,,,,,,,,,,,,,,,,,,,,,,,,,,,,,,,,,,,,,,,,,,,,,,,,,,,,,,,,,,,,,,,,,,,,,,,,,,,,,,,,,,,,,,,,,,,,,,,,,,,,,,,,,,,,,,,,,,,,,,,,,,,,,,,,,,,,,
,,613ac4fcfa4b7e01abd45dc7,2024-01-05_23h39.29.767,kallum_motion_pilot,2023.2.3,MacIntel,59.88023952,613ac4fcfa4b7e01abd45dc7,6598e6a5d84f07970b831e70,6598e76e7fa14c73800c3d3d,0.0285,0.0285,1,90,252,41,1,onethree,,,,,,,,,,,,,,,,,,,,,,,,,,,,,,,,,,,,,,,,,,,,,,,,,,,,,,,,,,,,,,,,,,,,,,,,,,,,,,,,,,,,,,,,,,,,,,,,,,,,,,,,,,,,,,,,,,,,,,,,,,,,,,,,,,,,,,,
,,613ac4fcfa4b7e01abd45dc7,2024-01-05_23h39.29.767,kallum_motion_pilot,2023.2.3,MacIntel,59.88023952,613ac4fcfa4b7e01abd45dc7,6598e6a5d84f07970b831e70,6598e76e7fa14c73800c3d3d,0.0285,0.0286,1,91,253,130,1,sixfive,,,,,,,,,,,,,,,,,,,,,,,,,,,,,,,,,,,,,,,,,,,,,,,,,,,,,,,,,,,,,,,,,,,,,,,,,,,,,,,,,,,,,,,,,,,,,,,,,,,,,,,,,,,,,,,,,,,,,,,,,,,,,,,,,,,,,,,
,,613ac4fcfa4b7e01abd45dc7,2024-01-05_23h39.29.767,kallum_motion_pilot,2023.2.3,MacIntel,59.88023952,613ac4fcfa4b7e01abd45dc7,6598e6a5d84f07970b831e70,6598e76e7fa14c73800c3d3d,0.0286,0.0287,1,92,254,143,1,eightseven,,,,,,,,,,,,,,,,,,,,,,,,,,,,,,,,,,,,,,,,,,,,,,,,,,,,,,,,,,,,,,,,,,,,,,,,,,,,,,,,,,,,,,,,,,,,,,,,,,,,,,,,,,,,,,,,,,,,,,,,,,,,,,,,,,,,,,,
,,613ac4fcfa4b7e01abd45dc7,2024-01-05_23h39.29.767,kallum_motion_pilot,2023.2.3,MacIntel,59.88023952,613ac4fcfa4b7e01abd45dc7,6598e6a5d84f07970b831e70,6598e76e7fa14c73800c3d3d,0.0287,0.0287,1,93,255,51,1,twofour,,,,,,,,,,,,,,,,,,,,,,,,,,,,,,,,,,,,,,,,,,,,,,,,,,,,,,,,,,,,,,,,,,,,,,,,,,,,,,,,,,,,,,,,,,,,,,,,,,,,,,,,,,,,,,,,,,,,,,,,,,,,,,,,,,,,,,,
,,613ac4fcfa4b7e01abd45dc7,2024-01-05_23h39.29.767,kallum_motion_pilot,2023.2.3,MacIntel,59.88023952,613ac4fcfa4b7e01abd45dc7,6598e6a5d84f07970b831e70,6598e76e7fa14c73800c3d3d,0.0288,0.0288,1,94,256,96,1,fivesix,,,,,,,,,,,,,,,,,,,,,,,,,,,,,,,,,,,,,,,,,,,,,,,,,,,,,,,,,,,,,,,,,,,,,,,,,,,,,,,,,,,,,,,,,,,,,,,,,,,,,,,,,,,,,,,,,,,,,,,,,,,,,,,,,,,,,,,
,,613ac4fcfa4b7e01abd45dc7,2024-01-05_23h39.29.767,kallum_motion_pilot,2023.2.3,MacIntel,59.88023952,613ac4fcfa4b7e01abd45dc7,6598e6a5d84f07970b831e70,6598e76e7fa14c73800c3d3d,0.0289,0.0289,1,95,257,123,1,sixeight,,,,,,,,,,,,,,,,,,,,,,,,,,,,,,,,,,,,,,,,,,,,,,,,,,,,,,,,,,,,,,,,,,,,,,,,,,,,,,,,,,,,,,,,,,,,,,,,,,,,,,,,,,,,,,,,,,,,,,,,,,,,,,,,,,,,,,,
,,613ac4fcfa4b7e01abd45dc7,2024-01-05_23h39.29.767,kallum_motion_pilot,2023.2.3,MacIntel,59.88023952,613ac4fcfa4b7e01abd45dc7,6598e6a5d84f07970b831e70,6598e76e7fa14c73800c3d3d,0.0289,0.0289,1,96,258,3,1,twofour,,,,,,,,,,,,,,,,,,,,,,,,,,,,,,,,,,,,,,,,,,,,,,,,,,,,,,,,,,,,,,,,,,,,,,,,,,,,,,,,,,,,,,,,,,,,,,,,,,,,,,,,,,,,,,,,,,,,,,,,,,,,,,,,,,,,,,,
,,613ac4fcfa4b7e01abd45dc7,2024-01-05_23h39.29.767,kallum_motion_pilot,2023.2.3,MacIntel,59.88023952,613ac4fcfa4b7e01abd45dc7,6598e6a5d84f07970b831e70,6598e76e7fa14c73800c3d3d,0.029,0.0291,1,97,259,27,1,twofour,,,,,,,,,,,,,,,,,,,,,,,,,,,,,,,,,,,,,,,,,,,,,,,,,,,,,,,,,,,,,,,,,,,,,,,,,,,,,,,,,,,,,,,,,,,,,,,,,,,,,,,,,,,,,,,,,,,,,,,,,,,,,,,,,,,,,,,
,,613ac4fcfa4b7e01abd45dc7,2024-01-05_23h39.29.767,kallum_motion_pilot,2023.2.3,MacIntel,59.88023952,613ac4fcfa4b7e01abd45dc7,6598e6a5d84f07970b831e70,6598e76e7fa14c73800c3d3d,0.0291,0.0292,1,98,260,154,1,sixfive,,,,,,,,,,,,,,,,,,,,,,,,,,,,,,,,,,,,,,,,,,,,,,,,,,,,,,,,,,,,,,,,,,,,,,,,,,,,,,,,,,,,,,,,,,,,,,,,,,,,,,,,,,,,,,,,,,,,,,,,,,,,,,,,,,,,,,,
,,613ac4fcfa4b7e01abd45dc7,2024-01-05_23h39.29.767,kallum_motion_pilot,2023.2.3,MacIntel,59.88023952,613ac4fcfa4b7e01abd45dc7,6598e6a5d84f07970b831e70,6598e76e7fa14c73800c3d3d,0.0292,0.0292,1,99,261,102,1,eightsix,,,,,,,,,,,,,,,,,,,,,,,,,,,,,,,,,,,,,,,,,,,,,,,,,,,,,,,,,,,,,,,,,,,,,,,,,,,,,,,,,,,,,,,,,,,,,,,,,,,,,,,,,,,,,,,,,,,,,,,,,,,,,,,,,,,,,,,
,,613ac4fcfa4b7e01abd45dc7,2024-01-05_23h39.29.767,kallum_motion_pilot,2023.2.3,MacIntel,59.88023952,613ac4fcfa4b7e01abd45dc7,6598e6a5d84f07970b831e70,6598e76e7fa14c73800c3d3d,0.0292,0.0293,1,100,262,88,1,fivesix,,,,,,,,,,,,,,,,,,,,,,,,,,,,,,,,,,,,,,,,,,,,,,,,,,,,,,,,,,,,,,,,,,,,,,,,,,,,,,,,,,,,,,,,,,,,,,,,,,,,,,,,,,,,,,,,,,,,,,,,,,,,,,,,,,,,,,,
,,613ac4fcfa4b7e01abd45dc7,2024-01-05_23h39.29.767,kallum_motion_pilot,2023.2.3,MacIntel,59.88023952,613ac4fcfa4b7e01abd45dc7,6598e6a5d84f07970b831e70,6598e76e7fa14c73800c3d3d,0.0293,0.0293,1,101,263,18,1,twoone,,,,,,,,,,,,,,,,,,,,,,,,,,,,,,,,,,,,,,,,,,,,,,,,,,,,,,,,,,,,,,,,,,,,,,,,,,,,,,,,,,,,,,,,,,,,,,,,,,,,,,,,,,,,,,,,,,,,,,,,,,,,,,,,,,,,,,,
,,613ac4fcfa4b7e01abd45dc7,2024-01-05_23h39.29.767,kallum_motion_pilot,2023.2.3,MacIntel,59.88023952,613ac4fcfa4b7e01abd45dc7,6598e6a5d84f07970b831e70,6598e76e7fa14c73800c3d3d,0.0294,0.0294,1,102,264,113,1,fiveseven,,,,,,,,,,,,,,,,,,,,,,,,,,,,,,,,,,,,,,,,,,,,,,,,,,,,,,,,,,,,,,,,,,,,,,,,,,,,,,,,,,,,,,,,,,,,,,,,,,,,,,,,,,,,,,,,,,,,,,,,,,,,,,,,,,,,,,,
,,613ac4fcfa4b7e01abd45dc7,2024-01-05_23h39.29.767,kallum_motion_pilot,2023.2.3,MacIntel,59.88023952,613ac4fcfa4b7e01abd45dc7,6598e6a5d84f07970b831e70,6598e76e7fa14c73800c3d3d,0.0294,0.0295,1,103,265,15,1,fourthree,,,,,,,,,,,,,,,,,,,,,,,,,,,,,,,,,,,,,,,,,,,,,,,,,,,,,,,,,,,,,,,,,,,,,,,,,,,,,,,,,,,,,,,,,,,,,,,,,,,,,,,,,,,,,,,,,,,,,,,,,,,,,,,,,,,,,,,
,,613ac4fcfa4b7e01abd45dc7,2024-01-05_23h39.29.767,kallum_motion_pilot,2023.2.3,MacIntel,59.88023952,613ac4fcfa4b7e01abd45dc7,6598e6a5d84f07970b831e70,6598e76e7fa14c73800c3d3d,0.0295,0.0295,1,104,266,92,1,sevenfive,,,,,,,,,,,,,,,,,,,,,,,,,,,,,,,,,,,,,,,,,,,,,,,,,,,,,,,,,,,,,,,,,,,,,,,,,,,,,,,,,,,,,,,,,,,,,,,,,,,,,,,,,,,,,,,,,,,,,,,,,,,,,,,,,,,,,,,
,,613ac4fcfa4b7e01abd45dc7,2024-01-05_23h39.29.767,kallum_motion_pilot,2023.2.3,MacIntel,59.88023952,613ac4fcfa4b7e01abd45dc7,6598e6a5d84f07970b831e70,6598e76e7fa14c73800c3d3d,0.0296,0.0296,1,105,267,31,1,fourthree,,,,,,,,,,,,,,,,,,,,,,,,,,,,,,,,,,,,,,,,,,,,,,,,,,,,,,,,,,,,,,,,,,,,,,,,,,,,,,,,,,,,,,,,,,,,,,,,,,,,,,,,,,,,,,,,,,,,,,,,,,,,,,,,,,,,,,,
,,613ac4fcfa4b7e01abd45dc7,2024-01-05_23h39.29.767,kallum_motion_pilot,2023.2.3,MacIntel,59.88023952,613ac4fcfa4b7e01abd45dc7,6598e6a5d84f07970b831e70,6598e76e7fa14c73800c3d3d,0.0296,0.0297,1,106,268,24,1,onetwo,,,,,,,,,,,,,,,,,,,,,,,,,,,,,,,,,,,,,,,,,,,,,,,,,,,,,,,,,,,,,,,,,,,,,,,,,,,,,,,,,,,,,,,,,,,,,,,,,,,,,,,,,,,,,,,,,,,,,,,,,,,,,,,,,,,,,,,
,,613ac4fcfa4b7e01abd45dc7,2024-01-05_23h39.29.767,kallum_motion_pilot,2023.2.3,MacIntel,59.88023952,613ac4fcfa4b7e01abd45dc7,6598e6a5d84f07970b831e70,6598e76e7fa14c73800c3d3d,0.0297,0.0298,1,107,269,85,1,seveneight,,,,,,,,,,,,,,,,,,,,,,,,,,,,,,,,,,,,,,,,,,,,,,,,,,,,,,,,,,,,,,,,,,,,,,,,,,,,,,,,,,,,,,,,,,,,,,,,,,,,,,,,,,,,,,,,,,,,,,,,,,,,,,,,,,,,,,,
,,613ac4fcfa4b7e01abd45dc7,2024-01-05_23h39.29.767,kallum_motion_pilot,2023.2.3,MacIntel,59.88023952,613ac4fcfa4b7e01abd45dc7,6598e6a5d84f07970b831e70,6598e76e7fa14c73800c3d3d,0.0298,0.0298,1,108,270,74,1,twoone,,,,,,,,,,,,,,,,,,,,,,,,,,,,,,,,,,,,,,,,,,,,,,,,,,,,,,,,,,,,,,,,,,,,,,,,,,,,,,,,,,,,,,,,,,,,,,,,,,,,,,,,,,,,,,,,,,,,,,,,,,,,,,,,,,,,,,,
,,613ac4fcfa4b7e01abd45dc7,2024-01-05_23h39.29.767,kallum_motion_pilot,2023.2.3,MacIntel,59.88023952,613ac4fcfa4b7e01abd45dc7,6598e6a5d84f07970b831e70,6598e76e7fa14c73800c3d3d,0.0299,0.0299,1,109,271,100,1,sevenfive,,,,,,,,,,,,,,,,,,,,,,,,,,,,,,,,,,,,,,,,,,,,,,,,,,,,,,,,,,,,,,,,,,,,,,,,,,,,,,,,,,,,,,,,,,,,,,,,,,,,,,,,,,,,,,,,,,,,,,,,,,,,,,,,,,,,,,,
,,613ac4fcfa4b7e01abd45dc7,2024-01-05_23h39.29.767,kallum_motion_pilot,2023.2.3,MacIntel,59.88023952,613ac4fcfa4b7e01abd45dc7,6598e6a5d84f07970b831e70,6598e76e7fa14c73800c3d3d,0.03,0.03,1,110,272,19,1,twofour,,,,,,,,,,,,,,,,,,,,,,,,,,,,,,,,,,,,,,,,,,,,,,,,,,,,,,,,,,,,,,,,,,,,,,,,,,,,,,,,,,,,,,,,,,,,,,,,,,,,,,,,,,,,,,,,,,,,,,,,,,,,,,,,,,,,,,,
,,613ac4fcfa4b7e01abd45dc7,2024-01-05_23h39.29.767,kallum_motion_pilot,2023.2.3,MacIntel,59.88023952,613ac4fcfa4b7e01abd45dc7,6598e6a5d84f07970b831e70,6598e76e7fa14c73800c3d3d,0.03,0.03,1,111,273,111,1,eightseven,,,,,,,,,,,,,,,,,,,,,,,,,,,,,,,,,,,,,,,,,,,,,,,,,,,,,,,,,,,,,,,,,,,,,,,,,,,,,,,,,,,,,,,,,,,,,,,,,,,,,,,,,,,,,,,,,,,,,,,,,,,,,,,,,,,,,,,
,,613ac4fcfa4b7e01abd45dc7,2024-01-05_23h39.29.767,kallum_motion_pilot,2023.2.3,MacIntel,59.88023952,613ac4fcfa4b7e01abd45dc7,6598e6a5d84f07970b831e70,6598e76e7fa14c73800c3d3d,0.03,0.0301,1,112,274,133,1,seveneight,,,,,,,,,,,,,,,,,,,,,,,,,,,,,,,,,,,,,,,,,,,,,,,,,,,,,,,,,,,,,,,,,,,,,,,,,,,,,,,,,,,,,,,,,,,,,,,,,,,,,,,,,,,,,,,,,,,,,,,,,,,,,,,,,,,,,,,
,,613ac4fcfa4b7e01abd45dc7,2024-01-05_23h39.29.767,kallum_motion_pilot,2023.2.3,MacIntel,59.88023952,613ac4fcfa4b7e01abd45dc7,6598e6a5d84f07970b831e70,6598e76e7fa14c73800c3d3d,0.0301,0.0302,1,113,275,81,1,fiveseven,,,,,,,,,,,,,,,,,,,,,,,,,,,,,,,,,,,,,,,,,,,,,,,,,,,,,,,,,,,,,,,,,,,,,,,,,,,,,,,,,,,,,,,,,,,,,,,,,,,,,,,,,,,,,,,,,,,,,,,,,,,,,,,,,,,,,,,
,,613ac4fcfa4b7e01abd45dc7,2024-01-05_23h39.29.767,kallum_motion_pilot,2023.2.3,MacIntel,59.88023952,613ac4fcfa4b7e01abd45dc7,6598e6a5d84f07970b831e70,6598e76e7fa14c73800c3d3d,0.0303,0.0303,1,114,276,148,1,sevenfive,,,,,,,,,,,,,,,,,,,,,,,,,,,,,,,,,,,,,,,,,,,,,,,,,,,,,,,,,,,,,,,,,,,,,,,,,,,,,,,,,,,,,,,,,,,,,,,,,,,,,,,,,,,,,,,,,,,,,,,,,,,,,,,,,,,,,,,
